"success","trial_type","trial_index","time_elapsed","internal_node_id","subject","condition","condition_code","measure","measure_code","codeword","gender","age","education","chinese","fach","handedness","comment","hinschauen","ablenkung","gewissenhaft","rt","url","responses","stimulus","key_press","val","type","type_specific","category","cs_selected","response","target","task","indirect","nr_pres"
"true","fullscreen","0","17574","0.0-0.0","h7vjpp5p2h","one_one","1","direct_first","1","ig08we20","0","21","1","1","2","1","","0","1","0","","","","","","","","","","","","","","",""
"","external-html","1","46340","0.0-1.0","h7vjpp5p2h","one_one","1","direct_first","1","ig08we20","0","21","1","1","2","1","","0","1","0","28706","text/information.html","","","","","","","","","","","","",""
"","external-html","2","55543","0.0-2.0","h7vjpp5p2h","one_one","1","direct_first","1","ig08we20","0","21","1","1","2","1","","0","1","0","9153","text/consent.html","","","","","","","","","","","","",""
"","survey-html-form","3","108398","0.0-3.0","h7vjpp5p2h","one_one","1","direct_first","1","ig08we20","0","21","1","1","2","1","","0","1","0","52853","","{""codeword_enter"":""ig08we20""}","","","","","","","","","","","",""
"","survey-html-form","4","127070","0.0-4.0","h7vjpp5p2h","one_one","1","direct_first","1","ig08we20","0","21","1","1","2","1","","0","1","0","18669","","{""age"":""21"",""education"":""1"",""subject"":""2"",""gender"":""0"",""handedness"":""1"",""chinese"":""1""}","","","","","","","","","","","",""
"","survey-html-form","5","134135","0.0-5.0","h7vjpp5p2h","one_one","1","direct_first","1","ig08we20","0","21","1","1","2","1","","0","1","0","7064","","{}","","","","","","","","","","","",""
"","html-keyboard-response","6","138139","0.0-6.0-0.0-0.0","h7vjpp5p2h","one_one","1","direct_first","1","ig08we20","0","21","1","1","2","1","","0","1","0","null","","","<div class = 'row'><div class = 'column'><img src = 'usneg/2900.bmp' width = '100%;'></div><div class = 'column'><img src = 'category3/CS4.png' width = '70%;'></div></div>","null","neg","CS","CS","3","category3/CS4.png","","","","",""
"","html-keyboard-response","7","140642","0.0-6.0-0.0-0.1","h7vjpp5p2h","one_one","1","direct_first","1","ig08we20","0","21","1","1","2","1","","0","1","0","null","","","<div class = 'row'><div class = 'column'><img src = 'uspos/1440.bmp' width = '100%;'></div><div class = 'column'><img src = 'category4/CS9.png' width = '70%;'></div></div>","null","pos","CS","CS","4","category4/CS9.png","","","","",""
"","html-keyboard-response","8","143146","0.0-6.0-0.0-0.2","h7vjpp5p2h","one_one","1","direct_first","1","ig08we20","0","21","1","1","2","1","","0","1","0","null","","","<div class = 'row'><div class = 'column'><img src = 'usneg/6020.bmp' width = '100%;'></div><div class = 'column'><img src = 'category2/CS2.png' width = '70%;'></div></div>","null","neg","CS","CS","2","category2/CS2.png","","","","",""
"","html-keyboard-response","9","145648","0.0-6.0-0.0-0.3","h7vjpp5p2h","one_one","1","direct_first","1","ig08we20","0","21","1","1","2","1","","0","1","0","null","","","<div class = 'row'><div class = 'column'><img src = 'category3/CS4.png' width = '70%;'></div><div class = 'column'><img src = 'usneg/2900.bmp' width = '100%;'></div></div>","null","neg","CS","CS","3","category3/CS4.png","","","","",""
"","html-keyboard-response","10","148153","0.0-6.0-0.0-0.4","h7vjpp5p2h","one_one","1","direct_first","1","ig08we20","0","21","1","1","2","1","","0","1","0","null","","","<div class = 'row'><div class = 'column'><img src = 'category2/CS2.png' width = '70%;'></div><div class = 'column'><img src = 'usneg/6020.bmp' width = '100%;'></div></div>","null","neg","CS","CS","2","category2/CS2.png","","","","",""
"","html-keyboard-response","11","150657","0.0-6.0-0.0-0.5","h7vjpp5p2h","one_one","1","direct_first","1","ig08we20","0","21","1","1","2","1","","0","1","0","null","","","<div class = 'row'><div class = 'column'><img src = 'uspos/5700.bmp' width = '100%;'></div><div class = 'column'><img src = 'category1/CS8.png' width = '70%;'></div></div>","null","pos","CS","CS","1","category1/CS8.png","","","","",""
"","html-keyboard-response","12","153160","0.0-6.0-0.0-0.6","h7vjpp5p2h","one_one","1","direct_first","1","ig08we20","0","21","1","1","2","1","","0","1","0","null","","","<div class = 'row'><div class = 'column'><img src = 'category4/CS9.png' width = '70%;'></div><div class = 'column'><img src = 'uspos/1440.bmp' width = '100%;'></div></div>","null","pos","CS","CS","4","category4/CS9.png","","","","",""
"","html-keyboard-response","13","155664","0.0-6.0-0.0-0.7","h7vjpp5p2h","one_one","1","direct_first","1","ig08we20","0","21","1","1","2","1","","0","1","0","null","","","<div class = 'row'><div class = 'column'><img src = 'category1/CS8.png' width = '70%;'></div><div class = 'column'><img src = 'uspos/5700.bmp' width = '100%;'></div></div>","null","pos","CS","CS","1","category1/CS8.png","","","","",""
"","html-keyboard-response","14","158167","0.0-6.0-0.0-0.8","h7vjpp5p2h","one_one","1","direct_first","1","ig08we20","0","21","1","1","2","1","","0","1","0","null","","","<div class = 'row'><div class = 'column'><img src = 'uspos/1440.bmp' width = '100%;'></div><div class = 'column'><img src = 'category4/CS9.png' width = '70%;'></div></div>","null","pos","CS","CS","4","category4/CS9.png","","","","",""
"","html-keyboard-response","15","160670","0.0-6.0-0.0-0.9","h7vjpp5p2h","one_one","1","direct_first","1","ig08we20","0","21","1","1","2","1","","0","1","0","null","","","<div class = 'row'><div class = 'column'><img src = 'uspos/5700.bmp' width = '100%;'></div><div class = 'column'><img src = 'category1/CS8.png' width = '70%;'></div></div>","null","pos","CS","CS","1","category1/CS8.png","","","","",""
"","html-keyboard-response","16","163174","0.0-6.0-0.0-0.10","h7vjpp5p2h","one_one","1","direct_first","1","ig08we20","0","21","1","1","2","1","","0","1","0","null","","","<div class = 'row'><div class = 'column'><img src = 'uspos/1440.bmp' width = '100%;'></div><div class = 'column'><img src = 'category4/CS9.png' width = '70%;'></div></div>","null","pos","CS","CS","4","category4/CS9.png","","","","",""
"","html-keyboard-response","17","165676","0.0-6.0-0.0-0.11","h7vjpp5p2h","one_one","1","direct_first","1","ig08we20","0","21","1","1","2","1","","0","1","0","null","","","<div class = 'row'><div class = 'column'><img src = 'category3/CS4.png' width = '70%;'></div><div class = 'column'><img src = 'usneg/2900.bmp' width = '100%;'></div></div>","null","neg","CS","CS","3","category3/CS4.png","","","","",""
"","html-keyboard-response","18","168178","0.0-6.0-0.0-0.12","h7vjpp5p2h","one_one","1","direct_first","1","ig08we20","0","21","1","1","2","1","","0","1","0","null","","","<div class = 'row'><div class = 'column'><img src = 'category4/CS9.png' width = '70%;'></div><div class = 'column'><img src = 'uspos/1440.bmp' width = '100%;'></div></div>","null","pos","CS","CS","4","category4/CS9.png","","","","",""
"","html-keyboard-response","19","170680","0.0-6.0-0.0-0.13","h7vjpp5p2h","one_one","1","direct_first","1","ig08we20","0","21","1","1","2","1","","0","1","0","null","","","<div class = 'row'><div class = 'column'><img src = 'category1/CS8.png' width = '70%;'></div><div class = 'column'><img src = 'uspos/5700.bmp' width = '100%;'></div></div>","null","pos","CS","CS","1","category1/CS8.png","","","","",""
"","html-keyboard-response","20","173182","0.0-6.0-0.0-0.14","h7vjpp5p2h","one_one","1","direct_first","1","ig08we20","0","21","1","1","2","1","","0","1","0","null","","","<div class = 'row'><div class = 'column'><img src = 'category2/CS2.png' width = '70%;'></div><div class = 'column'><img src = 'usneg/6020.bmp' width = '100%;'></div></div>","null","neg","CS","CS","2","category2/CS2.png","","","","",""
"","html-keyboard-response","21","175685","0.0-6.0-0.0-0.15","h7vjpp5p2h","one_one","1","direct_first","1","ig08we20","0","21","1","1","2","1","","0","1","0","null","","","<div class = 'row'><div class = 'column'><img src = 'usneg/2900.bmp' width = '100%;'></div><div class = 'column'><img src = 'category3/CS4.png' width = '70%;'></div></div>","null","neg","CS","CS","3","category3/CS4.png","","","","",""
"","html-keyboard-response","22","178188","0.0-6.0-0.0-0.16","h7vjpp5p2h","one_one","1","direct_first","1","ig08we20","0","21","1","1","2","1","","0","1","0","null","","","<div class = 'row'><div class = 'column'><img src = 'usneg/6020.bmp' width = '100%;'></div><div class = 'column'><img src = 'category2/CS2.png' width = '70%;'></div></div>","null","neg","CS","CS","2","category2/CS2.png","","","","",""
"","html-keyboard-response","23","180689","0.0-6.0-0.0-0.17","h7vjpp5p2h","one_one","1","direct_first","1","ig08we20","0","21","1","1","2","1","","0","1","0","null","","","<div class = 'row'><div class = 'column'><img src = 'category1/CS8.png' width = '70%;'></div><div class = 'column'><img src = 'uspos/5700.bmp' width = '100%;'></div></div>","null","pos","CS","CS","1","category1/CS8.png","","","","",""
"","html-keyboard-response","24","183192","0.0-6.0-0.0-0.18","h7vjpp5p2h","one_one","1","direct_first","1","ig08we20","0","21","1","1","2","1","","0","1","0","null","","","<div class = 'row'><div class = 'column'><img src = 'category2/CS2.png' width = '70%;'></div><div class = 'column'><img src = 'usneg/6020.bmp' width = '100%;'></div></div>","null","neg","CS","CS","2","category2/CS2.png","","","","",""
"","html-keyboard-response","25","185694","0.0-6.0-0.0-0.19","h7vjpp5p2h","one_one","1","direct_first","1","ig08we20","0","21","1","1","2","1","","0","1","0","null","","","<div class = 'row'><div class = 'column'><img src = 'category3/CS4.png' width = '70%;'></div><div class = 'column'><img src = 'usneg/2900.bmp' width = '100%;'></div></div>","null","neg","CS","CS","3","category3/CS4.png","","","","",""
"","survey-html-form","26","188759","0.0-6.0-1.0","h7vjpp5p2h","one_one","1","direct_first","1","ig08we20","0","21","1","1","2","1","","0","1","0","2562","","{}","","","","","","","","","","","",""
"","html-keyboard-response","27","192761","0.0-6.0-2.0-0.0","h7vjpp5p2h","one_one","1","direct_first","1","ig08we20","0","21","1","1","2","1","","0","1","0","null","","","<div class = 'row'><div class = 'column'><img src = 'category1/CS8.png' width = '70%;'></div><div class = 'column'><img src = 'uspos/5700.bmp' width = '100%;'></div></div>","null","pos","CS","CS","1","category1/CS8.png","","","","",""
"","html-keyboard-response","28","195264","0.0-6.0-2.0-0.1","h7vjpp5p2h","one_one","1","direct_first","1","ig08we20","0","21","1","1","2","1","","0","1","0","null","","","<div class = 'row'><div class = 'column'><img src = 'usneg/2900.bmp' width = '100%;'></div><div class = 'column'><img src = 'category3/CS4.png' width = '70%;'></div></div>","null","neg","CS","CS","3","category3/CS4.png","","","","",""
"","html-keyboard-response","29","197767","0.0-6.0-2.0-0.2","h7vjpp5p2h","one_one","1","direct_first","1","ig08we20","0","21","1","1","2","1","","0","1","0","null","","","<div class = 'row'><div class = 'column'><img src = 'category1/CS8.png' width = '70%;'></div><div class = 'column'><img src = 'uspos/5700.bmp' width = '100%;'></div></div>","null","pos","CS","CS","1","category1/CS8.png","","","","",""
"","html-keyboard-response","30","200270","0.0-6.0-2.0-0.3","h7vjpp5p2h","one_one","1","direct_first","1","ig08we20","0","21","1","1","2","1","","0","1","0","null","","","<div class = 'row'><div class = 'column'><img src = 'category3/CS4.png' width = '70%;'></div><div class = 'column'><img src = 'usneg/2900.bmp' width = '100%;'></div></div>","null","neg","CS","CS","3","category3/CS4.png","","","","",""
"","html-keyboard-response","31","202772","0.0-6.0-2.0-0.4","h7vjpp5p2h","one_one","1","direct_first","1","ig08we20","0","21","1","1","2","1","","0","1","0","null","","","<div class = 'row'><div class = 'column'><img src = 'category2/CS2.png' width = '70%;'></div><div class = 'column'><img src = 'usneg/6020.bmp' width = '100%;'></div></div>","null","neg","CS","CS","2","category2/CS2.png","","","","",""
"","html-keyboard-response","32","205273","0.0-6.0-2.0-0.5","h7vjpp5p2h","one_one","1","direct_first","1","ig08we20","0","21","1","1","2","1","","0","1","0","null","","","<div class = 'row'><div class = 'column'><img src = 'category3/CS4.png' width = '70%;'></div><div class = 'column'><img src = 'usneg/2900.bmp' width = '100%;'></div></div>","null","neg","CS","CS","3","category3/CS4.png","","","","",""
"","html-keyboard-response","33","207776","0.0-6.0-2.0-0.6","h7vjpp5p2h","one_one","1","direct_first","1","ig08we20","0","21","1","1","2","1","","0","1","0","null","","","<div class = 'row'><div class = 'column'><img src = 'uspos/5700.bmp' width = '100%;'></div><div class = 'column'><img src = 'category1/CS8.png' width = '70%;'></div></div>","null","pos","CS","CS","1","category1/CS8.png","","","","",""
"","html-keyboard-response","34","210278","0.0-6.0-2.0-0.7","h7vjpp5p2h","one_one","1","direct_first","1","ig08we20","0","21","1","1","2","1","","0","1","0","null","","","<div class = 'row'><div class = 'column'><img src = 'category2/CS2.png' width = '70%;'></div><div class = 'column'><img src = 'usneg/6020.bmp' width = '100%;'></div></div>","null","neg","CS","CS","2","category2/CS2.png","","","","",""
"","html-keyboard-response","35","212779","0.0-6.0-2.0-0.8","h7vjpp5p2h","one_one","1","direct_first","1","ig08we20","0","21","1","1","2","1","","0","1","0","null","","","<div class = 'row'><div class = 'column'><img src = 'category4/CS9.png' width = '70%;'></div><div class = 'column'><img src = 'uspos/1440.bmp' width = '100%;'></div></div>","null","pos","CS","CS","4","category4/CS9.png","","","","",""
"","html-keyboard-response","36","215281","0.0-6.0-2.0-0.9","h7vjpp5p2h","one_one","1","direct_first","1","ig08we20","0","21","1","1","2","1","","0","1","0","null","","","<div class = 'row'><div class = 'column'><img src = 'usneg/2900.bmp' width = '100%;'></div><div class = 'column'><img src = 'category3/CS4.png' width = '70%;'></div></div>","null","neg","CS","CS","3","category3/CS4.png","","","","",""
"","html-keyboard-response","37","217783","0.0-6.0-2.0-0.10","h7vjpp5p2h","one_one","1","direct_first","1","ig08we20","0","21","1","1","2","1","","0","1","0","null","","","<div class = 'row'><div class = 'column'><img src = 'category2/CS2.png' width = '70%;'></div><div class = 'column'><img src = 'usneg/6020.bmp' width = '100%;'></div></div>","null","neg","CS","CS","2","category2/CS2.png","","","","",""
"","html-keyboard-response","38","220286","0.0-6.0-2.0-0.11","h7vjpp5p2h","one_one","1","direct_first","1","ig08we20","0","21","1","1","2","1","","0","1","0","null","","","<div class = 'row'><div class = 'column'><img src = 'category1/CS8.png' width = '70%;'></div><div class = 'column'><img src = 'uspos/5700.bmp' width = '100%;'></div></div>","null","pos","CS","CS","1","category1/CS8.png","","","","",""
"","html-keyboard-response","39","222787","0.0-6.0-2.0-0.12","h7vjpp5p2h","one_one","1","direct_first","1","ig08we20","0","21","1","1","2","1","","0","1","0","null","","","<div class = 'row'><div class = 'column'><img src = 'uspos/1440.bmp' width = '100%;'></div><div class = 'column'><img src = 'category4/CS9.png' width = '70%;'></div></div>","null","pos","CS","CS","4","category4/CS9.png","","","","",""
"","html-keyboard-response","40","225290","0.0-6.0-2.0-0.13","h7vjpp5p2h","one_one","1","direct_first","1","ig08we20","0","21","1","1","2","1","","0","1","0","null","","","<div class = 'row'><div class = 'column'><img src = 'category2/CS2.png' width = '70%;'></div><div class = 'column'><img src = 'usneg/6020.bmp' width = '100%;'></div></div>","null","neg","CS","CS","2","category2/CS2.png","","","","",""
"","html-keyboard-response","41","227792","0.0-6.0-2.0-0.14","h7vjpp5p2h","one_one","1","direct_first","1","ig08we20","0","21","1","1","2","1","","0","1","0","null","","","<div class = 'row'><div class = 'column'><img src = 'category4/CS9.png' width = '70%;'></div><div class = 'column'><img src = 'uspos/1440.bmp' width = '100%;'></div></div>","null","pos","CS","CS","4","category4/CS9.png","","","","",""
"","html-keyboard-response","42","230295","0.0-6.0-2.0-0.15","h7vjpp5p2h","one_one","1","direct_first","1","ig08we20","0","21","1","1","2","1","","0","1","0","null","","","<div class = 'row'><div class = 'column'><img src = 'uspos/5700.bmp' width = '100%;'></div><div class = 'column'><img src = 'category1/CS8.png' width = '70%;'></div></div>","null","pos","CS","CS","1","category1/CS8.png","","","","",""
"","html-keyboard-response","43","232797","0.0-6.0-2.0-0.16","h7vjpp5p2h","one_one","1","direct_first","1","ig08we20","0","21","1","1","2","1","","0","1","0","null","","","<div class = 'row'><div class = 'column'><img src = 'category2/CS2.png' width = '70%;'></div><div class = 'column'><img src = 'usneg/6020.bmp' width = '100%;'></div></div>","null","neg","CS","CS","2","category2/CS2.png","","","","",""
"","html-keyboard-response","44","235300","0.0-6.0-2.0-0.17","h7vjpp5p2h","one_one","1","direct_first","1","ig08we20","0","21","1","1","2","1","","0","1","0","null","","","<div class = 'row'><div class = 'column'><img src = 'uspos/1440.bmp' width = '100%;'></div><div class = 'column'><img src = 'category4/CS9.png' width = '70%;'></div></div>","null","pos","CS","CS","4","category4/CS9.png","","","","",""
"","html-keyboard-response","45","237803","0.0-6.0-2.0-0.18","h7vjpp5p2h","one_one","1","direct_first","1","ig08we20","0","21","1","1","2","1","","0","1","0","null","","","<div class = 'row'><div class = 'column'><img src = 'usneg/2900.bmp' width = '100%;'></div><div class = 'column'><img src = 'category3/CS4.png' width = '70%;'></div></div>","null","neg","CS","CS","3","category3/CS4.png","","","","",""
"","html-keyboard-response","46","240306","0.0-6.0-2.0-0.19","h7vjpp5p2h","one_one","1","direct_first","1","ig08we20","0","21","1","1","2","1","","0","1","0","null","","","<div class = 'row'><div class = 'column'><img src = 'uspos/1440.bmp' width = '100%;'></div><div class = 'column'><img src = 'category4/CS9.png' width = '70%;'></div></div>","null","pos","CS","CS","4","category4/CS9.png","","","","",""
"","survey-html-form","47","242892","0.0-6.0-3.0","h7vjpp5p2h","one_one","1","direct_first","1","ig08we20","0","21","1","1","2","1","","0","1","0","2086","","{}","","","","","","","","","","","",""
"","html-keyboard-response","48","246896","0.0-6.0-4.0-0.0","h7vjpp5p2h","one_one","1","direct_first","1","ig08we20","0","21","1","1","2","1","","0","1","0","null","","","<div class = 'row'><div class = 'column'><img src = 'category2/CS2.png' width = '70%;'></div><div class = 'column'><img src = 'usneg/6020.bmp' width = '100%;'></div></div>","null","neg","CS","CS","2","category2/CS2.png","","","","",""
"","html-keyboard-response","49","249397","0.0-6.0-4.0-0.1","h7vjpp5p2h","one_one","1","direct_first","1","ig08we20","0","21","1","1","2","1","","0","1","0","null","","","<div class = 'row'><div class = 'column'><img src = 'uspos/1440.bmp' width = '100%;'></div><div class = 'column'><img src = 'category4/CS9.png' width = '70%;'></div></div>","null","pos","CS","CS","4","category4/CS9.png","","","","",""
"","html-keyboard-response","50","251901","0.0-6.0-4.0-0.2","h7vjpp5p2h","one_one","1","direct_first","1","ig08we20","0","21","1","1","2","1","","0","1","0","null","","","<div class = 'row'><div class = 'column'><img src = 'category3/CS4.png' width = '70%;'></div><div class = 'column'><img src = 'usneg/2900.bmp' width = '100%;'></div></div>","null","neg","CS","CS","3","category3/CS4.png","","","","",""
"","html-keyboard-response","51","254402","0.0-6.0-4.0-0.3","h7vjpp5p2h","one_one","1","direct_first","1","ig08we20","0","21","1","1","2","1","","0","1","0","null","","","<div class = 'row'><div class = 'column'><img src = 'category4/CS9.png' width = '70%;'></div><div class = 'column'><img src = 'uspos/1440.bmp' width = '100%;'></div></div>","null","pos","CS","CS","4","category4/CS9.png","","","","",""
"","html-keyboard-response","52","256906","0.0-6.0-4.0-0.4","h7vjpp5p2h","one_one","1","direct_first","1","ig08we20","0","21","1","1","2","1","","0","1","0","null","","","<div class = 'row'><div class = 'column'><img src = 'uspos/5700.bmp' width = '100%;'></div><div class = 'column'><img src = 'category1/CS8.png' width = '70%;'></div></div>","null","pos","CS","CS","1","category1/CS8.png","","","","",""
"","html-keyboard-response","53","259408","0.0-6.0-4.0-0.5","h7vjpp5p2h","one_one","1","direct_first","1","ig08we20","0","21","1","1","2","1","","0","1","0","null","","","<div class = 'row'><div class = 'column'><img src = 'category4/CS9.png' width = '70%;'></div><div class = 'column'><img src = 'uspos/1440.bmp' width = '100%;'></div></div>","null","pos","CS","CS","4","category4/CS9.png","","","","",""
"","html-keyboard-response","54","261909","0.0-6.0-4.0-0.6","h7vjpp5p2h","one_one","1","direct_first","1","ig08we20","0","21","1","1","2","1","","0","1","0","null","","","<div class = 'row'><div class = 'column'><img src = 'category1/CS8.png' width = '70%;'></div><div class = 'column'><img src = 'uspos/5700.bmp' width = '100%;'></div></div>","null","pos","CS","CS","1","category1/CS8.png","","","","",""
"","html-keyboard-response","55","264412","0.0-6.0-4.0-0.7","h7vjpp5p2h","one_one","1","direct_first","1","ig08we20","0","21","1","1","2","1","","0","1","0","null","","","<div class = 'row'><div class = 'column'><img src = 'usneg/6020.bmp' width = '100%;'></div><div class = 'column'><img src = 'category2/CS2.png' width = '70%;'></div></div>","null","neg","CS","CS","2","category2/CS2.png","","","","",""
"","html-keyboard-response","56","266913","0.0-6.0-4.0-0.8","h7vjpp5p2h","one_one","1","direct_first","1","ig08we20","0","21","1","1","2","1","","0","1","0","null","","","<div class = 'row'><div class = 'column'><img src = 'usneg/2900.bmp' width = '100%;'></div><div class = 'column'><img src = 'category3/CS4.png' width = '70%;'></div></div>","null","neg","CS","CS","3","category3/CS4.png","","","","",""
"","html-keyboard-response","57","269415","0.0-6.0-4.0-0.9","h7vjpp5p2h","one_one","1","direct_first","1","ig08we20","0","21","1","1","2","1","","0","1","0","null","","","<div class = 'row'><div class = 'column'><img src = 'category1/CS8.png' width = '70%;'></div><div class = 'column'><img src = 'uspos/5700.bmp' width = '100%;'></div></div>","null","pos","CS","CS","1","category1/CS8.png","","","","",""
"","html-keyboard-response","58","271916","0.0-6.0-4.0-0.10","h7vjpp5p2h","one_one","1","direct_first","1","ig08we20","0","21","1","1","2","1","","0","1","0","null","","","<div class = 'row'><div class = 'column'><img src = 'usneg/6020.bmp' width = '100%;'></div><div class = 'column'><img src = 'category2/CS2.png' width = '70%;'></div></div>","null","neg","CS","CS","2","category2/CS2.png","","","","",""
"","html-keyboard-response","59","274418","0.0-6.0-4.0-0.11","h7vjpp5p2h","one_one","1","direct_first","1","ig08we20","0","21","1","1","2","1","","0","1","0","null","","","<div class = 'row'><div class = 'column'><img src = 'category1/CS8.png' width = '70%;'></div><div class = 'column'><img src = 'uspos/5700.bmp' width = '100%;'></div></div>","null","pos","CS","CS","1","category1/CS8.png","","","","",""
"","html-keyboard-response","60","276921","0.0-6.0-4.0-0.12","h7vjpp5p2h","one_one","1","direct_first","1","ig08we20","0","21","1","1","2","1","","0","1","0","null","","","<div class = 'row'><div class = 'column'><img src = 'usneg/2900.bmp' width = '100%;'></div><div class = 'column'><img src = 'category3/CS4.png' width = '70%;'></div></div>","null","neg","CS","CS","3","category3/CS4.png","","","","",""
"","html-keyboard-response","61","279423","0.0-6.0-4.0-0.13","h7vjpp5p2h","one_one","1","direct_first","1","ig08we20","0","21","1","1","2","1","","0","1","0","null","","","<div class = 'row'><div class = 'column'><img src = 'category1/CS8.png' width = '70%;'></div><div class = 'column'><img src = 'uspos/5700.bmp' width = '100%;'></div></div>","null","pos","CS","CS","1","category1/CS8.png","","","","",""
"","html-keyboard-response","62","281926","0.0-6.0-4.0-0.14","h7vjpp5p2h","one_one","1","direct_first","1","ig08we20","0","21","1","1","2","1","","0","1","0","null","","","<div class = 'row'><div class = 'column'><img src = 'usneg/6020.bmp' width = '100%;'></div><div class = 'column'><img src = 'category2/CS2.png' width = '70%;'></div></div>","null","neg","CS","CS","2","category2/CS2.png","","","","",""
"","html-keyboard-response","63","284428","0.0-6.0-4.0-0.15","h7vjpp5p2h","one_one","1","direct_first","1","ig08we20","0","21","1","1","2","1","","0","1","0","null","","","<div class = 'row'><div class = 'column'><img src = 'category3/CS4.png' width = '70%;'></div><div class = 'column'><img src = 'usneg/2900.bmp' width = '100%;'></div></div>","null","neg","CS","CS","3","category3/CS4.png","","","","",""
"","html-keyboard-response","64","286930","0.0-6.0-4.0-0.16","h7vjpp5p2h","one_one","1","direct_first","1","ig08we20","0","21","1","1","2","1","","0","1","0","null","","","<div class = 'row'><div class = 'column'><img src = 'uspos/1440.bmp' width = '100%;'></div><div class = 'column'><img src = 'category4/CS9.png' width = '70%;'></div></div>","null","pos","CS","CS","4","category4/CS9.png","","","","",""
"","html-keyboard-response","65","289432","0.0-6.0-4.0-0.17","h7vjpp5p2h","one_one","1","direct_first","1","ig08we20","0","21","1","1","2","1","","0","1","0","null","","","<div class = 'row'><div class = 'column'><img src = 'category3/CS4.png' width = '70%;'></div><div class = 'column'><img src = 'usneg/2900.bmp' width = '100%;'></div></div>","null","neg","CS","CS","3","category3/CS4.png","","","","",""
"","html-keyboard-response","66","291934","0.0-6.0-4.0-0.18","h7vjpp5p2h","one_one","1","direct_first","1","ig08we20","0","21","1","1","2","1","","0","1","0","null","","","<div class = 'row'><div class = 'column'><img src = 'category2/CS2.png' width = '70%;'></div><div class = 'column'><img src = 'usneg/6020.bmp' width = '100%;'></div></div>","null","neg","CS","CS","2","category2/CS2.png","","","","",""
"","html-keyboard-response","67","294435","0.0-6.0-4.0-0.19","h7vjpp5p2h","one_one","1","direct_first","1","ig08we20","0","21","1","1","2","1","","0","1","0","null","","","<div class = 'row'><div class = 'column'><img src = 'category4/CS9.png' width = '70%;'></div><div class = 'column'><img src = 'uspos/1440.bmp' width = '100%;'></div></div>","null","pos","CS","CS","4","category4/CS9.png","","","","",""
"","survey-html-form","68","297560","0.0-6.0-5.0","h7vjpp5p2h","one_one","1","direct_first","1","ig08we20","0","21","1","1","2","1","","0","1","0","2622","","{}","","","","","","","","","","","",""
"","html-keyboard-response","69","301563","0.0-6.0-6.0-0.0","h7vjpp5p2h","one_one","1","direct_first","1","ig08we20","0","21","1","1","2","1","","0","1","0","null","","","<div class = 'row'><div class = 'column'><img src = 'category2/CS2.png' width = '70%;'></div><div class = 'column'><img src = 'usneg/6020.bmp' width = '100%;'></div></div>","null","neg","CS","CS","2","category2/CS2.png","","","","",""
"","html-keyboard-response","70","304064","0.0-6.0-6.0-0.1","h7vjpp5p2h","one_one","1","direct_first","1","ig08we20","0","21","1","1","2","1","","0","1","0","null","","","<div class = 'row'><div class = 'column'><img src = 'category3/CS4.png' width = '70%;'></div><div class = 'column'><img src = 'usneg/2900.bmp' width = '100%;'></div></div>","null","neg","CS","CS","3","category3/CS4.png","","","","",""
"","html-keyboard-response","71","306566","0.0-6.0-6.0-0.2","h7vjpp5p2h","one_one","1","direct_first","1","ig08we20","0","21","1","1","2","1","","0","1","0","null","","","<div class = 'row'><div class = 'column'><img src = 'uspos/5700.bmp' width = '100%;'></div><div class = 'column'><img src = 'category1/CS8.png' width = '70%;'></div></div>","null","pos","CS","CS","1","category1/CS8.png","","","","",""
"","html-keyboard-response","72","309068","0.0-6.0-6.0-0.3","h7vjpp5p2h","one_one","1","direct_first","1","ig08we20","0","21","1","1","2","1","","0","1","0","null","","","<div class = 'row'><div class = 'column'><img src = 'category2/CS2.png' width = '70%;'></div><div class = 'column'><img src = 'usneg/6020.bmp' width = '100%;'></div></div>","null","neg","CS","CS","2","category2/CS2.png","","","","",""
"","html-keyboard-response","73","311571","0.0-6.0-6.0-0.4","h7vjpp5p2h","one_one","1","direct_first","1","ig08we20","0","21","1","1","2","1","","0","1","0","null","","","<div class = 'row'><div class = 'column'><img src = 'uspos/1440.bmp' width = '100%;'></div><div class = 'column'><img src = 'category4/CS9.png' width = '70%;'></div></div>","null","pos","CS","CS","4","category4/CS9.png","","","","",""
"","html-keyboard-response","74","314072","0.0-6.0-6.0-0.5","h7vjpp5p2h","one_one","1","direct_first","1","ig08we20","0","21","1","1","2","1","","0","1","0","null","","","<div class = 'row'><div class = 'column'><img src = 'usneg/2900.bmp' width = '100%;'></div><div class = 'column'><img src = 'category3/CS4.png' width = '70%;'></div></div>","null","neg","CS","CS","3","category3/CS4.png","","","","",""
"","html-keyboard-response","75","316574","0.0-6.0-6.0-0.6","h7vjpp5p2h","one_one","1","direct_first","1","ig08we20","0","21","1","1","2","1","","0","1","0","null","","","<div class = 'row'><div class = 'column'><img src = 'category1/CS8.png' width = '70%;'></div><div class = 'column'><img src = 'uspos/5700.bmp' width = '100%;'></div></div>","null","pos","CS","CS","1","category1/CS8.png","","","","",""
"","html-keyboard-response","76","319077","0.0-6.0-6.0-0.7","h7vjpp5p2h","one_one","1","direct_first","1","ig08we20","0","21","1","1","2","1","","0","1","0","null","","","<div class = 'row'><div class = 'column'><img src = 'usneg/6020.bmp' width = '100%;'></div><div class = 'column'><img src = 'category2/CS2.png' width = '70%;'></div></div>","null","neg","CS","CS","2","category2/CS2.png","","","","",""
"","html-keyboard-response","77","321577","0.0-6.0-6.0-0.8","h7vjpp5p2h","one_one","1","direct_first","1","ig08we20","0","21","1","1","2","1","","0","1","0","null","","","<div class = 'row'><div class = 'column'><img src = 'category1/CS8.png' width = '70%;'></div><div class = 'column'><img src = 'uspos/5700.bmp' width = '100%;'></div></div>","null","pos","CS","CS","1","category1/CS8.png","","","","",""
"","html-keyboard-response","78","324078","0.0-6.0-6.0-0.9","h7vjpp5p2h","one_one","1","direct_first","1","ig08we20","0","21","1","1","2","1","","0","1","0","null","","","<div class = 'row'><div class = 'column'><img src = 'usneg/2900.bmp' width = '100%;'></div><div class = 'column'><img src = 'category3/CS4.png' width = '70%;'></div></div>","null","neg","CS","CS","3","category3/CS4.png","","","","",""
"","html-keyboard-response","79","326580","0.0-6.0-6.0-0.10","h7vjpp5p2h","one_one","1","direct_first","1","ig08we20","0","21","1","1","2","1","","0","1","0","null","","","<div class = 'row'><div class = 'column'><img src = 'uspos/1440.bmp' width = '100%;'></div><div class = 'column'><img src = 'category4/CS9.png' width = '70%;'></div></div>","null","pos","CS","CS","4","category4/CS9.png","","","","",""
"","html-keyboard-response","80","329082","0.0-6.0-6.0-0.11","h7vjpp5p2h","one_one","1","direct_first","1","ig08we20","0","21","1","1","2","1","","0","1","0","null","","","<div class = 'row'><div class = 'column'><img src = 'usneg/2900.bmp' width = '100%;'></div><div class = 'column'><img src = 'category3/CS4.png' width = '70%;'></div></div>","null","neg","CS","CS","3","category3/CS4.png","","","","",""
"","html-keyboard-response","81","331584","0.0-6.0-6.0-0.12","h7vjpp5p2h","one_one","1","direct_first","1","ig08we20","0","21","1","1","2","1","","0","1","0","null","","","<div class = 'row'><div class = 'column'><img src = 'category4/CS9.png' width = '70%;'></div><div class = 'column'><img src = 'uspos/1440.bmp' width = '100%;'></div></div>","null","pos","CS","CS","4","category4/CS9.png","","","","",""
"","html-keyboard-response","82","334085","0.0-6.0-6.0-0.13","h7vjpp5p2h","one_one","1","direct_first","1","ig08we20","0","21","1","1","2","1","","0","1","0","null","","","<div class = 'row'><div class = 'column'><img src = 'category2/CS2.png' width = '70%;'></div><div class = 'column'><img src = 'usneg/6020.bmp' width = '100%;'></div></div>","null","neg","CS","CS","2","category2/CS2.png","","","","",""
"","html-keyboard-response","83","336588","0.0-6.0-6.0-0.14","h7vjpp5p2h","one_one","1","direct_first","1","ig08we20","0","21","1","1","2","1","","0","1","0","null","","","<div class = 'row'><div class = 'column'><img src = 'category1/CS8.png' width = '70%;'></div><div class = 'column'><img src = 'uspos/5700.bmp' width = '100%;'></div></div>","null","pos","CS","CS","1","category1/CS8.png","","","","",""
"","html-keyboard-response","84","339091","0.0-6.0-6.0-0.15","h7vjpp5p2h","one_one","1","direct_first","1","ig08we20","0","21","1","1","2","1","","0","1","0","null","","","<div class = 'row'><div class = 'column'><img src = 'usneg/6020.bmp' width = '100%;'></div><div class = 'column'><img src = 'category2/CS2.png' width = '70%;'></div></div>","null","neg","CS","CS","2","category2/CS2.png","","","","",""
"","html-keyboard-response","85","341594","0.0-6.0-6.0-0.16","h7vjpp5p2h","one_one","1","direct_first","1","ig08we20","0","21","1","1","2","1","","0","1","0","null","","","<div class = 'row'><div class = 'column'><img src = 'category4/CS9.png' width = '70%;'></div><div class = 'column'><img src = 'uspos/1440.bmp' width = '100%;'></div></div>","null","pos","CS","CS","4","category4/CS9.png","","","","",""
"","html-keyboard-response","86","344096","0.0-6.0-6.0-0.17","h7vjpp5p2h","one_one","1","direct_first","1","ig08we20","0","21","1","1","2","1","","0","1","0","null","","","<div class = 'row'><div class = 'column'><img src = 'usneg/2900.bmp' width = '100%;'></div><div class = 'column'><img src = 'category3/CS4.png' width = '70%;'></div></div>","null","neg","CS","CS","3","category3/CS4.png","","","","",""
"","html-keyboard-response","87","346600","0.0-6.0-6.0-0.18","h7vjpp5p2h","one_one","1","direct_first","1","ig08we20","0","21","1","1","2","1","","0","1","0","null","","","<div class = 'row'><div class = 'column'><img src = 'category1/CS8.png' width = '70%;'></div><div class = 'column'><img src = 'uspos/5700.bmp' width = '100%;'></div></div>","null","pos","CS","CS","1","category1/CS8.png","","","","",""
"","html-keyboard-response","88","349102","0.0-6.0-6.0-0.19","h7vjpp5p2h","one_one","1","direct_first","1","ig08we20","0","21","1","1","2","1","","0","1","0","null","","","<div class = 'row'><div class = 'column'><img src = 'category4/CS9.png' width = '70%;'></div><div class = 'column'><img src = 'uspos/1440.bmp' width = '100%;'></div></div>","null","pos","CS","CS","4","category4/CS9.png","","","","",""
"","survey-html-form","89","357104","0.0-7.0","h7vjpp5p2h","one_one","1","direct_first","1","ig08we20","0","21","1","1","2","1","","0","1","0","7501","","{}","","","","","","","","","","","",""
"","image-slider-response","90","366677","0.0-8.0-0.0","h7vjpp5p2h","one_one","1","direct_first","1","ig08we20","0","21","1","1","2","1","","0","1","0","7561","","","","","neg","GS","GSold","3","category3/CS5.png","78","targets/22.png","direct","",""
"","image-slider-response","91","371746","0.0-8.0-0.1","h7vjpp5p2h","one_one","1","direct_first","1","ig08we20","0","21","1","1","2","1","","0","1","0","5069","","","","","pos","GS","GSnew","1","category1/GS3.png","-29","targets/8.png","direct","",""
"","image-slider-response","92","380615","0.0-8.0-0.2","h7vjpp5p2h","one_one","1","direct_first","1","ig08we20","0","21","1","1","2","1","","0","1","0","8867","","","","","pos","GS","abstract","1","category1/ma.png","-62","targets/25.png","direct","",""
"","image-slider-response","93","387335","0.0-8.0-0.3","h7vjpp5p2h","one_one","1","direct_first","1","ig08we20","0","21","1","1","2","1","","0","1","0","6717","","","","","pos","GS","GSold","1","category1/CS1.png","-16","targets/30.png","direct","",""
"","image-slider-response","94","393237","0.0-8.0-0.4","h7vjpp5p2h","one_one","1","direct_first","1","ig08we20","0","21","1","1","2","1","","0","1","0","5901","","","","","neg","GS","GSold","3","category3/CS6.png","31","targets/48.png","direct","",""
"","image-slider-response","95","398839","0.0-8.0-0.5","h7vjpp5p2h","one_one","1","direct_first","1","ig08we20","0","21","1","1","2","1","","0","1","0","5601","","","","","neg","GS","GSold","2","category2/CS9.png","-26","targets/27.png","direct","",""
"","image-slider-response","96","402246","0.0-8.0-0.6","h7vjpp5p2h","one_one","1","direct_first","1","ig08we20","0","21","1","1","2","1","","0","1","0","3406","","","","","neg","GS","GSnew","3","category3/GS3.png","32","targets/21.png","direct","",""
"","image-slider-response","97","405987","0.0-8.0-0.7","h7vjpp5p2h","one_one","1","direct_first","1","ig08we20","0","21","1","1","2","1","","0","1","0","3739","","","","","neg","GS","GSold","2","category2/CS10.png","49","targets/29.png","direct","",""
"","image-slider-response","98","412086","0.0-8.0-0.8","h7vjpp5p2h","one_one","1","direct_first","1","ig08we20","0","21","1","1","2","1","","0","1","0","6098","","","","","neg","CS","CS","3","category3/CS4.png","-39","targets/10.png","direct","",""
"","image-slider-response","99","415750","0.0-8.0-0.9","h7vjpp5p2h","one_one","1","direct_first","1","ig08we20","0","21","1","1","2","1","","0","1","0","3663","","","","","neg","GS","abstract","3","category3/wang.png","-26","targets/46.png","direct","",""
"","image-slider-response","100","419381","0.0-8.0-0.10","h7vjpp5p2h","one_one","1","direct_first","1","ig08we20","0","21","1","1","2","1","","0","1","0","3629","","","","","pos","GS","GSold","4","category4/CS4.png","-36","targets/37.png","direct","",""
"","image-slider-response","101","422395","0.0-8.0-0.11","h7vjpp5p2h","one_one","1","direct_first","1","ig08we20","0","21","1","1","2","1","","0","1","0","3013","","","","","pos","GS","GSnew","1","category1/GS1.png","-23","targets/36.png","direct","",""
"","image-slider-response","102","425416","0.0-8.0-0.12","h7vjpp5p2h","one_one","1","direct_first","1","ig08we20","0","21","1","1","2","1","","0","1","0","3020","","","","","pos","GS","abstract","4","category4/lin.png","-52","targets/20.png","direct","",""
"","image-slider-response","103","429291","0.0-8.0-0.13","h7vjpp5p2h","one_one","1","direct_first","1","ig08we20","0","21","1","1","2","1","","0","1","0","3873","","","","","pos","GS","GSold","1","category1/CS4.png","-23","targets/23.png","direct","",""
"","image-slider-response","104","433124","0.0-8.0-0.14","h7vjpp5p2h","one_one","1","direct_first","1","ig08we20","0","21","1","1","2","1","","0","1","0","3832","","","","","neg","GS","GSold","2","category2/CS8.png","-4","targets/43.png","direct","",""
"","image-slider-response","105","437308","0.0-8.0-0.15","h7vjpp5p2h","one_one","1","direct_first","1","ig08we20","0","21","1","1","2","1","","0","1","0","4182","","","","","pos","CS","CS","1","category1/CS8.png","-11","targets/1.png","direct","",""
"","image-slider-response","106","441416","0.0-8.0-0.16","h7vjpp5p2h","one_one","1","direct_first","1","ig08we20","0","21","1","1","2","1","","0","1","0","4106","","","","","pos","GS","GSnew","4","category4/GS3.png","-40","targets/32.png","direct","",""
"","image-slider-response","107","445270","0.0-8.0-0.17","h7vjpp5p2h","one_one","1","direct_first","1","ig08we20","0","21","1","1","2","1","","0","1","0","3854","","","","","neg","GS","GSnew","2","category2/GS3.png","34","targets/17.png","direct","",""
"","image-slider-response","108","450107","0.0-8.0-0.18","h7vjpp5p2h","one_one","1","direct_first","1","ig08we20","0","21","1","1","2","1","","0","1","0","4834","","","","","pos","GS","GSnew","4","category4/GS1.png","-9","targets/26.png","direct","",""
"","image-slider-response","109","454331","0.0-8.0-0.19","h7vjpp5p2h","one_one","1","direct_first","1","ig08we20","0","21","1","1","2","1","","0","1","0","4223","","","","","neg","CS","CS","2","category2/CS2.png","-44","targets/42.png","direct","",""
"","image-slider-response","110","458292","0.0-8.0-0.20","h7vjpp5p2h","one_one","1","direct_first","1","ig08we20","0","21","1","1","2","1","","0","1","0","3960","","","","","neg","GS","GSnew","3","category3/GS2.png","22","targets/15.png","direct","",""
"","image-slider-response","111","463573","0.0-8.0-0.21","h7vjpp5p2h","one_one","1","direct_first","1","ig08we20","0","21","1","1","2","1","","0","1","0","5281","","","","","neg","GS","GSnew","2","category2/GS1.png","-31","targets/31.png","direct","",""
"","image-slider-response","112","466723","0.0-8.0-0.22","h7vjpp5p2h","one_one","1","direct_first","1","ig08we20","0","21","1","1","2","1","","0","1","0","3147","","","","","pos","GS","GSnew","1","category1/GS2.png","-34","targets/41.png","direct","",""
"","image-slider-response","113","469633","0.0-8.0-0.23","h7vjpp5p2h","one_one","1","direct_first","1","ig08we20","0","21","1","1","2","1","","0","1","0","2909","","","","","pos","GS","GSold","1","category1/CS9.png","40","targets/39.png","direct","",""
"","image-slider-response","114","473651","0.0-8.0-0.24","h7vjpp5p2h","one_one","1","direct_first","1","ig08we20","0","21","1","1","2","1","","0","1","0","4016","","","","","pos","GS","GSold","4","category4/CS7.png","-36","targets/12.png","direct","",""
"","image-slider-response","115","476457","0.0-8.0-0.25","h7vjpp5p2h","one_one","1","direct_first","1","ig08we20","0","21","1","1","2","1","","0","1","0","2804","","","","","neg","GS","GSnew","3","category3/GS1.png","-34","targets/9.png","direct","",""
"","image-slider-response","116","482279","0.0-8.0-0.26","h7vjpp5p2h","one_one","1","direct_first","1","ig08we20","0","21","1","1","2","1","","0","1","0","5820","","","","","neg","GS","abstract","2","category2/men.png","-25","targets/11.png","direct","",""
"","image-slider-response","117","485315","0.0-8.0-0.27","h7vjpp5p2h","one_one","1","direct_first","1","ig08we20","0","21","1","1","2","1","","0","1","0","3036","","","","","neg","GS","GSnew","2","category2/GS2.png","28","targets/19.png","direct","",""
"","image-slider-response","118","488420","0.0-8.0-0.28","h7vjpp5p2h","one_one","1","direct_first","1","ig08we20","0","21","1","1","2","1","","0","1","0","3103","","","","","pos","GS","GSnew","4","category4/GS2.png","40","targets/47.png","direct","",""
"","image-slider-response","119","492577","0.0-8.0-0.29","h7vjpp5p2h","one_one","1","direct_first","1","ig08we20","0","21","1","1","2","1","","0","1","0","4156","","","","","pos","GS","GSold","4","category4/CS5.png","-35","targets/16.png","direct","",""
"","image-slider-response","120","496419","0.0-8.0-0.30","h7vjpp5p2h","one_one","1","direct_first","1","ig08we20","0","21","1","1","2","1","","0","1","0","3841","","","","","pos","CS","CS","4","category4/CS9.png","44","targets/5.png","direct","",""
"","image-slider-response","121","499576","0.0-8.0-0.31","h7vjpp5p2h","one_one","1","direct_first","1","ig08we20","0","21","1","1","2","1","","0","1","0","3155","","","","","neg","GS","GSold","3","category3/CS2.png","30","targets/38.png","direct","",""
"","html-keyboard-response","122","543096","0.0-9.0","h7vjpp5p2h","one_one","1","direct_first","1","ig08we20","0","21","1","1","2","1","","0","1","0","43519","","","<p>Sie sehen nun die chinesischen Zeichen nur ganz kurz. Danach sehen Sie die jeweilige Aussprache der Zeichen als Silbe auf dem Bildschrim. Ihre Aufgabe ist es, für jede Silbe anzugeben, ob diese etwas angenehmes, oder unangenehmes bedeuten könnte. Verlassen Sie sich hier vor allem auf Ihre Intuition.<br><br>Die Zeichen werden nur zur Orientierung dargestellt, beachten Sie sie deshalb nicht. Konzentrieren Sie sich vor allem auf die Silben. <br>Reagieren Sie mit folgenden zwei Tasten: <br><br><b>'D' </b> wenn die Silbe etwas <b>unangenehmes</b> bedeuten könnte. <br><b>'K'</b> wenn die Silbe etwas <b>angenehmes</b> bedeuten könnte. <br><br>Bitte legen Sie nun den Zeigefinger der linken Hand auf die Taste 'D' und den Zeigefinger der rechten Hand auf die Taste 'K'. <br>Reagieren Sie auf jede Silbe so schnell wie möglich. Uns interessiert Ihre spontane Reaktion. <br> <br> <br>Drücken Sie 'D' oder 'K', um die nächste Aufgabe zu starten. </p>","68","","","","","","","","","",""
"","html-keyboard-response","123","546099","0.0-10.0-0.0","h7vjpp5p2h","one_one","1","direct_first","1","ig08we20","0","21","1","1","2","1","","0","1","0","null","","","<div style=""font-size:60px;"">+</div>","null","","","","","","","","","",""
"","html-keyboard-response","124","546189","0.0-10.0-1.0","h7vjpp5p2h","one_one","1","direct_first","1","ig08we20","0","21","1","1","2","1","","0","1","0","null","","","<img src = 'category3/CS4.png' width = '100%;'>","null","","","","","","","","","",""
"","html-keyboard-response","125","546442","0.0-10.0-2.0","h7vjpp5p2h","one_one","1","direct_first","1","ig08we20","0","21","1","1","2","1","","0","1","0","null","","","<img src = 'targets/10.png' width = '100%;'>","null","","","","","","","","","",""
"","html-keyboard-response","126","548115","0.0-10.0-3.0","h7vjpp5p2h","one_one","1","direct_first","1","ig08we20","0","21","1","1","2","1","","0","1","0","1671","","","<img src = 'targets/mask.png' width = '100%;'>","75","neg","CS","CS","3","category3/CS4.png","","targets/10.png","indirect","1","0"
"","html-keyboard-response","127","549617","0.0-10.0-0.1","h7vjpp5p2h","one_one","1","direct_first","1","ig08we20","0","21","1","1","2","1","","0","1","0","null","","","<div style=""font-size:60px;"">+</div>","null","","","","","","","","","",""
"","html-keyboard-response","128","549709","0.0-10.0-1.1","h7vjpp5p2h","one_one","1","direct_first","1","ig08we20","0","21","1","1","2","1","","0","1","0","null","","","<img src = 'category1/CS1.png' width = '100%;'>","null","","","","","","","","","",""
"","html-keyboard-response","129","549963","0.0-10.0-2.1","h7vjpp5p2h","one_one","1","direct_first","1","ig08we20","0","21","1","1","2","1","","0","1","0","null","","","<img src = 'targets/30.png' width = '100%;'>","null","","","","","","","","","",""
"","html-keyboard-response","130","551301","0.0-10.0-3.1","h7vjpp5p2h","one_one","1","direct_first","1","ig08we20","0","21","1","1","2","1","","0","1","0","1337","","","<img src = 'targets/mask.png' width = '100%;'>","75","pos","GS","GSold","1","category1/CS1.png","","targets/30.png","indirect","1","1"
"","html-keyboard-response","131","552802","0.0-10.0-0.2","h7vjpp5p2h","one_one","1","direct_first","1","ig08we20","0","21","1","1","2","1","","0","1","0","null","","","<div style=""font-size:60px;"">+</div>","null","","","","","","","","","",""
"","html-keyboard-response","132","552894","0.0-10.0-1.2","h7vjpp5p2h","one_one","1","direct_first","1","ig08we20","0","21","1","1","2","1","","0","1","0","null","","","<img src = 'category2/CS2.png' width = '100%;'>","null","","","","","","","","","",""
"","html-keyboard-response","133","553146","0.0-10.0-2.2","h7vjpp5p2h","one_one","1","direct_first","1","ig08we20","0","21","1","1","2","1","","0","1","0","null","","","<img src = 'targets/42.png' width = '100%;'>","null","","","","","","","","","",""
"","html-keyboard-response","134","554280","0.0-10.0-3.2","h7vjpp5p2h","one_one","1","direct_first","1","ig08we20","0","21","1","1","2","1","","0","1","0","1132","","","<img src = 'targets/mask.png' width = '100%;'>","68","neg","CS","CS","2","category2/CS2.png","","targets/42.png","indirect","0","2"
"","html-keyboard-response","135","555781","0.0-10.0-0.3","h7vjpp5p2h","one_one","1","direct_first","1","ig08we20","0","21","1","1","2","1","","0","1","0","null","","","<div style=""font-size:60px;"">+</div>","null","","","","","","","","","",""
"","html-keyboard-response","136","555873","0.0-10.0-1.3","h7vjpp5p2h","one_one","1","direct_first","1","ig08we20","0","21","1","1","2","1","","0","1","0","null","","","<img src = 'category2/CS8.png' width = '100%;'>","null","","","","","","","","","",""
"","html-keyboard-response","137","556124","0.0-10.0-2.3","h7vjpp5p2h","one_one","1","direct_first","1","ig08we20","0","21","1","1","2","1","","0","1","0","null","","","<img src = 'targets/43.png' width = '100%;'>","null","","","","","","","","","",""
"","html-keyboard-response","138","557084","0.0-10.0-3.3","h7vjpp5p2h","one_one","1","direct_first","1","ig08we20","0","21","1","1","2","1","","0","1","0","958","","","<img src = 'targets/mask.png' width = '100%;'>","75","neg","GS","GSold","2","category2/CS8.png","","targets/43.png","indirect","1","3"
"","html-keyboard-response","139","558585","0.0-10.0-0.4","h7vjpp5p2h","one_one","1","direct_first","1","ig08we20","0","21","1","1","2","1","","0","1","0","null","","","<div style=""font-size:60px;"">+</div>","null","","","","","","","","","",""
"","html-keyboard-response","140","558676","0.0-10.0-1.4","h7vjpp5p2h","one_one","1","direct_first","1","ig08we20","0","21","1","1","2","1","","0","1","0","null","","","<img src = 'category4/CS9.png' width = '100%;'>","null","","","","","","","","","",""
"","html-keyboard-response","141","558928","0.0-10.0-2.4","h7vjpp5p2h","one_one","1","direct_first","1","ig08we20","0","21","1","1","2","1","","0","1","0","null","","","<img src = 'targets/5.png' width = '100%;'>","null","","","","","","","","","",""
"","html-keyboard-response","142","559920","0.0-10.0-3.4","h7vjpp5p2h","one_one","1","direct_first","1","ig08we20","0","21","1","1","2","1","","0","1","0","991","","","<img src = 'targets/mask.png' width = '100%;'>","75","pos","CS","CS","4","category4/CS9.png","","targets/5.png","indirect","1","4"
"","html-keyboard-response","143","561422","0.0-10.0-0.5","h7vjpp5p2h","one_one","1","direct_first","1","ig08we20","0","21","1","1","2","1","","0","1","0","null","","","<div style=""font-size:60px;"">+</div>","null","","","","","","","","","",""
"","html-keyboard-response","144","561513","0.0-10.0-1.5","h7vjpp5p2h","one_one","1","direct_first","1","ig08we20","0","21","1","1","2","1","","0","1","0","null","","","<img src = 'category4/CS4.png' width = '100%;'>","null","","","","","","","","","",""
"","html-keyboard-response","145","561765","0.0-10.0-2.5","h7vjpp5p2h","one_one","1","direct_first","1","ig08we20","0","21","1","1","2","1","","0","1","0","null","","","<img src = 'targets/37.png' width = '100%;'>","null","","","","","","","","","",""
"","html-keyboard-response","146","562687","0.0-10.0-3.5","h7vjpp5p2h","one_one","1","direct_first","1","ig08we20","0","21","1","1","2","1","","0","1","0","922","","","<img src = 'targets/mask.png' width = '100%;'>","75","pos","GS","GSold","4","category4/CS4.png","","targets/37.png","indirect","1","5"
"","html-keyboard-response","147","564190","0.0-10.0-0.6","h7vjpp5p2h","one_one","1","direct_first","1","ig08we20","0","21","1","1","2","1","","0","1","0","null","","","<div style=""font-size:60px;"">+</div>","null","","","","","","","","","",""
"","html-keyboard-response","148","564282","0.0-10.0-1.6","h7vjpp5p2h","one_one","1","direct_first","1","ig08we20","0","21","1","1","2","1","","0","1","0","null","","","<img src = 'category3/CS2.png' width = '100%;'>","null","","","","","","","","","",""
"","html-keyboard-response","149","564534","0.0-10.0-2.6","h7vjpp5p2h","one_one","1","direct_first","1","ig08we20","0","21","1","1","2","1","","0","1","0","null","","","<img src = 'targets/38.png' width = '100%;'>","null","","","","","","","","","",""
"","html-keyboard-response","150","565385","0.0-10.0-3.6","h7vjpp5p2h","one_one","1","direct_first","1","ig08we20","0","21","1","1","2","1","","0","1","0","850","","","<img src = 'targets/mask.png' width = '100%;'>","68","neg","GS","GSold","3","category3/CS2.png","","targets/38.png","indirect","0","6"
"","html-keyboard-response","151","566886","0.0-10.0-0.7","h7vjpp5p2h","one_one","1","direct_first","1","ig08we20","0","21","1","1","2","1","","0","1","0","null","","","<div style=""font-size:60px;"">+</div>","null","","","","","","","","","",""
"","html-keyboard-response","152","566978","0.0-10.0-1.7","h7vjpp5p2h","one_one","1","direct_first","1","ig08we20","0","21","1","1","2","1","","0","1","0","null","","","<img src = 'category1/CS4.png' width = '100%;'>","null","","","","","","","","","",""
"","html-keyboard-response","153","567230","0.0-10.0-2.7","h7vjpp5p2h","one_one","1","direct_first","1","ig08we20","0","21","1","1","2","1","","0","1","0","null","","","<img src = 'targets/23.png' width = '100%;'>","null","","","","","","","","","",""
"","html-keyboard-response","154","568573","0.0-10.0-3.7","h7vjpp5p2h","one_one","1","direct_first","1","ig08we20","0","21","1","1","2","1","","0","1","0","1342","","","<img src = 'targets/mask.png' width = '100%;'>","68","pos","GS","GSold","1","category1/CS4.png","","targets/23.png","indirect","0","7"
"","html-keyboard-response","155","570074","0.0-10.0-0.8","h7vjpp5p2h","one_one","1","direct_first","1","ig08we20","0","21","1","1","2","1","","0","1","0","null","","","<div style=""font-size:60px;"">+</div>","null","","","","","","","","","",""
"","html-keyboard-response","156","570166","0.0-10.0-1.8","h7vjpp5p2h","one_one","1","direct_first","1","ig08we20","0","21","1","1","2","1","","0","1","0","null","","","<img src = 'category4/CS7.png' width = '100%;'>","null","","","","","","","","","",""
"","html-keyboard-response","157","570417","0.0-10.0-2.8","h7vjpp5p2h","one_one","1","direct_first","1","ig08we20","0","21","1","1","2","1","","0","1","0","null","","","<img src = 'targets/12.png' width = '100%;'>","null","","","","","","","","","",""
"","html-keyboard-response","158","571348","0.0-10.0-3.8","h7vjpp5p2h","one_one","1","direct_first","1","ig08we20","0","21","1","1","2","1","","0","1","0","930","","","<img src = 'targets/mask.png' width = '100%;'>","75","pos","GS","GSold","4","category4/CS7.png","","targets/12.png","indirect","1","8"
"","html-keyboard-response","159","572851","0.0-10.0-0.9","h7vjpp5p2h","one_one","1","direct_first","1","ig08we20","0","21","1","1","2","1","","0","1","0","null","","","<div style=""font-size:60px;"">+</div>","null","","","","","","","","","",""
"","html-keyboard-response","160","572941","0.0-10.0-1.9","h7vjpp5p2h","one_one","1","direct_first","1","ig08we20","0","21","1","1","2","1","","0","1","0","null","","","<img src = 'category3/CS6.png' width = '100%;'>","null","","","","","","","","","",""
"","html-keyboard-response","161","573193","0.0-10.0-2.9","h7vjpp5p2h","one_one","1","direct_first","1","ig08we20","0","21","1","1","2","1","","0","1","0","null","","","<img src = 'targets/48.png' width = '100%;'>","null","","","","","","","","","",""
"","html-keyboard-response","162","574167","0.0-10.0-3.9","h7vjpp5p2h","one_one","1","direct_first","1","ig08we20","0","21","1","1","2","1","","0","1","0","973","","","<img src = 'targets/mask.png' width = '100%;'>","75","neg","GS","GSold","3","category3/CS6.png","","targets/48.png","indirect","1","9"
"","html-keyboard-response","163","575669","0.0-10.0-0.10","h7vjpp5p2h","one_one","1","direct_first","1","ig08we20","0","21","1","1","2","1","","0","1","0","null","","","<div style=""font-size:60px;"">+</div>","null","","","","","","","","","",""
"","html-keyboard-response","164","575761","0.0-10.0-1.10","h7vjpp5p2h","one_one","1","direct_first","1","ig08we20","0","21","1","1","2","1","","0","1","0","null","","","<img src = 'category1/CS8.png' width = '100%;'>","null","","","","","","","","","",""
"","html-keyboard-response","165","576012","0.0-10.0-2.10","h7vjpp5p2h","one_one","1","direct_first","1","ig08we20","0","21","1","1","2","1","","0","1","0","null","","","<img src = 'targets/1.png' width = '100%;'>","null","","","","","","","","","",""
"","html-keyboard-response","166","576688","0.0-10.0-3.10","h7vjpp5p2h","one_one","1","direct_first","1","ig08we20","0","21","1","1","2","1","","0","1","0","674","","","<img src = 'targets/mask.png' width = '100%;'>","75","pos","CS","CS","1","category1/CS8.png","","targets/1.png","indirect","1","10"
"","html-keyboard-response","167","578190","0.0-10.0-0.11","h7vjpp5p2h","one_one","1","direct_first","1","ig08we20","0","21","1","1","2","1","","0","1","0","null","","","<div style=""font-size:60px;"">+</div>","null","","","","","","","","","",""
"","html-keyboard-response","168","578281","0.0-10.0-1.11","h7vjpp5p2h","one_one","1","direct_first","1","ig08we20","0","21","1","1","2","1","","0","1","0","null","","","<img src = 'category2/CS9.png' width = '100%;'>","null","","","","","","","","","",""
"","html-keyboard-response","169","578535","0.0-10.0-2.11","h7vjpp5p2h","one_one","1","direct_first","1","ig08we20","0","21","1","1","2","1","","0","1","0","null","","","<img src = 'targets/27.png' width = '100%;'>","null","","","","","","","","","",""
"","html-keyboard-response","170","579938","0.0-10.0-3.11","h7vjpp5p2h","one_one","1","direct_first","1","ig08we20","0","21","1","1","2","1","","0","1","0","1401","","","<img src = 'targets/mask.png' width = '100%;'>","75","neg","GS","GSold","2","category2/CS9.png","","targets/27.png","indirect","1","11"
"","html-keyboard-response","171","581439","0.0-10.0-0.12","h7vjpp5p2h","one_one","1","direct_first","1","ig08we20","0","21","1","1","2","1","","0","1","0","null","","","<div style=""font-size:60px;"">+</div>","null","","","","","","","","","",""
"","html-keyboard-response","172","581531","0.0-10.0-1.12","h7vjpp5p2h","one_one","1","direct_first","1","ig08we20","0","21","1","1","2","1","","0","1","0","null","","","<img src = 'category3/CS5.png' width = '100%;'>","null","","","","","","","","","",""
"","html-keyboard-response","173","581781","0.0-10.0-2.12","h7vjpp5p2h","one_one","1","direct_first","1","ig08we20","0","21","1","1","2","1","","0","1","0","null","","","<img src = 'targets/22.png' width = '100%;'>","null","","","","","","","","","",""
"","html-keyboard-response","174","582308","0.0-10.0-3.12","h7vjpp5p2h","one_one","1","direct_first","1","ig08we20","0","21","1","1","2","1","","0","1","0","526","","","<img src = 'targets/mask.png' width = '100%;'>","75","neg","GS","GSold","3","category3/CS5.png","","targets/22.png","indirect","1","12"
"","html-keyboard-response","175","583810","0.0-10.0-0.13","h7vjpp5p2h","one_one","1","direct_first","1","ig08we20","0","21","1","1","2","1","","0","1","0","null","","","<div style=""font-size:60px;"">+</div>","null","","","","","","","","","",""
"","html-keyboard-response","176","583901","0.0-10.0-1.13","h7vjpp5p2h","one_one","1","direct_first","1","ig08we20","0","21","1","1","2","1","","0","1","0","null","","","<img src = 'category1/CS9.png' width = '100%;'>","null","","","","","","","","","",""
"","html-keyboard-response","177","584154","0.0-10.0-2.13","h7vjpp5p2h","one_one","1","direct_first","1","ig08we20","0","21","1","1","2","1","","0","1","0","null","","","<img src = 'targets/39.png' width = '100%;'>","null","","","","","","","","","",""
"","html-keyboard-response","178","584720","0.0-10.0-3.13","h7vjpp5p2h","one_one","1","direct_first","1","ig08we20","0","21","1","1","2","1","","0","1","0","566","","","<img src = 'targets/mask.png' width = '100%;'>","75","pos","GS","GSold","1","category1/CS9.png","","targets/39.png","indirect","1","13"
"","html-keyboard-response","179","586221","0.0-10.0-0.14","h7vjpp5p2h","one_one","1","direct_first","1","ig08we20","0","21","1","1","2","1","","0","1","0","null","","","<div style=""font-size:60px;"">+</div>","null","","","","","","","","","",""
"","html-keyboard-response","180","586312","0.0-10.0-1.14","h7vjpp5p2h","one_one","1","direct_first","1","ig08we20","0","21","1","1","2","1","","0","1","0","null","","","<img src = 'category4/CS5.png' width = '100%;'>","null","","","","","","","","","",""
"","html-keyboard-response","181","586565","0.0-10.0-2.14","h7vjpp5p2h","one_one","1","direct_first","1","ig08we20","0","21","1","1","2","1","","0","1","0","null","","","<img src = 'targets/16.png' width = '100%;'>","null","","","","","","","","","",""
"","html-keyboard-response","182","587161","0.0-10.0-3.14","h7vjpp5p2h","one_one","1","direct_first","1","ig08we20","0","21","1","1","2","1","","0","1","0","596","","","<img src = 'targets/mask.png' width = '100%;'>","68","pos","GS","GSold","4","category4/CS5.png","","targets/16.png","indirect","0","14"
"","html-keyboard-response","183","588664","0.0-10.0-0.15","h7vjpp5p2h","one_one","1","direct_first","1","ig08we20","0","21","1","1","2","1","","0","1","0","null","","","<div style=""font-size:60px;"">+</div>","null","","","","","","","","","",""
"","html-keyboard-response","184","588755","0.0-10.0-1.15","h7vjpp5p2h","one_one","1","direct_first","1","ig08we20","0","21","1","1","2","1","","0","1","0","null","","","<img src = 'category2/CS10.png' width = '100%;'>","null","","","","","","","","","",""
"","html-keyboard-response","185","589008","0.0-10.0-2.15","h7vjpp5p2h","one_one","1","direct_first","1","ig08we20","0","21","1","1","2","1","","0","1","0","null","","","<img src = 'targets/29.png' width = '100%;'>","null","","","","","","","","","",""
"","html-keyboard-response","186","589883","0.0-10.0-3.15","h7vjpp5p2h","one_one","1","direct_first","1","ig08we20","0","21","1","1","2","1","","0","1","0","874","","","<img src = 'targets/mask.png' width = '100%;'>","75","neg","GS","GSold","2","category2/CS10.png","","targets/29.png","indirect","1","15"
"","survey-html-form","187","593096","0.0-11.0","h7vjpp5p2h","one_one","1","direct_first","1","ig08we20","0","21","1","1","2","1","","0","1","0","2713","","{}","","","","","","","","","","","",""
"","html-keyboard-response","188","596098","0.0-12.0-0.0","h7vjpp5p2h","one_one","1","direct_first","1","ig08we20","0","21","1","1","2","1","","0","1","0","null","","","<div style=""font-size:60px;"">+</div>","null","","","","","","","","","",""
"","html-keyboard-response","189","596189","0.0-12.0-1.0","h7vjpp5p2h","one_one","1","direct_first","1","ig08we20","0","21","1","1","2","1","","0","1","0","null","","","<img src = 'category1/ma.png' width = '100%;'>","null","","","","","","","","","",""
"","html-keyboard-response","190","596441","0.0-12.0-2.0","h7vjpp5p2h","one_one","1","direct_first","1","ig08we20","0","21","1","1","2","1","","0","1","0","null","","","<img src = 'targets/25.png' width = '100%;'>","null","","","","","","","","","",""
"","html-keyboard-response","191","596957","0.0-12.0-3.0","h7vjpp5p2h","one_one","1","direct_first","1","ig08we20","0","21","1","1","2","1","","0","1","0","516","","","<img src = 'targets/mask.png' width = '100%;'>","68","pos","GS","abstract","1","category1/ma.png","","targets/25.png","indirect","0","16"
"","html-keyboard-response","192","598460","0.0-12.0-0.1","h7vjpp5p2h","one_one","1","direct_first","1","ig08we20","0","21","1","1","2","1","","0","1","0","null","","","<div style=""font-size:60px;"">+</div>","null","","","","","","","","","",""
"","html-keyboard-response","193","598551","0.0-12.0-1.1","h7vjpp5p2h","one_one","1","direct_first","1","ig08we20","0","21","1","1","2","1","","0","1","0","null","","","<img src = 'category4/GS2.png' width = '100%;'>","null","","","","","","","","","",""
"","html-keyboard-response","194","598804","0.0-12.0-2.1","h7vjpp5p2h","one_one","1","direct_first","1","ig08we20","0","21","1","1","2","1","","0","1","0","null","","","<img src = 'targets/47.png' width = '100%;'>","null","","","","","","","","","",""
"","html-keyboard-response","195","599767","0.0-12.0-3.1","h7vjpp5p2h","one_one","1","direct_first","1","ig08we20","0","21","1","1","2","1","","0","1","0","961","","","<img src = 'targets/mask.png' width = '100%;'>","68","pos","GS","GSnew","4","category4/GS2.png","","targets/47.png","indirect","0","17"
"","html-keyboard-response","196","601270","0.0-12.0-0.2","h7vjpp5p2h","one_one","1","direct_first","1","ig08we20","0","21","1","1","2","1","","0","1","0","null","","","<div style=""font-size:60px;"">+</div>","null","","","","","","","","","",""
"","html-keyboard-response","197","601361","0.0-12.0-1.2","h7vjpp5p2h","one_one","1","direct_first","1","ig08we20","0","21","1","1","2","1","","0","1","0","null","","","<img src = 'category4/GS3.png' width = '100%;'>","null","","","","","","","","","",""
"","html-keyboard-response","198","601612","0.0-12.0-2.2","h7vjpp5p2h","one_one","1","direct_first","1","ig08we20","0","21","1","1","2","1","","0","1","0","null","","","<img src = 'targets/32.png' width = '100%;'>","null","","","","","","","","","",""
"","html-keyboard-response","199","602550","0.0-12.0-3.2","h7vjpp5p2h","one_one","1","direct_first","1","ig08we20","0","21","1","1","2","1","","0","1","0","938","","","<img src = 'targets/mask.png' width = '100%;'>","75","pos","GS","GSnew","4","category4/GS3.png","","targets/32.png","indirect","1","18"
"","html-keyboard-response","200","604051","0.0-12.0-0.3","h7vjpp5p2h","one_one","1","direct_first","1","ig08we20","0","21","1","1","2","1","","0","1","0","null","","","<div style=""font-size:60px;"">+</div>","null","","","","","","","","","",""
"","html-keyboard-response","201","604141","0.0-12.0-1.3","h7vjpp5p2h","one_one","1","direct_first","1","ig08we20","0","21","1","1","2","1","","0","1","0","null","","","<img src = 'category2/men.png' width = '100%;'>","null","","","","","","","","","",""
"","html-keyboard-response","202","604395","0.0-12.0-2.3","h7vjpp5p2h","one_one","1","direct_first","1","ig08we20","0","21","1","1","2","1","","0","1","0","null","","","<img src = 'targets/11.png' width = '100%;'>","null","","","","","","","","","",""
"","html-keyboard-response","203","605449","0.0-12.0-3.3","h7vjpp5p2h","one_one","1","direct_first","1","ig08we20","0","21","1","1","2","1","","0","1","0","1053","","","<img src = 'targets/mask.png' width = '100%;'>","68","neg","GS","abstract","2","category2/men.png","","targets/11.png","indirect","0","19"
"","html-keyboard-response","204","606952","0.0-12.0-0.4","h7vjpp5p2h","one_one","1","direct_first","1","ig08we20","0","21","1","1","2","1","","0","1","0","null","","","<div style=""font-size:60px;"">+</div>","null","","","","","","","","","",""
"","html-keyboard-response","205","607044","0.0-12.0-1.4","h7vjpp5p2h","one_one","1","direct_first","1","ig08we20","0","21","1","1","2","1","","0","1","0","null","","","<img src = 'category4/GS1.png' width = '100%;'>","null","","","","","","","","","",""
"","html-keyboard-response","206","607296","0.0-12.0-2.4","h7vjpp5p2h","one_one","1","direct_first","1","ig08we20","0","21","1","1","2","1","","0","1","0","null","","","<img src = 'targets/26.png' width = '100%;'>","null","","","","","","","","","",""
"","html-keyboard-response","207","607779","0.0-12.0-3.4","h7vjpp5p2h","one_one","1","direct_first","1","ig08we20","0","21","1","1","2","1","","0","1","0","483","","","<img src = 'targets/mask.png' width = '100%;'>","68","pos","GS","GSnew","4","category4/GS1.png","","targets/26.png","indirect","0","20"
"","html-keyboard-response","208","609282","0.0-12.0-0.5","h7vjpp5p2h","one_one","1","direct_first","1","ig08we20","0","21","1","1","2","1","","0","1","0","null","","","<div style=""font-size:60px;"">+</div>","null","","","","","","","","","",""
"","html-keyboard-response","209","609373","0.0-12.0-1.5","h7vjpp5p2h","one_one","1","direct_first","1","ig08we20","0","21","1","1","2","1","","0","1","0","null","","","<img src = 'category2/GS1.png' width = '100%;'>","null","","","","","","","","","",""
"","html-keyboard-response","210","609624","0.0-12.0-2.5","h7vjpp5p2h","one_one","1","direct_first","1","ig08we20","0","21","1","1","2","1","","0","1","0","null","","","<img src = 'targets/31.png' width = '100%;'>","null","","","","","","","","","",""
"","html-keyboard-response","211","610505","0.0-12.0-3.5","h7vjpp5p2h","one_one","1","direct_first","1","ig08we20","0","21","1","1","2","1","","0","1","0","880","","","<img src = 'targets/mask.png' width = '100%;'>","75","neg","GS","GSnew","2","category2/GS1.png","","targets/31.png","indirect","1","21"
"","html-keyboard-response","212","612007","0.0-12.0-0.6","h7vjpp5p2h","one_one","1","direct_first","1","ig08we20","0","21","1","1","2","1","","0","1","0","null","","","<div style=""font-size:60px;"">+</div>","null","","","","","","","","","",""
"","html-keyboard-response","213","612099","0.0-12.0-1.6","h7vjpp5p2h","one_one","1","direct_first","1","ig08we20","0","21","1","1","2","1","","0","1","0","null","","","<img src = 'category1/GS2.png' width = '100%;'>","null","","","","","","","","","",""
"","html-keyboard-response","214","612350","0.0-12.0-2.6","h7vjpp5p2h","one_one","1","direct_first","1","ig08we20","0","21","1","1","2","1","","0","1","0","null","","","<img src = 'targets/41.png' width = '100%;'>","null","","","","","","","","","",""
"","html-keyboard-response","215","613057","0.0-12.0-3.6","h7vjpp5p2h","one_one","1","direct_first","1","ig08we20","0","21","1","1","2","1","","0","1","0","707","","","<img src = 'targets/mask.png' width = '100%;'>","75","pos","GS","GSnew","1","category1/GS2.png","","targets/41.png","indirect","1","22"
"","html-keyboard-response","216","614560","0.0-12.0-0.7","h7vjpp5p2h","one_one","1","direct_first","1","ig08we20","0","21","1","1","2","1","","0","1","0","null","","","<div style=""font-size:60px;"">+</div>","null","","","","","","","","","",""
"","html-keyboard-response","217","614652","0.0-12.0-1.7","h7vjpp5p2h","one_one","1","direct_first","1","ig08we20","0","21","1","1","2","1","","0","1","0","null","","","<img src = 'category3/GS3.png' width = '100%;'>","null","","","","","","","","","",""
"","html-keyboard-response","218","614903","0.0-12.0-2.7","h7vjpp5p2h","one_one","1","direct_first","1","ig08we20","0","21","1","1","2","1","","0","1","0","null","","","<img src = 'targets/21.png' width = '100%;'>","null","","","","","","","","","",""
"","html-keyboard-response","219","615644","0.0-12.0-3.7","h7vjpp5p2h","one_one","1","direct_first","1","ig08we20","0","21","1","1","2","1","","0","1","0","739","","","<img src = 'targets/mask.png' width = '100%;'>","68","neg","GS","GSnew","3","category3/GS3.png","","targets/21.png","indirect","0","23"
"","html-keyboard-response","220","617145","0.0-12.0-0.8","h7vjpp5p2h","one_one","1","direct_first","1","ig08we20","0","21","1","1","2","1","","0","1","0","null","","","<div style=""font-size:60px;"">+</div>","null","","","","","","","","","",""
"","html-keyboard-response","221","617236","0.0-12.0-1.8","h7vjpp5p2h","one_one","1","direct_first","1","ig08we20","0","21","1","1","2","1","","0","1","0","null","","","<img src = 'category1/GS3.png' width = '100%;'>","null","","","","","","","","","",""
"","html-keyboard-response","222","617489","0.0-12.0-2.8","h7vjpp5p2h","one_one","1","direct_first","1","ig08we20","0","21","1","1","2","1","","0","1","0","null","","","<img src = 'targets/8.png' width = '100%;'>","null","","","","","","","","","",""
"","html-keyboard-response","223","618081","0.0-12.0-3.8","h7vjpp5p2h","one_one","1","direct_first","1","ig08we20","0","21","1","1","2","1","","0","1","0","593","","","<img src = 'targets/mask.png' width = '100%;'>","68","pos","GS","GSnew","1","category1/GS3.png","","targets/8.png","indirect","0","24"
"","html-keyboard-response","224","619583","0.0-12.0-0.9","h7vjpp5p2h","one_one","1","direct_first","1","ig08we20","0","21","1","1","2","1","","0","1","0","null","","","<div style=""font-size:60px;"">+</div>","null","","","","","","","","","",""
"","html-keyboard-response","225","619675","0.0-12.0-1.9","h7vjpp5p2h","one_one","1","direct_first","1","ig08we20","0","21","1","1","2","1","","0","1","0","null","","","<img src = 'category1/GS1.png' width = '100%;'>","null","","","","","","","","","",""
"","html-keyboard-response","226","619926","0.0-12.0-2.9","h7vjpp5p2h","one_one","1","direct_first","1","ig08we20","0","21","1","1","2","1","","0","1","0","null","","","<img src = 'targets/36.png' width = '100%;'>","null","","","","","","","","","",""
"","html-keyboard-response","227","620499","0.0-12.0-3.9","h7vjpp5p2h","one_one","1","direct_first","1","ig08we20","0","21","1","1","2","1","","0","1","0","572","","","<img src = 'targets/mask.png' width = '100%;'>","68","pos","GS","GSnew","1","category1/GS1.png","","targets/36.png","indirect","0","25"
"","html-keyboard-response","228","622000","0.0-12.0-0.10","h7vjpp5p2h","one_one","1","direct_first","1","ig08we20","0","21","1","1","2","1","","0","1","0","null","","","<div style=""font-size:60px;"">+</div>","null","","","","","","","","","",""
"","html-keyboard-response","229","622091","0.0-12.0-1.10","h7vjpp5p2h","one_one","1","direct_first","1","ig08we20","0","21","1","1","2","1","","0","1","0","null","","","<img src = 'category2/GS2.png' width = '100%;'>","null","","","","","","","","","",""
"","html-keyboard-response","230","622343","0.0-12.0-2.10","h7vjpp5p2h","one_one","1","direct_first","1","ig08we20","0","21","1","1","2","1","","0","1","0","null","","","<img src = 'targets/19.png' width = '100%;'>","null","","","","","","","","","",""
"","html-keyboard-response","231","623210","0.0-12.0-3.10","h7vjpp5p2h","one_one","1","direct_first","1","ig08we20","0","21","1","1","2","1","","0","1","0","868","","","<img src = 'targets/mask.png' width = '100%;'>","68","neg","GS","GSnew","2","category2/GS2.png","","targets/19.png","indirect","0","26"
"","html-keyboard-response","232","624712","0.0-12.0-0.11","h7vjpp5p2h","one_one","1","direct_first","1","ig08we20","0","21","1","1","2","1","","0","1","0","null","","","<div style=""font-size:60px;"">+</div>","null","","","","","","","","","",""
"","html-keyboard-response","233","624802","0.0-12.0-1.11","h7vjpp5p2h","one_one","1","direct_first","1","ig08we20","0","21","1","1","2","1","","0","1","0","null","","","<img src = 'category4/lin.png' width = '100%;'>","null","","","","","","","","","",""
"","html-keyboard-response","234","625054","0.0-12.0-2.11","h7vjpp5p2h","one_one","1","direct_first","1","ig08we20","0","21","1","1","2","1","","0","1","0","null","","","<img src = 'targets/20.png' width = '100%;'>","null","","","","","","","","","",""
"","html-keyboard-response","235","625725","0.0-12.0-3.11","h7vjpp5p2h","one_one","1","direct_first","1","ig08we20","0","21","1","1","2","1","","0","1","0","670","","","<img src = 'targets/mask.png' width = '100%;'>","68","pos","GS","abstract","4","category4/lin.png","","targets/20.png","indirect","0","27"
"","html-keyboard-response","236","627225","0.0-12.0-0.12","h7vjpp5p2h","one_one","1","direct_first","1","ig08we20","0","21","1","1","2","1","","0","1","0","null","","","<div style=""font-size:60px;"">+</div>","null","","","","","","","","","",""
"","html-keyboard-response","237","627318","0.0-12.0-1.12","h7vjpp5p2h","one_one","1","direct_first","1","ig08we20","0","21","1","1","2","1","","0","1","0","null","","","<img src = 'category2/GS3.png' width = '100%;'>","null","","","","","","","","","",""
"","html-keyboard-response","238","627570","0.0-12.0-2.12","h7vjpp5p2h","one_one","1","direct_first","1","ig08we20","0","21","1","1","2","1","","0","1","0","null","","","<img src = 'targets/17.png' width = '100%;'>","null","","","","","","","","","",""
"","html-keyboard-response","239","628169","0.0-12.0-3.12","h7vjpp5p2h","one_one","1","direct_first","1","ig08we20","0","21","1","1","2","1","","0","1","0","598","","","<img src = 'targets/mask.png' width = '100%;'>","75","neg","GS","GSnew","2","category2/GS3.png","","targets/17.png","indirect","1","28"
"","html-keyboard-response","240","629671","0.0-12.0-0.13","h7vjpp5p2h","one_one","1","direct_first","1","ig08we20","0","21","1","1","2","1","","0","1","0","null","","","<div style=""font-size:60px;"">+</div>","null","","","","","","","","","",""
"","html-keyboard-response","241","629762","0.0-12.0-1.13","h7vjpp5p2h","one_one","1","direct_first","1","ig08we20","0","21","1","1","2","1","","0","1","0","null","","","<img src = 'category3/GS2.png' width = '100%;'>","null","","","","","","","","","",""
"","html-keyboard-response","242","630013","0.0-12.0-2.13","h7vjpp5p2h","one_one","1","direct_first","1","ig08we20","0","21","1","1","2","1","","0","1","0","null","","","<img src = 'targets/15.png' width = '100%;'>","null","","","","","","","","","",""
"","html-keyboard-response","243","630539","0.0-12.0-3.13","h7vjpp5p2h","one_one","1","direct_first","1","ig08we20","0","21","1","1","2","1","","0","1","0","524","","","<img src = 'targets/mask.png' width = '100%;'>","75","neg","GS","GSnew","3","category3/GS2.png","","targets/15.png","indirect","1","29"
"","html-keyboard-response","244","632041","0.0-12.0-0.14","h7vjpp5p2h","one_one","1","direct_first","1","ig08we20","0","21","1","1","2","1","","0","1","0","null","","","<div style=""font-size:60px;"">+</div>","null","","","","","","","","","",""
"","html-keyboard-response","245","632131","0.0-12.0-1.14","h7vjpp5p2h","one_one","1","direct_first","1","ig08we20","0","21","1","1","2","1","","0","1","0","null","","","<img src = 'category3/GS1.png' width = '100%;'>","null","","","","","","","","","",""
"","html-keyboard-response","246","632383","0.0-12.0-2.14","h7vjpp5p2h","one_one","1","direct_first","1","ig08we20","0","21","1","1","2","1","","0","1","0","null","","","<img src = 'targets/9.png' width = '100%;'>","null","","","","","","","","","",""
"","html-keyboard-response","247","632990","0.0-12.0-3.14","h7vjpp5p2h","one_one","1","direct_first","1","ig08we20","0","21","1","1","2","1","","0","1","0","606","","","<img src = 'targets/mask.png' width = '100%;'>","75","neg","GS","GSnew","3","category3/GS1.png","","targets/9.png","indirect","1","30"
"","html-keyboard-response","248","634494","0.0-12.0-0.15","h7vjpp5p2h","one_one","1","direct_first","1","ig08we20","0","21","1","1","2","1","","0","1","0","null","","","<div style=""font-size:60px;"">+</div>","null","","","","","","","","","",""
"","html-keyboard-response","249","634585","0.0-12.0-1.15","h7vjpp5p2h","one_one","1","direct_first","1","ig08we20","0","21","1","1","2","1","","0","1","0","null","","","<img src = 'category3/wang.png' width = '100%;'>","null","","","","","","","","","",""
"","html-keyboard-response","250","634836","0.0-12.0-2.15","h7vjpp5p2h","one_one","1","direct_first","1","ig08we20","0","21","1","1","2","1","","0","1","0","null","","","<img src = 'targets/46.png' width = '100%;'>","null","","","","","","","","","",""
"","html-keyboard-response","251","635524","0.0-12.0-3.15","h7vjpp5p2h","one_one","1","direct_first","1","ig08we20","0","21","1","1","2","1","","0","1","0","686","","","<img src = 'targets/mask.png' width = '100%;'>","75","neg","GS","abstract","3","category3/wang.png","","targets/46.png","indirect","1","31"
"","survey-html-form","252","641409","0.0-13.0","h7vjpp5p2h","one_one","1","direct_first","1","ig08we20","0","21","1","1","2","1","","0","1","0","5383","","{}","","","","","","","","","","","",""
"","image-slider-response","253","648267","0.0-14.0-0.0","h7vjpp5p2h","one_one","1","direct_first","1","ig08we20","0","21","1","1","2","1","","0","1","0","5851","","","","","pos","All","all","4","category4/lin_all.png","-61","","all","",""
"","image-slider-response","254","652815","0.0-14.0-0.1","h7vjpp5p2h","one_one","1","direct_first","1","ig08we20","0","21","1","1","2","1","","0","1","0","4547","","","","","pos","All","all","1","category1/ma_all.png","50","","all","",""
"","image-slider-response","255","656985","0.0-14.0-0.2","h7vjpp5p2h","one_one","1","direct_first","1","ig08we20","0","21","1","1","2","1","","0","1","0","4169","","","","","neg","All","all","3","category3/wang_all.png","-55","","all","",""
"","image-slider-response","256","663570","0.0-14.0-0.3","h7vjpp5p2h","one_one","1","direct_first","1","ig08we20","0","21","1","1","2","1","","0","1","0","6584","","","","","neg","All","all","2","category2/men_all.png","-23","","all","",""
"","survey-text","257","669007","0.0-15.0","h7vjpp5p2h","one_one","1","direct_first","1","ig08we20","0","21","1","1","2","1","","0","1","0","5432","","{""comment"":""""}","","","","","","","","","","","",""
"","survey-html-form","258","680886","0.0-16.0","h7vjpp5p2h","one_one","1","direct_first","1","ig08we20","0","21","1","1","2","1","","0","1","0","11876","","{""hinschauen"":""0"",""ablenkung"":""1"",""gewissenhaft"":""0""}","","","","","","","","","","","",""
