"success","trial_type","trial_index","time_elapsed","internal_node_id","subject","condition","condition_code","measure","measure_code","codeword","gender","age","education","chinese","fach","handedness","comment","hinschauen","ablenkung","gewissenhaft","rt","url","responses","stimulus","key_press","val","type","type_specific","category","cs_selected","target","indirect","task","nr_pres","response"
"true","fullscreen","0","6187","0.0-0.0","2o9l663odr","one_one","1","indirect_first","0","un07us23","0","20","1","2","3","1","","0","1","0","","","","","","","","","","","","","","",""
"","external-html","1","54912","0.0-1.0","2o9l663odr","one_one","1","indirect_first","0","un07us23","0","20","1","2","3","1","","0","1","0","47652","text/information.html","","","","","","","","","","","","",""
"","external-html","2","75099","0.0-2.0","2o9l663odr","one_one","1","indirect_first","0","un07us23","0","20","1","2","3","1","","0","1","0","19955","text/consent.html","","","","","","","","","","","","",""
"","survey-html-form","3","126180","0.0-3.0","2o9l663odr","one_one","1","indirect_first","0","un07us23","0","20","1","2","3","1","","0","1","0","51075","","{""codeword_enter"":""un07us23""}","","","","","","","","","","","",""
"","survey-html-form","4","165073","0.0-4.0","2o9l663odr","one_one","1","indirect_first","0","un07us23","0","20","1","2","3","1","","0","1","0","38887","","{""age"":""20"",""education"":""1"",""subject"":""3"",""gender"":""0"",""handedness"":""1"",""chinese"":""2""}","","","","","","","","","","","",""
"","survey-html-form","5","178494","0.0-5.0","2o9l663odr","one_one","1","indirect_first","0","un07us23","0","20","1","2","3","1","","0","1","0","13415","","{}","","","","","","","","","","","",""
"","html-keyboard-response","6","182524","0.0-6.0-0.0-0.0","2o9l663odr","one_one","1","indirect_first","0","un07us23","0","20","1","2","3","1","","0","1","0","null","","","<div class = 'row'><div class = 'column'><img src = 'category1/CS8.png' width = '70%;'></div><div class = 'column'><img src = 'uspos/5600.bmp' width = '100%;'></div></div>","null","pos","CS","CS","1","category1/CS8.png","","","","",""
"","html-keyboard-response","7","185063","0.0-6.0-0.0-0.1","2o9l663odr","one_one","1","indirect_first","0","un07us23","0","20","1","2","3","1","","0","1","0","null","","","<div class = 'row'><div class = 'column'><img src = 'usneg/9290.bmp' width = '100%;'></div><div class = 'column'><img src = 'category4/CS7.png' width = '70%;'></div></div>","null","neg","CS","CS","4","category4/CS7.png","","","","",""
"","html-keyboard-response","8","187593","0.0-6.0-0.0-0.2","2o9l663odr","one_one","1","indirect_first","0","un07us23","0","20","1","2","3","1","","0","1","0","null","","","<div class = 'row'><div class = 'column'><img src = 'category1/CS8.png' width = '70%;'></div><div class = 'column'><img src = 'uspos/5600.bmp' width = '100%;'></div></div>","null","pos","CS","CS","1","category1/CS8.png","","","","",""
"","html-keyboard-response","9","190133","0.0-6.0-0.0-0.3","2o9l663odr","one_one","1","indirect_first","0","un07us23","0","20","1","2","3","1","","0","1","0","null","","","<div class = 'row'><div class = 'column'><img src = 'usneg/9290.bmp' width = '100%;'></div><div class = 'column'><img src = 'category4/CS7.png' width = '70%;'></div></div>","null","neg","CS","CS","4","category4/CS7.png","","","","",""
"","html-keyboard-response","10","192674","0.0-6.0-0.0-0.4","2o9l663odr","one_one","1","indirect_first","0","un07us23","0","20","1","2","3","1","","0","1","0","null","","","<div class = 'row'><div class = 'column'><img src = 'usneg/9342.bmp' width = '100%;'></div><div class = 'column'><img src = 'category3/CS6.png' width = '70%;'></div></div>","null","neg","CS","CS","3","category3/CS6.png","","","","",""
"","html-keyboard-response","11","195203","0.0-6.0-0.0-0.5","2o9l663odr","one_one","1","indirect_first","0","un07us23","0","20","1","2","3","1","","0","1","0","null","","","<div class = 'row'><div class = 'column'><img src = 'usneg/9290.bmp' width = '100%;'></div><div class = 'column'><img src = 'category4/CS7.png' width = '70%;'></div></div>","null","neg","CS","CS","4","category4/CS7.png","","","","",""
"","html-keyboard-response","12","197743","0.0-6.0-0.0-0.6","2o9l663odr","one_one","1","indirect_first","0","un07us23","0","20","1","2","3","1","","0","1","0","null","","","<div class = 'row'><div class = 'column'><img src = 'uspos/2160.bmp' width = '100%;'></div><div class = 'column'><img src = 'category2/CS6.png' width = '70%;'></div></div>","null","pos","CS","CS","2","category2/CS6.png","","","","",""
"","html-keyboard-response","13","200283","0.0-6.0-0.0-0.7","2o9l663odr","one_one","1","indirect_first","0","un07us23","0","20","1","2","3","1","","0","1","0","null","","","<div class = 'row'><div class = 'column'><img src = 'category1/CS8.png' width = '70%;'></div><div class = 'column'><img src = 'uspos/5600.bmp' width = '100%;'></div></div>","null","pos","CS","CS","1","category1/CS8.png","","","","",""
"","html-keyboard-response","14","202823","0.0-6.0-0.0-0.8","2o9l663odr","one_one","1","indirect_first","0","un07us23","0","20","1","2","3","1","","0","1","0","null","","","<div class = 'row'><div class = 'column'><img src = 'usneg/9290.bmp' width = '100%;'></div><div class = 'column'><img src = 'category4/CS7.png' width = '70%;'></div></div>","null","neg","CS","CS","4","category4/CS7.png","","","","",""
"","html-keyboard-response","15","205353","0.0-6.0-0.0-0.9","2o9l663odr","one_one","1","indirect_first","0","un07us23","0","20","1","2","3","1","","0","1","0","null","","","<div class = 'row'><div class = 'column'><img src = 'uspos/5600.bmp' width = '100%;'></div><div class = 'column'><img src = 'category1/CS8.png' width = '70%;'></div></div>","null","pos","CS","CS","1","category1/CS8.png","","","","",""
"","html-keyboard-response","16","207894","0.0-6.0-0.0-0.10","2o9l663odr","one_one","1","indirect_first","0","un07us23","0","20","1","2","3","1","","0","1","0","null","","","<div class = 'row'><div class = 'column'><img src = 'uspos/2160.bmp' width = '100%;'></div><div class = 'column'><img src = 'category2/CS6.png' width = '70%;'></div></div>","null","pos","CS","CS","2","category2/CS6.png","","","","",""
"","html-keyboard-response","17","210430","0.0-6.0-0.0-0.11","2o9l663odr","one_one","1","indirect_first","0","un07us23","0","20","1","2","3","1","","0","1","0","null","","","<div class = 'row'><div class = 'column'><img src = 'usneg/9342.bmp' width = '100%;'></div><div class = 'column'><img src = 'category3/CS6.png' width = '70%;'></div></div>","null","neg","CS","CS","3","category3/CS6.png","","","","",""
"","html-keyboard-response","18","212973","0.0-6.0-0.0-0.12","2o9l663odr","one_one","1","indirect_first","0","un07us23","0","20","1","2","3","1","","0","1","0","null","","","<div class = 'row'><div class = 'column'><img src = 'uspos/5600.bmp' width = '100%;'></div><div class = 'column'><img src = 'category1/CS8.png' width = '70%;'></div></div>","null","pos","CS","CS","1","category1/CS8.png","","","","",""
"","html-keyboard-response","19","215513","0.0-6.0-0.0-0.13","2o9l663odr","one_one","1","indirect_first","0","un07us23","0","20","1","2","3","1","","0","1","0","null","","","<div class = 'row'><div class = 'column'><img src = 'category3/CS6.png' width = '70%;'></div><div class = 'column'><img src = 'usneg/9342.bmp' width = '100%;'></div></div>","null","neg","CS","CS","3","category3/CS6.png","","","","",""
"","html-keyboard-response","20","218053","0.0-6.0-0.0-0.14","2o9l663odr","one_one","1","indirect_first","0","un07us23","0","20","1","2","3","1","","0","1","0","null","","","<div class = 'row'><div class = 'column'><img src = 'category2/CS6.png' width = '70%;'></div><div class = 'column'><img src = 'uspos/2160.bmp' width = '100%;'></div></div>","null","pos","CS","CS","2","category2/CS6.png","","","","",""
"","html-keyboard-response","21","220583","0.0-6.0-0.0-0.15","2o9l663odr","one_one","1","indirect_first","0","un07us23","0","20","1","2","3","1","","0","1","0","null","","","<div class = 'row'><div class = 'column'><img src = 'category3/CS6.png' width = '70%;'></div><div class = 'column'><img src = 'usneg/9342.bmp' width = '100%;'></div></div>","null","neg","CS","CS","3","category3/CS6.png","","","","",""
"","html-keyboard-response","22","223122","0.0-6.0-0.0-0.16","2o9l663odr","one_one","1","indirect_first","0","un07us23","0","20","1","2","3","1","","0","1","0","null","","","<div class = 'row'><div class = 'column'><img src = 'usneg/9290.bmp' width = '100%;'></div><div class = 'column'><img src = 'category4/CS7.png' width = '70%;'></div></div>","null","neg","CS","CS","4","category4/CS7.png","","","","",""
"","html-keyboard-response","23","225663","0.0-6.0-0.0-0.17","2o9l663odr","one_one","1","indirect_first","0","un07us23","0","20","1","2","3","1","","0","1","0","null","","","<div class = 'row'><div class = 'column'><img src = 'uspos/2160.bmp' width = '100%;'></div><div class = 'column'><img src = 'category2/CS6.png' width = '70%;'></div></div>","null","pos","CS","CS","2","category2/CS6.png","","","","",""
"","html-keyboard-response","24","228204","0.0-6.0-0.0-0.18","2o9l663odr","one_one","1","indirect_first","0","un07us23","0","20","1","2","3","1","","0","1","0","null","","","<div class = 'row'><div class = 'column'><img src = 'usneg/9342.bmp' width = '100%;'></div><div class = 'column'><img src = 'category3/CS6.png' width = '70%;'></div></div>","null","neg","CS","CS","3","category3/CS6.png","","","","",""
"","html-keyboard-response","25","230743","0.0-6.0-0.0-0.19","2o9l663odr","one_one","1","indirect_first","0","un07us23","0","20","1","2","3","1","","0","1","0","null","","","<div class = 'row'><div class = 'column'><img src = 'uspos/2160.bmp' width = '100%;'></div><div class = 'column'><img src = 'category2/CS6.png' width = '70%;'></div></div>","null","pos","CS","CS","2","category2/CS6.png","","","","",""
"","survey-html-form","26","233632","0.0-6.0-1.0","2o9l663odr","one_one","1","indirect_first","0","un07us23","0","20","1","2","3","1","","0","1","0","2368","","{}","","","","","","","","","","","",""
"","html-keyboard-response","27","237663","0.0-6.0-2.0-0.0","2o9l663odr","one_one","1","indirect_first","0","un07us23","0","20","1","2","3","1","","0","1","0","null","","","<div class = 'row'><div class = 'column'><img src = 'category1/CS8.png' width = '70%;'></div><div class = 'column'><img src = 'uspos/5600.bmp' width = '100%;'></div></div>","null","pos","CS","CS","1","category1/CS8.png","","","","",""
"","html-keyboard-response","28","240193","0.0-6.0-2.0-0.1","2o9l663odr","one_one","1","indirect_first","0","un07us23","0","20","1","2","3","1","","0","1","0","null","","","<div class = 'row'><div class = 'column'><img src = 'category4/CS7.png' width = '70%;'></div><div class = 'column'><img src = 'usneg/9290.bmp' width = '100%;'></div></div>","null","neg","CS","CS","4","category4/CS7.png","","","","",""
"","html-keyboard-response","29","242733","0.0-6.0-2.0-0.2","2o9l663odr","one_one","1","indirect_first","0","un07us23","0","20","1","2","3","1","","0","1","0","null","","","<div class = 'row'><div class = 'column'><img src = 'uspos/2160.bmp' width = '100%;'></div><div class = 'column'><img src = 'category2/CS6.png' width = '70%;'></div></div>","null","pos","CS","CS","2","category2/CS6.png","","","","",""
"","html-keyboard-response","30","245273","0.0-6.0-2.0-0.3","2o9l663odr","one_one","1","indirect_first","0","un07us23","0","20","1","2","3","1","","0","1","0","null","","","<div class = 'row'><div class = 'column'><img src = 'usneg/9290.bmp' width = '100%;'></div><div class = 'column'><img src = 'category4/CS7.png' width = '70%;'></div></div>","null","neg","CS","CS","4","category4/CS7.png","","","","",""
"","html-keyboard-response","31","247803","0.0-6.0-2.0-0.4","2o9l663odr","one_one","1","indirect_first","0","un07us23","0","20","1","2","3","1","","0","1","0","null","","","<div class = 'row'><div class = 'column'><img src = 'category3/CS6.png' width = '70%;'></div><div class = 'column'><img src = 'usneg/9342.bmp' width = '100%;'></div></div>","null","neg","CS","CS","3","category3/CS6.png","","","","",""
"","html-keyboard-response","32","250343","0.0-6.0-2.0-0.5","2o9l663odr","one_one","1","indirect_first","0","un07us23","0","20","1","2","3","1","","0","1","0","null","","","<div class = 'row'><div class = 'column'><img src = 'usneg/9290.bmp' width = '100%;'></div><div class = 'column'><img src = 'category4/CS7.png' width = '70%;'></div></div>","null","neg","CS","CS","4","category4/CS7.png","","","","",""
"","html-keyboard-response","33","252873","0.0-6.0-2.0-0.6","2o9l663odr","one_one","1","indirect_first","0","un07us23","0","20","1","2","3","1","","0","1","0","null","","","<div class = 'row'><div class = 'column'><img src = 'uspos/5600.bmp' width = '100%;'></div><div class = 'column'><img src = 'category1/CS8.png' width = '70%;'></div></div>","null","pos","CS","CS","1","category1/CS8.png","","","","",""
"","html-keyboard-response","34","255413","0.0-6.0-2.0-0.7","2o9l663odr","one_one","1","indirect_first","0","un07us23","0","20","1","2","3","1","","0","1","0","null","","","<div class = 'row'><div class = 'column'><img src = 'usneg/9342.bmp' width = '100%;'></div><div class = 'column'><img src = 'category3/CS6.png' width = '70%;'></div></div>","null","neg","CS","CS","3","category3/CS6.png","","","","",""
"","html-keyboard-response","35","257953","0.0-6.0-2.0-0.8","2o9l663odr","one_one","1","indirect_first","0","un07us23","0","20","1","2","3","1","","0","1","0","null","","","<div class = 'row'><div class = 'column'><img src = 'usneg/9290.bmp' width = '100%;'></div><div class = 'column'><img src = 'category4/CS7.png' width = '70%;'></div></div>","null","neg","CS","CS","4","category4/CS7.png","","","","",""
"","html-keyboard-response","36","260483","0.0-6.0-2.0-0.9","2o9l663odr","one_one","1","indirect_first","0","un07us23","0","20","1","2","3","1","","0","1","0","null","","","<div class = 'row'><div class = 'column'><img src = 'category2/CS6.png' width = '70%;'></div><div class = 'column'><img src = 'uspos/2160.bmp' width = '100%;'></div></div>","null","pos","CS","CS","2","category2/CS6.png","","","","",""
"","html-keyboard-response","37","263022","0.0-6.0-2.0-0.10","2o9l663odr","one_one","1","indirect_first","0","un07us23","0","20","1","2","3","1","","0","1","0","null","","","<div class = 'row'><div class = 'column'><img src = 'category4/CS7.png' width = '70%;'></div><div class = 'column'><img src = 'usneg/9290.bmp' width = '100%;'></div></div>","null","neg","CS","CS","4","category4/CS7.png","","","","",""
"","html-keyboard-response","38","265562","0.0-6.0-2.0-0.11","2o9l663odr","one_one","1","indirect_first","0","un07us23","0","20","1","2","3","1","","0","1","0","null","","","<div class = 'row'><div class = 'column'><img src = 'uspos/2160.bmp' width = '100%;'></div><div class = 'column'><img src = 'category2/CS6.png' width = '70%;'></div></div>","null","pos","CS","CS","2","category2/CS6.png","","","","",""
"","html-keyboard-response","39","268103","0.0-6.0-2.0-0.12","2o9l663odr","one_one","1","indirect_first","0","un07us23","0","20","1","2","3","1","","0","1","0","null","","","<div class = 'row'><div class = 'column'><img src = 'category1/CS8.png' width = '70%;'></div><div class = 'column'><img src = 'uspos/5600.bmp' width = '100%;'></div></div>","null","pos","CS","CS","1","category1/CS8.png","","","","",""
"","html-keyboard-response","40","270623","0.0-6.0-2.0-0.13","2o9l663odr","one_one","1","indirect_first","0","un07us23","0","20","1","2","3","1","","0","1","0","null","","","<div class = 'row'><div class = 'column'><img src = 'category2/CS6.png' width = '70%;'></div><div class = 'column'><img src = 'uspos/2160.bmp' width = '100%;'></div></div>","null","pos","CS","CS","2","category2/CS6.png","","","","",""
"","html-keyboard-response","41","273163","0.0-6.0-2.0-0.14","2o9l663odr","one_one","1","indirect_first","0","un07us23","0","20","1","2","3","1","","0","1","0","null","","","<div class = 'row'><div class = 'column'><img src = 'category3/CS6.png' width = '70%;'></div><div class = 'column'><img src = 'usneg/9342.bmp' width = '100%;'></div></div>","null","neg","CS","CS","3","category3/CS6.png","","","","",""
"","html-keyboard-response","42","275702","0.0-6.0-2.0-0.15","2o9l663odr","one_one","1","indirect_first","0","un07us23","0","20","1","2","3","1","","0","1","0","null","","","<div class = 'row'><div class = 'column'><img src = 'category1/CS8.png' width = '70%;'></div><div class = 'column'><img src = 'uspos/5600.bmp' width = '100%;'></div></div>","null","pos","CS","CS","1","category1/CS8.png","","","","",""
"","html-keyboard-response","43","278233","0.0-6.0-2.0-0.16","2o9l663odr","one_one","1","indirect_first","0","un07us23","0","20","1","2","3","1","","0","1","0","null","","","<div class = 'row'><div class = 'column'><img src = 'category3/CS6.png' width = '70%;'></div><div class = 'column'><img src = 'usneg/9342.bmp' width = '100%;'></div></div>","null","neg","CS","CS","3","category3/CS6.png","","","","",""
"","html-keyboard-response","44","280773","0.0-6.0-2.0-0.17","2o9l663odr","one_one","1","indirect_first","0","un07us23","0","20","1","2","3","1","","0","1","0","null","","","<div class = 'row'><div class = 'column'><img src = 'uspos/2160.bmp' width = '100%;'></div><div class = 'column'><img src = 'category2/CS6.png' width = '70%;'></div></div>","null","pos","CS","CS","2","category2/CS6.png","","","","",""
"","html-keyboard-response","45","283303","0.0-6.0-2.0-0.18","2o9l663odr","one_one","1","indirect_first","0","un07us23","0","20","1","2","3","1","","0","1","0","null","","","<div class = 'row'><div class = 'column'><img src = 'category3/CS6.png' width = '70%;'></div><div class = 'column'><img src = 'usneg/9342.bmp' width = '100%;'></div></div>","null","neg","CS","CS","3","category3/CS6.png","","","","",""
"","html-keyboard-response","46","285833","0.0-6.0-2.0-0.19","2o9l663odr","one_one","1","indirect_first","0","un07us23","0","20","1","2","3","1","","0","1","0","null","","","<div class = 'row'><div class = 'column'><img src = 'uspos/5600.bmp' width = '100%;'></div><div class = 'column'><img src = 'category1/CS8.png' width = '70%;'></div></div>","null","pos","CS","CS","1","category1/CS8.png","","","","",""
"","survey-html-form","47","288523","0.0-6.0-3.0","2o9l663odr","one_one","1","indirect_first","0","un07us23","0","20","1","2","3","1","","0","1","0","2169","","{}","","","","","","","","","","","",""
"","html-keyboard-response","48","292554","0.0-6.0-4.0-0.0","2o9l663odr","one_one","1","indirect_first","0","un07us23","0","20","1","2","3","1","","0","1","0","null","","","<div class = 'row'><div class = 'column'><img src = 'usneg/9342.bmp' width = '100%;'></div><div class = 'column'><img src = 'category3/CS6.png' width = '70%;'></div></div>","null","neg","CS","CS","3","category3/CS6.png","","","","",""
"","html-keyboard-response","49","295093","0.0-6.0-4.0-0.1","2o9l663odr","one_one","1","indirect_first","0","un07us23","0","20","1","2","3","1","","0","1","0","null","","","<div class = 'row'><div class = 'column'><img src = 'category2/CS6.png' width = '70%;'></div><div class = 'column'><img src = 'uspos/2160.bmp' width = '100%;'></div></div>","null","pos","CS","CS","2","category2/CS6.png","","","","",""
"","html-keyboard-response","50","297633","0.0-6.0-4.0-0.2","2o9l663odr","one_one","1","indirect_first","0","un07us23","0","20","1","2","3","1","","0","1","0","null","","","<div class = 'row'><div class = 'column'><img src = 'uspos/5600.bmp' width = '100%;'></div><div class = 'column'><img src = 'category1/CS8.png' width = '70%;'></div></div>","null","pos","CS","CS","1","category1/CS8.png","","","","",""
"","html-keyboard-response","51","300173","0.0-6.0-4.0-0.3","2o9l663odr","one_one","1","indirect_first","0","un07us23","0","20","1","2","3","1","","0","1","0","null","","","<div class = 'row'><div class = 'column'><img src = 'usneg/9342.bmp' width = '100%;'></div><div class = 'column'><img src = 'category3/CS6.png' width = '70%;'></div></div>","null","neg","CS","CS","3","category3/CS6.png","","","","",""
"","html-keyboard-response","52","302713","0.0-6.0-4.0-0.4","2o9l663odr","one_one","1","indirect_first","0","un07us23","0","20","1","2","3","1","","0","1","0","null","","","<div class = 'row'><div class = 'column'><img src = 'uspos/5600.bmp' width = '100%;'></div><div class = 'column'><img src = 'category1/CS8.png' width = '70%;'></div></div>","null","pos","CS","CS","1","category1/CS8.png","","","","",""
"","html-keyboard-response","53","305253","0.0-6.0-4.0-0.5","2o9l663odr","one_one","1","indirect_first","0","un07us23","0","20","1","2","3","1","","0","1","0","null","","","<div class = 'row'><div class = 'column'><img src = 'usneg/9290.bmp' width = '100%;'></div><div class = 'column'><img src = 'category4/CS7.png' width = '70%;'></div></div>","null","neg","CS","CS","4","category4/CS7.png","","","","",""
"","html-keyboard-response","54","307791","0.0-6.0-4.0-0.6","2o9l663odr","one_one","1","indirect_first","0","un07us23","0","20","1","2","3","1","","0","1","0","null","","","<div class = 'row'><div class = 'column'><img src = 'uspos/2160.bmp' width = '100%;'></div><div class = 'column'><img src = 'category2/CS6.png' width = '70%;'></div></div>","null","pos","CS","CS","2","category2/CS6.png","","","","",""
"","html-keyboard-response","55","310333","0.0-6.0-4.0-0.7","2o9l663odr","one_one","1","indirect_first","0","un07us23","0","20","1","2","3","1","","0","1","0","null","","","<div class = 'row'><div class = 'column'><img src = 'category1/CS8.png' width = '70%;'></div><div class = 'column'><img src = 'uspos/5600.bmp' width = '100%;'></div></div>","null","pos","CS","CS","1","category1/CS8.png","","","","",""
"","html-keyboard-response","56","312873","0.0-6.0-4.0-0.8","2o9l663odr","one_one","1","indirect_first","0","un07us23","0","20","1","2","3","1","","0","1","0","null","","","<div class = 'row'><div class = 'column'><img src = 'category3/CS6.png' width = '70%;'></div><div class = 'column'><img src = 'usneg/9342.bmp' width = '100%;'></div></div>","null","neg","CS","CS","3","category3/CS6.png","","","","",""
"","html-keyboard-response","57","315414","0.0-6.0-4.0-0.9","2o9l663odr","one_one","1","indirect_first","0","un07us23","0","20","1","2","3","1","","0","1","0","null","","","<div class = 'row'><div class = 'column'><img src = 'uspos/2160.bmp' width = '100%;'></div><div class = 'column'><img src = 'category2/CS6.png' width = '70%;'></div></div>","null","pos","CS","CS","2","category2/CS6.png","","","","",""
"","html-keyboard-response","58","317943","0.0-6.0-4.0-0.10","2o9l663odr","one_one","1","indirect_first","0","un07us23","0","20","1","2","3","1","","0","1","0","null","","","<div class = 'row'><div class = 'column'><img src = 'category1/CS8.png' width = '70%;'></div><div class = 'column'><img src = 'uspos/5600.bmp' width = '100%;'></div></div>","null","pos","CS","CS","1","category1/CS8.png","","","","",""
"","html-keyboard-response","59","320483","0.0-6.0-4.0-0.11","2o9l663odr","one_one","1","indirect_first","0","un07us23","0","20","1","2","3","1","","0","1","0","null","","","<div class = 'row'><div class = 'column'><img src = 'category2/CS6.png' width = '70%;'></div><div class = 'column'><img src = 'uspos/2160.bmp' width = '100%;'></div></div>","null","pos","CS","CS","2","category2/CS6.png","","","","",""
"","html-keyboard-response","60","323018","0.0-6.0-4.0-0.12","2o9l663odr","one_one","1","indirect_first","0","un07us23","0","20","1","2","3","1","","0","1","0","null","","","<div class = 'row'><div class = 'column'><img src = 'usneg/9290.bmp' width = '100%;'></div><div class = 'column'><img src = 'category4/CS7.png' width = '70%;'></div></div>","null","neg","CS","CS","4","category4/CS7.png","","","","",""
"","html-keyboard-response","61","325522","0.0-6.0-4.0-0.13","2o9l663odr","one_one","1","indirect_first","0","un07us23","0","20","1","2","3","1","","0","1","0","null","","","<div class = 'row'><div class = 'column'><img src = 'category2/CS6.png' width = '70%;'></div><div class = 'column'><img src = 'uspos/2160.bmp' width = '100%;'></div></div>","null","pos","CS","CS","2","category2/CS6.png","","","","",""
"","html-keyboard-response","62","328063","0.0-6.0-4.0-0.14","2o9l663odr","one_one","1","indirect_first","0","un07us23","0","20","1","2","3","1","","0","1","0","null","","","<div class = 'row'><div class = 'column'><img src = 'uspos/5600.bmp' width = '100%;'></div><div class = 'column'><img src = 'category1/CS8.png' width = '70%;'></div></div>","null","pos","CS","CS","1","category1/CS8.png","","","","",""
"","html-keyboard-response","63","330603","0.0-6.0-4.0-0.15","2o9l663odr","one_one","1","indirect_first","0","un07us23","0","20","1","2","3","1","","0","1","0","null","","","<div class = 'row'><div class = 'column'><img src = 'category4/CS7.png' width = '70%;'></div><div class = 'column'><img src = 'usneg/9290.bmp' width = '100%;'></div></div>","null","neg","CS","CS","4","category4/CS7.png","","","","",""
"","html-keyboard-response","64","333143","0.0-6.0-4.0-0.16","2o9l663odr","one_one","1","indirect_first","0","un07us23","0","20","1","2","3","1","","0","1","0","null","","","<div class = 'row'><div class = 'column'><img src = 'category3/CS6.png' width = '70%;'></div><div class = 'column'><img src = 'usneg/9342.bmp' width = '100%;'></div></div>","null","neg","CS","CS","3","category3/CS6.png","","","","",""
"","html-keyboard-response","65","335683","0.0-6.0-4.0-0.17","2o9l663odr","one_one","1","indirect_first","0","un07us23","0","20","1","2","3","1","","0","1","0","null","","","<div class = 'row'><div class = 'column'><img src = 'usneg/9290.bmp' width = '100%;'></div><div class = 'column'><img src = 'category4/CS7.png' width = '70%;'></div></div>","null","neg","CS","CS","4","category4/CS7.png","","","","",""
"","html-keyboard-response","66","338213","0.0-6.0-4.0-0.18","2o9l663odr","one_one","1","indirect_first","0","un07us23","0","20","1","2","3","1","","0","1","0","null","","","<div class = 'row'><div class = 'column'><img src = 'category3/CS6.png' width = '70%;'></div><div class = 'column'><img src = 'usneg/9342.bmp' width = '100%;'></div></div>","null","neg","CS","CS","3","category3/CS6.png","","","","",""
"","html-keyboard-response","67","340748","0.0-6.0-4.0-0.19","2o9l663odr","one_one","1","indirect_first","0","un07us23","0","20","1","2","3","1","","0","1","0","null","","","<div class = 'row'><div class = 'column'><img src = 'usneg/9290.bmp' width = '100%;'></div><div class = 'column'><img src = 'category4/CS7.png' width = '70%;'></div></div>","null","neg","CS","CS","4","category4/CS7.png","","","","",""
"","survey-html-form","68","344301","0.0-6.0-5.0","2o9l663odr","one_one","1","indirect_first","0","un07us23","0","20","1","2","3","1","","0","1","0","3038","","{}","","","","","","","","","","","",""
"","html-keyboard-response","69","348313","0.0-6.0-6.0-0.0","2o9l663odr","one_one","1","indirect_first","0","un07us23","0","20","1","2","3","1","","0","1","0","null","","","<div class = 'row'><div class = 'column'><img src = 'usneg/9342.bmp' width = '100%;'></div><div class = 'column'><img src = 'category3/CS6.png' width = '70%;'></div></div>","null","neg","CS","CS","3","category3/CS6.png","","","","",""
"","html-keyboard-response","70","350853","0.0-6.0-6.0-0.1","2o9l663odr","one_one","1","indirect_first","0","un07us23","0","20","1","2","3","1","","0","1","0","null","","","<div class = 'row'><div class = 'column'><img src = 'uspos/5600.bmp' width = '100%;'></div><div class = 'column'><img src = 'category1/CS8.png' width = '70%;'></div></div>","null","pos","CS","CS","1","category1/CS8.png","","","","",""
"","html-keyboard-response","71","353393","0.0-6.0-6.0-0.2","2o9l663odr","one_one","1","indirect_first","0","un07us23","0","20","1","2","3","1","","0","1","0","null","","","<div class = 'row'><div class = 'column'><img src = 'usneg/9342.bmp' width = '100%;'></div><div class = 'column'><img src = 'category3/CS6.png' width = '70%;'></div></div>","null","neg","CS","CS","3","category3/CS6.png","","","","",""
"","html-keyboard-response","72","355934","0.0-6.0-6.0-0.3","2o9l663odr","one_one","1","indirect_first","0","un07us23","0","20","1","2","3","1","","0","1","0","null","","","<div class = 'row'><div class = 'column'><img src = 'usneg/9290.bmp' width = '100%;'></div><div class = 'column'><img src = 'category4/CS7.png' width = '70%;'></div></div>","null","neg","CS","CS","4","category4/CS7.png","","","","",""
"","html-keyboard-response","73","358473","0.0-6.0-6.0-0.4","2o9l663odr","one_one","1","indirect_first","0","un07us23","0","20","1","2","3","1","","0","1","0","null","","","<div class = 'row'><div class = 'column'><img src = 'uspos/2160.bmp' width = '100%;'></div><div class = 'column'><img src = 'category2/CS6.png' width = '70%;'></div></div>","null","pos","CS","CS","2","category2/CS6.png","","","","",""
"","html-keyboard-response","74","361013","0.0-6.0-6.0-0.5","2o9l663odr","one_one","1","indirect_first","0","un07us23","0","20","1","2","3","1","","0","1","0","null","","","<div class = 'row'><div class = 'column'><img src = 'category4/CS7.png' width = '70%;'></div><div class = 'column'><img src = 'usneg/9290.bmp' width = '100%;'></div></div>","null","neg","CS","CS","4","category4/CS7.png","","","","",""
"","html-keyboard-response","75","363553","0.0-6.0-6.0-0.6","2o9l663odr","one_one","1","indirect_first","0","un07us23","0","20","1","2","3","1","","0","1","0","null","","","<div class = 'row'><div class = 'column'><img src = 'category1/CS8.png' width = '70%;'></div><div class = 'column'><img src = 'uspos/5600.bmp' width = '100%;'></div></div>","null","pos","CS","CS","1","category1/CS8.png","","","","",""
"","html-keyboard-response","76","366088","0.0-6.0-6.0-0.7","2o9l663odr","one_one","1","indirect_first","0","un07us23","0","20","1","2","3","1","","0","1","0","null","","","<div class = 'row'><div class = 'column'><img src = 'category2/CS6.png' width = '70%;'></div><div class = 'column'><img src = 'uspos/2160.bmp' width = '100%;'></div></div>","null","pos","CS","CS","2","category2/CS6.png","","","","",""
"","html-keyboard-response","77","368633","0.0-6.0-6.0-0.8","2o9l663odr","one_one","1","indirect_first","0","un07us23","0","20","1","2","3","1","","0","1","0","null","","","<div class = 'row'><div class = 'column'><img src = 'category4/CS7.png' width = '70%;'></div><div class = 'column'><img src = 'usneg/9290.bmp' width = '100%;'></div></div>","null","neg","CS","CS","4","category4/CS7.png","","","","",""
"","html-keyboard-response","78","371172","0.0-6.0-6.0-0.9","2o9l663odr","one_one","1","indirect_first","0","un07us23","0","20","1","2","3","1","","0","1","0","null","","","<div class = 'row'><div class = 'column'><img src = 'category1/CS8.png' width = '70%;'></div><div class = 'column'><img src = 'uspos/5600.bmp' width = '100%;'></div></div>","null","pos","CS","CS","1","category1/CS8.png","","","","",""
"","html-keyboard-response","79","373712","0.0-6.0-6.0-0.10","2o9l663odr","one_one","1","indirect_first","0","un07us23","0","20","1","2","3","1","","0","1","0","null","","","<div class = 'row'><div class = 'column'><img src = 'usneg/9342.bmp' width = '100%;'></div><div class = 'column'><img src = 'category3/CS6.png' width = '70%;'></div></div>","null","neg","CS","CS","3","category3/CS6.png","","","","",""
"","html-keyboard-response","80","376253","0.0-6.0-6.0-0.11","2o9l663odr","one_one","1","indirect_first","0","un07us23","0","20","1","2","3","1","","0","1","0","null","","","<div class = 'row'><div class = 'column'><img src = 'uspos/2160.bmp' width = '100%;'></div><div class = 'column'><img src = 'category2/CS6.png' width = '70%;'></div></div>","null","pos","CS","CS","2","category2/CS6.png","","","","",""
"","html-keyboard-response","81","378793","0.0-6.0-6.0-0.12","2o9l663odr","one_one","1","indirect_first","0","un07us23","0","20","1","2","3","1","","0","1","0","null","","","<div class = 'row'><div class = 'column'><img src = 'uspos/5600.bmp' width = '100%;'></div><div class = 'column'><img src = 'category1/CS8.png' width = '70%;'></div></div>","null","pos","CS","CS","1","category1/CS8.png","","","","",""
"","html-keyboard-response","82","381332","0.0-6.0-6.0-0.13","2o9l663odr","one_one","1","indirect_first","0","un07us23","0","20","1","2","3","1","","0","1","0","null","","","<div class = 'row'><div class = 'column'><img src = 'category4/CS7.png' width = '70%;'></div><div class = 'column'><img src = 'usneg/9290.bmp' width = '100%;'></div></div>","null","neg","CS","CS","4","category4/CS7.png","","","","",""
"","html-keyboard-response","83","383863","0.0-6.0-6.0-0.14","2o9l663odr","one_one","1","indirect_first","0","un07us23","0","20","1","2","3","1","","0","1","0","null","","","<div class = 'row'><div class = 'column'><img src = 'category3/CS6.png' width = '70%;'></div><div class = 'column'><img src = 'usneg/9342.bmp' width = '100%;'></div></div>","null","neg","CS","CS","3","category3/CS6.png","","","","",""
"","html-keyboard-response","84","386403","0.0-6.0-6.0-0.15","2o9l663odr","one_one","1","indirect_first","0","un07us23","0","20","1","2","3","1","","0","1","0","null","","","<div class = 'row'><div class = 'column'><img src = 'uspos/2160.bmp' width = '100%;'></div><div class = 'column'><img src = 'category2/CS6.png' width = '70%;'></div></div>","null","pos","CS","CS","2","category2/CS6.png","","","","",""
"","html-keyboard-response","85","388943","0.0-6.0-6.0-0.16","2o9l663odr","one_one","1","indirect_first","0","un07us23","0","20","1","2","3","1","","0","1","0","null","","","<div class = 'row'><div class = 'column'><img src = 'uspos/5600.bmp' width = '100%;'></div><div class = 'column'><img src = 'category1/CS8.png' width = '70%;'></div></div>","null","pos","CS","CS","1","category1/CS8.png","","","","",""
"","html-keyboard-response","86","391472","0.0-6.0-6.0-0.17","2o9l663odr","one_one","1","indirect_first","0","un07us23","0","20","1","2","3","1","","0","1","0","null","","","<div class = 'row'><div class = 'column'><img src = 'category2/CS6.png' width = '70%;'></div><div class = 'column'><img src = 'uspos/2160.bmp' width = '100%;'></div></div>","null","pos","CS","CS","2","category2/CS6.png","","","","",""
"","html-keyboard-response","87","394012","0.0-6.0-6.0-0.18","2o9l663odr","one_one","1","indirect_first","0","un07us23","0","20","1","2","3","1","","0","1","0","null","","","<div class = 'row'><div class = 'column'><img src = 'usneg/9290.bmp' width = '100%;'></div><div class = 'column'><img src = 'category4/CS7.png' width = '70%;'></div></div>","null","neg","CS","CS","4","category4/CS7.png","","","","",""
"","html-keyboard-response","88","396553","0.0-6.0-6.0-0.19","2o9l663odr","one_one","1","indirect_first","0","un07us23","0","20","1","2","3","1","","0","1","0","null","","","<div class = 'row'><div class = 'column'><img src = 'usneg/9342.bmp' width = '100%;'></div><div class = 'column'><img src = 'category3/CS6.png' width = '70%;'></div></div>","null","neg","CS","CS","3","category3/CS6.png","","","","",""
"","html-keyboard-response","89","433132","0.0-7.0","2o9l663odr","one_one","1","indirect_first","0","un07us23","0","20","1","2","3","1","","0","1","0","36057","","","<p>Sie sehen nun die chinesischen Zeichen nur ganz kurz. Danach sehen Sie die jeweilige Aussprache der Zeichen als Silbe auf dem Bildschrim. Ihre Aufgabe ist es, für jede Silbe anzugeben, ob diese etwas angenehmes, oder unangenehmes bedeuten könnte. Verlassen Sie sich hier vor allem auf Ihre Intuition.<br><br>Die Zeichen werden nur zur Orientierung dargestellt, beachten Sie sie deshalb nicht. Konzentrieren Sie sich vor allem auf die Silben. <br>Reagieren Sie mit folgenden zwei Tasten: <br><br><b>'D' </b> wenn die Silbe etwas <b>unangenehmes</b> bedeuten könnte. <br><b>'K'</b> wenn die Silbe etwas <b>angenehmes</b> bedeuten könnte. <br><br>Bitte legen Sie nun den Zeigefinger der linken Hand auf die Taste 'D' und den Zeigefinger der rechten Hand auf die Taste 'K'. <br>Reagieren Sie auf jede Silbe so schnell wie möglich. Uns interessiert Ihre spontane Reaktion. <br> <br> <br>Drücken Sie 'D' oder 'K', um die nächste Aufgabe zu starten. </p>","75","","","","","","","","","",""
"","html-keyboard-response","90","436153","0.0-8.0-0.0","2o9l663odr","one_one","1","indirect_first","0","un07us23","0","20","1","2","3","1","","0","1","0","null","","","<div style=""font-size:60px;"">+</div>","null","","","","","","","","","",""
"","html-keyboard-response","91","436253","0.0-8.0-1.0","2o9l663odr","one_one","1","indirect_first","0","un07us23","0","20","1","2","3","1","","0","1","0","null","","","<img src = 'category1/CS7.png' width = '100%;'>","null","","","","","","","","","",""
"","html-keyboard-response","92","436533","0.0-8.0-2.0","2o9l663odr","one_one","1","indirect_first","0","un07us23","0","20","1","2","3","1","","0","1","0","null","","","<img src = 'targets/25.png' width = '100%;'>","null","","","","","","","","","",""
"","html-keyboard-response","93","438158","0.0-8.0-3.0","2o9l663odr","one_one","1","indirect_first","0","un07us23","0","20","1","2","3","1","","0","1","0","1622","","","<img src = 'targets/mask.png' width = '100%;'>","75","pos","GS","GSold","1","category1/CS7.png","targets/25.png","1","indirect","0",""
"","html-keyboard-response","94","439693","0.0-8.0-0.1","2o9l663odr","one_one","1","indirect_first","0","un07us23","0","20","1","2","3","1","","0","1","0","null","","","<div style=""font-size:60px;"">+</div>","null","","","","","","","","","",""
"","html-keyboard-response","95","439792","0.0-8.0-1.1","2o9l663odr","one_one","1","indirect_first","0","un07us23","0","20","1","2","3","1","","0","1","0","null","","","<img src = 'category3/CS2.png' width = '100%;'>","null","","","","","","","","","",""
"","html-keyboard-response","96","440073","0.0-8.0-2.1","2o9l663odr","one_one","1","indirect_first","0","un07us23","0","20","1","2","3","1","","0","1","0","null","","","<img src = 'targets/38.png' width = '100%;'>","null","","","","","","","","","",""
"","html-keyboard-response","97","440631","0.0-8.0-3.1","2o9l663odr","one_one","1","indirect_first","0","un07us23","0","20","1","2","3","1","","0","1","0","556","","","<img src = 'targets/mask.png' width = '100%;'>","68","neg","GS","GSold","3","category3/CS2.png","targets/38.png","0","indirect","1",""
"","html-keyboard-response","98","442153","0.0-8.0-0.2","2o9l663odr","one_one","1","indirect_first","0","un07us23","0","20","1","2","3","1","","0","1","0","null","","","<div style=""font-size:60px;"">+</div>","null","","","","","","","","","",""
"","html-keyboard-response","99","442253","0.0-8.0-1.2","2o9l663odr","one_one","1","indirect_first","0","un07us23","0","20","1","2","3","1","","0","1","0","null","","","<img src = 'category1/CS10.png' width = '100%;'>","null","","","","","","","","","",""
"","html-keyboard-response","100","442533","0.0-8.0-2.2","2o9l663odr","one_one","1","indirect_first","0","un07us23","0","20","1","2","3","1","","0","1","0","null","","","<img src = 'targets/15.png' width = '100%;'>","null","","","","","","","","","",""
"","html-keyboard-response","101","443621","0.0-8.0-3.2","2o9l663odr","one_one","1","indirect_first","0","un07us23","0","20","1","2","3","1","","0","1","0","1087","","","<img src = 'targets/mask.png' width = '100%;'>","75","pos","GS","GSold","1","category1/CS10.png","targets/15.png","1","indirect","2",""
"","html-keyboard-response","102","445153","0.0-8.0-0.3","2o9l663odr","one_one","1","indirect_first","0","un07us23","0","20","1","2","3","1","","0","1","0","null","","","<div style=""font-size:60px;"">+</div>","null","","","","","","","","","",""
"","html-keyboard-response","103","445253","0.0-8.0-1.3","2o9l663odr","one_one","1","indirect_first","0","un07us23","0","20","1","2","3","1","","0","1","0","null","","","<img src = 'category3/CS6.png' width = '100%;'>","null","","","","","","","","","",""
"","html-keyboard-response","104","445532","0.0-8.0-2.3","2o9l663odr","one_one","1","indirect_first","0","un07us23","0","20","1","2","3","1","","0","1","0","null","","","<img src = 'targets/46.png' width = '100%;'>","null","","","","","","","","","",""
"","html-keyboard-response","105","446401","0.0-8.0-3.3","2o9l663odr","one_one","1","indirect_first","0","un07us23","0","20","1","2","3","1","","0","1","0","865","","","<img src = 'targets/mask.png' width = '100%;'>","75","neg","CS","CS","3","category3/CS6.png","targets/46.png","1","indirect","3",""
"","html-keyboard-response","106","447923","0.0-8.0-0.4","2o9l663odr","one_one","1","indirect_first","0","un07us23","0","20","1","2","3","1","","0","1","0","null","","","<div style=""font-size:60px;"">+</div>","null","","","","","","","","","",""
"","html-keyboard-response","107","448023","0.0-8.0-1.4","2o9l663odr","one_one","1","indirect_first","0","un07us23","0","20","1","2","3","1","","0","1","0","null","","","<img src = 'category3/CS4.png' width = '100%;'>","null","","","","","","","","","",""
"","html-keyboard-response","108","448303","0.0-8.0-2.4","2o9l663odr","one_one","1","indirect_first","0","un07us23","0","20","1","2","3","1","","0","1","0","null","","","<img src = 'targets/30.png' width = '100%;'>","null","","","","","","","","","",""
"","html-keyboard-response","109","449065","0.0-8.0-3.4","2o9l663odr","one_one","1","indirect_first","0","un07us23","0","20","1","2","3","1","","0","1","0","758","","","<img src = 'targets/mask.png' width = '100%;'>","68","neg","GS","GSold","3","category3/CS4.png","targets/30.png","0","indirect","4",""
"","html-keyboard-response","110","450603","0.0-8.0-0.5","2o9l663odr","one_one","1","indirect_first","0","un07us23","0","20","1","2","3","1","","0","1","0","null","","","<div style=""font-size:60px;"">+</div>","null","","","","","","","","","",""
"","html-keyboard-response","111","450703","0.0-8.0-1.5","2o9l663odr","one_one","1","indirect_first","0","un07us23","0","20","1","2","3","1","","0","1","0","null","","","<img src = 'category4/CS4.png' width = '100%;'>","null","","","","","","","","","",""
"","html-keyboard-response","112","450983","0.0-8.0-2.5","2o9l663odr","one_one","1","indirect_first","0","un07us23","0","20","1","2","3","1","","0","1","0","null","","","<img src = 'targets/35.png' width = '100%;'>","null","","","","","","","","","",""
"","html-keyboard-response","113","451553","0.0-8.0-3.5","2o9l663odr","one_one","1","indirect_first","0","un07us23","0","20","1","2","3","1","","0","1","0","567","","","<img src = 'targets/mask.png' width = '100%;'>","75","neg","GS","GSold","4","category4/CS4.png","targets/35.png","1","indirect","5",""
"","html-keyboard-response","114","453083","0.0-8.0-0.6","2o9l663odr","one_one","1","indirect_first","0","un07us23","0","20","1","2","3","1","","0","1","0","null","","","<div style=""font-size:60px;"">+</div>","null","","","","","","","","","",""
"","html-keyboard-response","115","453183","0.0-8.0-1.6","2o9l663odr","one_one","1","indirect_first","0","un07us23","0","20","1","2","3","1","","0","1","0","null","","","<img src = 'category4/CS7.png' width = '100%;'>","null","","","","","","","","","",""
"","html-keyboard-response","116","453463","0.0-8.0-2.6","2o9l663odr","one_one","1","indirect_first","0","un07us23","0","20","1","2","3","1","","0","1","0","null","","","<img src = 'targets/39.png' width = '100%;'>","null","","","","","","","","","",""
"","html-keyboard-response","117","454050","0.0-8.0-3.6","2o9l663odr","one_one","1","indirect_first","0","un07us23","0","20","1","2","3","1","","0","1","0","586","","","<img src = 'targets/mask.png' width = '100%;'>","75","neg","CS","CS","4","category4/CS7.png","targets/39.png","1","indirect","6",""
"","html-keyboard-response","118","455582","0.0-8.0-0.7","2o9l663odr","one_one","1","indirect_first","0","un07us23","0","20","1","2","3","1","","0","1","0","null","","","<div style=""font-size:60px;"">+</div>","null","","","","","","","","","",""
"","html-keyboard-response","119","455683","0.0-8.0-1.7","2o9l663odr","one_one","1","indirect_first","0","un07us23","0","20","1","2","3","1","","0","1","0","null","","","<img src = 'category2/CS6.png' width = '100%;'>","null","","","","","","","","","",""
"","html-keyboard-response","120","455963","0.0-8.0-2.7","2o9l663odr","one_one","1","indirect_first","0","un07us23","0","20","1","2","3","1","","0","1","0","null","","","<img src = 'targets/29.png' width = '100%;'>","null","","","","","","","","","",""
"","html-keyboard-response","121","456580","0.0-8.0-3.7","2o9l663odr","one_one","1","indirect_first","0","un07us23","0","20","1","2","3","1","","0","1","0","615","","","<img src = 'targets/mask.png' width = '100%;'>","68","pos","CS","CS","2","category2/CS6.png","targets/29.png","0","indirect","7",""
"","html-keyboard-response","122","458103","0.0-8.0-0.8","2o9l663odr","one_one","1","indirect_first","0","un07us23","0","20","1","2","3","1","","0","1","0","null","","","<div style=""font-size:60px;"">+</div>","null","","","","","","","","","",""
"","html-keyboard-response","123","458204","0.0-8.0-1.8","2o9l663odr","one_one","1","indirect_first","0","un07us23","0","20","1","2","3","1","","0","1","0","null","","","<img src = 'category2/CS7.png' width = '100%;'>","null","","","","","","","","","",""
"","html-keyboard-response","124","458482","0.0-8.0-2.8","2o9l663odr","one_one","1","indirect_first","0","un07us23","0","20","1","2","3","1","","0","1","0","null","","","<img src = 'targets/11.png' width = '100%;'>","null","","","","","","","","","",""
"","html-keyboard-response","125","459134","0.0-8.0-3.8","2o9l663odr","one_one","1","indirect_first","0","un07us23","0","20","1","2","3","1","","0","1","0","649","","","<img src = 'targets/mask.png' width = '100%;'>","75","pos","GS","GSold","2","category2/CS7.png","targets/11.png","1","indirect","8",""
"","html-keyboard-response","126","460662","0.0-8.0-0.9","2o9l663odr","one_one","1","indirect_first","0","un07us23","0","20","1","2","3","1","","0","1","0","null","","","<div style=""font-size:60px;"">+</div>","null","","","","","","","","","",""
"","html-keyboard-response","127","460762","0.0-8.0-1.9","2o9l663odr","one_one","1","indirect_first","0","un07us23","0","20","1","2","3","1","","0","1","0","null","","","<img src = 'category2/CS9.png' width = '100%;'>","null","","","","","","","","","",""
"","html-keyboard-response","128","461043","0.0-8.0-2.9","2o9l663odr","one_one","1","indirect_first","0","un07us23","0","20","1","2","3","1","","0","1","0","null","","","<img src = 'targets/31.png' width = '100%;'>","null","","","","","","","","","",""
"","html-keyboard-response","129","461929","0.0-8.0-3.9","2o9l663odr","one_one","1","indirect_first","0","un07us23","0","20","1","2","3","1","","0","1","0","883","","","<img src = 'targets/mask.png' width = '100%;'>","75","pos","GS","GSold","2","category2/CS9.png","targets/31.png","1","indirect","9",""
"","html-keyboard-response","130","463463","0.0-8.0-0.10","2o9l663odr","one_one","1","indirect_first","0","un07us23","0","20","1","2","3","1","","0","1","0","null","","","<div style=""font-size:60px;"">+</div>","null","","","","","","","","","",""
"","html-keyboard-response","131","463563","0.0-8.0-1.10","2o9l663odr","one_one","1","indirect_first","0","un07us23","0","20","1","2","3","1","","0","1","0","null","","","<img src = 'category4/CS3.png' width = '100%;'>","null","","","","","","","","","",""
"","html-keyboard-response","132","463843","0.0-8.0-2.10","2o9l663odr","one_one","1","indirect_first","0","un07us23","0","20","1","2","3","1","","0","1","0","null","","","<img src = 'targets/37.png' width = '100%;'>","null","","","","","","","","","",""
"","html-keyboard-response","133","464476","0.0-8.0-3.10","2o9l663odr","one_one","1","indirect_first","0","un07us23","0","20","1","2","3","1","","0","1","0","632","","","<img src = 'targets/mask.png' width = '100%;'>","68","neg","GS","GSold","4","category4/CS3.png","targets/37.png","0","indirect","10",""
"","html-keyboard-response","134","465983","0.0-8.0-0.11","2o9l663odr","one_one","1","indirect_first","0","un07us23","0","20","1","2","3","1","","0","1","0","null","","","<div style=""font-size:60px;"">+</div>","null","","","","","","","","","",""
"","html-keyboard-response","135","466083","0.0-8.0-1.11","2o9l663odr","one_one","1","indirect_first","0","un07us23","0","20","1","2","3","1","","0","1","0","null","","","<img src = 'category3/CS1.png' width = '100%;'>","null","","","","","","","","","",""
"","html-keyboard-response","136","466363","0.0-8.0-2.11","2o9l663odr","one_one","1","indirect_first","0","un07us23","0","20","1","2","3","1","","0","1","0","null","","","<img src = 'targets/36.png' width = '100%;'>","null","","","","","","","","","",""
"","html-keyboard-response","137","466975","0.0-8.0-3.11","2o9l663odr","one_one","1","indirect_first","0","un07us23","0","20","1","2","3","1","","0","1","0","610","","","<img src = 'targets/mask.png' width = '100%;'>","68","neg","GS","GSold","3","category3/CS1.png","targets/36.png","0","indirect","11",""
"","html-keyboard-response","138","468503","0.0-8.0-0.12","2o9l663odr","one_one","1","indirect_first","0","un07us23","0","20","1","2","3","1","","0","1","0","null","","","<div style=""font-size:60px;"">+</div>","null","","","","","","","","","",""
"","html-keyboard-response","139","468602","0.0-8.0-1.12","2o9l663odr","one_one","1","indirect_first","0","un07us23","0","20","1","2","3","1","","0","1","0","null","","","<img src = 'category1/CS2.png' width = '100%;'>","null","","","","","","","","","",""
"","html-keyboard-response","140","468872","0.0-8.0-2.12","2o9l663odr","one_one","1","indirect_first","0","un07us23","0","20","1","2","3","1","","0","1","0","null","","","<img src = 'targets/8.png' width = '100%;'>","null","","","","","","","","","",""
"","html-keyboard-response","141","469410","0.0-8.0-3.12","2o9l663odr","one_one","1","indirect_first","0","un07us23","0","20","1","2","3","1","","0","1","0","535","","","<img src = 'targets/mask.png' width = '100%;'>","68","pos","GS","GSold","1","category1/CS2.png","targets/8.png","0","indirect","12",""
"","html-keyboard-response","142","470913","0.0-8.0-0.13","2o9l663odr","one_one","1","indirect_first","0","un07us23","0","20","1","2","3","1","","0","1","0","null","","","<div style=""font-size:60px;"">+</div>","null","","","","","","","","","",""
"","html-keyboard-response","143","471013","0.0-8.0-1.13","2o9l663odr","one_one","1","indirect_first","0","un07us23","0","20","1","2","3","1","","0","1","0","null","","","<img src = 'category2/CS2.png' width = '100%;'>","null","","","","","","","","","",""
"","html-keyboard-response","144","471292","0.0-8.0-2.13","2o9l663odr","one_one","1","indirect_first","0","un07us23","0","20","1","2","3","1","","0","1","0","null","","","<img src = 'targets/32.png' width = '100%;'>","null","","","","","","","","","",""
"","html-keyboard-response","145","471753","0.0-8.0-3.13","2o9l663odr","one_one","1","indirect_first","0","un07us23","0","20","1","2","3","1","","0","1","0","459","","","<img src = 'targets/mask.png' width = '100%;'>","75","pos","GS","GSold","2","category2/CS2.png","targets/32.png","1","indirect","13",""
"","html-keyboard-response","146","473293","0.0-8.0-0.14","2o9l663odr","one_one","1","indirect_first","0","un07us23","0","20","1","2","3","1","","0","1","0","null","","","<div style=""font-size:60px;"">+</div>","null","","","","","","","","","",""
"","html-keyboard-response","147","473393","0.0-8.0-1.14","2o9l663odr","one_one","1","indirect_first","0","un07us23","0","20","1","2","3","1","","0","1","0","null","","","<img src = 'category1/CS8.png' width = '100%;'>","null","","","","","","","","","",""
"","html-keyboard-response","148","473672","0.0-8.0-2.14","2o9l663odr","one_one","1","indirect_first","0","un07us23","0","20","1","2","3","1","","0","1","0","null","","","<img src = 'targets/2.png' width = '100%;'>","null","","","","","","","","","",""
"","html-keyboard-response","149","474141","0.0-8.0-3.14","2o9l663odr","one_one","1","indirect_first","0","un07us23","0","20","1","2","3","1","","0","1","0","467","","","<img src = 'targets/mask.png' width = '100%;'>","75","pos","CS","CS","1","category1/CS8.png","targets/2.png","1","indirect","14",""
"","html-keyboard-response","150","475663","0.0-8.0-0.15","2o9l663odr","one_one","1","indirect_first","0","un07us23","0","20","1","2","3","1","","0","1","0","null","","","<div style=""font-size:60px;"">+</div>","null","","","","","","","","","",""
"","html-keyboard-response","151","475762","0.0-8.0-1.15","2o9l663odr","one_one","1","indirect_first","0","un07us23","0","20","1","2","3","1","","0","1","0","null","","","<img src = 'category4/CS1.png' width = '100%;'>","null","","","","","","","","","",""
"","html-keyboard-response","152","476043","0.0-8.0-2.15","2o9l663odr","one_one","1","indirect_first","0","un07us23","0","20","1","2","3","1","","0","1","0","null","","","<img src = 'targets/27.png' width = '100%;'>","null","","","","","","","","","",""
"","html-keyboard-response","153","476365","0.0-8.0-3.15","2o9l663odr","one_one","1","indirect_first","0","un07us23","0","20","1","2","3","1","","0","1","0","320","","","<img src = 'targets/mask.png' width = '100%;'>","75","neg","GS","GSold","4","category4/CS1.png","targets/27.png","1","indirect","15",""
"","survey-html-form","154","480418","0.0-9.0","2o9l663odr","one_one","1","indirect_first","0","un07us23","0","20","1","2","3","1","","0","1","0","3533","","{}","","","","","","","","","","","",""
"","html-keyboard-response","155","483432","0.0-10.0-0.0","2o9l663odr","one_one","1","indirect_first","0","un07us23","0","20","1","2","3","1","","0","1","0","null","","","<div style=""font-size:60px;"">+</div>","null","","","","","","","","","",""
"","html-keyboard-response","156","483533","0.0-10.0-1.0","2o9l663odr","one_one","1","indirect_first","0","un07us23","0","20","1","2","3","1","","0","1","0","null","","","<img src = 'category2/GS2.png' width = '100%;'>","null","","","","","","","","","",""
"","html-keyboard-response","157","483813","0.0-10.0-2.0","2o9l663odr","one_one","1","indirect_first","0","un07us23","0","20","1","2","3","1","","0","1","0","null","","","<img src = 'targets/43.png' width = '100%;'>","null","","","","","","","","","",""
"","html-keyboard-response","158","484527","0.0-10.0-3.0","2o9l663odr","one_one","1","indirect_first","0","un07us23","0","20","1","2","3","1","","0","1","0","713","","","<img src = 'targets/mask.png' width = '100%;'>","68","pos","GS","GSnew","2","category2/GS2.png","targets/43.png","0","indirect","16",""
"","html-keyboard-response","159","486052","0.0-10.0-0.1","2o9l663odr","one_one","1","indirect_first","0","un07us23","0","20","1","2","3","1","","0","1","0","null","","","<div style=""font-size:60px;"">+</div>","null","","","","","","","","","",""
"","html-keyboard-response","160","486152","0.0-10.0-1.1","2o9l663odr","one_one","1","indirect_first","0","un07us23","0","20","1","2","3","1","","0","1","0","null","","","<img src = 'category3/GS1.png' width = '100%;'>","null","","","","","","","","","",""
"","html-keyboard-response","161","486433","0.0-10.0-2.1","2o9l663odr","one_one","1","indirect_first","0","un07us23","0","20","1","2","3","1","","0","1","0","null","","","<img src = 'targets/21.png' width = '100%;'>","null","","","","","","","","","",""
"","html-keyboard-response","162","486770","0.0-10.0-3.1","2o9l663odr","one_one","1","indirect_first","0","un07us23","0","20","1","2","3","1","","0","1","0","336","","","<img src = 'targets/mask.png' width = '100%;'>","75","neg","GS","GSnew","3","category3/GS1.png","targets/21.png","1","indirect","17",""
"","html-keyboard-response","163","488293","0.0-10.0-0.2","2o9l663odr","one_one","1","indirect_first","0","un07us23","0","20","1","2","3","1","","0","1","0","null","","","<div style=""font-size:60px;"">+</div>","null","","","","","","","","","",""
"","html-keyboard-response","164","488392","0.0-10.0-1.2","2o9l663odr","one_one","1","indirect_first","0","un07us23","0","20","1","2","3","1","","0","1","0","null","","","<img src = 'category2/GS1.png' width = '100%;'>","null","","","","","","","","","",""
"","html-keyboard-response","165","488673","0.0-10.0-2.2","2o9l663odr","one_one","1","indirect_first","0","un07us23","0","20","1","2","3","1","","0","1","0","null","","","<img src = 'targets/18.png' width = '100%;'>","null","","","","","","","","","",""
"","html-keyboard-response","166","489650","0.0-10.0-3.2","2o9l663odr","one_one","1","indirect_first","0","un07us23","0","20","1","2","3","1","","0","1","0","976","","","<img src = 'targets/mask.png' width = '100%;'>","75","pos","GS","GSnew","2","category2/GS1.png","targets/18.png","1","indirect","18",""
"","html-keyboard-response","167","491170","0.0-10.0-0.3","2o9l663odr","one_one","1","indirect_first","0","un07us23","0","20","1","2","3","1","","0","1","0","null","","","<div style=""font-size:60px;"">+</div>","null","","","","","","","","","",""
"","html-keyboard-response","168","491270","0.0-10.0-1.3","2o9l663odr","one_one","1","indirect_first","0","un07us23","0","20","1","2","3","1","","0","1","0","null","","","<img src = 'category4/GS1.png' width = '100%;'>","null","","","","","","","","","",""
"","html-keyboard-response","169","491553","0.0-10.0-2.3","2o9l663odr","one_one","1","indirect_first","0","un07us23","0","20","1","2","3","1","","0","1","0","null","","","<img src = 'targets/26.png' width = '100%;'>","null","","","","","","","","","",""
"","html-keyboard-response","170","492009","0.0-10.0-3.3","2o9l663odr","one_one","1","indirect_first","0","un07us23","0","20","1","2","3","1","","0","1","0","454","","","<img src = 'targets/mask.png' width = '100%;'>","68","neg","GS","GSnew","4","category4/GS1.png","targets/26.png","0","indirect","19",""
"","html-keyboard-response","171","493533","0.0-10.0-0.4","2o9l663odr","one_one","1","indirect_first","0","un07us23","0","20","1","2","3","1","","0","1","0","null","","","<div style=""font-size:60px;"">+</div>","null","","","","","","","","","",""
"","html-keyboard-response","172","493633","0.0-10.0-1.4","2o9l663odr","one_one","1","indirect_first","0","un07us23","0","20","1","2","3","1","","0","1","0","null","","","<img src = 'category4/GS2.png' width = '100%;'>","null","","","","","","","","","",""
"","html-keyboard-response","173","493913","0.0-10.0-2.4","2o9l663odr","one_one","1","indirect_first","0","un07us23","0","20","1","2","3","1","","0","1","0","null","","","<img src = 'targets/44.png' width = '100%;'>","null","","","","","","","","","",""
"","html-keyboard-response","174","494452","0.0-10.0-3.4","2o9l663odr","one_one","1","indirect_first","0","un07us23","0","20","1","2","3","1","","0","1","0","536","","","<img src = 'targets/mask.png' width = '100%;'>","75","neg","GS","GSnew","4","category4/GS2.png","targets/44.png","1","indirect","20",""
"","html-keyboard-response","175","495953","0.0-10.0-0.5","2o9l663odr","one_one","1","indirect_first","0","un07us23","0","20","1","2","3","1","","0","1","0","null","","","<div style=""font-size:60px;"">+</div>","null","","","","","","","","","",""
"","html-keyboard-response","176","496053","0.0-10.0-1.5","2o9l663odr","one_one","1","indirect_first","0","un07us23","0","20","1","2","3","1","","0","1","0","null","","","<img src = 'category3/GS3.png' width = '100%;'>","null","","","","","","","","","",""
"","html-keyboard-response","177","496332","0.0-10.0-2.5","2o9l663odr","one_one","1","indirect_first","0","un07us23","0","20","1","2","3","1","","0","1","0","null","","","<img src = 'targets/45.png' width = '100%;'>","null","","","","","","","","","",""
"","html-keyboard-response","178","496765","0.0-10.0-3.5","2o9l663odr","one_one","1","indirect_first","0","un07us23","0","20","1","2","3","1","","0","1","0","430","","","<img src = 'targets/mask.png' width = '100%;'>","68","neg","GS","GSnew","3","category3/GS3.png","targets/45.png","0","indirect","21",""
"","html-keyboard-response","179","498293","0.0-10.0-0.6","2o9l663odr","one_one","1","indirect_first","0","un07us23","0","20","1","2","3","1","","0","1","0","null","","","<div style=""font-size:60px;"">+</div>","null","","","","","","","","","",""
"","html-keyboard-response","180","498393","0.0-10.0-1.6","2o9l663odr","one_one","1","indirect_first","0","un07us23","0","20","1","2","3","1","","0","1","0","null","","","<img src = 'category1/GS2.png' width = '100%;'>","null","","","","","","","","","",""
"","html-keyboard-response","181","498673","0.0-10.0-2.6","2o9l663odr","one_one","1","indirect_first","0","un07us23","0","20","1","2","3","1","","0","1","0","null","","","<img src = 'targets/5.png' width = '100%;'>","null","","","","","","","","","",""
"","html-keyboard-response","182","499479","0.0-10.0-3.6","2o9l663odr","one_one","1","indirect_first","0","un07us23","0","20","1","2","3","1","","0","1","0","804","","","<img src = 'targets/mask.png' width = '100%;'>","75","pos","GS","GSnew","1","category1/GS2.png","targets/5.png","1","indirect","22",""
"","html-keyboard-response","183","501013","0.0-10.0-0.7","2o9l663odr","one_one","1","indirect_first","0","un07us23","0","20","1","2","3","1","","0","1","0","null","","","<div style=""font-size:60px;"">+</div>","null","","","","","","","","","",""
"","html-keyboard-response","184","501113","0.0-10.0-1.7","2o9l663odr","one_one","1","indirect_first","0","un07us23","0","20","1","2","3","1","","0","1","0","null","","","<img src = 'category1/GS3.png' width = '100%;'>","null","","","","","","","","","",""
"","html-keyboard-response","185","501393","0.0-10.0-2.7","2o9l663odr","one_one","1","indirect_first","0","un07us23","0","20","1","2","3","1","","0","1","0","null","","","<img src = 'targets/19.png' width = '100%;'>","null","","","","","","","","","",""
"","html-keyboard-response","186","501662","0.0-10.0-3.7","2o9l663odr","one_one","1","indirect_first","0","un07us23","0","20","1","2","3","1","","0","1","0","267","","","<img src = 'targets/mask.png' width = '100%;'>","75","pos","GS","GSnew","1","category1/GS3.png","targets/19.png","1","indirect","23",""
"","html-keyboard-response","187","503188","0.0-10.0-0.8","2o9l663odr","one_one","1","indirect_first","0","un07us23","0","20","1","2","3","1","","0","1","0","null","","","<div style=""font-size:60px;"">+</div>","null","","","","","","","","","",""
"","html-keyboard-response","188","503288","0.0-10.0-1.8","2o9l663odr","one_one","1","indirect_first","0","un07us23","0","20","1","2","3","1","","0","1","0","null","","","<img src = 'category2/men.png' width = '100%;'>","null","","","","","","","","","",""
"","html-keyboard-response","189","503573","0.0-10.0-2.8","2o9l663odr","one_one","1","indirect_first","0","un07us23","0","20","1","2","3","1","","0","1","0","null","","","<img src = 'targets/23.png' width = '100%;'>","null","","","","","","","","","",""
"","html-keyboard-response","190","503985","0.0-10.0-3.8","2o9l663odr","one_one","1","indirect_first","0","un07us23","0","20","1","2","3","1","","0","1","0","411","","","<img src = 'targets/mask.png' width = '100%;'>","75","pos","GS","abstract","2","category2/men.png","targets/23.png","1","indirect","24",""
"","html-keyboard-response","191","505492","0.0-10.0-0.9","2o9l663odr","one_one","1","indirect_first","0","un07us23","0","20","1","2","3","1","","0","1","0","null","","","<div style=""font-size:60px;"">+</div>","null","","","","","","","","","",""
"","html-keyboard-response","192","505592","0.0-10.0-1.9","2o9l663odr","one_one","1","indirect_first","0","un07us23","0","20","1","2","3","1","","0","1","0","null","","","<img src = 'category1/ma.png' width = '100%;'>","null","","","","","","","","","",""
"","html-keyboard-response","193","505873","0.0-10.0-2.9","2o9l663odr","one_one","1","indirect_first","0","un07us23","0","20","1","2","3","1","","0","1","0","null","","","<img src = 'targets/34.png' width = '100%;'>","null","","","","","","","","","",""
"","html-keyboard-response","194","506098","0.0-10.0-3.9","2o9l663odr","one_one","1","indirect_first","0","un07us23","0","20","1","2","3","1","","0","1","0","224","","","<img src = 'targets/mask.png' width = '100%;'>","68","pos","GS","abstract","1","category1/ma.png","targets/34.png","0","indirect","25",""
"","html-keyboard-response","195","507633","0.0-10.0-0.10","2o9l663odr","one_one","1","indirect_first","0","un07us23","0","20","1","2","3","1","","0","1","0","null","","","<div style=""font-size:60px;"">+</div>","null","","","","","","","","","",""
"","html-keyboard-response","196","507733","0.0-10.0-1.10","2o9l663odr","one_one","1","indirect_first","0","un07us23","0","20","1","2","3","1","","0","1","0","null","","","<img src = 'category2/GS3.png' width = '100%;'>","null","","","","","","","","","",""
"","html-keyboard-response","197","508013","0.0-10.0-2.10","2o9l663odr","one_one","1","indirect_first","0","un07us23","0","20","1","2","3","1","","0","1","0","null","","","<img src = 'targets/14.png' width = '100%;'>","null","","","","","","","","","",""
"","html-keyboard-response","198","508042","0.0-10.0-3.10","2o9l663odr","one_one","1","indirect_first","0","un07us23","0","20","1","2","3","1","","0","1","0","28","","","<img src = 'targets/mask.png' width = '100%;'>","75","pos","GS","GSnew","2","category2/GS3.png","targets/14.png","1","indirect","26",""
"","html-keyboard-response","199","509573","0.0-10.0-0.11","2o9l663odr","one_one","1","indirect_first","0","un07us23","0","20","1","2","3","1","","0","1","0","null","","","<div style=""font-size:60px;"">+</div>","null","","","","","","","","","",""
"","html-keyboard-response","200","509673","0.0-10.0-1.11","2o9l663odr","one_one","1","indirect_first","0","un07us23","0","20","1","2","3","1","","0","1","0","null","","","<img src = 'category4/GS3.png' width = '100%;'>","null","","","","","","","","","",""
"","html-keyboard-response","201","509952","0.0-10.0-2.11","2o9l663odr","one_one","1","indirect_first","0","un07us23","0","20","1","2","3","1","","0","1","0","null","","","<img src = 'targets/40.png' width = '100%;'>","null","","","","","","","","","",""
"","html-keyboard-response","202","510030","0.0-10.0-3.11","2o9l663odr","one_one","1","indirect_first","0","un07us23","0","20","1","2","3","1","","0","1","0","77","","","<img src = 'targets/mask.png' width = '100%;'>","75","neg","GS","GSnew","4","category4/GS3.png","targets/40.png","1","indirect","27",""
"","html-keyboard-response","203","511553","0.0-10.0-0.12","2o9l663odr","one_one","1","indirect_first","0","un07us23","0","20","1","2","3","1","","0","1","0","null","","","<div style=""font-size:60px;"">+</div>","null","","","","","","","","","",""
"","html-keyboard-response","204","511652","0.0-10.0-1.12","2o9l663odr","one_one","1","indirect_first","0","un07us23","0","20","1","2","3","1","","0","1","0","null","","","<img src = 'category1/GS1.png' width = '100%;'>","null","","","","","","","","","",""
"","html-keyboard-response","205","511932","0.0-10.0-2.12","2o9l663odr","one_one","1","indirect_first","0","un07us23","0","20","1","2","3","1","","0","1","0","null","","","<img src = 'targets/48.png' width = '100%;'>","null","","","","","","","","","",""
"","html-keyboard-response","206","514953","0.0-10.0-3.12","2o9l663odr","one_one","1","indirect_first","0","un07us23","0","20","1","2","3","1","","0","1","0","3016","","","<img src = 'targets/mask.png' width = '100%;'>","68","pos","GS","GSnew","1","category1/GS1.png","targets/48.png","0","indirect","28",""
"","html-keyboard-response","207","516482","0.0-10.0-0.13","2o9l663odr","one_one","1","indirect_first","0","un07us23","0","20","1","2","3","1","","0","1","0","null","","","<div style=""font-size:60px;"">+</div>","null","","","","","","","","","",""
"","html-keyboard-response","208","516582","0.0-10.0-1.13","2o9l663odr","one_one","1","indirect_first","0","un07us23","0","20","1","2","3","1","","0","1","0","null","","","<img src = 'category3/wang.png' width = '100%;'>","null","","","","","","","","","",""
"","html-keyboard-response","209","516863","0.0-10.0-2.13","2o9l663odr","one_one","1","indirect_first","0","un07us23","0","20","1","2","3","1","","0","1","0","null","","","<img src = 'targets/41.png' width = '100%;'>","null","","","","","","","","","",""
"","html-keyboard-response","210","517246","0.0-10.0-3.13","2o9l663odr","one_one","1","indirect_first","0","un07us23","0","20","1","2","3","1","","0","1","0","381","","","<img src = 'targets/mask.png' width = '100%;'>","75","neg","GS","abstract","3","category3/wang.png","targets/41.png","1","indirect","29",""
"","html-keyboard-response","211","518783","0.0-10.0-0.14","2o9l663odr","one_one","1","indirect_first","0","un07us23","0","20","1","2","3","1","","0","1","0","null","","","<div style=""font-size:60px;"">+</div>","null","","","","","","","","","",""
"","html-keyboard-response","212","518883","0.0-10.0-1.14","2o9l663odr","one_one","1","indirect_first","0","un07us23","0","20","1","2","3","1","","0","1","0","null","","","<img src = 'category3/GS2.png' width = '100%;'>","null","","","","","","","","","",""
"","html-keyboard-response","213","519163","0.0-10.0-2.14","2o9l663odr","one_one","1","indirect_first","0","un07us23","0","20","1","2","3","1","","0","1","0","null","","","<img src = 'targets/6.png' width = '100%;'>","null","","","","","","","","","",""
"","html-keyboard-response","214","519294","0.0-10.0-3.14","2o9l663odr","one_one","1","indirect_first","0","un07us23","0","20","1","2","3","1","","0","1","0","129","","","<img src = 'targets/mask.png' width = '100%;'>","75","neg","GS","GSnew","3","category3/GS2.png","targets/6.png","1","indirect","30",""
"","html-keyboard-response","215","520823","0.0-10.0-0.15","2o9l663odr","one_one","1","indirect_first","0","un07us23","0","20","1","2","3","1","","0","1","0","null","","","<div style=""font-size:60px;"">+</div>","null","","","","","","","","","",""
"","html-keyboard-response","216","520923","0.0-10.0-1.15","2o9l663odr","one_one","1","indirect_first","0","un07us23","0","20","1","2","3","1","","0","1","0","null","","","<img src = 'category4/lin.png' width = '100%;'>","null","","","","","","","","","",""
"","html-keyboard-response","217","521203","0.0-10.0-2.15","2o9l663odr","one_one","1","indirect_first","0","un07us23","0","20","1","2","3","1","","0","1","0","null","","","<img src = 'targets/12.png' width = '100%;'>","null","","","","","","","","","",""
"","html-keyboard-response","218","521337","0.0-10.0-3.15","2o9l663odr","one_one","1","indirect_first","0","un07us23","0","20","1","2","3","1","","0","1","0","132","","","<img src = 'targets/mask.png' width = '100%;'>","68","neg","GS","abstract","4","category4/lin.png","targets/12.png","0","indirect","31",""
"","survey-html-form","219","533836","0.0-11.0","2o9l663odr","one_one","1","indirect_first","0","un07us23","0","20","1","2","3","1","","0","1","0","11993","","{}","","","","","","","","","","","",""
"","image-slider-response","220","542027","0.0-12.0-0.0","2o9l663odr","one_one","1","indirect_first","0","un07us23","0","20","1","2","3","1","","0","1","0","6163","","","","","pos","GS","GSnew","1","category1/GS2.png","targets/5.png","","direct","","-47"
"","image-slider-response","221","545407","0.0-12.0-0.1","2o9l663odr","one_one","1","indirect_first","0","un07us23","0","20","1","2","3","1","","0","1","0","3374","","","","","neg","GS","GSold","4","category4/CS1.png","targets/27.png","","direct","","100"
"","image-slider-response","222","548841","0.0-12.0-0.2","2o9l663odr","one_one","1","indirect_first","0","un07us23","0","20","1","2","3","1","","0","1","0","3428","","","","","pos","GS","GSold","1","category1/CS2.png","targets/8.png","","direct","","100"
"","image-slider-response","223","552171","0.0-12.0-0.3","2o9l663odr","one_one","1","indirect_first","0","un07us23","0","20","1","2","3","1","","0","1","0","3326","","","","","neg","GS","abstract","3","category3/wang.png","targets/41.png","","direct","","100"
"","image-slider-response","224","555739","0.0-12.0-0.4","2o9l663odr","one_one","1","indirect_first","0","un07us23","0","20","1","2","3","1","","0","1","0","3562","","","","","neg","GS","GSold","4","category4/CS4.png","targets/35.png","","direct","","100"
"","image-slider-response","225","560684","0.0-12.0-0.5","2o9l663odr","one_one","1","indirect_first","0","un07us23","0","20","1","2","3","1","","0","1","0","4940","","","","","pos","GS","GSold","2","category2/CS7.png","targets/11.png","","direct","","-59"
"","image-slider-response","226","564849","0.0-12.0-0.6","2o9l663odr","one_one","1","indirect_first","0","un07us23","0","20","1","2","3","1","","0","1","0","4162","","","","","neg","GS","abstract","4","category4/lin.png","targets/12.png","","direct","","66"
"","image-slider-response","227","568497","0.0-12.0-0.7","2o9l663odr","one_one","1","indirect_first","0","un07us23","0","20","1","2","3","1","","0","1","0","3643","","","","","neg","GS","GSold","3","category3/CS1.png","targets/36.png","","direct","","98"
"","image-slider-response","228","571857","0.0-12.0-0.8","2o9l663odr","one_one","1","indirect_first","0","un07us23","0","20","1","2","3","1","","0","1","0","3355","","","","","pos","CS","CS","1","category1/CS8.png","targets/2.png","","direct","","92"
"","image-slider-response","229","577453","0.0-12.0-0.9","2o9l663odr","one_one","1","indirect_first","0","un07us23","0","20","1","2","3","1","","0","1","0","5590","","","","","pos","GS","GSnew","1","category1/GS3.png","targets/19.png","","direct","","-48"
"","image-slider-response","230","583596","0.0-12.0-0.10","2o9l663odr","one_one","1","indirect_first","0","un07us23","0","20","1","2","3","1","","0","1","0","6137","","","","","neg","GS","GSnew","3","category3/GS2.png","targets/6.png","","direct","","100"
"","image-slider-response","231","587944","0.0-12.0-0.11","2o9l663odr","one_one","1","indirect_first","0","un07us23","0","20","1","2","3","1","","0","1","0","4343","","","","","pos","GS","GSnew","2","category2/GS3.png","targets/14.png","","direct","","-89"
"","image-slider-response","232","591814","0.0-12.0-0.12","2o9l663odr","one_one","1","indirect_first","0","un07us23","0","20","1","2","3","1","","0","1","0","3867","","","","","pos","GS","abstract","1","category1/ma.png","targets/34.png","","direct","","-67"
"","image-slider-response","233","597297","0.0-12.0-0.13","2o9l663odr","one_one","1","indirect_first","0","un07us23","0","20","1","2","3","1","","0","1","0","5477","","","","","neg","GS","GSnew","3","category3/GS1.png","targets/21.png","","direct","","23"
"","image-slider-response","234","601731","0.0-12.0-0.14","2o9l663odr","one_one","1","indirect_first","0","un07us23","0","20","1","2","3","1","","0","1","0","4430","","","","","neg","GS","GSold","3","category3/CS2.png","targets/38.png","","direct","","100"
"","image-slider-response","235","605176","0.0-12.0-0.15","2o9l663odr","one_one","1","indirect_first","0","un07us23","0","20","1","2","3","1","","0","1","0","3439","","","","","pos","GS","GSnew","2","category2/GS2.png","targets/43.png","","direct","","-90"
"","image-slider-response","236","609120","0.0-12.0-0.16","2o9l663odr","one_one","1","indirect_first","0","un07us23","0","20","1","2","3","1","","0","1","0","3940","","","","","pos","GS","GSold","1","category1/CS7.png","targets/25.png","","direct","","10"
"","image-slider-response","237","613445","0.0-12.0-0.17","2o9l663odr","one_one","1","indirect_first","0","un07us23","0","20","1","2","3","1","","0","1","0","4319","","","","","neg","GS","GSnew","4","category4/GS2.png","targets/44.png","","direct","","98"
"","image-slider-response","238","617391","0.0-12.0-0.18","2o9l663odr","one_one","1","indirect_first","0","un07us23","0","20","1","2","3","1","","0","1","0","3940","","","","","pos","GS","GSold","2","category2/CS9.png","targets/31.png","","direct","","100"
"","image-slider-response","239","620726","0.0-12.0-0.19","2o9l663odr","one_one","1","indirect_first","0","un07us23","0","20","1","2","3","1","","0","1","0","3330","","","","","pos","GS","GSnew","1","category1/GS1.png","targets/48.png","","direct","","-58"
"","image-slider-response","240","624219","0.0-12.0-0.20","2o9l663odr","one_one","1","indirect_first","0","un07us23","0","20","1","2","3","1","","0","1","0","3487","","","","","pos","GS","GSnew","2","category2/GS1.png","targets/18.png","","direct","","-95"
"","image-slider-response","241","627884","0.0-12.0-0.21","2o9l663odr","one_one","1","indirect_first","0","un07us23","0","20","1","2","3","1","","0","1","0","3662","","","","","neg","CS","CS","4","category4/CS7.png","targets/39.png","","direct","","99"
"","image-slider-response","242","631718","0.0-12.0-0.22","2o9l663odr","one_one","1","indirect_first","0","un07us23","0","20","1","2","3","1","","0","1","0","3828","","","","","neg","CS","CS","3","category3/CS6.png","targets/46.png","","direct","","100"
"","image-slider-response","243","635151","0.0-12.0-0.23","2o9l663odr","one_one","1","indirect_first","0","un07us23","0","20","1","2","3","1","","0","1","0","3428","","","","","neg","GS","GSnew","4","category4/GS3.png","targets/40.png","","direct","","97"
"","image-slider-response","244","639046","0.0-12.0-0.24","2o9l663odr","one_one","1","indirect_first","0","un07us23","0","20","1","2","3","1","","0","1","0","3890","","","","","pos","GS","GSold","2","category2/CS2.png","targets/32.png","","direct","","-71"
"","image-slider-response","245","643823","0.0-12.0-0.25","2o9l663odr","one_one","1","indirect_first","0","un07us23","0","20","1","2","3","1","","0","1","0","4772","","","","","pos","CS","CS","2","category2/CS6.png","targets/29.png","","direct","","-100"
"","image-slider-response","246","648123","0.0-12.0-0.26","2o9l663odr","one_one","1","indirect_first","0","un07us23","0","20","1","2","3","1","","0","1","0","4294","","","","","pos","GS","abstract","2","category2/men.png","targets/23.png","","direct","","-21"
"","image-slider-response","247","652007","0.0-12.0-0.27","2o9l663odr","one_one","1","indirect_first","0","un07us23","0","20","1","2","3","1","","0","1","0","3880","","","","","neg","GS","GSold","4","category4/CS3.png","targets/37.png","","direct","","100"
"","image-slider-response","248","654854","0.0-12.0-0.28","2o9l663odr","one_one","1","indirect_first","0","un07us23","0","20","1","2","3","1","","0","1","0","2842","","","","","pos","GS","GSold","1","category1/CS10.png","targets/15.png","","direct","","-56"
"","image-slider-response","249","659825","0.0-12.0-0.29","2o9l663odr","one_one","1","indirect_first","0","un07us23","0","20","1","2","3","1","","0","1","0","4966","","","","","neg","GS","GSold","3","category3/CS4.png","targets/30.png","","direct","","100"
"","image-slider-response","250","663220","0.0-12.0-0.30","2o9l663odr","one_one","1","indirect_first","0","un07us23","0","20","1","2","3","1","","0","1","0","3391","","","","","neg","GS","GSnew","3","category3/GS3.png","targets/45.png","","direct","","100"
"","image-slider-response","251","666814","0.0-12.0-0.31","2o9l663odr","one_one","1","indirect_first","0","un07us23","0","20","1","2","3","1","","0","1","0","3588","","","","","neg","GS","GSnew","4","category4/GS1.png","targets/26.png","","direct","","100"
"","survey-html-form","252","672325","0.0-13.0","2o9l663odr","one_one","1","indirect_first","0","un07us23","0","20","1","2","3","1","","0","1","0","5508","","{}","","","","","","","","","","","",""
"","image-slider-response","253","676934","0.0-14.0-0.0","2o9l663odr","one_one","1","indirect_first","0","un07us23","0","20","1","2","3","1","","0","1","0","3592","","","","","pos","All","all","2","category2/men_all.png","","","all","","32"
"","image-slider-response","254","680856","0.0-14.0-0.1","2o9l663odr","one_one","1","indirect_first","0","un07us23","0","20","1","2","3","1","","0","1","0","3916","","","","","pos","All","all","1","category1/ma_all.png","","","all","","-52"
"","image-slider-response","255","685935","0.0-14.0-0.2","2o9l663odr","one_one","1","indirect_first","0","un07us23","0","20","1","2","3","1","","0","1","0","5075","","","","","neg","All","all","3","category3/wang_all.png","","","all","","100"
"","image-slider-response","256","690946","0.0-14.0-0.3","2o9l663odr","one_one","1","indirect_first","0","un07us23","0","20","1","2","3","1","","0","1","0","5005","","","","","neg","All","all","4","category4/lin_all.png","","","all","","100"
"","survey-text","257","697231","0.0-15.0","2o9l663odr","one_one","1","indirect_first","0","un07us23","0","20","1","2","3","1","","0","1","0","6274","","{""comment"":""""}","","","","","","","","","","","",""
"","survey-html-form","258","714533","0.0-16.0","2o9l663odr","one_one","1","indirect_first","0","un07us23","0","20","1","2","3","1","","0","1","0","17296","","{""hinschauen"":""0"",""ablenkung"":""1"",""gewissenhaft"":""0""}","","","","","","","","","","","",""
