"success","trial_type","trial_index","time_elapsed","internal_node_id","subject","condition","condition_code","measure","measure_code","codeword","gender","age","education","chinese","fach","handedness","comment","hinschauen","ablenkung","gewissenhaft","rt","url","responses","stimulus","key_press","val","type","type_specific","category","cs_selected","response","target","task","indirect","nr_pres"
"true","fullscreen","0","26757","0.0-0.0","zl57t700es","one_one","1","direct_first","1","rt06el08","0","19","1","0","3","1","","0","1","0","","","","","","","","","","","","","","",""
"","external-html","1","69566","0.0-1.0","zl57t700es","one_one","1","direct_first","1","rt06el08","0","19","1","0","3","1","","0","1","0","42668.46500000001","text/information.html","","","","","","","","","","","","",""
"","external-html","2","79413","0.0-2.0","zl57t700es","one_one","1","direct_first","1","rt06el08","0","19","1","0","3","1","","0","1","0","9774.544999999984","text/consent.html","","","","","","","","","","","","",""
"","survey-html-form","3","149901","0.0-3.0","zl57t700es","one_one","1","direct_first","1","rt06el08","0","19","1","0","3","1","","0","1","0","70484.36500000002","","{""codeword_enter"":""rt06el08""}","","","","","","","","","","","",""
"","survey-html-form","4","169775","0.0-4.0","zl57t700es","one_one","1","direct_first","1","rt06el08","0","19","1","0","3","1","","0","1","0","19867.83500000002","","{""age"":""19"",""education"":""1"",""subject"":""3"",""gender"":""0"",""handedness"":""1"",""chinese"":""0""}","","","","","","","","","","","",""
"","survey-html-form","5","187497","0.0-5.0","zl57t700es","one_one","1","direct_first","1","rt06el08","0","19","1","0","3","1","","0","1","0","17718.389999999985","","{}","","","","","","","","","","","",""
"","html-keyboard-response","6","191511","0.0-6.0-0.0-0.0","zl57t700es","one_one","1","direct_first","1","rt06el08","0","19","1","0","3","1","","0","1","0","null","","","<div class = 'row'><div class = 'column'><img src = 'category4/CS6.png' width = '70%;'></div><div class = 'column'><img src = 'usneg/2900.bmp' width = '100%;'></div></div>","null","neg","CS","CS","4","category4/CS6.png","","","","",""
"","html-keyboard-response","7","194021","0.0-6.0-0.0-0.1","zl57t700es","one_one","1","direct_first","1","rt06el08","0","19","1","0","3","1","","0","1","0","null","","","<div class = 'row'><div class = 'column'><img src = 'category3/CS5.png' width = '70%;'></div><div class = 'column'><img src = 'uspos/5700.bmp' width = '100%;'></div></div>","null","pos","CS","CS","3","category3/CS5.png","","","","",""
"","html-keyboard-response","8","196530","0.0-6.0-0.0-0.2","zl57t700es","one_one","1","direct_first","1","rt06el08","0","19","1","0","3","1","","0","1","0","null","","","<div class = 'row'><div class = 'column'><img src = 'category2/CS10.png' width = '70%;'></div><div class = 'column'><img src = 'usneg/1280.bmp' width = '100%;'></div></div>","null","neg","CS","CS","2","category2/CS10.png","","","","",""
"","html-keyboard-response","9","199037","0.0-6.0-0.0-0.3","zl57t700es","one_one","1","direct_first","1","rt06el08","0","19","1","0","3","1","","0","1","0","null","","","<div class = 'row'><div class = 'column'><img src = 'uspos/5470.bmp' width = '100%;'></div><div class = 'column'><img src = 'category1/CS9.png' width = '70%;'></div></div>","null","pos","CS","CS","1","category1/CS9.png","","","","",""
"","html-keyboard-response","10","201545","0.0-6.0-0.0-0.4","zl57t700es","one_one","1","direct_first","1","rt06el08","0","19","1","0","3","1","","0","1","0","null","","","<div class = 'row'><div class = 'column'><img src = 'category4/CS6.png' width = '70%;'></div><div class = 'column'><img src = 'usneg/2900.bmp' width = '100%;'></div></div>","null","neg","CS","CS","4","category4/CS6.png","","","","",""
"","html-keyboard-response","11","204050","0.0-6.0-0.0-0.5","zl57t700es","one_one","1","direct_first","1","rt06el08","0","19","1","0","3","1","","0","1","0","null","","","<div class = 'row'><div class = 'column'><img src = 'uspos/5470.bmp' width = '100%;'></div><div class = 'column'><img src = 'category1/CS9.png' width = '70%;'></div></div>","null","pos","CS","CS","1","category1/CS9.png","","","","",""
"","html-keyboard-response","12","206556","0.0-6.0-0.0-0.6","zl57t700es","one_one","1","direct_first","1","rt06el08","0","19","1","0","3","1","","0","1","0","null","","","<div class = 'row'><div class = 'column'><img src = 'category2/CS10.png' width = '70%;'></div><div class = 'column'><img src = 'usneg/1280.bmp' width = '100%;'></div></div>","null","neg","CS","CS","2","category2/CS10.png","","","","",""
"","html-keyboard-response","13","209066","0.0-6.0-0.0-0.7","zl57t700es","one_one","1","direct_first","1","rt06el08","0","19","1","0","3","1","","0","1","0","null","","","<div class = 'row'><div class = 'column'><img src = 'uspos/5700.bmp' width = '100%;'></div><div class = 'column'><img src = 'category3/CS5.png' width = '70%;'></div></div>","null","pos","CS","CS","3","category3/CS5.png","","","","",""
"","html-keyboard-response","14","211577","0.0-6.0-0.0-0.8","zl57t700es","one_one","1","direct_first","1","rt06el08","0","19","1","0","3","1","","0","1","0","null","","","<div class = 'row'><div class = 'column'><img src = 'category1/CS9.png' width = '70%;'></div><div class = 'column'><img src = 'uspos/5470.bmp' width = '100%;'></div></div>","null","pos","CS","CS","1","category1/CS9.png","","","","",""
"","html-keyboard-response","15","214082","0.0-6.0-0.0-0.9","zl57t700es","one_one","1","direct_first","1","rt06el08","0","19","1","0","3","1","","0","1","0","null","","","<div class = 'row'><div class = 'column'><img src = 'category3/CS5.png' width = '70%;'></div><div class = 'column'><img src = 'uspos/5700.bmp' width = '100%;'></div></div>","null","pos","CS","CS","3","category3/CS5.png","","","","",""
"","html-keyboard-response","16","216591","0.0-6.0-0.0-0.10","zl57t700es","one_one","1","direct_first","1","rt06el08","0","19","1","0","3","1","","0","1","0","null","","","<div class = 'row'><div class = 'column'><img src = 'usneg/2900.bmp' width = '100%;'></div><div class = 'column'><img src = 'category4/CS6.png' width = '70%;'></div></div>","null","neg","CS","CS","4","category4/CS6.png","","","","",""
"","html-keyboard-response","17","219098","0.0-6.0-0.0-0.11","zl57t700es","one_one","1","direct_first","1","rt06el08","0","19","1","0","3","1","","0","1","0","null","","","<div class = 'row'><div class = 'column'><img src = 'usneg/1280.bmp' width = '100%;'></div><div class = 'column'><img src = 'category2/CS10.png' width = '70%;'></div></div>","null","neg","CS","CS","2","category2/CS10.png","","","","",""
"","html-keyboard-response","18","221608","0.0-6.0-0.0-0.12","zl57t700es","one_one","1","direct_first","1","rt06el08","0","19","1","0","3","1","","0","1","0","null","","","<div class = 'row'><div class = 'column'><img src = 'category1/CS9.png' width = '70%;'></div><div class = 'column'><img src = 'uspos/5470.bmp' width = '100%;'></div></div>","null","pos","CS","CS","1","category1/CS9.png","","","","",""
"","html-keyboard-response","19","224120","0.0-6.0-0.0-0.13","zl57t700es","one_one","1","direct_first","1","rt06el08","0","19","1","0","3","1","","0","1","0","null","","","<div class = 'row'><div class = 'column'><img src = 'category2/CS10.png' width = '70%;'></div><div class = 'column'><img src = 'usneg/1280.bmp' width = '100%;'></div></div>","null","neg","CS","CS","2","category2/CS10.png","","","","",""
"","html-keyboard-response","20","226628","0.0-6.0-0.0-0.14","zl57t700es","one_one","1","direct_first","1","rt06el08","0","19","1","0","3","1","","0","1","0","null","","","<div class = 'row'><div class = 'column'><img src = 'usneg/2900.bmp' width = '100%;'></div><div class = 'column'><img src = 'category4/CS6.png' width = '70%;'></div></div>","null","neg","CS","CS","4","category4/CS6.png","","","","",""
"","html-keyboard-response","21","229137","0.0-6.0-0.0-0.15","zl57t700es","one_one","1","direct_first","1","rt06el08","0","19","1","0","3","1","","0","1","0","null","","","<div class = 'row'><div class = 'column'><img src = 'usneg/1280.bmp' width = '100%;'></div><div class = 'column'><img src = 'category2/CS10.png' width = '70%;'></div></div>","null","neg","CS","CS","2","category2/CS10.png","","","","",""
"","html-keyboard-response","22","231647","0.0-6.0-0.0-0.16","zl57t700es","one_one","1","direct_first","1","rt06el08","0","19","1","0","3","1","","0","1","0","null","","","<div class = 'row'><div class = 'column'><img src = 'category3/CS5.png' width = '70%;'></div><div class = 'column'><img src = 'uspos/5700.bmp' width = '100%;'></div></div>","null","pos","CS","CS","3","category3/CS5.png","","","","",""
"","html-keyboard-response","23","234153","0.0-6.0-0.0-0.17","zl57t700es","one_one","1","direct_first","1","rt06el08","0","19","1","0","3","1","","0","1","0","null","","","<div class = 'row'><div class = 'column'><img src = 'usneg/2900.bmp' width = '100%;'></div><div class = 'column'><img src = 'category4/CS6.png' width = '70%;'></div></div>","null","neg","CS","CS","4","category4/CS6.png","","","","",""
"","html-keyboard-response","24","236661","0.0-6.0-0.0-0.18","zl57t700es","one_one","1","direct_first","1","rt06el08","0","19","1","0","3","1","","0","1","0","null","","","<div class = 'row'><div class = 'column'><img src = 'uspos/5470.bmp' width = '100%;'></div><div class = 'column'><img src = 'category1/CS9.png' width = '70%;'></div></div>","null","pos","CS","CS","1","category1/CS9.png","","","","",""
"","html-keyboard-response","25","239168","0.0-6.0-0.0-0.19","zl57t700es","one_one","1","direct_first","1","rt06el08","0","19","1","0","3","1","","0","1","0","null","","","<div class = 'row'><div class = 'column'><img src = 'category3/CS5.png' width = '70%;'></div><div class = 'column'><img src = 'uspos/5700.bmp' width = '100%;'></div></div>","null","pos","CS","CS","3","category3/CS5.png","","","","",""
"","survey-html-form","26","242215","0.0-6.0-1.0","zl57t700es","one_one","1","direct_first","1","rt06el08","0","19","1","0","3","1","","0","1","0","2541.7449999999953","","{}","","","","","","","","","","","",""
"","html-keyboard-response","27","246225","0.0-6.0-2.0-0.0","zl57t700es","one_one","1","direct_first","1","rt06el08","0","19","1","0","3","1","","0","1","0","null","","","<div class = 'row'><div class = 'column'><img src = 'uspos/5470.bmp' width = '100%;'></div><div class = 'column'><img src = 'category1/CS9.png' width = '70%;'></div></div>","null","pos","CS","CS","1","category1/CS9.png","","","","",""
"","html-keyboard-response","28","248734","0.0-6.0-2.0-0.1","zl57t700es","one_one","1","direct_first","1","rt06el08","0","19","1","0","3","1","","0","1","0","null","","","<div class = 'row'><div class = 'column'><img src = 'uspos/5700.bmp' width = '100%;'></div><div class = 'column'><img src = 'category3/CS5.png' width = '70%;'></div></div>","null","pos","CS","CS","3","category3/CS5.png","","","","",""
"","html-keyboard-response","29","251241","0.0-6.0-2.0-0.2","zl57t700es","one_one","1","direct_first","1","rt06el08","0","19","1","0","3","1","","0","1","0","null","","","<div class = 'row'><div class = 'column'><img src = 'usneg/2900.bmp' width = '100%;'></div><div class = 'column'><img src = 'category4/CS6.png' width = '70%;'></div></div>","null","neg","CS","CS","4","category4/CS6.png","","","","",""
"","html-keyboard-response","30","253749","0.0-6.0-2.0-0.3","zl57t700es","one_one","1","direct_first","1","rt06el08","0","19","1","0","3","1","","0","1","0","null","","","<div class = 'row'><div class = 'column'><img src = 'category1/CS9.png' width = '70%;'></div><div class = 'column'><img src = 'uspos/5470.bmp' width = '100%;'></div></div>","null","pos","CS","CS","1","category1/CS9.png","","","","",""
"","html-keyboard-response","31","256261","0.0-6.0-2.0-0.4","zl57t700es","one_one","1","direct_first","1","rt06el08","0","19","1","0","3","1","","0","1","0","null","","","<div class = 'row'><div class = 'column'><img src = 'usneg/1280.bmp' width = '100%;'></div><div class = 'column'><img src = 'category2/CS10.png' width = '70%;'></div></div>","null","neg","CS","CS","2","category2/CS10.png","","","","",""
"","html-keyboard-response","32","258769","0.0-6.0-2.0-0.5","zl57t700es","one_one","1","direct_first","1","rt06el08","0","19","1","0","3","1","","0","1","0","null","","","<div class = 'row'><div class = 'column'><img src = 'category3/CS5.png' width = '70%;'></div><div class = 'column'><img src = 'uspos/5700.bmp' width = '100%;'></div></div>","null","pos","CS","CS","3","category3/CS5.png","","","","",""
"","html-keyboard-response","33","261275","0.0-6.0-2.0-0.6","zl57t700es","one_one","1","direct_first","1","rt06el08","0","19","1","0","3","1","","0","1","0","null","","","<div class = 'row'><div class = 'column'><img src = 'usneg/2900.bmp' width = '100%;'></div><div class = 'column'><img src = 'category4/CS6.png' width = '70%;'></div></div>","null","neg","CS","CS","4","category4/CS6.png","","","","",""
"","html-keyboard-response","34","263783","0.0-6.0-2.0-0.7","zl57t700es","one_one","1","direct_first","1","rt06el08","0","19","1","0","3","1","","0","1","0","null","","","<div class = 'row'><div class = 'column'><img src = 'category2/CS10.png' width = '70%;'></div><div class = 'column'><img src = 'usneg/1280.bmp' width = '100%;'></div></div>","null","neg","CS","CS","2","category2/CS10.png","","","","",""
"","html-keyboard-response","35","266291","0.0-6.0-2.0-0.8","zl57t700es","one_one","1","direct_first","1","rt06el08","0","19","1","0","3","1","","0","1","0","null","","","<div class = 'row'><div class = 'column'><img src = 'category4/CS6.png' width = '70%;'></div><div class = 'column'><img src = 'usneg/2900.bmp' width = '100%;'></div></div>","null","neg","CS","CS","4","category4/CS6.png","","","","",""
"","html-keyboard-response","36","268803","0.0-6.0-2.0-0.9","zl57t700es","one_one","1","direct_first","1","rt06el08","0","19","1","0","3","1","","0","1","0","null","","","<div class = 'row'><div class = 'column'><img src = 'uspos/5470.bmp' width = '100%;'></div><div class = 'column'><img src = 'category1/CS9.png' width = '70%;'></div></div>","null","pos","CS","CS","1","category1/CS9.png","","","","",""
"","html-keyboard-response","37","271310","0.0-6.0-2.0-0.10","zl57t700es","one_one","1","direct_first","1","rt06el08","0","19","1","0","3","1","","0","1","0","null","","","<div class = 'row'><div class = 'column'><img src = 'usneg/1280.bmp' width = '100%;'></div><div class = 'column'><img src = 'category2/CS10.png' width = '70%;'></div></div>","null","neg","CS","CS","2","category2/CS10.png","","","","",""
"","html-keyboard-response","38","273820","0.0-6.0-2.0-0.11","zl57t700es","one_one","1","direct_first","1","rt06el08","0","19","1","0","3","1","","0","1","0","null","","","<div class = 'row'><div class = 'column'><img src = 'uspos/5470.bmp' width = '100%;'></div><div class = 'column'><img src = 'category1/CS9.png' width = '70%;'></div></div>","null","pos","CS","CS","1","category1/CS9.png","","","","",""
"","html-keyboard-response","39","276326","0.0-6.0-2.0-0.12","zl57t700es","one_one","1","direct_first","1","rt06el08","0","19","1","0","3","1","","0","1","0","null","","","<div class = 'row'><div class = 'column'><img src = 'category3/CS5.png' width = '70%;'></div><div class = 'column'><img src = 'uspos/5700.bmp' width = '100%;'></div></div>","null","pos","CS","CS","3","category3/CS5.png","","","","",""
"","html-keyboard-response","40","278833","0.0-6.0-2.0-0.13","zl57t700es","one_one","1","direct_first","1","rt06el08","0","19","1","0","3","1","","0","1","0","null","","","<div class = 'row'><div class = 'column'><img src = 'category2/CS10.png' width = '70%;'></div><div class = 'column'><img src = 'usneg/1280.bmp' width = '100%;'></div></div>","null","neg","CS","CS","2","category2/CS10.png","","","","",""
"","html-keyboard-response","41","281342","0.0-6.0-2.0-0.14","zl57t700es","one_one","1","direct_first","1","rt06el08","0","19","1","0","3","1","","0","1","0","null","","","<div class = 'row'><div class = 'column'><img src = 'category1/CS9.png' width = '70%;'></div><div class = 'column'><img src = 'uspos/5470.bmp' width = '100%;'></div></div>","null","pos","CS","CS","1","category1/CS9.png","","","","",""
"","html-keyboard-response","42","283854","0.0-6.0-2.0-0.15","zl57t700es","one_one","1","direct_first","1","rt06el08","0","19","1","0","3","1","","0","1","0","null","","","<div class = 'row'><div class = 'column'><img src = 'uspos/5700.bmp' width = '100%;'></div><div class = 'column'><img src = 'category3/CS5.png' width = '70%;'></div></div>","null","pos","CS","CS","3","category3/CS5.png","","","","",""
"","html-keyboard-response","43","286364","0.0-6.0-2.0-0.16","zl57t700es","one_one","1","direct_first","1","rt06el08","0","19","1","0","3","1","","0","1","0","null","","","<div class = 'row'><div class = 'column'><img src = 'category4/CS6.png' width = '70%;'></div><div class = 'column'><img src = 'usneg/2900.bmp' width = '100%;'></div></div>","null","neg","CS","CS","4","category4/CS6.png","","","","",""
"","html-keyboard-response","44","288874","0.0-6.0-2.0-0.17","zl57t700es","one_one","1","direct_first","1","rt06el08","0","19","1","0","3","1","","0","1","0","null","","","<div class = 'row'><div class = 'column'><img src = 'uspos/5700.bmp' width = '100%;'></div><div class = 'column'><img src = 'category3/CS5.png' width = '70%;'></div></div>","null","pos","CS","CS","3","category3/CS5.png","","","","",""
"","html-keyboard-response","45","291381","0.0-6.0-2.0-0.18","zl57t700es","one_one","1","direct_first","1","rt06el08","0","19","1","0","3","1","","0","1","0","null","","","<div class = 'row'><div class = 'column'><img src = 'usneg/1280.bmp' width = '100%;'></div><div class = 'column'><img src = 'category2/CS10.png' width = '70%;'></div></div>","null","neg","CS","CS","2","category2/CS10.png","","","","",""
"","html-keyboard-response","46","293889","0.0-6.0-2.0-0.19","zl57t700es","one_one","1","direct_first","1","rt06el08","0","19","1","0","3","1","","0","1","0","null","","","<div class = 'row'><div class = 'column'><img src = 'category4/CS6.png' width = '70%;'></div><div class = 'column'><img src = 'usneg/2900.bmp' width = '100%;'></div></div>","null","neg","CS","CS","4","category4/CS6.png","","","","",""
"","survey-html-form","47","308045","0.0-6.0-3.0","zl57t700es","one_one","1","direct_first","1","rt06el08","0","19","1","0","3","1","","0","1","0","13650.97000000003","","{}","","","","","","","","","","","",""
"","html-keyboard-response","48","312052","0.0-6.0-4.0-0.0","zl57t700es","one_one","1","direct_first","1","rt06el08","0","19","1","0","3","1","","0","1","0","null","","","<div class = 'row'><div class = 'column'><img src = 'uspos/5470.bmp' width = '100%;'></div><div class = 'column'><img src = 'category1/CS9.png' width = '70%;'></div></div>","null","pos","CS","CS","1","category1/CS9.png","","","","",""
"","html-keyboard-response","49","314561","0.0-6.0-4.0-0.1","zl57t700es","one_one","1","direct_first","1","rt06el08","0","19","1","0","3","1","","0","1","0","null","","","<div class = 'row'><div class = 'column'><img src = 'category4/CS6.png' width = '70%;'></div><div class = 'column'><img src = 'usneg/2900.bmp' width = '100%;'></div></div>","null","neg","CS","CS","4","category4/CS6.png","","","","",""
"","html-keyboard-response","50","317070","0.0-6.0-4.0-0.2","zl57t700es","one_one","1","direct_first","1","rt06el08","0","19","1","0","3","1","","0","1","0","null","","","<div class = 'row'><div class = 'column'><img src = 'category3/CS5.png' width = '70%;'></div><div class = 'column'><img src = 'uspos/5700.bmp' width = '100%;'></div></div>","null","pos","CS","CS","3","category3/CS5.png","","","","",""
"","html-keyboard-response","51","319580","0.0-6.0-4.0-0.3","zl57t700es","one_one","1","direct_first","1","rt06el08","0","19","1","0","3","1","","0","1","0","null","","","<div class = 'row'><div class = 'column'><img src = 'category1/CS9.png' width = '70%;'></div><div class = 'column'><img src = 'uspos/5470.bmp' width = '100%;'></div></div>","null","pos","CS","CS","1","category1/CS9.png","","","","",""
"","html-keyboard-response","52","322087","0.0-6.0-4.0-0.4","zl57t700es","one_one","1","direct_first","1","rt06el08","0","19","1","0","3","1","","0","1","0","null","","","<div class = 'row'><div class = 'column'><img src = 'usneg/1280.bmp' width = '100%;'></div><div class = 'column'><img src = 'category2/CS10.png' width = '70%;'></div></div>","null","neg","CS","CS","2","category2/CS10.png","","","","",""
"","html-keyboard-response","53","324595","0.0-6.0-4.0-0.5","zl57t700es","one_one","1","direct_first","1","rt06el08","0","19","1","0","3","1","","0","1","0","null","","","<div class = 'row'><div class = 'column'><img src = 'category1/CS9.png' width = '70%;'></div><div class = 'column'><img src = 'uspos/5470.bmp' width = '100%;'></div></div>","null","pos","CS","CS","1","category1/CS9.png","","","","",""
"","html-keyboard-response","54","327101","0.0-6.0-4.0-0.6","zl57t700es","one_one","1","direct_first","1","rt06el08","0","19","1","0","3","1","","0","1","0","null","","","<div class = 'row'><div class = 'column'><img src = 'uspos/5700.bmp' width = '100%;'></div><div class = 'column'><img src = 'category3/CS5.png' width = '70%;'></div></div>","null","pos","CS","CS","3","category3/CS5.png","","","","",""
"","html-keyboard-response","55","329607","0.0-6.0-4.0-0.7","zl57t700es","one_one","1","direct_first","1","rt06el08","0","19","1","0","3","1","","0","1","0","null","","","<div class = 'row'><div class = 'column'><img src = 'category1/CS9.png' width = '70%;'></div><div class = 'column'><img src = 'uspos/5470.bmp' width = '100%;'></div></div>","null","pos","CS","CS","1","category1/CS9.png","","","","",""
"","html-keyboard-response","56","332117","0.0-6.0-4.0-0.8","zl57t700es","one_one","1","direct_first","1","rt06el08","0","19","1","0","3","1","","0","1","0","null","","","<div class = 'row'><div class = 'column'><img src = 'category2/CS10.png' width = '70%;'></div><div class = 'column'><img src = 'usneg/1280.bmp' width = '100%;'></div></div>","null","neg","CS","CS","2","category2/CS10.png","","","","",""
"","html-keyboard-response","57","334624","0.0-6.0-4.0-0.9","zl57t700es","one_one","1","direct_first","1","rt06el08","0","19","1","0","3","1","","0","1","0","null","","","<div class = 'row'><div class = 'column'><img src = 'category4/CS6.png' width = '70%;'></div><div class = 'column'><img src = 'usneg/2900.bmp' width = '100%;'></div></div>","null","neg","CS","CS","4","category4/CS6.png","","","","",""
"","html-keyboard-response","58","337132","0.0-6.0-4.0-0.10","zl57t700es","one_one","1","direct_first","1","rt06el08","0","19","1","0","3","1","","0","1","0","null","","","<div class = 'row'><div class = 'column'><img src = 'category2/CS10.png' width = '70%;'></div><div class = 'column'><img src = 'usneg/1280.bmp' width = '100%;'></div></div>","null","neg","CS","CS","2","category2/CS10.png","","","","",""
"","html-keyboard-response","59","339638","0.0-6.0-4.0-0.11","zl57t700es","one_one","1","direct_first","1","rt06el08","0","19","1","0","3","1","","0","1","0","null","","","<div class = 'row'><div class = 'column'><img src = 'category4/CS6.png' width = '70%;'></div><div class = 'column'><img src = 'usneg/2900.bmp' width = '100%;'></div></div>","null","neg","CS","CS","4","category4/CS6.png","","","","",""
"","html-keyboard-response","60","342148","0.0-6.0-4.0-0.12","zl57t700es","one_one","1","direct_first","1","rt06el08","0","19","1","0","3","1","","0","1","0","null","","","<div class = 'row'><div class = 'column'><img src = 'uspos/5700.bmp' width = '100%;'></div><div class = 'column'><img src = 'category3/CS5.png' width = '70%;'></div></div>","null","pos","CS","CS","3","category3/CS5.png","","","","",""
"","html-keyboard-response","61","344657","0.0-6.0-4.0-0.13","zl57t700es","one_one","1","direct_first","1","rt06el08","0","19","1","0","3","1","","0","1","0","null","","","<div class = 'row'><div class = 'column'><img src = 'category2/CS10.png' width = '70%;'></div><div class = 'column'><img src = 'usneg/1280.bmp' width = '100%;'></div></div>","null","neg","CS","CS","2","category2/CS10.png","","","","",""
"","html-keyboard-response","62","347166","0.0-6.0-4.0-0.14","zl57t700es","one_one","1","direct_first","1","rt06el08","0","19","1","0","3","1","","0","1","0","null","","","<div class = 'row'><div class = 'column'><img src = 'usneg/2900.bmp' width = '100%;'></div><div class = 'column'><img src = 'category4/CS6.png' width = '70%;'></div></div>","null","neg","CS","CS","4","category4/CS6.png","","","","",""
"","html-keyboard-response","63","349675","0.0-6.0-4.0-0.15","zl57t700es","one_one","1","direct_first","1","rt06el08","0","19","1","0","3","1","","0","1","0","null","","","<div class = 'row'><div class = 'column'><img src = 'uspos/5700.bmp' width = '100%;'></div><div class = 'column'><img src = 'category3/CS5.png' width = '70%;'></div></div>","null","pos","CS","CS","3","category3/CS5.png","","","","",""
"","html-keyboard-response","64","352182","0.0-6.0-4.0-0.16","zl57t700es","one_one","1","direct_first","1","rt06el08","0","19","1","0","3","1","","0","1","0","null","","","<div class = 'row'><div class = 'column'><img src = 'uspos/5470.bmp' width = '100%;'></div><div class = 'column'><img src = 'category1/CS9.png' width = '70%;'></div></div>","null","pos","CS","CS","1","category1/CS9.png","","","","",""
"","html-keyboard-response","65","354688","0.0-6.0-4.0-0.17","zl57t700es","one_one","1","direct_first","1","rt06el08","0","19","1","0","3","1","","0","1","0","null","","","<div class = 'row'><div class = 'column'><img src = 'category4/CS6.png' width = '70%;'></div><div class = 'column'><img src = 'usneg/2900.bmp' width = '100%;'></div></div>","null","neg","CS","CS","4","category4/CS6.png","","","","",""
"","html-keyboard-response","66","357194","0.0-6.0-4.0-0.18","zl57t700es","one_one","1","direct_first","1","rt06el08","0","19","1","0","3","1","","0","1","0","null","","","<div class = 'row'><div class = 'column'><img src = 'usneg/1280.bmp' width = '100%;'></div><div class = 'column'><img src = 'category2/CS10.png' width = '70%;'></div></div>","null","neg","CS","CS","2","category2/CS10.png","","","","",""
"","html-keyboard-response","67","359701","0.0-6.0-4.0-0.19","zl57t700es","one_one","1","direct_first","1","rt06el08","0","19","1","0","3","1","","0","1","0","null","","","<div class = 'row'><div class = 'column'><img src = 'uspos/5700.bmp' width = '100%;'></div><div class = 'column'><img src = 'category3/CS5.png' width = '70%;'></div></div>","null","pos","CS","CS","3","category3/CS5.png","","","","",""
"","survey-html-form","68","653505","0.0-6.0-5.0","zl57t700es","one_one","1","direct_first","1","rt06el08","0","19","1","0","3","1","","0","1","0","293297.80000000005","","{}","","","","","","","","","","","",""
"","html-keyboard-response","69","657523","0.0-6.0-6.0-0.0","zl57t700es","one_one","1","direct_first","1","rt06el08","0","19","1","0","3","1","","0","1","0","null","","","<div class = 'row'><div class = 'column'><img src = 'usneg/1280.bmp' width = '100%;'></div><div class = 'column'><img src = 'category2/CS10.png' width = '70%;'></div></div>","null","neg","CS","CS","2","category2/CS10.png","","","","",""
"","html-keyboard-response","70","660034","0.0-6.0-6.0-0.1","zl57t700es","one_one","1","direct_first","1","rt06el08","0","19","1","0","3","1","","0","1","0","null","","","<div class = 'row'><div class = 'column'><img src = 'uspos/5470.bmp' width = '100%;'></div><div class = 'column'><img src = 'category1/CS9.png' width = '70%;'></div></div>","null","pos","CS","CS","1","category1/CS9.png","","","","",""
"","html-keyboard-response","71","662544","0.0-6.0-6.0-0.2","zl57t700es","one_one","1","direct_first","1","rt06el08","0","19","1","0","3","1","","0","1","0","null","","","<div class = 'row'><div class = 'column'><img src = 'category4/CS6.png' width = '70%;'></div><div class = 'column'><img src = 'usneg/2900.bmp' width = '100%;'></div></div>","null","neg","CS","CS","4","category4/CS6.png","","","","",""
"","html-keyboard-response","72","665052","0.0-6.0-6.0-0.3","zl57t700es","one_one","1","direct_first","1","rt06el08","0","19","1","0","3","1","","0","1","0","null","","","<div class = 'row'><div class = 'column'><img src = 'uspos/5470.bmp' width = '100%;'></div><div class = 'column'><img src = 'category1/CS9.png' width = '70%;'></div></div>","null","pos","CS","CS","1","category1/CS9.png","","","","",""
"","html-keyboard-response","73","667559","0.0-6.0-6.0-0.4","zl57t700es","one_one","1","direct_first","1","rt06el08","0","19","1","0","3","1","","0","1","0","null","","","<div class = 'row'><div class = 'column'><img src = 'uspos/5700.bmp' width = '100%;'></div><div class = 'column'><img src = 'category3/CS5.png' width = '70%;'></div></div>","null","pos","CS","CS","3","category3/CS5.png","","","","",""
"","html-keyboard-response","74","670064","0.0-6.0-6.0-0.5","zl57t700es","one_one","1","direct_first","1","rt06el08","0","19","1","0","3","1","","0","1","0","null","","","<div class = 'row'><div class = 'column'><img src = 'usneg/1280.bmp' width = '100%;'></div><div class = 'column'><img src = 'category2/CS10.png' width = '70%;'></div></div>","null","neg","CS","CS","2","category2/CS10.png","","","","",""
"","html-keyboard-response","75","672574","0.0-6.0-6.0-0.6","zl57t700es","one_one","1","direct_first","1","rt06el08","0","19","1","0","3","1","","0","1","0","null","","","<div class = 'row'><div class = 'column'><img src = 'category1/CS9.png' width = '70%;'></div><div class = 'column'><img src = 'uspos/5470.bmp' width = '100%;'></div></div>","null","pos","CS","CS","1","category1/CS9.png","","","","",""
"","html-keyboard-response","76","675082","0.0-6.0-6.0-0.7","zl57t700es","one_one","1","direct_first","1","rt06el08","0","19","1","0","3","1","","0","1","0","null","","","<div class = 'row'><div class = 'column'><img src = 'usneg/2900.bmp' width = '100%;'></div><div class = 'column'><img src = 'category4/CS6.png' width = '70%;'></div></div>","null","neg","CS","CS","4","category4/CS6.png","","","","",""
"","html-keyboard-response","77","677592","0.0-6.0-6.0-0.8","zl57t700es","one_one","1","direct_first","1","rt06el08","0","19","1","0","3","1","","0","1","0","null","","","<div class = 'row'><div class = 'column'><img src = 'uspos/5470.bmp' width = '100%;'></div><div class = 'column'><img src = 'category1/CS9.png' width = '70%;'></div></div>","null","pos","CS","CS","1","category1/CS9.png","","","","",""
"","html-keyboard-response","78","680101","0.0-6.0-6.0-0.9","zl57t700es","one_one","1","direct_first","1","rt06el08","0","19","1","0","3","1","","0","1","0","null","","","<div class = 'row'><div class = 'column'><img src = 'category2/CS10.png' width = '70%;'></div><div class = 'column'><img src = 'usneg/1280.bmp' width = '100%;'></div></div>","null","neg","CS","CS","2","category2/CS10.png","","","","",""
"","html-keyboard-response","79","682609","0.0-6.0-6.0-0.10","zl57t700es","one_one","1","direct_first","1","rt06el08","0","19","1","0","3","1","","0","1","0","null","","","<div class = 'row'><div class = 'column'><img src = 'usneg/2900.bmp' width = '100%;'></div><div class = 'column'><img src = 'category4/CS6.png' width = '70%;'></div></div>","null","neg","CS","CS","4","category4/CS6.png","","","","",""
"","html-keyboard-response","80","685116","0.0-6.0-6.0-0.11","zl57t700es","one_one","1","direct_first","1","rt06el08","0","19","1","0","3","1","","0","1","0","null","","","<div class = 'row'><div class = 'column'><img src = 'category3/CS5.png' width = '70%;'></div><div class = 'column'><img src = 'uspos/5700.bmp' width = '100%;'></div></div>","null","pos","CS","CS","3","category3/CS5.png","","","","",""
"","html-keyboard-response","81","687627","0.0-6.0-6.0-0.12","zl57t700es","one_one","1","direct_first","1","rt06el08","0","19","1","0","3","1","","0","1","0","null","","","<div class = 'row'><div class = 'column'><img src = 'usneg/1280.bmp' width = '100%;'></div><div class = 'column'><img src = 'category2/CS10.png' width = '70%;'></div></div>","null","neg","CS","CS","2","category2/CS10.png","","","","",""
"","html-keyboard-response","82","690137","0.0-6.0-6.0-0.13","zl57t700es","one_one","1","direct_first","1","rt06el08","0","19","1","0","3","1","","0","1","0","null","","","<div class = 'row'><div class = 'column'><img src = 'category3/CS5.png' width = '70%;'></div><div class = 'column'><img src = 'uspos/5700.bmp' width = '100%;'></div></div>","null","pos","CS","CS","3","category3/CS5.png","","","","",""
"","html-keyboard-response","83","692642","0.0-6.0-6.0-0.14","zl57t700es","one_one","1","direct_first","1","rt06el08","0","19","1","0","3","1","","0","1","0","null","","","<div class = 'row'><div class = 'column'><img src = 'category2/CS10.png' width = '70%;'></div><div class = 'column'><img src = 'usneg/1280.bmp' width = '100%;'></div></div>","null","neg","CS","CS","2","category2/CS10.png","","","","",""
"","html-keyboard-response","84","695152","0.0-6.0-6.0-0.15","zl57t700es","one_one","1","direct_first","1","rt06el08","0","19","1","0","3","1","","0","1","0","null","","","<div class = 'row'><div class = 'column'><img src = 'category3/CS5.png' width = '70%;'></div><div class = 'column'><img src = 'uspos/5700.bmp' width = '100%;'></div></div>","null","pos","CS","CS","3","category3/CS5.png","","","","",""
"","html-keyboard-response","85","697663","0.0-6.0-6.0-0.16","zl57t700es","one_one","1","direct_first","1","rt06el08","0","19","1","0","3","1","","0","1","0","null","","","<div class = 'row'><div class = 'column'><img src = 'uspos/5470.bmp' width = '100%;'></div><div class = 'column'><img src = 'category1/CS9.png' width = '70%;'></div></div>","null","pos","CS","CS","1","category1/CS9.png","","","","",""
"","html-keyboard-response","86","700168","0.0-6.0-6.0-0.17","zl57t700es","one_one","1","direct_first","1","rt06el08","0","19","1","0","3","1","","0","1","0","null","","","<div class = 'row'><div class = 'column'><img src = 'usneg/2900.bmp' width = '100%;'></div><div class = 'column'><img src = 'category4/CS6.png' width = '70%;'></div></div>","null","neg","CS","CS","4","category4/CS6.png","","","","",""
"","html-keyboard-response","87","702676","0.0-6.0-6.0-0.18","zl57t700es","one_one","1","direct_first","1","rt06el08","0","19","1","0","3","1","","0","1","0","null","","","<div class = 'row'><div class = 'column'><img src = 'uspos/5700.bmp' width = '100%;'></div><div class = 'column'><img src = 'category3/CS5.png' width = '70%;'></div></div>","null","pos","CS","CS","3","category3/CS5.png","","","","",""
"","html-keyboard-response","88","705185","0.0-6.0-6.0-0.19","zl57t700es","one_one","1","direct_first","1","rt06el08","0","19","1","0","3","1","","0","1","0","null","","","<div class = 'row'><div class = 'column'><img src = 'usneg/2900.bmp' width = '100%;'></div><div class = 'column'><img src = 'category4/CS6.png' width = '70%;'></div></div>","null","neg","CS","CS","4","category4/CS6.png","","","","",""
"","survey-html-form","89","922713","0.0-7.0","zl57t700es","one_one","1","direct_first","1","rt06el08","0","19","1","0","3","1","","0","1","0","217025.45499999996","","{}","","","","","","","","","","","",""
"","image-slider-response","90","932157","0.0-8.0-0.0","zl57t700es","one_one","1","direct_first","1","rt06el08","0","19","1","0","3","1","","0","1","0","7436.97499999986","","","","","pos","GS","GSold","1","category1/CS2.png","-35","targets/48.png","direct","",""
"","image-slider-response","91","939070","0.0-8.0-0.1","zl57t700es","one_one","1","direct_first","1","rt06el08","0","19","1","0","3","1","","0","1","0","6907.849999999977","","","","","neg","GS","GSold","4","category4/CS2.png","11","targets/8.png","direct","",""
"","image-slider-response","92","955276","0.0-8.0-0.2","zl57t700es","one_one","1","direct_first","1","rt06el08","0","19","1","0","3","1","","0","1","0","16201.26500000013","","","","","neg","CS","CS","4","category4/CS6.png","-44","targets/5.png","direct","",""
"","image-slider-response","93","962702","0.0-8.0-0.3","zl57t700es","one_one","1","direct_first","1","rt06el08","0","19","1","0","3","1","","0","1","0","7421.529999999795","","","","","neg","GS","GSold","2","category2/CS2.png","33","targets/36.png","direct","",""
"","image-slider-response","94","966612","0.0-8.0-0.4","zl57t700es","one_one","1","direct_first","1","rt06el08","0","19","1","0","3","1","","0","1","0","3905.265000000014","","","","","pos","GS","GSnew","3","category3/GS1.png","35","targets/29.png","direct","",""
"","image-slider-response","95","971015","0.0-8.0-0.5","zl57t700es","one_one","1","direct_first","1","rt06el08","0","19","1","0","3","1","","0","1","0","4399.254999999888","","","","","neg","GS","GSnew","2","category2/GS2.png","-29","targets/22.png","direct","",""
"","image-slider-response","96","974867","0.0-8.0-0.6","zl57t700es","one_one","1","direct_first","1","rt06el08","0","19","1","0","3","1","","0","1","0","3847.5","","","","","neg","GS","GSold","4","category4/CS9.png","50","targets/19.png","direct","",""
"","image-slider-response","97","977623","0.0-8.0-0.7","zl57t700es","one_one","1","direct_first","1","rt06el08","0","19","1","0","3","1","","0","1","0","2750.079999999958","","","","","neg","GS","GSold","4","category4/CS8.png","71","targets/10.png","direct","",""
"","image-slider-response","98","981180","0.0-8.0-0.8","zl57t700es","one_one","1","direct_first","1","rt06el08","0","19","1","0","3","1","","0","1","0","3552.850000000093","","","","","neg","GS","GSold","2","category2/CS1.png","13","targets/45.png","direct","",""
"","image-slider-response","99","984688","0.0-8.0-0.9","zl57t700es","one_one","1","direct_first","1","rt06el08","0","19","1","0","3","1","","0","1","0","3504.154999999795","","","","","pos","GS","abstract","3","category3/wang.png","-55","targets/35.png","direct","",""
"","image-slider-response","100","990689","0.0-8.0-0.10","zl57t700es","one_one","1","direct_first","1","rt06el08","0","19","1","0","3","1","","0","1","0","5997.525000000023","","","","","pos","GS","GSnew","1","category1/GS3.png","29","targets/37.png","direct","",""
"","image-slider-response","101","995725","0.0-8.0-0.11","zl57t700es","one_one","1","direct_first","1","rt06el08","0","19","1","0","3","1","","0","1","0","5031.0599999999395","","","","","pos","GS","abstract","1","category1/ma.png","-27","targets/39.png","direct","",""
"","image-slider-response","102","999393","0.0-8.0-0.12","zl57t700es","one_one","1","direct_first","1","rt06el08","0","19","1","0","3","1","","0","1","0","3662.3000000002794","","","","","neg","GS","GSnew","4","category4/GS2.png","72","targets/43.png","direct","",""
"","image-slider-response","103","1001863","0.0-8.0-0.13","zl57t700es","one_one","1","direct_first","1","rt06el08","0","19","1","0","3","1","","0","1","0","2465.480000000214","","","","","pos","GS","GSnew","3","category3/GS2.png","69","targets/34.png","direct","",""
"","image-slider-response","104","1004960","0.0-8.0-0.14","zl57t700es","one_one","1","direct_first","1","rt06el08","0","19","1","0","3","1","","0","1","0","3094.0550000001676","","","","","neg","GS","GSold","2","category2/CS3.png","13","targets/28.png","direct","",""
"","image-slider-response","105","1008608","0.0-8.0-0.15","zl57t700es","one_one","1","direct_first","1","rt06el08","0","19","1","0","3","1","","0","1","0","3644.554999999935","","","","","pos","GS","GSnew","3","category3/GS3.png","33","targets/12.png","direct","",""
"","image-slider-response","106","1013321","0.0-8.0-0.16","zl57t700es","one_one","1","direct_first","1","rt06el08","0","19","1","0","3","1","","0","1","0","4709.614999999991","","","","","neg","GS","abstract","4","category4/lin.png","24","targets/47.png","direct","",""
"","image-slider-response","107","1016329","0.0-8.0-0.17","zl57t700es","one_one","1","direct_first","1","rt06el08","0","19","1","0","3","1","","0","1","0","3003.2700000000186","","","","","pos","GS","GSnew","1","category1/GS1.png","42","targets/21.png","direct","",""
"","image-slider-response","108","1019392","0.0-8.0-0.18","zl57t700es","one_one","1","direct_first","1","rt06el08","0","19","1","0","3","1","","0","1","0","3058.864999999758","","","","","neg","GS","abstract","2","category2/men.png","-42","targets/24.png","direct","",""
"","image-slider-response","109","1022297","0.0-8.0-0.19","zl57t700es","one_one","1","direct_first","1","rt06el08","0","19","1","0","3","1","","0","1","0","2901.399999999907","","","","","pos","GS","GSold","3","category3/CS3.png","24","targets/27.png","direct","",""
"","image-slider-response","110","1024994","0.0-8.0-0.20","zl57t700es","one_one","1","direct_first","1","rt06el08","0","19","1","0","3","1","","0","1","0","2693.6500000001397","","","","","pos","GS","GSold","3","category3/CS10.png","78","targets/14.png","direct","",""
"","image-slider-response","111","1028732","0.0-8.0-0.21","zl57t700es","one_one","1","direct_first","1","rt06el08","0","19","1","0","3","1","","0","1","0","3734.4550000000745","","","","","neg","GS","GSnew","2","category2/GS1.png","-27","targets/9.png","direct","",""
"","image-slider-response","112","1033866","0.0-8.0-0.22","zl57t700es","one_one","1","direct_first","1","rt06el08","0","19","1","0","3","1","","0","1","0","5129.934999999823","","","","","pos","GS","GSold","3","category3/CS4.png","53","targets/41.png","direct","",""
"","image-slider-response","113","1036358","0.0-8.0-0.23","zl57t700es","one_one","1","direct_first","1","rt06el08","0","19","1","0","3","1","","0","1","0","2487.1649999998044","","","","","pos","GS","GSnew","1","category1/GS2.png","8","targets/46.png","direct","",""
"","image-slider-response","114","1040063","0.0-8.0-0.24","zl57t700es","one_one","1","direct_first","1","rt06el08","0","19","1","0","3","1","","0","1","0","3700.0850000001956","","","","","neg","GS","GSnew","4","category4/GS3.png","29","targets/33.png","direct","",""
"","image-slider-response","115","1042175","0.0-8.0-0.25","zl57t700es","one_one","1","direct_first","1","rt06el08","0","19","1","0","3","1","","0","1","0","2108.7000000001863","","","","","neg","GS","GSnew","2","category2/GS3.png","-46","targets/3.png","direct","",""
"","image-slider-response","116","1046923","0.0-8.0-0.26","zl57t700es","one_one","1","direct_first","1","rt06el08","0","19","1","0","3","1","","0","1","0","4744.694999999832","","","","","neg","GS","GSnew","4","category4/GS1.png","15","targets/38.png","direct","",""
"","image-slider-response","117","1049450","0.0-8.0-0.27","zl57t700es","one_one","1","direct_first","1","rt06el08","0","19","1","0","3","1","","0","1","0","2522.4250000000466","","","","","pos","CS","CS","1","category1/CS9.png","46","targets/16.png","direct","",""
"","image-slider-response","118","1052088","0.0-8.0-0.28","zl57t700es","one_one","1","direct_first","1","rt06el08","0","19","1","0","3","1","","0","1","0","2634.2099999999627","","","","","pos","GS","GSold","1","category1/CS10.png","-33","targets/44.png","direct","",""
"","image-slider-response","119","1055638","0.0-8.0-0.29","zl57t700es","one_one","1","direct_first","1","rt06el08","0","19","1","0","3","1","","0","1","0","3545.9950000001118","","","","","pos","CS","CS","3","category3/CS5.png","60","targets/2.png","direct","",""
"","image-slider-response","120","1059073","0.0-8.0-0.30","zl57t700es","one_one","1","direct_first","1","rt06el08","0","19","1","0","3","1","","0","1","0","3430.9500000001863","","","","","neg","CS","CS","2","category2/CS10.png","-53","targets/6.png","direct","",""
"","image-slider-response","121","1062486","0.0-8.0-0.31","zl57t700es","one_one","1","direct_first","1","rt06el08","0","19","1","0","3","1","","0","1","0","3409.559999999823","","","","","pos","GS","GSold","1","category1/CS3.png","18","targets/1.png","direct","",""
"","html-keyboard-response","122","1109243","0.0-9.0","zl57t700es","one_one","1","direct_first","1","rt06el08","0","19","1","0","3","1","","0","1","0","46755.35499999998","","","<p>Sie sehen nun die chinesischen Zeichen nur ganz kurz. Danach sehen Sie die jeweilige Aussprache der Zeichen als Silbe auf dem Bildschrim. Ihre Aufgabe ist es, für jede Silbe anzugeben, ob diese etwas angenehmes, oder unangenehmes bedeuten könnte. Verlassen Sie sich hier vor allem auf Ihre Intuition.<br><br>Die Zeichen werden nur zur Orientierung dargestellt, beachten Sie sie deshalb nicht. Konzentrieren Sie sich vor allem auf die Silben. <br>Reagieren Sie mit folgenden zwei Tasten: <br><br><b>'D' </b> wenn die Silbe etwas <b>unangenehmes</b> bedeuten könnte. <br><b>'K'</b> wenn die Silbe etwas <b>angenehmes</b> bedeuten könnte. <br><br>Bitte legen Sie nun den Zeigefinger der linken Hand auf die Taste 'D' und den Zeigefinger der rechten Hand auf die Taste 'K'. <br>Reagieren Sie auf jede Silbe so schnell wie möglich. Uns interessiert Ihre spontane Reaktion. <br> <br> <br>Drücken Sie 'D' oder 'K', um die nächste Aufgabe zu starten. </p>","75","","","","","","","","","",""
"","html-keyboard-response","123","1112251","0.0-10.0-0.0","zl57t700es","one_one","1","direct_first","1","rt06el08","0","19","1","0","3","1","","0","1","0","null","","","<div style=""font-size:60px;"">+</div>","null","","","","","","","","","",""
"","html-keyboard-response","124","1112343","0.0-10.0-1.0","zl57t700es","one_one","1","direct_first","1","rt06el08","0","19","1","0","3","1","","0","1","0","null","","","<img src = 'category1/CS10.png' width = '100%;'>","null","","","","","","","","","",""
"","html-keyboard-response","125","1112598","0.0-10.0-2.0","zl57t700es","one_one","1","direct_first","1","rt06el08","0","19","1","0","3","1","","0","1","0","null","","","<img src = 'targets/44.png' width = '100%;'>","null","","","","","","","","","",""
"","html-keyboard-response","126","1117336","0.0-10.0-3.0","zl57t700es","one_one","1","direct_first","1","rt06el08","0","19","1","0","3","1","","0","1","0","4737.75","","","<img src = 'targets/mask.png' width = '100%;'>","75","pos","GS","GSold","1","category1/CS10.png","","targets/44.png","indirect","1","0"
"","html-keyboard-response","127","1118844","0.0-10.0-0.1","zl57t700es","one_one","1","direct_first","1","rt06el08","0","19","1","0","3","1","","0","1","0","null","","","<div style=""font-size:60px;"">+</div>","null","","","","","","","","","",""
"","html-keyboard-response","128","1118939","0.0-10.0-1.1","zl57t700es","one_one","1","direct_first","1","rt06el08","0","19","1","0","3","1","","0","1","0","null","","","<img src = 'category3/CS3.png' width = '100%;'>","null","","","","","","","","","",""
"","html-keyboard-response","129","1119196","0.0-10.0-2.1","zl57t700es","one_one","1","direct_first","1","rt06el08","0","19","1","0","3","1","","0","1","0","null","","","<img src = 'targets/27.png' width = '100%;'>","null","","","","","","","","","",""
"","html-keyboard-response","130","1120404","0.0-10.0-3.1","zl57t700es","one_one","1","direct_first","1","rt06el08","0","19","1","0","3","1","","0","1","0","1205.6850000000559","","","<img src = 'targets/mask.png' width = '100%;'>","75","pos","GS","GSold","3","category3/CS3.png","","targets/27.png","indirect","1","1"
"","html-keyboard-response","131","1121909","0.0-10.0-0.2","zl57t700es","one_one","1","direct_first","1","rt06el08","0","19","1","0","3","1","","0","1","0","null","","","<div style=""font-size:60px;"">+</div>","null","","","","","","","","","",""
"","html-keyboard-response","132","1122001","0.0-10.0-1.2","zl57t700es","one_one","1","direct_first","1","rt06el08","0","19","1","0","3","1","","0","1","0","null","","","<img src = 'category1/CS2.png' width = '100%;'>","null","","","","","","","","","",""
"","html-keyboard-response","133","1122257","0.0-10.0-2.2","zl57t700es","one_one","1","direct_first","1","rt06el08","0","19","1","0","3","1","","0","1","0","null","","","<img src = 'targets/48.png' width = '100%;'>","null","","","","","","","","","",""
"","html-keyboard-response","134","1123286","0.0-10.0-3.2","zl57t700es","one_one","1","direct_first","1","rt06el08","0","19","1","0","3","1","","0","1","0","1026.719999999972","","","<img src = 'targets/mask.png' width = '100%;'>","75","pos","GS","GSold","1","category1/CS2.png","","targets/48.png","indirect","1","2"
"","html-keyboard-response","135","1124791","0.0-10.0-0.3","zl57t700es","one_one","1","direct_first","1","rt06el08","0","19","1","0","3","1","","0","1","0","null","","","<div style=""font-size:60px;"">+</div>","null","","","","","","","","","",""
"","html-keyboard-response","136","1124883","0.0-10.0-1.3","zl57t700es","one_one","1","direct_first","1","rt06el08","0","19","1","0","3","1","","0","1","0","null","","","<img src = 'category1/CS9.png' width = '100%;'>","null","","","","","","","","","",""
"","html-keyboard-response","137","1125136","0.0-10.0-2.3","zl57t700es","one_one","1","direct_first","1","rt06el08","0","19","1","0","3","1","","0","1","0","null","","","<img src = 'targets/16.png' width = '100%;'>","null","","","","","","","","","",""
"","html-keyboard-response","138","1126158","0.0-10.0-3.3","zl57t700es","one_one","1","direct_first","1","rt06el08","0","19","1","0","3","1","","0","1","0","1020.1749999998137","","","<img src = 'targets/mask.png' width = '100%;'>","68","pos","CS","CS","1","category1/CS9.png","","targets/16.png","indirect","0","3"
"","html-keyboard-response","139","1127663","0.0-10.0-0.4","zl57t700es","one_one","1","direct_first","1","rt06el08","0","19","1","0","3","1","","0","1","0","null","","","<div style=""font-size:60px;"">+</div>","null","","","","","","","","","",""
"","html-keyboard-response","140","1127757","0.0-10.0-1.4","zl57t700es","one_one","1","direct_first","1","rt06el08","0","19","1","0","3","1","","0","1","0","null","","","<img src = 'category1/CS3.png' width = '100%;'>","null","","","","","","","","","",""
"","html-keyboard-response","141","1128013","0.0-10.0-2.4","zl57t700es","one_one","1","direct_first","1","rt06el08","0","19","1","0","3","1","","0","1","0","null","","","<img src = 'targets/1.png' width = '100%;'>","null","","","","","","","","","",""
"","html-keyboard-response","142","1129827","0.0-10.0-3.4","zl57t700es","one_one","1","direct_first","1","rt06el08","0","19","1","0","3","1","","0","1","0","1810.8400000000838","","","<img src = 'targets/mask.png' width = '100%;'>","75","pos","GS","GSold","1","category1/CS3.png","","targets/1.png","indirect","1","4"
"","html-keyboard-response","143","1131331","0.0-10.0-0.5","zl57t700es","one_one","1","direct_first","1","rt06el08","0","19","1","0","3","1","","0","1","0","null","","","<div style=""font-size:60px;"">+</div>","null","","","","","","","","","",""
"","html-keyboard-response","144","1131427","0.0-10.0-1.5","zl57t700es","one_one","1","direct_first","1","rt06el08","0","19","1","0","3","1","","0","1","0","null","","","<img src = 'category2/CS3.png' width = '100%;'>","null","","","","","","","","","",""
"","html-keyboard-response","145","1131682","0.0-10.0-2.5","zl57t700es","one_one","1","direct_first","1","rt06el08","0","19","1","0","3","1","","0","1","0","null","","","<img src = 'targets/28.png' width = '100%;'>","null","","","","","","","","","",""
"","html-keyboard-response","146","1134420","0.0-10.0-3.5","zl57t700es","one_one","1","direct_first","1","rt06el08","0","19","1","0","3","1","","0","1","0","2735.6699999999255","","","<img src = 'targets/mask.png' width = '100%;'>","68","neg","GS","GSold","2","category2/CS3.png","","targets/28.png","indirect","0","5"
"","html-keyboard-response","147","1135923","0.0-10.0-0.6","zl57t700es","one_one","1","direct_first","1","rt06el08","0","19","1","0","3","1","","0","1","0","null","","","<div style=""font-size:60px;"">+</div>","null","","","","","","","","","",""
"","html-keyboard-response","148","1136018","0.0-10.0-1.6","zl57t700es","one_one","1","direct_first","1","rt06el08","0","19","1","0","3","1","","0","1","0","null","","","<img src = 'category3/CS5.png' width = '100%;'>","null","","","","","","","","","",""
"","html-keyboard-response","149","1136275","0.0-10.0-2.6","zl57t700es","one_one","1","direct_first","1","rt06el08","0","19","1","0","3","1","","0","1","0","null","","","<img src = 'targets/2.png' width = '100%;'>","null","","","","","","","","","",""
"","html-keyboard-response","150","1137244","0.0-10.0-3.6","zl57t700es","one_one","1","direct_first","1","rt06el08","0","19","1","0","3","1","","0","1","0","967.1550000000279","","","<img src = 'targets/mask.png' width = '100%;'>","75","pos","CS","CS","3","category3/CS5.png","","targets/2.png","indirect","1","6"
"","html-keyboard-response","151","1138748","0.0-10.0-0.7","zl57t700es","one_one","1","direct_first","1","rt06el08","0","19","1","0","3","1","","0","1","0","null","","","<div style=""font-size:60px;"">+</div>","null","","","","","","","","","",""
"","html-keyboard-response","152","1138842","0.0-10.0-1.7","zl57t700es","one_one","1","direct_first","1","rt06el08","0","19","1","0","3","1","","0","1","0","null","","","<img src = 'category3/CS4.png' width = '100%;'>","null","","","","","","","","","",""
"","html-keyboard-response","153","1139098","0.0-10.0-2.7","zl57t700es","one_one","1","direct_first","1","rt06el08","0","19","1","0","3","1","","0","1","0","null","","","<img src = 'targets/41.png' width = '100%;'>","null","","","","","","","","","",""
"","html-keyboard-response","154","1139945","0.0-10.0-3.7","zl57t700es","one_one","1","direct_first","1","rt06el08","0","19","1","0","3","1","","0","1","0","845.3999999999069","","","<img src = 'targets/mask.png' width = '100%;'>","75","pos","GS","GSold","3","category3/CS4.png","","targets/41.png","indirect","1","7"
"","html-keyboard-response","155","1141451","0.0-10.0-0.8","zl57t700es","one_one","1","direct_first","1","rt06el08","0","19","1","0","3","1","","0","1","0","null","","","<div style=""font-size:60px;"">+</div>","null","","","","","","","","","",""
"","html-keyboard-response","156","1141546","0.0-10.0-1.8","zl57t700es","one_one","1","direct_first","1","rt06el08","0","19","1","0","3","1","","0","1","0","null","","","<img src = 'category2/CS1.png' width = '100%;'>","null","","","","","","","","","",""
"","html-keyboard-response","157","1141801","0.0-10.0-2.8","zl57t700es","one_one","1","direct_first","1","rt06el08","0","19","1","0","3","1","","0","1","0","null","","","<img src = 'targets/45.png' width = '100%;'>","null","","","","","","","","","",""
"","html-keyboard-response","158","1142729","0.0-10.0-3.8","zl57t700es","one_one","1","direct_first","1","rt06el08","0","19","1","0","3","1","","0","1","0","925.4499999999534","","","<img src = 'targets/mask.png' width = '100%;'>","75","neg","GS","GSold","2","category2/CS1.png","","targets/45.png","indirect","1","8"
"","html-keyboard-response","159","1144235","0.0-10.0-0.9","zl57t700es","one_one","1","direct_first","1","rt06el08","0","19","1","0","3","1","","0","1","0","null","","","<div style=""font-size:60px;"">+</div>","null","","","","","","","","","",""
"","html-keyboard-response","160","1144328","0.0-10.0-1.9","zl57t700es","one_one","1","direct_first","1","rt06el08","0","19","1","0","3","1","","0","1","0","null","","","<img src = 'category4/CS2.png' width = '100%;'>","null","","","","","","","","","",""
"","html-keyboard-response","161","1144586","0.0-10.0-2.9","zl57t700es","one_one","1","direct_first","1","rt06el08","0","19","1","0","3","1","","0","1","0","null","","","<img src = 'targets/8.png' width = '100%;'>","null","","","","","","","","","",""
"","html-keyboard-response","162","1145388","0.0-10.0-3.9","zl57t700es","one_one","1","direct_first","1","rt06el08","0","19","1","0","3","1","","0","1","0","799.9699999999721","","","<img src = 'targets/mask.png' width = '100%;'>","75","neg","GS","GSold","4","category4/CS2.png","","targets/8.png","indirect","1","9"
"","html-keyboard-response","163","1146890","0.0-10.0-0.10","zl57t700es","one_one","1","direct_first","1","rt06el08","0","19","1","0","3","1","","0","1","0","null","","","<div style=""font-size:60px;"">+</div>","null","","","","","","","","","",""
"","html-keyboard-response","164","1146985","0.0-10.0-1.10","zl57t700es","one_one","1","direct_first","1","rt06el08","0","19","1","0","3","1","","0","1","0","null","","","<img src = 'category4/CS8.png' width = '100%;'>","null","","","","","","","","","",""
"","html-keyboard-response","165","1147242","0.0-10.0-2.10","zl57t700es","one_one","1","direct_first","1","rt06el08","0","19","1","0","3","1","","0","1","0","null","","","<img src = 'targets/10.png' width = '100%;'>","null","","","","","","","","","",""
"","html-keyboard-response","166","1148391","0.0-10.0-3.10","zl57t700es","one_one","1","direct_first","1","rt06el08","0","19","1","0","3","1","","0","1","0","1147.3650000002235","","","<img src = 'targets/mask.png' width = '100%;'>","75","neg","GS","GSold","4","category4/CS8.png","","targets/10.png","indirect","1","10"
"","html-keyboard-response","167","1149897","0.0-10.0-0.11","zl57t700es","one_one","1","direct_first","1","rt06el08","0","19","1","0","3","1","","0","1","0","null","","","<div style=""font-size:60px;"">+</div>","null","","","","","","","","","",""
"","html-keyboard-response","168","1149989","0.0-10.0-1.11","zl57t700es","one_one","1","direct_first","1","rt06el08","0","19","1","0","3","1","","0","1","0","null","","","<img src = 'category2/CS10.png' width = '100%;'>","null","","","","","","","","","",""
"","html-keyboard-response","169","1150245","0.0-10.0-2.11","zl57t700es","one_one","1","direct_first","1","rt06el08","0","19","1","0","3","1","","0","1","0","null","","","<img src = 'targets/6.png' width = '100%;'>","null","","","","","","","","","",""
"","html-keyboard-response","170","1151604","0.0-10.0-3.11","zl57t700es","one_one","1","direct_first","1","rt06el08","0","19","1","0","3","1","","0","1","0","1356.5150000001304","","","<img src = 'targets/mask.png' width = '100%;'>","68","neg","CS","CS","2","category2/CS10.png","","targets/6.png","indirect","0","11"
"","html-keyboard-response","171","1153108","0.0-10.0-0.12","zl57t700es","one_one","1","direct_first","1","rt06el08","0","19","1","0","3","1","","0","1","0","null","","","<div style=""font-size:60px;"">+</div>","null","","","","","","","","","",""
"","html-keyboard-response","172","1153200","0.0-10.0-1.12","zl57t700es","one_one","1","direct_first","1","rt06el08","0","19","1","0","3","1","","0","1","0","null","","","<img src = 'category4/CS6.png' width = '100%;'>","null","","","","","","","","","",""
"","html-keyboard-response","173","1153456","0.0-10.0-2.12","zl57t700es","one_one","1","direct_first","1","rt06el08","0","19","1","0","3","1","","0","1","0","null","","","<img src = 'targets/5.png' width = '100%;'>","null","","","","","","","","","",""
"","html-keyboard-response","174","1154613","0.0-10.0-3.12","zl57t700es","one_one","1","direct_first","1","rt06el08","0","19","1","0","3","1","","0","1","0","1153.6149999997579","","","<img src = 'targets/mask.png' width = '100%;'>","75","neg","CS","CS","4","category4/CS6.png","","targets/5.png","indirect","1","12"
"","html-keyboard-response","175","1156116","0.0-10.0-0.13","zl57t700es","one_one","1","direct_first","1","rt06el08","0","19","1","0","3","1","","0","1","0","null","","","<div style=""font-size:60px;"">+</div>","null","","","","","","","","","",""
"","html-keyboard-response","176","1156208","0.0-10.0-1.13","zl57t700es","one_one","1","direct_first","1","rt06el08","0","19","1","0","3","1","","0","1","0","null","","","<img src = 'category3/CS10.png' width = '100%;'>","null","","","","","","","","","",""
"","html-keyboard-response","177","1156463","0.0-10.0-2.13","zl57t700es","one_one","1","direct_first","1","rt06el08","0","19","1","0","3","1","","0","1","0","null","","","<img src = 'targets/14.png' width = '100%;'>","null","","","","","","","","","",""
"","html-keyboard-response","178","1158762","0.0-10.0-3.13","zl57t700es","one_one","1","direct_first","1","rt06el08","0","19","1","0","3","1","","0","1","0","2297.2700000000186","","","<img src = 'targets/mask.png' width = '100%;'>","68","pos","GS","GSold","3","category3/CS10.png","","targets/14.png","indirect","0","13"
"","html-keyboard-response","179","1160267","0.0-10.0-0.14","zl57t700es","one_one","1","direct_first","1","rt06el08","0","19","1","0","3","1","","0","1","0","null","","","<div style=""font-size:60px;"">+</div>","null","","","","","","","","","",""
"","html-keyboard-response","180","1160360","0.0-10.0-1.14","zl57t700es","one_one","1","direct_first","1","rt06el08","0","19","1","0","3","1","","0","1","0","null","","","<img src = 'category4/CS9.png' width = '100%;'>","null","","","","","","","","","",""
"","html-keyboard-response","181","1160616","0.0-10.0-2.14","zl57t700es","one_one","1","direct_first","1","rt06el08","0","19","1","0","3","1","","0","1","0","null","","","<img src = 'targets/19.png' width = '100%;'>","null","","","","","","","","","",""
"","html-keyboard-response","182","1162408","0.0-10.0-3.14","zl57t700es","one_one","1","direct_first","1","rt06el08","0","19","1","0","3","1","","0","1","0","1789.1350000000093","","","<img src = 'targets/mask.png' width = '100%;'>","68","neg","GS","GSold","4","category4/CS9.png","","targets/19.png","indirect","0","14"
"","html-keyboard-response","183","1163914","0.0-10.0-0.15","zl57t700es","one_one","1","direct_first","1","rt06el08","0","19","1","0","3","1","","0","1","0","null","","","<div style=""font-size:60px;"">+</div>","null","","","","","","","","","",""
"","html-keyboard-response","184","1164009","0.0-10.0-1.15","zl57t700es","one_one","1","direct_first","1","rt06el08","0","19","1","0","3","1","","0","1","0","null","","","<img src = 'category2/CS2.png' width = '100%;'>","null","","","","","","","","","",""
"","html-keyboard-response","185","1164265","0.0-10.0-2.15","zl57t700es","one_one","1","direct_first","1","rt06el08","0","19","1","0","3","1","","0","1","0","null","","","<img src = 'targets/36.png' width = '100%;'>","null","","","","","","","","","",""
"","html-keyboard-response","186","1165270","0.0-10.0-3.15","zl57t700es","one_one","1","direct_first","1","rt06el08","0","19","1","0","3","1","","0","1","0","1002.0349999999162","","","<img src = 'targets/mask.png' width = '100%;'>","75","neg","GS","GSold","2","category2/CS2.png","","targets/36.png","indirect","1","15"
"","survey-html-form","187","1170455","0.0-11.0","zl57t700es","one_one","1","direct_first","1","rt06el08","0","19","1","0","3","1","","0","1","0","4680.460000000196","","{}","","","","","","","","","","","",""
"","html-keyboard-response","188","1173463","0.0-12.0-0.0","zl57t700es","one_one","1","direct_first","1","rt06el08","0","19","1","0","3","1","","0","1","0","null","","","<div style=""font-size:60px;"">+</div>","null","","","","","","","","","",""
"","html-keyboard-response","189","1173557","0.0-12.0-1.0","zl57t700es","one_one","1","direct_first","1","rt06el08","0","19","1","0","3","1","","0","1","0","null","","","<img src = 'category2/GS2.png' width = '100%;'>","null","","","","","","","","","",""
"","html-keyboard-response","190","1173812","0.0-12.0-2.0","zl57t700es","one_one","1","direct_first","1","rt06el08","0","19","1","0","3","1","","0","1","0","null","","","<img src = 'targets/22.png' width = '100%;'>","null","","","","","","","","","",""
"","html-keyboard-response","191","1177360","0.0-12.0-3.0","zl57t700es","one_one","1","direct_first","1","rt06el08","0","19","1","0","3","1","","0","1","0","3544.9300000001676","","","<img src = 'targets/mask.png' width = '100%;'>","68","neg","GS","GSnew","2","category2/GS2.png","","targets/22.png","indirect","0","16"
"","html-keyboard-response","192","1178868","0.0-12.0-0.1","zl57t700es","one_one","1","direct_first","1","rt06el08","0","19","1","0","3","1","","0","1","0","null","","","<div style=""font-size:60px;"">+</div>","null","","","","","","","","","",""
"","html-keyboard-response","193","1178963","0.0-12.0-1.1","zl57t700es","one_one","1","direct_first","1","rt06el08","0","19","1","0","3","1","","0","1","0","null","","","<img src = 'category2/GS3.png' width = '100%;'>","null","","","","","","","","","",""
"","html-keyboard-response","194","1179220","0.0-12.0-2.1","zl57t700es","one_one","1","direct_first","1","rt06el08","0","19","1","0","3","1","","0","1","0","null","","","<img src = 'targets/3.png' width = '100%;'>","null","","","","","","","","","",""
"","html-keyboard-response","195","1183435","0.0-12.0-3.1","zl57t700es","one_one","1","direct_first","1","rt06el08","0","19","1","0","3","1","","0","1","0","4210.820000000065","","","<img src = 'targets/mask.png' width = '100%;'>","68","neg","GS","GSnew","2","category2/GS3.png","","targets/3.png","indirect","0","17"
"","html-keyboard-response","196","1184939","0.0-12.0-0.2","zl57t700es","one_one","1","direct_first","1","rt06el08","0","19","1","0","3","1","","0","1","0","null","","","<div style=""font-size:60px;"">+</div>","null","","","","","","","","","",""
"","html-keyboard-response","197","1185031","0.0-12.0-1.2","zl57t700es","one_one","1","direct_first","1","rt06el08","0","19","1","0","3","1","","0","1","0","null","","","<img src = 'category1/GS1.png' width = '100%;'>","null","","","","","","","","","",""
"","html-keyboard-response","198","1185287","0.0-12.0-2.2","zl57t700es","one_one","1","direct_first","1","rt06el08","0","19","1","0","3","1","","0","1","0","null","","","<img src = 'targets/21.png' width = '100%;'>","null","","","","","","","","","",""
"","html-keyboard-response","199","1185862","0.0-12.0-3.2","zl57t700es","one_one","1","direct_first","1","rt06el08","0","19","1","0","3","1","","0","1","0","572.9799999999814","","","<img src = 'targets/mask.png' width = '100%;'>","75","pos","GS","GSnew","1","category1/GS1.png","","targets/21.png","indirect","1","18"
"","html-keyboard-response","200","1187365","0.0-12.0-0.3","zl57t700es","one_one","1","direct_first","1","rt06el08","0","19","1","0","3","1","","0","1","0","null","","","<div style=""font-size:60px;"">+</div>","null","","","","","","","","","",""
"","html-keyboard-response","201","1187457","0.0-12.0-1.3","zl57t700es","one_one","1","direct_first","1","rt06el08","0","19","1","0","3","1","","0","1","0","null","","","<img src = 'category3/GS1.png' width = '100%;'>","null","","","","","","","","","",""
"","html-keyboard-response","202","1187711","0.0-12.0-2.3","zl57t700es","one_one","1","direct_first","1","rt06el08","0","19","1","0","3","1","","0","1","0","null","","","<img src = 'targets/29.png' width = '100%;'>","null","","","","","","","","","",""
"","html-keyboard-response","203","1188186","0.0-12.0-3.3","zl57t700es","one_one","1","direct_first","1","rt06el08","0","19","1","0","3","1","","0","1","0","473.31500000017695","","","<img src = 'targets/mask.png' width = '100%;'>","75","pos","GS","GSnew","3","category3/GS1.png","","targets/29.png","indirect","1","19"
"","html-keyboard-response","204","1189692","0.0-12.0-0.4","zl57t700es","one_one","1","direct_first","1","rt06el08","0","19","1","0","3","1","","0","1","0","null","","","<div style=""font-size:60px;"">+</div>","null","","","","","","","","","",""
"","html-keyboard-response","205","1189785","0.0-12.0-1.4","zl57t700es","one_one","1","direct_first","1","rt06el08","0","19","1","0","3","1","","0","1","0","null","","","<img src = 'category4/GS1.png' width = '100%;'>","null","","","","","","","","","",""
"","html-keyboard-response","206","1190041","0.0-12.0-2.4","zl57t700es","one_one","1","direct_first","1","rt06el08","0","19","1","0","3","1","","0","1","0","null","","","<img src = 'targets/38.png' width = '100%;'>","null","","","","","","","","","",""
"","html-keyboard-response","207","1190710","0.0-12.0-3.4","zl57t700es","one_one","1","direct_first","1","rt06el08","0","19","1","0","3","1","","0","1","0","668.25","","","<img src = 'targets/mask.png' width = '100%;'>","75","neg","GS","GSnew","4","category4/GS1.png","","targets/38.png","indirect","1","20"
"","html-keyboard-response","208","1192216","0.0-12.0-0.5","zl57t700es","one_one","1","direct_first","1","rt06el08","0","19","1","0","3","1","","0","1","0","null","","","<div style=""font-size:60px;"">+</div>","null","","","","","","","","","",""
"","html-keyboard-response","209","1192312","0.0-12.0-1.5","zl57t700es","one_one","1","direct_first","1","rt06el08","0","19","1","0","3","1","","0","1","0","null","","","<img src = 'category2/men.png' width = '100%;'>","null","","","","","","","","","",""
"","html-keyboard-response","210","1192568","0.0-12.0-2.5","zl57t700es","one_one","1","direct_first","1","rt06el08","0","19","1","0","3","1","","0","1","0","null","","","<img src = 'targets/24.png' width = '100%;'>","null","","","","","","","","","",""
"","html-keyboard-response","211","1192966","0.0-12.0-3.5","zl57t700es","one_one","1","direct_first","1","rt06el08","0","19","1","0","3","1","","0","1","0","396.6850000000559","","","<img src = 'targets/mask.png' width = '100%;'>","68","neg","GS","abstract","2","category2/men.png","","targets/24.png","indirect","0","21"
"","html-keyboard-response","212","1194472","0.0-12.0-0.6","zl57t700es","one_one","1","direct_first","1","rt06el08","0","19","1","0","3","1","","0","1","0","null","","","<div style=""font-size:60px;"">+</div>","null","","","","","","","","","",""
"","html-keyboard-response","213","1194567","0.0-12.0-1.6","zl57t700es","one_one","1","direct_first","1","rt06el08","0","19","1","0","3","1","","0","1","0","null","","","<img src = 'category4/GS2.png' width = '100%;'>","null","","","","","","","","","",""
"","html-keyboard-response","214","1194822","0.0-12.0-2.6","zl57t700es","one_one","1","direct_first","1","rt06el08","0","19","1","0","3","1","","0","1","0","null","","","<img src = 'targets/43.png' width = '100%;'>","null","","","","","","","","","",""
"","html-keyboard-response","215","1195522","0.0-12.0-3.6","zl57t700es","one_one","1","direct_first","1","rt06el08","0","19","1","0","3","1","","0","1","0","698.5999999998603","","","<img src = 'targets/mask.png' width = '100%;'>","75","neg","GS","GSnew","4","category4/GS2.png","","targets/43.png","indirect","1","22"
"","html-keyboard-response","216","1197023","0.0-12.0-0.7","zl57t700es","one_one","1","direct_first","1","rt06el08","0","19","1","0","3","1","","0","1","0","null","","","<div style=""font-size:60px;"">+</div>","null","","","","","","","","","",""
"","html-keyboard-response","217","1197116","0.0-12.0-1.7","zl57t700es","one_one","1","direct_first","1","rt06el08","0","19","1","0","3","1","","0","1","0","null","","","<img src = 'category1/ma.png' width = '100%;'>","null","","","","","","","","","",""
"","html-keyboard-response","218","1197371","0.0-12.0-2.7","zl57t700es","one_one","1","direct_first","1","rt06el08","0","19","1","0","3","1","","0","1","0","null","","","<img src = 'targets/39.png' width = '100%;'>","null","","","","","","","","","",""
"","html-keyboard-response","219","1198926","0.0-12.0-3.7","zl57t700es","one_one","1","direct_first","1","rt06el08","0","19","1","0","3","1","","0","1","0","1552.7250000000931","","","<img src = 'targets/mask.png' width = '100%;'>","75","pos","GS","abstract","1","category1/ma.png","","targets/39.png","indirect","1","23"
"","html-keyboard-response","220","1200433","0.0-12.0-0.8","zl57t700es","one_one","1","direct_first","1","rt06el08","0","19","1","0","3","1","","0","1","0","null","","","<div style=""font-size:60px;"">+</div>","null","","","","","","","","","",""
"","html-keyboard-response","221","1200525","0.0-12.0-1.8","zl57t700es","one_one","1","direct_first","1","rt06el08","0","19","1","0","3","1","","0","1","0","null","","","<img src = 'category4/GS3.png' width = '100%;'>","null","","","","","","","","","",""
"","html-keyboard-response","222","1200780","0.0-12.0-2.8","zl57t700es","one_one","1","direct_first","1","rt06el08","0","19","1","0","3","1","","0","1","0","null","","","<img src = 'targets/33.png' width = '100%;'>","null","","","","","","","","","",""
"","html-keyboard-response","223","1201609","0.0-12.0-3.8","zl57t700es","one_one","1","direct_first","1","rt06el08","0","19","1","0","3","1","","0","1","0","825.9499999999534","","","<img src = 'targets/mask.png' width = '100%;'>","75","neg","GS","GSnew","4","category4/GS3.png","","targets/33.png","indirect","1","24"
"","html-keyboard-response","224","1203113","0.0-12.0-0.9","zl57t700es","one_one","1","direct_first","1","rt06el08","0","19","1","0","3","1","","0","1","0","null","","","<div style=""font-size:60px;"">+</div>","null","","","","","","","","","",""
"","html-keyboard-response","225","1203209","0.0-12.0-1.9","zl57t700es","one_one","1","direct_first","1","rt06el08","0","19","1","0","3","1","","0","1","0","null","","","<img src = 'category3/GS2.png' width = '100%;'>","null","","","","","","","","","",""
"","html-keyboard-response","226","1203464","0.0-12.0-2.9","zl57t700es","one_one","1","direct_first","1","rt06el08","0","19","1","0","3","1","","0","1","0","null","","","<img src = 'targets/34.png' width = '100%;'>","null","","","","","","","","","",""
"","html-keyboard-response","227","1203905","0.0-12.0-3.9","zl57t700es","one_one","1","direct_first","1","rt06el08","0","19","1","0","3","1","","0","1","0","439.2349999998696","","","<img src = 'targets/mask.png' width = '100%;'>","75","pos","GS","GSnew","3","category3/GS2.png","","targets/34.png","indirect","1","25"
"","html-keyboard-response","228","1205411","0.0-12.0-0.10","zl57t700es","one_one","1","direct_first","1","rt06el08","0","19","1","0","3","1","","0","1","0","null","","","<div style=""font-size:60px;"">+</div>","null","","","","","","","","","",""
"","html-keyboard-response","229","1205503","0.0-12.0-1.10","zl57t700es","one_one","1","direct_first","1","rt06el08","0","19","1","0","3","1","","0","1","0","null","","","<img src = 'category2/GS1.png' width = '100%;'>","null","","","","","","","","","",""
"","html-keyboard-response","230","1205758","0.0-12.0-2.10","zl57t700es","one_one","1","direct_first","1","rt06el08","0","19","1","0","3","1","","0","1","0","null","","","<img src = 'targets/9.png' width = '100%;'>","null","","","","","","","","","",""
"","html-keyboard-response","231","1206431","0.0-12.0-3.10","zl57t700es","one_one","1","direct_first","1","rt06el08","0","19","1","0","3","1","","0","1","0","670.5199999997858","","","<img src = 'targets/mask.png' width = '100%;'>","68","neg","GS","GSnew","2","category2/GS1.png","","targets/9.png","indirect","0","26"
"","html-keyboard-response","232","1207937","0.0-12.0-0.11","zl57t700es","one_one","1","direct_first","1","rt06el08","0","19","1","0","3","1","","0","1","0","null","","","<div style=""font-size:60px;"">+</div>","null","","","","","","","","","",""
"","html-keyboard-response","233","1208029","0.0-12.0-1.11","zl57t700es","one_one","1","direct_first","1","rt06el08","0","19","1","0","3","1","","0","1","0","null","","","<img src = 'category1/GS3.png' width = '100%;'>","null","","","","","","","","","",""
"","html-keyboard-response","234","1208285","0.0-12.0-2.11","zl57t700es","one_one","1","direct_first","1","rt06el08","0","19","1","0","3","1","","0","1","0","null","","","<img src = 'targets/37.png' width = '100%;'>","null","","","","","","","","","",""
"","html-keyboard-response","235","1209305","0.0-12.0-3.11","zl57t700es","one_one","1","direct_first","1","rt06el08","0","19","1","0","3","1","","0","1","0","1017.9299999999348","","","<img src = 'targets/mask.png' width = '100%;'>","75","pos","GS","GSnew","1","category1/GS3.png","","targets/37.png","indirect","1","27"
"","html-keyboard-response","236","1210810","0.0-12.0-0.12","zl57t700es","one_one","1","direct_first","1","rt06el08","0","19","1","0","3","1","","0","1","0","null","","","<div style=""font-size:60px;"">+</div>","null","","","","","","","","","",""
"","html-keyboard-response","237","1210902","0.0-12.0-1.12","zl57t700es","one_one","1","direct_first","1","rt06el08","0","19","1","0","3","1","","0","1","0","null","","","<img src = 'category1/GS2.png' width = '100%;'>","null","","","","","","","","","",""
"","html-keyboard-response","238","1211158","0.0-12.0-2.12","zl57t700es","one_one","1","direct_first","1","rt06el08","0","19","1","0","3","1","","0","1","0","null","","","<img src = 'targets/46.png' width = '100%;'>","null","","","","","","","","","",""
"","html-keyboard-response","239","1211931","0.0-12.0-3.12","zl57t700es","one_one","1","direct_first","1","rt06el08","0","19","1","0","3","1","","0","1","0","771.4700000002049","","","<img src = 'targets/mask.png' width = '100%;'>","75","pos","GS","GSnew","1","category1/GS2.png","","targets/46.png","indirect","1","28"
"","html-keyboard-response","240","1213434","0.0-12.0-0.13","zl57t700es","one_one","1","direct_first","1","rt06el08","0","19","1","0","3","1","","0","1","0","null","","","<div style=""font-size:60px;"">+</div>","null","","","","","","","","","",""
"","html-keyboard-response","241","1213526","0.0-12.0-1.13","zl57t700es","one_one","1","direct_first","1","rt06el08","0","19","1","0","3","1","","0","1","0","null","","","<img src = 'category3/wang.png' width = '100%;'>","null","","","","","","","","","",""
"","html-keyboard-response","242","1213781","0.0-12.0-2.13","zl57t700es","one_one","1","direct_first","1","rt06el08","0","19","1","0","3","1","","0","1","0","null","","","<img src = 'targets/35.png' width = '100%;'>","null","","","","","","","","","",""
"","html-keyboard-response","243","1216399","0.0-12.0-3.13","zl57t700es","one_one","1","direct_first","1","rt06el08","0","19","1","0","3","1","","0","1","0","2616.7700000000186","","","<img src = 'targets/mask.png' width = '100%;'>","75","pos","GS","abstract","3","category3/wang.png","","targets/35.png","indirect","1","29"
"","html-keyboard-response","244","1217909","0.0-12.0-0.14","zl57t700es","one_one","1","direct_first","1","rt06el08","0","19","1","0","3","1","","0","1","0","null","","","<div style=""font-size:60px;"">+</div>","null","","","","","","","","","",""
"","html-keyboard-response","245","1218001","0.0-12.0-1.14","zl57t700es","one_one","1","direct_first","1","rt06el08","0","19","1","0","3","1","","0","1","0","null","","","<img src = 'category3/GS3.png' width = '100%;'>","null","","","","","","","","","",""
"","html-keyboard-response","246","1218255","0.0-12.0-2.14","zl57t700es","one_one","1","direct_first","1","rt06el08","0","19","1","0","3","1","","0","1","0","null","","","<img src = 'targets/12.png' width = '100%;'>","null","","","","","","","","","",""
"","html-keyboard-response","247","1219214","0.0-12.0-3.14","zl57t700es","one_one","1","direct_first","1","rt06el08","0","19","1","0","3","1","","0","1","0","955.3350000001956","","","<img src = 'targets/mask.png' width = '100%;'>","75","pos","GS","GSnew","3","category3/GS3.png","","targets/12.png","indirect","1","30"
"","html-keyboard-response","248","1220719","0.0-12.0-0.15","zl57t700es","one_one","1","direct_first","1","rt06el08","0","19","1","0","3","1","","0","1","0","null","","","<div style=""font-size:60px;"">+</div>","null","","","","","","","","","",""
"","html-keyboard-response","249","1220814","0.0-12.0-1.15","zl57t700es","one_one","1","direct_first","1","rt06el08","0","19","1","0","3","1","","0","1","0","null","","","<img src = 'category4/lin.png' width = '100%;'>","null","","","","","","","","","",""
"","html-keyboard-response","250","1221074","0.0-12.0-2.15","zl57t700es","one_one","1","direct_first","1","rt06el08","0","19","1","0","3","1","","0","1","0","null","","","<img src = 'targets/47.png' width = '100%;'>","null","","","","","","","","","",""
"","html-keyboard-response","251","1222968","0.0-12.0-3.15","zl57t700es","one_one","1","direct_first","1","rt06el08","0","19","1","0","3","1","","0","1","0","1892.6799999999348","","","<img src = 'targets/mask.png' width = '100%;'>","68","neg","GS","abstract","4","category4/lin.png","","targets/47.png","indirect","0","31"
"","survey-html-form","252","1228530","0.0-13.0","zl57t700es","one_one","1","direct_first","1","rt06el08","0","19","1","0","3","1","","0","1","0","5059.135000000009","","{}","","","","","","","","","","","",""
"","image-slider-response","253","1235482","0.0-14.0-0.0","zl57t700es","one_one","1","direct_first","1","rt06el08","0","19","1","0","3","1","","0","1","0","5946.074999999953","","","","","neg","All","all","4","category4/lin_all.png","42","","all","",""
"","image-slider-response","254","1244241","0.0-14.0-0.1","zl57t700es","one_one","1","direct_first","1","rt06el08","0","19","1","0","3","1","","0","1","0","8754.80000000028","","","","","neg","All","all","2","category2/men_all.png","9","","all","",""
"","image-slider-response","255","1247202","0.0-14.0-0.2","zl57t700es","one_one","1","direct_first","1","rt06el08","0","19","1","0","3","1","","0","1","0","2956.409999999916","","","","","pos","All","all","3","category3/wang_all.png","48","","all","",""
"","image-slider-response","256","1250141","0.0-14.0-0.3","zl57t700es","one_one","1","direct_first","1","rt06el08","0","19","1","0","3","1","","0","1","0","2936.1500000001397","","","","","pos","All","all","1","category1/ma_all.png","41","","all","",""
"","survey-text","257","1252855","0.0-15.0","zl57t700es","one_one","1","direct_first","1","rt06el08","0","19","1","0","3","1","","0","1","0","2656.309999999823","","{""comment"":""""}","","","","","","","","","","","",""
"","survey-html-form","258","1266559","0.0-16.0","zl57t700es","one_one","1","direct_first","1","rt06el08","0","19","1","0","3","1","","0","1","0","13699.580000000075","","{""hinschauen"":""0"",""ablenkung"":""1"",""gewissenhaft"":""0""}","","","","","","","","","","","",""
