"success","trial_type","trial_index","time_elapsed","internal_node_id","subject","condition","condition_code","measure","measure_code","codeword","gender","age","education","chinese","fach","handedness","comment","hinschauen","ablenkung","gewissenhaft","rt","url","responses","stimulus","key_press","val","type","type_specific","category","cs_selected","response","target","task","indirect","nr_pres"
"true","fullscreen","0","2338","0.0-0.0","syk56tymeh","one_one","1","direct_first","1","UN04PH03","0","25","1","1","1","1","","0","0","0","","","","","","","","","","","","","","",""
"","external-html","1","5276","0.0-1.0","syk56tymeh","one_one","1","direct_first","1","UN04PH03","0","25","1","1","1","1","","0","0","0","2926","text/information.html","","","","","","","","","","","","",""
"","external-html","2","11559","0.0-2.0","syk56tymeh","one_one","1","direct_first","1","UN04PH03","0","25","1","1","1","1","","0","0","0","6106","text/consent.html","","","","","","","","","","","","",""
"","survey-html-form","3","31255","0.0-3.0","syk56tymeh","one_one","1","direct_first","1","UN04PH03","0","25","1","1","1","1","","0","0","0","19691","","{""codeword_enter"":""UN04PH03""}","","","","","","","","","","","",""
"","survey-html-form","4","44200","0.0-4.0","syk56tymeh","one_one","1","direct_first","1","UN04PH03","0","25","1","1","1","1","","0","0","0","12937","","{""age"":""25"",""education"":""1"",""subject"":""1"",""gender"":""0"",""handedness"":""1"",""chinese"":""1""}","","","","","","","","","","","",""
"","survey-html-form","5","53469","0.0-5.0","syk56tymeh","one_one","1","direct_first","1","UN04PH03","0","25","1","1","1","1","","0","0","0","9264","","{}","","","","","","","","","","","",""
"","html-keyboard-response","6","57485","0.0-6.0-0.0-0.0","syk56tymeh","one_one","1","direct_first","1","UN04PH03","0","25","1","1","1","1","","0","0","0","null","","","<div class = 'row'><div class = 'column'><img src = 'category3/CS6.png' width = '70%;'></div><div class = 'column'><img src = 'usneg/9182.bmp' width = '100%;'></div></div>","null","neg","CS","CS","3","category3/CS6.png","","","","",""
"","html-keyboard-response","7","60005","0.0-6.0-0.0-0.1","syk56tymeh","one_one","1","direct_first","1","UN04PH03","0","25","1","1","1","1","","0","0","0","null","","","<div class = 'row'><div class = 'column'><img src = 'category4/CS5.png' width = '70%;'></div><div class = 'column'><img src = 'usneg/9415.bmp' width = '100%;'></div></div>","null","neg","CS","CS","4","category4/CS5.png","","","","",""
"","html-keyboard-response","8","62525","0.0-6.0-0.0-0.2","syk56tymeh","one_one","1","direct_first","1","UN04PH03","0","25","1","1","1","1","","0","0","0","null","","","<div class = 'row'><div class = 'column'><img src = 'category2/CS4.png' width = '70%;'></div><div class = 'column'><img src = 'uspos/8490.bmp' width = '100%;'></div></div>","null","pos","CS","CS","2","category2/CS4.png","","","","",""
"","html-keyboard-response","9","65045","0.0-6.0-0.0-0.3","syk56tymeh","one_one","1","direct_first","1","UN04PH03","0","25","1","1","1","1","","0","0","0","null","","","<div class = 'row'><div class = 'column'><img src = 'category1/CS6.png' width = '70%;'></div><div class = 'column'><img src = 'uspos/5760.bmp' width = '100%;'></div></div>","null","pos","CS","CS","1","category1/CS6.png","","","","",""
"","html-keyboard-response","10","67564","0.0-6.0-0.0-0.4","syk56tymeh","one_one","1","direct_first","1","UN04PH03","0","25","1","1","1","1","","0","0","0","null","","","<div class = 'row'><div class = 'column'><img src = 'category2/CS4.png' width = '70%;'></div><div class = 'column'><img src = 'uspos/8490.bmp' width = '100%;'></div></div>","null","pos","CS","CS","2","category2/CS4.png","","","","",""
"","html-keyboard-response","11","70084","0.0-6.0-0.0-0.5","syk56tymeh","one_one","1","direct_first","1","UN04PH03","0","25","1","1","1","1","","0","0","0","null","","","<div class = 'row'><div class = 'column'><img src = 'usneg/9182.bmp' width = '100%;'></div><div class = 'column'><img src = 'category3/CS6.png' width = '70%;'></div></div>","null","neg","CS","CS","3","category3/CS6.png","","","","",""
"","html-keyboard-response","12","72604","0.0-6.0-0.0-0.6","syk56tymeh","one_one","1","direct_first","1","UN04PH03","0","25","1","1","1","1","","0","0","0","null","","","<div class = 'row'><div class = 'column'><img src = 'category1/CS6.png' width = '70%;'></div><div class = 'column'><img src = 'uspos/5760.bmp' width = '100%;'></div></div>","null","pos","CS","CS","1","category1/CS6.png","","","","",""
"","html-keyboard-response","13","75123","0.0-6.0-0.0-0.7","syk56tymeh","one_one","1","direct_first","1","UN04PH03","0","25","1","1","1","1","","0","0","0","null","","","<div class = 'row'><div class = 'column'><img src = 'usneg/9182.bmp' width = '100%;'></div><div class = 'column'><img src = 'category3/CS6.png' width = '70%;'></div></div>","null","neg","CS","CS","3","category3/CS6.png","","","","",""
"","html-keyboard-response","14","77644","0.0-6.0-0.0-0.8","syk56tymeh","one_one","1","direct_first","1","UN04PH03","0","25","1","1","1","1","","0","0","0","null","","","<div class = 'row'><div class = 'column'><img src = 'category4/CS5.png' width = '70%;'></div><div class = 'column'><img src = 'usneg/9415.bmp' width = '100%;'></div></div>","null","neg","CS","CS","4","category4/CS5.png","","","","",""
"","html-keyboard-response","15","80164","0.0-6.0-0.0-0.9","syk56tymeh","one_one","1","direct_first","1","UN04PH03","0","25","1","1","1","1","","0","0","0","null","","","<div class = 'row'><div class = 'column'><img src = 'uspos/5760.bmp' width = '100%;'></div><div class = 'column'><img src = 'category1/CS6.png' width = '70%;'></div></div>","null","pos","CS","CS","1","category1/CS6.png","","","","",""
"","html-keyboard-response","16","82684","0.0-6.0-0.0-0.10","syk56tymeh","one_one","1","direct_first","1","UN04PH03","0","25","1","1","1","1","","0","0","0","null","","","<div class = 'row'><div class = 'column'><img src = 'category2/CS4.png' width = '70%;'></div><div class = 'column'><img src = 'uspos/8490.bmp' width = '100%;'></div></div>","null","pos","CS","CS","2","category2/CS4.png","","","","",""
"","html-keyboard-response","17","85203","0.0-6.0-0.0-0.11","syk56tymeh","one_one","1","direct_first","1","UN04PH03","0","25","1","1","1","1","","0","0","0","null","","","<div class = 'row'><div class = 'column'><img src = 'usneg/9415.bmp' width = '100%;'></div><div class = 'column'><img src = 'category4/CS5.png' width = '70%;'></div></div>","null","neg","CS","CS","4","category4/CS5.png","","","","",""
"","html-keyboard-response","18","87722","0.0-6.0-0.0-0.12","syk56tymeh","one_one","1","direct_first","1","UN04PH03","0","25","1","1","1","1","","0","0","0","null","","","<div class = 'row'><div class = 'column'><img src = 'category1/CS6.png' width = '70%;'></div><div class = 'column'><img src = 'uspos/5760.bmp' width = '100%;'></div></div>","null","pos","CS","CS","1","category1/CS6.png","","","","",""
"","html-keyboard-response","19","90242","0.0-6.0-0.0-0.13","syk56tymeh","one_one","1","direct_first","1","UN04PH03","0","25","1","1","1","1","","0","0","0","null","","","<div class = 'row'><div class = 'column'><img src = 'usneg/9182.bmp' width = '100%;'></div><div class = 'column'><img src = 'category3/CS6.png' width = '70%;'></div></div>","null","neg","CS","CS","3","category3/CS6.png","","","","",""
"","html-keyboard-response","20","92763","0.0-6.0-0.0-0.14","syk56tymeh","one_one","1","direct_first","1","UN04PH03","0","25","1","1","1","1","","0","0","0","null","","","<div class = 'row'><div class = 'column'><img src = 'category2/CS4.png' width = '70%;'></div><div class = 'column'><img src = 'uspos/8490.bmp' width = '100%;'></div></div>","null","pos","CS","CS","2","category2/CS4.png","","","","",""
"","html-keyboard-response","21","95282","0.0-6.0-0.0-0.15","syk56tymeh","one_one","1","direct_first","1","UN04PH03","0","25","1","1","1","1","","0","0","0","null","","","<div class = 'row'><div class = 'column'><img src = 'usneg/9415.bmp' width = '100%;'></div><div class = 'column'><img src = 'category4/CS5.png' width = '70%;'></div></div>","null","neg","CS","CS","4","category4/CS5.png","","","","",""
"","html-keyboard-response","22","97802","0.0-6.0-0.0-0.16","syk56tymeh","one_one","1","direct_first","1","UN04PH03","0","25","1","1","1","1","","0","0","0","null","","","<div class = 'row'><div class = 'column'><img src = 'usneg/9182.bmp' width = '100%;'></div><div class = 'column'><img src = 'category3/CS6.png' width = '70%;'></div></div>","null","neg","CS","CS","3","category3/CS6.png","","","","",""
"","html-keyboard-response","23","100323","0.0-6.0-0.0-0.17","syk56tymeh","one_one","1","direct_first","1","UN04PH03","0","25","1","1","1","1","","0","0","0","null","","","<div class = 'row'><div class = 'column'><img src = 'category2/CS4.png' width = '70%;'></div><div class = 'column'><img src = 'uspos/8490.bmp' width = '100%;'></div></div>","null","pos","CS","CS","2","category2/CS4.png","","","","",""
"","html-keyboard-response","24","102842","0.0-6.0-0.0-0.18","syk56tymeh","one_one","1","direct_first","1","UN04PH03","0","25","1","1","1","1","","0","0","0","null","","","<div class = 'row'><div class = 'column'><img src = 'category4/CS5.png' width = '70%;'></div><div class = 'column'><img src = 'usneg/9415.bmp' width = '100%;'></div></div>","null","neg","CS","CS","4","category4/CS5.png","","","","",""
"","html-keyboard-response","25","105362","0.0-6.0-0.0-0.19","syk56tymeh","one_one","1","direct_first","1","UN04PH03","0","25","1","1","1","1","","0","0","0","null","","","<div class = 'row'><div class = 'column'><img src = 'uspos/5760.bmp' width = '100%;'></div><div class = 'column'><img src = 'category1/CS6.png' width = '70%;'></div></div>","null","pos","CS","CS","1","category1/CS6.png","","","","",""
"","survey-html-form","26","108918","0.0-6.0-1.0","syk56tymeh","one_one","1","direct_first","1","UN04PH03","0","25","1","1","1","1","","0","0","0","3045","","{}","","","","","","","","","","","",""
"","html-keyboard-response","27","112932","0.0-6.0-2.0-0.0","syk56tymeh","one_one","1","direct_first","1","UN04PH03","0","25","1","1","1","1","","0","0","0","null","","","<div class = 'row'><div class = 'column'><img src = 'category4/CS5.png' width = '70%;'></div><div class = 'column'><img src = 'usneg/9415.bmp' width = '100%;'></div></div>","null","neg","CS","CS","4","category4/CS5.png","","","","",""
"","html-keyboard-response","28","115443","0.0-6.0-2.0-0.1","syk56tymeh","one_one","1","direct_first","1","UN04PH03","0","25","1","1","1","1","","0","0","0","null","","","<div class = 'row'><div class = 'column'><img src = 'category1/CS6.png' width = '70%;'></div><div class = 'column'><img src = 'uspos/5760.bmp' width = '100%;'></div></div>","null","pos","CS","CS","1","category1/CS6.png","","","","",""
"","html-keyboard-response","29","117963","0.0-6.0-2.0-0.2","syk56tymeh","one_one","1","direct_first","1","UN04PH03","0","25","1","1","1","1","","0","0","0","null","","","<div class = 'row'><div class = 'column'><img src = 'usneg/9415.bmp' width = '100%;'></div><div class = 'column'><img src = 'category4/CS5.png' width = '70%;'></div></div>","null","neg","CS","CS","4","category4/CS5.png","","","","",""
"","html-keyboard-response","30","120482","0.0-6.0-2.0-0.3","syk56tymeh","one_one","1","direct_first","1","UN04PH03","0","25","1","1","1","1","","0","0","0","null","","","<div class = 'row'><div class = 'column'><img src = 'uspos/8490.bmp' width = '100%;'></div><div class = 'column'><img src = 'category2/CS4.png' width = '70%;'></div></div>","null","pos","CS","CS","2","category2/CS4.png","","","","",""
"","html-keyboard-response","31","123003","0.0-6.0-2.0-0.4","syk56tymeh","one_one","1","direct_first","1","UN04PH03","0","25","1","1","1","1","","0","0","0","null","","","<div class = 'row'><div class = 'column'><img src = 'uspos/5760.bmp' width = '100%;'></div><div class = 'column'><img src = 'category1/CS6.png' width = '70%;'></div></div>","null","pos","CS","CS","1","category1/CS6.png","","","","",""
"","html-keyboard-response","32","125522","0.0-6.0-2.0-0.5","syk56tymeh","one_one","1","direct_first","1","UN04PH03","0","25","1","1","1","1","","0","0","0","null","","","<div class = 'row'><div class = 'column'><img src = 'usneg/9182.bmp' width = '100%;'></div><div class = 'column'><img src = 'category3/CS6.png' width = '70%;'></div></div>","null","neg","CS","CS","3","category3/CS6.png","","","","",""
"","html-keyboard-response","33","128042","0.0-6.0-2.0-0.6","syk56tymeh","one_one","1","direct_first","1","UN04PH03","0","25","1","1","1","1","","0","0","0","null","","","<div class = 'row'><div class = 'column'><img src = 'category4/CS5.png' width = '70%;'></div><div class = 'column'><img src = 'usneg/9415.bmp' width = '100%;'></div></div>","null","neg","CS","CS","4","category4/CS5.png","","","","",""
"","html-keyboard-response","34","130561","0.0-6.0-2.0-0.7","syk56tymeh","one_one","1","direct_first","1","UN04PH03","0","25","1","1","1","1","","0","0","0","null","","","<div class = 'row'><div class = 'column'><img src = 'category3/CS6.png' width = '70%;'></div><div class = 'column'><img src = 'usneg/9182.bmp' width = '100%;'></div></div>","null","neg","CS","CS","3","category3/CS6.png","","","","",""
"","html-keyboard-response","35","133081","0.0-6.0-2.0-0.8","syk56tymeh","one_one","1","direct_first","1","UN04PH03","0","25","1","1","1","1","","0","0","0","null","","","<div class = 'row'><div class = 'column'><img src = 'uspos/5760.bmp' width = '100%;'></div><div class = 'column'><img src = 'category1/CS6.png' width = '70%;'></div></div>","null","pos","CS","CS","1","category1/CS6.png","","","","",""
"","html-keyboard-response","36","135601","0.0-6.0-2.0-0.9","syk56tymeh","one_one","1","direct_first","1","UN04PH03","0","25","1","1","1","1","","0","0","0","null","","","<div class = 'row'><div class = 'column'><img src = 'category2/CS4.png' width = '70%;'></div><div class = 'column'><img src = 'uspos/8490.bmp' width = '100%;'></div></div>","null","pos","CS","CS","2","category2/CS4.png","","","","",""
"","html-keyboard-response","37","138121","0.0-6.0-2.0-0.10","syk56tymeh","one_one","1","direct_first","1","UN04PH03","0","25","1","1","1","1","","0","0","0","null","","","<div class = 'row'><div class = 'column'><img src = 'category4/CS5.png' width = '70%;'></div><div class = 'column'><img src = 'usneg/9415.bmp' width = '100%;'></div></div>","null","neg","CS","CS","4","category4/CS5.png","","","","",""
"","html-keyboard-response","38","140641","0.0-6.0-2.0-0.11","syk56tymeh","one_one","1","direct_first","1","UN04PH03","0","25","1","1","1","1","","0","0","0","null","","","<div class = 'row'><div class = 'column'><img src = 'uspos/8490.bmp' width = '100%;'></div><div class = 'column'><img src = 'category2/CS4.png' width = '70%;'></div></div>","null","pos","CS","CS","2","category2/CS4.png","","","","",""
"","html-keyboard-response","39","143161","0.0-6.0-2.0-0.12","syk56tymeh","one_one","1","direct_first","1","UN04PH03","0","25","1","1","1","1","","0","0","0","null","","","<div class = 'row'><div class = 'column'><img src = 'category4/CS5.png' width = '70%;'></div><div class = 'column'><img src = 'usneg/9415.bmp' width = '100%;'></div></div>","null","neg","CS","CS","4","category4/CS5.png","","","","",""
"","html-keyboard-response","40","145680","0.0-6.0-2.0-0.13","syk56tymeh","one_one","1","direct_first","1","UN04PH03","0","25","1","1","1","1","","0","0","0","null","","","<div class = 'row'><div class = 'column'><img src = 'category2/CS4.png' width = '70%;'></div><div class = 'column'><img src = 'uspos/8490.bmp' width = '100%;'></div></div>","null","pos","CS","CS","2","category2/CS4.png","","","","",""
"","html-keyboard-response","41","148201","0.0-6.0-2.0-0.14","syk56tymeh","one_one","1","direct_first","1","UN04PH03","0","25","1","1","1","1","","0","0","0","null","","","<div class = 'row'><div class = 'column'><img src = 'uspos/5760.bmp' width = '100%;'></div><div class = 'column'><img src = 'category1/CS6.png' width = '70%;'></div></div>","null","pos","CS","CS","1","category1/CS6.png","","","","",""
"","html-keyboard-response","42","150721","0.0-6.0-2.0-0.15","syk56tymeh","one_one","1","direct_first","1","UN04PH03","0","25","1","1","1","1","","0","0","0","null","","","<div class = 'row'><div class = 'column'><img src = 'category3/CS6.png' width = '70%;'></div><div class = 'column'><img src = 'usneg/9182.bmp' width = '100%;'></div></div>","null","neg","CS","CS","3","category3/CS6.png","","","","",""
"","html-keyboard-response","43","153240","0.0-6.0-2.0-0.16","syk56tymeh","one_one","1","direct_first","1","UN04PH03","0","25","1","1","1","1","","0","0","0","null","","","<div class = 'row'><div class = 'column'><img src = 'category1/CS6.png' width = '70%;'></div><div class = 'column'><img src = 'uspos/5760.bmp' width = '100%;'></div></div>","null","pos","CS","CS","1","category1/CS6.png","","","","",""
"","html-keyboard-response","44","155761","0.0-6.0-2.0-0.17","syk56tymeh","one_one","1","direct_first","1","UN04PH03","0","25","1","1","1","1","","0","0","0","null","","","<div class = 'row'><div class = 'column'><img src = 'usneg/9182.bmp' width = '100%;'></div><div class = 'column'><img src = 'category3/CS6.png' width = '70%;'></div></div>","null","neg","CS","CS","3","category3/CS6.png","","","","",""
"","html-keyboard-response","45","158280","0.0-6.0-2.0-0.18","syk56tymeh","one_one","1","direct_first","1","UN04PH03","0","25","1","1","1","1","","0","0","0","null","","","<div class = 'row'><div class = 'column'><img src = 'category2/CS4.png' width = '70%;'></div><div class = 'column'><img src = 'uspos/8490.bmp' width = '100%;'></div></div>","null","pos","CS","CS","2","category2/CS4.png","","","","",""
"","html-keyboard-response","46","160800","0.0-6.0-2.0-0.19","syk56tymeh","one_one","1","direct_first","1","UN04PH03","0","25","1","1","1","1","","0","0","0","null","","","<div class = 'row'><div class = 'column'><img src = 'usneg/9182.bmp' width = '100%;'></div><div class = 'column'><img src = 'category3/CS6.png' width = '70%;'></div></div>","null","neg","CS","CS","3","category3/CS6.png","","","","",""
"","survey-html-form","47","164062","0.0-6.0-3.0","syk56tymeh","one_one","1","direct_first","1","UN04PH03","0","25","1","1","1","1","","0","0","0","2751","","{}","","","","","","","","","","","",""
"","html-keyboard-response","48","168080","0.0-6.0-4.0-0.0","syk56tymeh","one_one","1","direct_first","1","UN04PH03","0","25","1","1","1","1","","0","0","0","null","","","<div class = 'row'><div class = 'column'><img src = 'category4/CS5.png' width = '70%;'></div><div class = 'column'><img src = 'usneg/9415.bmp' width = '100%;'></div></div>","null","neg","CS","CS","4","category4/CS5.png","","","","",""
"","html-keyboard-response","49","170599","0.0-6.0-4.0-0.1","syk56tymeh","one_one","1","direct_first","1","UN04PH03","0","25","1","1","1","1","","0","0","0","null","","","<div class = 'row'><div class = 'column'><img src = 'usneg/9182.bmp' width = '100%;'></div><div class = 'column'><img src = 'category3/CS6.png' width = '70%;'></div></div>","null","neg","CS","CS","3","category3/CS6.png","","","","",""
"","html-keyboard-response","50","173120","0.0-6.0-4.0-0.2","syk56tymeh","one_one","1","direct_first","1","UN04PH03","0","25","1","1","1","1","","0","0","0","null","","","<div class = 'row'><div class = 'column'><img src = 'uspos/5760.bmp' width = '100%;'></div><div class = 'column'><img src = 'category1/CS6.png' width = '70%;'></div></div>","null","pos","CS","CS","1","category1/CS6.png","","","","",""
"","html-keyboard-response","51","175639","0.0-6.0-4.0-0.3","syk56tymeh","one_one","1","direct_first","1","UN04PH03","0","25","1","1","1","1","","0","0","0","null","","","<div class = 'row'><div class = 'column'><img src = 'uspos/8490.bmp' width = '100%;'></div><div class = 'column'><img src = 'category2/CS4.png' width = '70%;'></div></div>","null","pos","CS","CS","2","category2/CS4.png","","","","",""
"","html-keyboard-response","52","178159","0.0-6.0-4.0-0.4","syk56tymeh","one_one","1","direct_first","1","UN04PH03","0","25","1","1","1","1","","0","0","0","null","","","<div class = 'row'><div class = 'column'><img src = 'category1/CS6.png' width = '70%;'></div><div class = 'column'><img src = 'uspos/5760.bmp' width = '100%;'></div></div>","null","pos","CS","CS","1","category1/CS6.png","","","","",""
"","html-keyboard-response","53","180679","0.0-6.0-4.0-0.5","syk56tymeh","one_one","1","direct_first","1","UN04PH03","0","25","1","1","1","1","","0","0","0","null","","","<div class = 'row'><div class = 'column'><img src = 'category4/CS5.png' width = '70%;'></div><div class = 'column'><img src = 'usneg/9415.bmp' width = '100%;'></div></div>","null","neg","CS","CS","4","category4/CS5.png","","","","",""
"","html-keyboard-response","54","183199","0.0-6.0-4.0-0.6","syk56tymeh","one_one","1","direct_first","1","UN04PH03","0","25","1","1","1","1","","0","0","0","null","","","<div class = 'row'><div class = 'column'><img src = 'uspos/8490.bmp' width = '100%;'></div><div class = 'column'><img src = 'category2/CS4.png' width = '70%;'></div></div>","null","pos","CS","CS","2","category2/CS4.png","","","","",""
"","html-keyboard-response","55","185718","0.0-6.0-4.0-0.7","syk56tymeh","one_one","1","direct_first","1","UN04PH03","0","25","1","1","1","1","","0","0","0","null","","","<div class = 'row'><div class = 'column'><img src = 'category1/CS6.png' width = '70%;'></div><div class = 'column'><img src = 'uspos/5760.bmp' width = '100%;'></div></div>","null","pos","CS","CS","1","category1/CS6.png","","","","",""
"","html-keyboard-response","56","188239","0.0-6.0-4.0-0.8","syk56tymeh","one_one","1","direct_first","1","UN04PH03","0","25","1","1","1","1","","0","0","0","null","","","<div class = 'row'><div class = 'column'><img src = 'category4/CS5.png' width = '70%;'></div><div class = 'column'><img src = 'usneg/9415.bmp' width = '100%;'></div></div>","null","neg","CS","CS","4","category4/CS5.png","","","","",""
"","html-keyboard-response","57","190759","0.0-6.0-4.0-0.9","syk56tymeh","one_one","1","direct_first","1","UN04PH03","0","25","1","1","1","1","","0","0","0","null","","","<div class = 'row'><div class = 'column'><img src = 'category3/CS6.png' width = '70%;'></div><div class = 'column'><img src = 'usneg/9182.bmp' width = '100%;'></div></div>","null","neg","CS","CS","3","category3/CS6.png","","","","",""
"","html-keyboard-response","58","193278","0.0-6.0-4.0-0.10","syk56tymeh","one_one","1","direct_first","1","UN04PH03","0","25","1","1","1","1","","0","0","0","null","","","<div class = 'row'><div class = 'column'><img src = 'uspos/8490.bmp' width = '100%;'></div><div class = 'column'><img src = 'category2/CS4.png' width = '70%;'></div></div>","null","pos","CS","CS","2","category2/CS4.png","","","","",""
"","html-keyboard-response","59","195798","0.0-6.0-4.0-0.11","syk56tymeh","one_one","1","direct_first","1","UN04PH03","0","25","1","1","1","1","","0","0","0","null","","","<div class = 'row'><div class = 'column'><img src = 'category3/CS6.png' width = '70%;'></div><div class = 'column'><img src = 'usneg/9182.bmp' width = '100%;'></div></div>","null","neg","CS","CS","3","category3/CS6.png","","","","",""
"","html-keyboard-response","60","198318","0.0-6.0-4.0-0.12","syk56tymeh","one_one","1","direct_first","1","UN04PH03","0","25","1","1","1","1","","0","0","0","null","","","<div class = 'row'><div class = 'column'><img src = 'usneg/9415.bmp' width = '100%;'></div><div class = 'column'><img src = 'category4/CS5.png' width = '70%;'></div></div>","null","neg","CS","CS","4","category4/CS5.png","","","","",""
"","html-keyboard-response","61","200837","0.0-6.0-4.0-0.13","syk56tymeh","one_one","1","direct_first","1","UN04PH03","0","25","1","1","1","1","","0","0","0","null","","","<div class = 'row'><div class = 'column'><img src = 'category2/CS4.png' width = '70%;'></div><div class = 'column'><img src = 'uspos/8490.bmp' width = '100%;'></div></div>","null","pos","CS","CS","2","category2/CS4.png","","","","",""
"","html-keyboard-response","62","203358","0.0-6.0-4.0-0.14","syk56tymeh","one_one","1","direct_first","1","UN04PH03","0","25","1","1","1","1","","0","0","0","null","","","<div class = 'row'><div class = 'column'><img src = 'uspos/5760.bmp' width = '100%;'></div><div class = 'column'><img src = 'category1/CS6.png' width = '70%;'></div></div>","null","pos","CS","CS","1","category1/CS6.png","","","","",""
"","html-keyboard-response","63","205877","0.0-6.0-4.0-0.15","syk56tymeh","one_one","1","direct_first","1","UN04PH03","0","25","1","1","1","1","","0","0","0","null","","","<div class = 'row'><div class = 'column'><img src = 'uspos/8490.bmp' width = '100%;'></div><div class = 'column'><img src = 'category2/CS4.png' width = '70%;'></div></div>","null","pos","CS","CS","2","category2/CS4.png","","","","",""
"","html-keyboard-response","64","208398","0.0-6.0-4.0-0.16","syk56tymeh","one_one","1","direct_first","1","UN04PH03","0","25","1","1","1","1","","0","0","0","null","","","<div class = 'row'><div class = 'column'><img src = 'usneg/9182.bmp' width = '100%;'></div><div class = 'column'><img src = 'category3/CS6.png' width = '70%;'></div></div>","null","neg","CS","CS","3","category3/CS6.png","","","","",""
"","html-keyboard-response","65","210917","0.0-6.0-4.0-0.17","syk56tymeh","one_one","1","direct_first","1","UN04PH03","0","25","1","1","1","1","","0","0","0","null","","","<div class = 'row'><div class = 'column'><img src = 'uspos/5760.bmp' width = '100%;'></div><div class = 'column'><img src = 'category1/CS6.png' width = '70%;'></div></div>","null","pos","CS","CS","1","category1/CS6.png","","","","",""
"","html-keyboard-response","66","213438","0.0-6.0-4.0-0.18","syk56tymeh","one_one","1","direct_first","1","UN04PH03","0","25","1","1","1","1","","0","0","0","null","","","<div class = 'row'><div class = 'column'><img src = 'category4/CS5.png' width = '70%;'></div><div class = 'column'><img src = 'usneg/9415.bmp' width = '100%;'></div></div>","null","neg","CS","CS","4","category4/CS5.png","","","","",""
"","html-keyboard-response","67","215957","0.0-6.0-4.0-0.19","syk56tymeh","one_one","1","direct_first","1","UN04PH03","0","25","1","1","1","1","","0","0","0","null","","","<div class = 'row'><div class = 'column'><img src = 'usneg/9182.bmp' width = '100%;'></div><div class = 'column'><img src = 'category3/CS6.png' width = '70%;'></div></div>","null","neg","CS","CS","3","category3/CS6.png","","","","",""
"","survey-html-form","68","219010","0.0-6.0-5.0","syk56tymeh","one_one","1","direct_first","1","UN04PH03","0","25","1","1","1","1","","0","0","0","2542","","{}","","","","","","","","","","","",""
"","html-keyboard-response","69","223027","0.0-6.0-6.0-0.0","syk56tymeh","one_one","1","direct_first","1","UN04PH03","0","25","1","1","1","1","","0","0","0","null","","","<div class = 'row'><div class = 'column'><img src = 'category2/CS4.png' width = '70%;'></div><div class = 'column'><img src = 'uspos/8490.bmp' width = '100%;'></div></div>","null","pos","CS","CS","2","category2/CS4.png","","","","",""
"","html-keyboard-response","70","225547","0.0-6.0-6.0-0.1","syk56tymeh","one_one","1","direct_first","1","UN04PH03","0","25","1","1","1","1","","0","0","0","null","","","<div class = 'row'><div class = 'column'><img src = 'category1/CS6.png' width = '70%;'></div><div class = 'column'><img src = 'uspos/5760.bmp' width = '100%;'></div></div>","null","pos","CS","CS","1","category1/CS6.png","","","","",""
"","html-keyboard-response","71","228066","0.0-6.0-6.0-0.2","syk56tymeh","one_one","1","direct_first","1","UN04PH03","0","25","1","1","1","1","","0","0","0","null","","","<div class = 'row'><div class = 'column'><img src = 'usneg/9415.bmp' width = '100%;'></div><div class = 'column'><img src = 'category4/CS5.png' width = '70%;'></div></div>","null","neg","CS","CS","4","category4/CS5.png","","","","",""
"","html-keyboard-response","72","230587","0.0-6.0-6.0-0.3","syk56tymeh","one_one","1","direct_first","1","UN04PH03","0","25","1","1","1","1","","0","0","0","null","","","<div class = 'row'><div class = 'column'><img src = 'category2/CS4.png' width = '70%;'></div><div class = 'column'><img src = 'uspos/8490.bmp' width = '100%;'></div></div>","null","pos","CS","CS","2","category2/CS4.png","","","","",""
"","html-keyboard-response","73","233107","0.0-6.0-6.0-0.4","syk56tymeh","one_one","1","direct_first","1","UN04PH03","0","25","1","1","1","1","","0","0","0","null","","","<div class = 'row'><div class = 'column'><img src = 'category4/CS5.png' width = '70%;'></div><div class = 'column'><img src = 'usneg/9415.bmp' width = '100%;'></div></div>","null","neg","CS","CS","4","category4/CS5.png","","","","",""
"","html-keyboard-response","74","235627","0.0-6.0-6.0-0.5","syk56tymeh","one_one","1","direct_first","1","UN04PH03","0","25","1","1","1","1","","0","0","0","null","","","<div class = 'row'><div class = 'column'><img src = 'category1/CS6.png' width = '70%;'></div><div class = 'column'><img src = 'uspos/5760.bmp' width = '100%;'></div></div>","null","pos","CS","CS","1","category1/CS6.png","","","","",""
"","html-keyboard-response","75","238148","0.0-6.0-6.0-0.6","syk56tymeh","one_one","1","direct_first","1","UN04PH03","0","25","1","1","1","1","","0","0","0","null","","","<div class = 'row'><div class = 'column'><img src = 'category3/CS6.png' width = '70%;'></div><div class = 'column'><img src = 'usneg/9182.bmp' width = '100%;'></div></div>","null","neg","CS","CS","3","category3/CS6.png","","","","",""
"","html-keyboard-response","76","240667","0.0-6.0-6.0-0.7","syk56tymeh","one_one","1","direct_first","1","UN04PH03","0","25","1","1","1","1","","0","0","0","null","","","<div class = 'row'><div class = 'column'><img src = 'usneg/9415.bmp' width = '100%;'></div><div class = 'column'><img src = 'category4/CS5.png' width = '70%;'></div></div>","null","neg","CS","CS","4","category4/CS5.png","","","","",""
"","html-keyboard-response","77","243186","0.0-6.0-6.0-0.8","syk56tymeh","one_one","1","direct_first","1","UN04PH03","0","25","1","1","1","1","","0","0","0","null","","","<div class = 'row'><div class = 'column'><img src = 'usneg/9182.bmp' width = '100%;'></div><div class = 'column'><img src = 'category3/CS6.png' width = '70%;'></div></div>","null","neg","CS","CS","3","category3/CS6.png","","","","",""
"","html-keyboard-response","78","245706","0.0-6.0-6.0-0.9","syk56tymeh","one_one","1","direct_first","1","UN04PH03","0","25","1","1","1","1","","0","0","0","null","","","<div class = 'row'><div class = 'column'><img src = 'category2/CS4.png' width = '70%;'></div><div class = 'column'><img src = 'uspos/8490.bmp' width = '100%;'></div></div>","null","pos","CS","CS","2","category2/CS4.png","","","","",""
"","html-keyboard-response","79","248226","0.0-6.0-6.0-0.10","syk56tymeh","one_one","1","direct_first","1","UN04PH03","0","25","1","1","1","1","","0","0","0","null","","","<div class = 'row'><div class = 'column'><img src = 'category3/CS6.png' width = '70%;'></div><div class = 'column'><img src = 'usneg/9182.bmp' width = '100%;'></div></div>","null","neg","CS","CS","3","category3/CS6.png","","","","",""
"","html-keyboard-response","80","250746","0.0-6.0-6.0-0.11","syk56tymeh","one_one","1","direct_first","1","UN04PH03","0","25","1","1","1","1","","0","0","0","null","","","<div class = 'row'><div class = 'column'><img src = 'uspos/5760.bmp' width = '100%;'></div><div class = 'column'><img src = 'category1/CS6.png' width = '70%;'></div></div>","null","pos","CS","CS","1","category1/CS6.png","","","","",""
"","html-keyboard-response","81","253266","0.0-6.0-6.0-0.12","syk56tymeh","one_one","1","direct_first","1","UN04PH03","0","25","1","1","1","1","","0","0","0","null","","","<div class = 'row'><div class = 'column'><img src = 'category3/CS6.png' width = '70%;'></div><div class = 'column'><img src = 'usneg/9182.bmp' width = '100%;'></div></div>","null","neg","CS","CS","3","category3/CS6.png","","","","",""
"","html-keyboard-response","82","255786","0.0-6.0-6.0-0.13","syk56tymeh","one_one","1","direct_first","1","UN04PH03","0","25","1","1","1","1","","0","0","0","null","","","<div class = 'row'><div class = 'column'><img src = 'category4/CS5.png' width = '70%;'></div><div class = 'column'><img src = 'usneg/9415.bmp' width = '100%;'></div></div>","null","neg","CS","CS","4","category4/CS5.png","","","","",""
"","html-keyboard-response","83","258306","0.0-6.0-6.0-0.14","syk56tymeh","one_one","1","direct_first","1","UN04PH03","0","25","1","1","1","1","","0","0","0","null","","","<div class = 'row'><div class = 'column'><img src = 'usneg/9182.bmp' width = '100%;'></div><div class = 'column'><img src = 'category3/CS6.png' width = '70%;'></div></div>","null","neg","CS","CS","3","category3/CS6.png","","","","",""
"","html-keyboard-response","84","260825","0.0-6.0-6.0-0.15","syk56tymeh","one_one","1","direct_first","1","UN04PH03","0","25","1","1","1","1","","0","0","0","null","","","<div class = 'row'><div class = 'column'><img src = 'uspos/8490.bmp' width = '100%;'></div><div class = 'column'><img src = 'category2/CS4.png' width = '70%;'></div></div>","null","pos","CS","CS","2","category2/CS4.png","","","","",""
"","html-keyboard-response","85","263345","0.0-6.0-6.0-0.16","syk56tymeh","one_one","1","direct_first","1","UN04PH03","0","25","1","1","1","1","","0","0","0","null","","","<div class = 'row'><div class = 'column'><img src = 'category1/CS6.png' width = '70%;'></div><div class = 'column'><img src = 'uspos/5760.bmp' width = '100%;'></div></div>","null","pos","CS","CS","1","category1/CS6.png","","","","",""
"","html-keyboard-response","86","265865","0.0-6.0-6.0-0.17","syk56tymeh","one_one","1","direct_first","1","UN04PH03","0","25","1","1","1","1","","0","0","0","null","","","<div class = 'row'><div class = 'column'><img src = 'uspos/8490.bmp' width = '100%;'></div><div class = 'column'><img src = 'category2/CS4.png' width = '70%;'></div></div>","null","pos","CS","CS","2","category2/CS4.png","","","","",""
"","html-keyboard-response","87","268385","0.0-6.0-6.0-0.18","syk56tymeh","one_one","1","direct_first","1","UN04PH03","0","25","1","1","1","1","","0","0","0","null","","","<div class = 'row'><div class = 'column'><img src = 'uspos/5760.bmp' width = '100%;'></div><div class = 'column'><img src = 'category1/CS6.png' width = '70%;'></div></div>","null","pos","CS","CS","1","category1/CS6.png","","","","",""
"","html-keyboard-response","88","270905","0.0-6.0-6.0-0.19","syk56tymeh","one_one","1","direct_first","1","UN04PH03","0","25","1","1","1","1","","0","0","0","null","","","<div class = 'row'><div class = 'column'><img src = 'usneg/9415.bmp' width = '100%;'></div><div class = 'column'><img src = 'category4/CS5.png' width = '70%;'></div></div>","null","neg","CS","CS","4","category4/CS5.png","","","","",""
"","survey-html-form","89","281326","0.0-7.0","syk56tymeh","one_one","1","direct_first","1","UN04PH03","0","25","1","1","1","1","","0","0","0","9910","","{}","","","","","","","","","","","",""
"","image-slider-response","90","290359","0.0-8.0-0.0","syk56tymeh","one_one","1","direct_first","1","UN04PH03","0","25","1","1","1","1","","0","0","0","7016","","","","","neg","GS","GSnew","3","category3/GS1.png","-22","targets/47.png","direct","",""
"","image-slider-response","91","293755","0.0-8.0-0.1","syk56tymeh","one_one","1","direct_first","1","UN04PH03","0","25","1","1","1","1","","0","0","0","3390","","","","","neg","GS","abstract","4","category4/lin.png","35","targets/4.png","direct","",""
"","image-slider-response","92","298446","0.0-8.0-0.2","syk56tymeh","one_one","1","direct_first","1","UN04PH03","0","25","1","1","1","1","","0","0","0","4686","","","","","neg","GS","GSold","4","category4/CS6.png","-21","targets/25.png","direct","",""
"","image-slider-response","93","302587","0.0-8.0-0.3","syk56tymeh","one_one","1","direct_first","1","UN04PH03","0","25","1","1","1","1","","0","0","0","4136","","","","","neg","CS","CS","3","category3/CS6.png","-34","targets/30.png","direct","",""
"","image-slider-response","94","305829","0.0-8.0-0.4","syk56tymeh","one_one","1","direct_first","1","UN04PH03","0","25","1","1","1","1","","0","0","0","3239","","","","","pos","GS","GSnew","2","category2/GS2.png","32","targets/6.png","direct","",""
"","image-slider-response","95","310154","0.0-8.0-0.5","syk56tymeh","one_one","1","direct_first","1","UN04PH03","0","25","1","1","1","1","","0","0","0","4320","","","","","neg","CS","CS","4","category4/CS5.png","25","targets/29.png","direct","",""
"","image-slider-response","96","313263","0.0-8.0-0.6","syk56tymeh","one_one","1","direct_first","1","UN04PH03","0","25","1","1","1","1","","0","0","0","3105","","","","","pos","GS","abstract","1","category1/ma.png","-20","targets/48.png","direct","",""
"","image-slider-response","97","317699","0.0-8.0-0.7","syk56tymeh","one_one","1","direct_first","1","UN04PH03","0","25","1","1","1","1","","0","0","0","4431","","","","","pos","GS","GSold","2","category2/CS1.png","23","targets/35.png","direct","",""
"","image-slider-response","98","321676","0.0-8.0-0.8","syk56tymeh","one_one","1","direct_first","1","UN04PH03","0","25","1","1","1","1","","0","0","0","3972","","","","","neg","GS","GSnew","4","category4/GS3.png","-28","targets/27.png","direct","",""
"","image-slider-response","99","325664","0.0-8.0-0.9","syk56tymeh","one_one","1","direct_first","1","UN04PH03","0","25","1","1","1","1","","0","0","0","3983","","","","","pos","GS","GSnew","1","category1/GS3.png","18","targets/5.png","direct","",""
"","image-slider-response","100","328794","0.0-8.0-0.10","syk56tymeh","one_one","1","direct_first","1","UN04PH03","0","25","1","1","1","1","","0","0","0","3126","","","","","neg","GS","GSold","4","category4/CS9.png","20","targets/10.png","direct","",""
"","image-slider-response","101","331721","0.0-8.0-0.11","syk56tymeh","one_one","1","direct_first","1","UN04PH03","0","25","1","1","1","1","","0","0","0","2922","","","","","neg","GS","GSnew","3","category3/GS2.png","-20","targets/33.png","direct","",""
"","image-slider-response","102","334414","0.0-8.0-0.12","syk56tymeh","one_one","1","direct_first","1","UN04PH03","0","25","1","1","1","1","","0","0","0","2688","","","","","neg","GS","GSnew","4","category4/GS1.png","24","targets/20.png","direct","",""
"","image-slider-response","103","336922","0.0-8.0-0.13","syk56tymeh","one_one","1","direct_first","1","UN04PH03","0","25","1","1","1","1","","0","0","0","2503","","","","","pos","GS","GSnew","1","category1/GS1.png","-27","targets/12.png","direct","",""
"","image-slider-response","104","340379","0.0-8.0-0.14","syk56tymeh","one_one","1","direct_first","1","UN04PH03","0","25","1","1","1","1","","0","0","0","3452","","","","","pos","GS","GSold","1","category1/CS5.png","-43","targets/45.png","direct","",""
"","image-slider-response","105","344695","0.0-8.0-0.15","syk56tymeh","one_one","1","direct_first","1","UN04PH03","0","25","1","1","1","1","","0","0","0","4310","","","","","pos","GS","GSold","1","category1/CS7.png","-44","targets/36.png","direct","",""
"","image-slider-response","106","349180","0.0-8.0-0.16","syk56tymeh","one_one","1","direct_first","1","UN04PH03","0","25","1","1","1","1","","0","0","0","4477","","","","","pos","GS","GSold","2","category2/CS2.png","-29","targets/9.png","direct","",""
"","image-slider-response","107","351925","0.0-8.0-0.17","syk56tymeh","one_one","1","direct_first","1","UN04PH03","0","25","1","1","1","1","","0","0","0","2738","","","","","pos","GS","GSnew","1","category1/GS2.png","-11","targets/28.png","direct","",""
"","image-slider-response","108","355279","0.0-8.0-0.18","syk56tymeh","one_one","1","direct_first","1","UN04PH03","0","25","1","1","1","1","","0","0","0","3348","","","","","neg","GS","GSold","3","category3/CS2.png","-16","targets/11.png","direct","",""
"","image-slider-response","109","357777","0.0-8.0-0.19","syk56tymeh","one_one","1","direct_first","1","UN04PH03","0","25","1","1","1","1","","0","0","0","2492","","","","","pos","GS","GSnew","2","category2/GS1.png","-17","targets/24.png","direct","",""
"","image-slider-response","110","361121","0.0-8.0-0.20","syk56tymeh","one_one","1","direct_first","1","UN04PH03","0","25","1","1","1","1","","0","0","0","3339","","","","","neg","GS","GSold","3","category3/CS8.png","-59","targets/17.png","direct","",""
"","image-slider-response","111","364323","0.0-8.0-0.21","syk56tymeh","one_one","1","direct_first","1","UN04PH03","0","25","1","1","1","1","","0","0","0","3197","","","","","neg","GS","GSnew","3","category3/GS3.png","7","targets/3.png","direct","",""
"","image-slider-response","112","366597","0.0-8.0-0.22","syk56tymeh","one_one","1","direct_first","1","UN04PH03","0","25","1","1","1","1","","0","0","0","2270","","","","","neg","GS","GSold","4","category4/CS2.png","24","targets/39.png","direct","",""
"","image-slider-response","113","369626","0.0-8.0-0.23","syk56tymeh","one_one","1","direct_first","1","UN04PH03","0","25","1","1","1","1","","0","0","0","3024","","","","","neg","GS","GSold","3","category3/CS10.png","-21","targets/26.png","direct","",""
"","image-slider-response","114","371879","0.0-8.0-0.24","syk56tymeh","one_one","1","direct_first","1","UN04PH03","0","25","1","1","1","1","","0","0","0","2246","","","","","neg","GS","GSnew","4","category4/GS2.png","-10","targets/32.png","direct","",""
"","image-slider-response","115","374561","0.0-8.0-0.25","syk56tymeh","one_one","1","direct_first","1","UN04PH03","0","25","1","1","1","1","","0","0","0","2677","","","","","pos","GS","GSold","1","category1/CS3.png","9","targets/1.png","direct","",""
"","image-slider-response","116","376774","0.0-8.0-0.26","syk56tymeh","one_one","1","direct_first","1","UN04PH03","0","25","1","1","1","1","","0","0","0","2208","","","","","pos","CS","CS","2","category2/CS4.png","-21","targets/34.png","direct","",""
"","image-slider-response","117","379506","0.0-8.0-0.27","syk56tymeh","one_one","1","direct_first","1","UN04PH03","0","25","1","1","1","1","","0","0","0","2728","","","","","pos","CS","CS","1","category1/CS6.png","16","targets/7.png","direct","",""
"","image-slider-response","118","382293","0.0-8.0-0.28","syk56tymeh","one_one","1","direct_first","1","UN04PH03","0","25","1","1","1","1","","0","0","0","2780","","","","","pos","GS","abstract","2","category2/men.png","28","targets/41.png","direct","",""
"","image-slider-response","119","385260","0.0-8.0-0.29","syk56tymeh","one_one","1","direct_first","1","UN04PH03","0","25","1","1","1","1","","0","0","0","2959","","","","","neg","GS","abstract","3","category3/wang.png","23","targets/44.png","direct","",""
"","image-slider-response","120","388258","0.0-8.0-0.30","syk56tymeh","one_one","1","direct_first","1","UN04PH03","0","25","1","1","1","1","","0","0","0","2993","","","","","pos","GS","GSold","2","category2/CS7.png","7","targets/23.png","direct","",""
"","image-slider-response","121","390747","0.0-8.0-0.31","syk56tymeh","one_one","1","direct_first","1","UN04PH03","0","25","1","1","1","1","","0","0","0","2482","","","","","pos","GS","GSnew","2","category2/GS3.png","23","targets/37.png","direct","",""
"","html-keyboard-response","122","419616","0.0-9.0","syk56tymeh","one_one","1","direct_first","1","UN04PH03","0","25","1","1","1","1","","0","0","0","28864","","","<p>Sie sehen nun die chinesischen Zeichen nur ganz kurz. Danach sehen Sie die jeweilige Aussprache der Zeichen als Silbe auf dem Bildschrim. Ihre Aufgabe ist es, für jede Silbe anzugeben, ob diese etwas angenehmes, oder unangenehmes bedeuten könnte. Verlassen Sie sich hier vor allem auf Ihre Intuition.<br><br>Die Zeichen werden nur zur Orientierung dargestellt, beachten Sie sie deshalb nicht. Konzentrieren Sie sich vor allem auf die Silben. <br>Reagieren Sie mit folgenden zwei Tasten: <br><br><b>'D' </b> wenn die Silbe etwas <b>unangenehmes</b> bedeuten könnte. <br><b>'K'</b> wenn die Silbe etwas <b>angenehmes</b> bedeuten könnte. <br><br>Bitte legen Sie nun den Zeigefinger der linken Hand auf die Taste 'D' und den Zeigefinger der rechten Hand auf die Taste 'K'. <br>Reagieren Sie auf jede Silbe so schnell wie möglich. Uns interessiert Ihre spontane Reaktion. <br> <br> <br>Drücken Sie 'D' oder 'K', um die nächste Aufgabe zu starten. </p>","68","","","","","","","","","",""
"","html-keyboard-response","123","422637","0.0-10.0-0.0","syk56tymeh","one_one","1","direct_first","1","UN04PH03","0","25","1","1","1","1","","0","0","0","null","","","<div style=""font-size:60px;"">+</div>","null","","","","","","","","","",""
"","html-keyboard-response","124","422737","0.0-10.0-1.0","syk56tymeh","one_one","1","direct_first","1","UN04PH03","0","25","1","1","1","1","","0","0","0","null","","","<img src = 'category4/CS5.png' width = '100%;'>","null","","","","","","","","","",""
"","html-keyboard-response","125","422997","0.0-10.0-2.0","syk56tymeh","one_one","1","direct_first","1","UN04PH03","0","25","1","1","1","1","","0","0","0","null","","","<img src = 'targets/29.png' width = '100%;'>","null","","","","","","","","","",""
"","html-keyboard-response","126","424553","0.0-10.0-3.0","syk56tymeh","one_one","1","direct_first","1","UN04PH03","0","25","1","1","1","1","","0","0","0","1552","","","<img src = 'targets/mask.png' width = '100%;'>","75","neg","CS","CS","4","category4/CS5.png","","targets/29.png","indirect","1","0"
"","html-keyboard-response","127","426066","0.0-10.0-0.1","syk56tymeh","one_one","1","direct_first","1","UN04PH03","0","25","1","1","1","1","","0","0","0","null","","","<div style=""font-size:60px;"">+</div>","null","","","","","","","","","",""
"","html-keyboard-response","128","426167","0.0-10.0-1.1","syk56tymeh","one_one","1","direct_first","1","UN04PH03","0","25","1","1","1","1","","0","0","0","null","","","<img src = 'category2/CS7.png' width = '100%;'>","null","","","","","","","","","",""
"","html-keyboard-response","129","426426","0.0-10.0-2.1","syk56tymeh","one_one","1","direct_first","1","UN04PH03","0","25","1","1","1","1","","0","0","0","null","","","<img src = 'targets/23.png' width = '100%;'>","null","","","","","","","","","",""
"","html-keyboard-response","130","427508","0.0-10.0-3.1","syk56tymeh","one_one","1","direct_first","1","UN04PH03","0","25","1","1","1","1","","0","0","0","1079","","","<img src = 'targets/mask.png' width = '100%;'>","75","pos","GS","GSold","2","category2/CS7.png","","targets/23.png","indirect","1","1"
"","html-keyboard-response","131","429026","0.0-10.0-0.2","syk56tymeh","one_one","1","direct_first","1","UN04PH03","0","25","1","1","1","1","","0","0","0","null","","","<div style=""font-size:60px;"">+</div>","null","","","","","","","","","",""
"","html-keyboard-response","132","429126","0.0-10.0-1.2","syk56tymeh","one_one","1","direct_first","1","UN04PH03","0","25","1","1","1","1","","0","0","0","null","","","<img src = 'category1/CS3.png' width = '100%;'>","null","","","","","","","","","",""
"","html-keyboard-response","133","429386","0.0-10.0-2.2","syk56tymeh","one_one","1","direct_first","1","UN04PH03","0","25","1","1","1","1","","0","0","0","null","","","<img src = 'targets/1.png' width = '100%;'>","null","","","","","","","","","",""
"","html-keyboard-response","134","430901","0.0-10.0-3.2","syk56tymeh","one_one","1","direct_first","1","UN04PH03","0","25","1","1","1","1","","0","0","0","1513","","","<img src = 'targets/mask.png' width = '100%;'>","75","pos","GS","GSold","1","category1/CS3.png","","targets/1.png","indirect","1","2"
"","html-keyboard-response","135","432416","0.0-10.0-0.3","syk56tymeh","one_one","1","direct_first","1","UN04PH03","0","25","1","1","1","1","","0","0","0","null","","","<div style=""font-size:60px;"">+</div>","null","","","","","","","","","",""
"","html-keyboard-response","136","432517","0.0-10.0-1.3","syk56tymeh","one_one","1","direct_first","1","UN04PH03","0","25","1","1","1","1","","0","0","0","null","","","<img src = 'category3/CS10.png' width = '100%;'>","null","","","","","","","","","",""
"","html-keyboard-response","137","432776","0.0-10.0-2.3","syk56tymeh","one_one","1","direct_first","1","UN04PH03","0","25","1","1","1","1","","0","0","0","null","","","<img src = 'targets/26.png' width = '100%;'>","null","","","","","","","","","",""
"","html-keyboard-response","138","433506","0.0-10.0-3.3","syk56tymeh","one_one","1","direct_first","1","UN04PH03","0","25","1","1","1","1","","0","0","0","729","","","<img src = 'targets/mask.png' width = '100%;'>","68","neg","GS","GSold","3","category3/CS10.png","","targets/26.png","indirect","0","3"
"","html-keyboard-response","139","435026","0.0-10.0-0.4","syk56tymeh","one_one","1","direct_first","1","UN04PH03","0","25","1","1","1","1","","0","0","0","null","","","<div style=""font-size:60px;"">+</div>","null","","","","","","","","","",""
"","html-keyboard-response","140","435126","0.0-10.0-1.4","syk56tymeh","one_one","1","direct_first","1","UN04PH03","0","25","1","1","1","1","","0","0","0","null","","","<img src = 'category3/CS2.png' width = '100%;'>","null","","","","","","","","","",""
"","html-keyboard-response","141","435386","0.0-10.0-2.4","syk56tymeh","one_one","1","direct_first","1","UN04PH03","0","25","1","1","1","1","","0","0","0","null","","","<img src = 'targets/11.png' width = '100%;'>","null","","","","","","","","","",""
"","html-keyboard-response","142","436590","0.0-10.0-3.4","syk56tymeh","one_one","1","direct_first","1","UN04PH03","0","25","1","1","1","1","","0","0","0","1202","","","<img src = 'targets/mask.png' width = '100%;'>","68","neg","GS","GSold","3","category3/CS2.png","","targets/11.png","indirect","0","4"
"","html-keyboard-response","143","438106","0.0-10.0-0.5","syk56tymeh","one_one","1","direct_first","1","UN04PH03","0","25","1","1","1","1","","0","0","0","null","","","<div style=""font-size:60px;"">+</div>","null","","","","","","","","","",""
"","html-keyboard-response","144","438206","0.0-10.0-1.5","syk56tymeh","one_one","1","direct_first","1","UN04PH03","0","25","1","1","1","1","","0","0","0","null","","","<img src = 'category2/CS1.png' width = '100%;'>","null","","","","","","","","","",""
"","html-keyboard-response","145","438466","0.0-10.0-2.5","syk56tymeh","one_one","1","direct_first","1","UN04PH03","0","25","1","1","1","1","","0","0","0","null","","","<img src = 'targets/35.png' width = '100%;'>","null","","","","","","","","","",""
"","html-keyboard-response","146","439754","0.0-10.0-3.5","syk56tymeh","one_one","1","direct_first","1","UN04PH03","0","25","1","1","1","1","","0","0","0","1288","","","<img src = 'targets/mask.png' width = '100%;'>","75","pos","GS","GSold","2","category2/CS1.png","","targets/35.png","indirect","1","5"
"","html-keyboard-response","147","441266","0.0-10.0-0.6","syk56tymeh","one_one","1","direct_first","1","UN04PH03","0","25","1","1","1","1","","0","0","0","null","","","<div style=""font-size:60px;"">+</div>","null","","","","","","","","","",""
"","html-keyboard-response","148","441366","0.0-10.0-1.6","syk56tymeh","one_one","1","direct_first","1","UN04PH03","0","25","1","1","1","1","","0","0","0","null","","","<img src = 'category4/CS9.png' width = '100%;'>","null","","","","","","","","","",""
"","html-keyboard-response","149","441626","0.0-10.0-2.6","syk56tymeh","one_one","1","direct_first","1","UN04PH03","0","25","1","1","1","1","","0","0","0","null","","","<img src = 'targets/10.png' width = '100%;'>","null","","","","","","","","","",""
"","html-keyboard-response","150","443247","0.0-10.0-3.6","syk56tymeh","one_one","1","direct_first","1","UN04PH03","0","25","1","1","1","1","","0","0","0","1621","","","<img src = 'targets/mask.png' width = '100%;'>","75","neg","GS","GSold","4","category4/CS9.png","","targets/10.png","indirect","1","6"
"","html-keyboard-response","151","444766","0.0-10.0-0.7","syk56tymeh","one_one","1","direct_first","1","UN04PH03","0","25","1","1","1","1","","0","0","0","null","","","<div style=""font-size:60px;"">+</div>","null","","","","","","","","","",""
"","html-keyboard-response","152","444865","0.0-10.0-1.7","syk56tymeh","one_one","1","direct_first","1","UN04PH03","0","25","1","1","1","1","","0","0","0","null","","","<img src = 'category1/CS7.png' width = '100%;'>","null","","","","","","","","","",""
"","html-keyboard-response","153","445125","0.0-10.0-2.7","syk56tymeh","one_one","1","direct_first","1","UN04PH03","0","25","1","1","1","1","","0","0","0","null","","","<img src = 'targets/36.png' width = '100%;'>","null","","","","","","","","","",""
"","html-keyboard-response","154","445753","0.0-10.0-3.7","syk56tymeh","one_one","1","direct_first","1","UN04PH03","0","25","1","1","1","1","","0","0","0","627","","","<img src = 'targets/mask.png' width = '100%;'>","68","pos","GS","GSold","1","category1/CS7.png","","targets/36.png","indirect","0","7"
"","html-keyboard-response","155","447265","0.0-10.0-0.8","syk56tymeh","one_one","1","direct_first","1","UN04PH03","0","25","1","1","1","1","","0","0","0","null","","","<div style=""font-size:60px;"">+</div>","null","","","","","","","","","",""
"","html-keyboard-response","156","447365","0.0-10.0-1.8","syk56tymeh","one_one","1","direct_first","1","UN04PH03","0","25","1","1","1","1","","0","0","0","null","","","<img src = 'category2/CS2.png' width = '100%;'>","null","","","","","","","","","",""
"","html-keyboard-response","157","447625","0.0-10.0-2.8","syk56tymeh","one_one","1","direct_first","1","UN04PH03","0","25","1","1","1","1","","0","0","0","null","","","<img src = 'targets/9.png' width = '100%;'>","null","","","","","","","","","",""
"","html-keyboard-response","158","448538","0.0-10.0-3.8","syk56tymeh","one_one","1","direct_first","1","UN04PH03","0","25","1","1","1","1","","0","0","0","911","","","<img src = 'targets/mask.png' width = '100%;'>","75","pos","GS","GSold","2","category2/CS2.png","","targets/9.png","indirect","1","8"
"","html-keyboard-response","159","450056","0.0-10.0-0.9","syk56tymeh","one_one","1","direct_first","1","UN04PH03","0","25","1","1","1","1","","0","0","0","null","","","<div style=""font-size:60px;"">+</div>","null","","","","","","","","","",""
"","html-keyboard-response","160","450155","0.0-10.0-1.9","syk56tymeh","one_one","1","direct_first","1","UN04PH03","0","25","1","1","1","1","","0","0","0","null","","","<img src = 'category4/CS2.png' width = '100%;'>","null","","","","","","","","","",""
"","html-keyboard-response","161","450415","0.0-10.0-2.9","syk56tymeh","one_one","1","direct_first","1","UN04PH03","0","25","1","1","1","1","","0","0","0","null","","","<img src = 'targets/39.png' width = '100%;'>","null","","","","","","","","","",""
"","html-keyboard-response","162","451253","0.0-10.0-3.9","syk56tymeh","one_one","1","direct_first","1","UN04PH03","0","25","1","1","1","1","","0","0","0","836","","","<img src = 'targets/mask.png' width = '100%;'>","68","neg","GS","GSold","4","category4/CS2.png","","targets/39.png","indirect","0","9"
"","html-keyboard-response","163","452765","0.0-10.0-0.10","syk56tymeh","one_one","1","direct_first","1","UN04PH03","0","25","1","1","1","1","","0","0","0","null","","","<div style=""font-size:60px;"">+</div>","null","","","","","","","","","",""
"","html-keyboard-response","164","452865","0.0-10.0-1.10","syk56tymeh","one_one","1","direct_first","1","UN04PH03","0","25","1","1","1","1","","0","0","0","null","","","<img src = 'category2/CS4.png' width = '100%;'>","null","","","","","","","","","",""
"","html-keyboard-response","165","453125","0.0-10.0-2.10","syk56tymeh","one_one","1","direct_first","1","UN04PH03","0","25","1","1","1","1","","0","0","0","null","","","<img src = 'targets/34.png' width = '100%;'>","null","","","","","","","","","",""
"","html-keyboard-response","166","453818","0.0-10.0-3.10","syk56tymeh","one_one","1","direct_first","1","UN04PH03","0","25","1","1","1","1","","0","0","0","692","","","<img src = 'targets/mask.png' width = '100%;'>","75","pos","CS","CS","2","category2/CS4.png","","targets/34.png","indirect","1","10"
"","html-keyboard-response","167","455335","0.0-10.0-0.11","syk56tymeh","one_one","1","direct_first","1","UN04PH03","0","25","1","1","1","1","","0","0","0","null","","","<div style=""font-size:60px;"">+</div>","null","","","","","","","","","",""
"","html-keyboard-response","168","455435","0.0-10.0-1.11","syk56tymeh","one_one","1","direct_first","1","UN04PH03","0","25","1","1","1","1","","0","0","0","null","","","<img src = 'category3/CS6.png' width = '100%;'>","null","","","","","","","","","",""
"","html-keyboard-response","169","455695","0.0-10.0-2.11","syk56tymeh","one_one","1","direct_first","1","UN04PH03","0","25","1","1","1","1","","0","0","0","null","","","<img src = 'targets/30.png' width = '100%;'>","null","","","","","","","","","",""
"","html-keyboard-response","170","456553","0.0-10.0-3.11","syk56tymeh","one_one","1","direct_first","1","UN04PH03","0","25","1","1","1","1","","0","0","0","857","","","<img src = 'targets/mask.png' width = '100%;'>","75","neg","CS","CS","3","category3/CS6.png","","targets/30.png","indirect","1","11"
"","html-keyboard-response","171","458065","0.0-10.0-0.12","syk56tymeh","one_one","1","direct_first","1","UN04PH03","0","25","1","1","1","1","","0","0","0","null","","","<div style=""font-size:60px;"">+</div>","null","","","","","","","","","",""
"","html-keyboard-response","172","458165","0.0-10.0-1.12","syk56tymeh","one_one","1","direct_first","1","UN04PH03","0","25","1","1","1","1","","0","0","0","null","","","<img src = 'category1/CS6.png' width = '100%;'>","null","","","","","","","","","",""
"","html-keyboard-response","173","458424","0.0-10.0-2.12","syk56tymeh","one_one","1","direct_first","1","UN04PH03","0","25","1","1","1","1","","0","0","0","null","","","<img src = 'targets/7.png' width = '100%;'>","null","","","","","","","","","",""
"","html-keyboard-response","174","459438","0.0-10.0-3.12","syk56tymeh","one_one","1","direct_first","1","UN04PH03","0","25","1","1","1","1","","0","0","0","1011","","","<img src = 'targets/mask.png' width = '100%;'>","75","pos","CS","CS","1","category1/CS6.png","","targets/7.png","indirect","1","12"
"","html-keyboard-response","175","460955","0.0-10.0-0.13","syk56tymeh","one_one","1","direct_first","1","UN04PH03","0","25","1","1","1","1","","0","0","0","null","","","<div style=""font-size:60px;"">+</div>","null","","","","","","","","","",""
"","html-keyboard-response","176","461054","0.0-10.0-1.13","syk56tymeh","one_one","1","direct_first","1","UN04PH03","0","25","1","1","1","1","","0","0","0","null","","","<img src = 'category1/CS5.png' width = '100%;'>","null","","","","","","","","","",""
"","html-keyboard-response","177","461315","0.0-10.0-2.13","syk56tymeh","one_one","1","direct_first","1","UN04PH03","0","25","1","1","1","1","","0","0","0","null","","","<img src = 'targets/45.png' width = '100%;'>","null","","","","","","","","","",""
"","html-keyboard-response","178","461873","0.0-10.0-3.13","syk56tymeh","one_one","1","direct_first","1","UN04PH03","0","25","1","1","1","1","","0","0","0","557","","","<img src = 'targets/mask.png' width = '100%;'>","68","pos","GS","GSold","1","category1/CS5.png","","targets/45.png","indirect","0","13"
"","html-keyboard-response","179","463385","0.0-10.0-0.14","syk56tymeh","one_one","1","direct_first","1","UN04PH03","0","25","1","1","1","1","","0","0","0","null","","","<div style=""font-size:60px;"">+</div>","null","","","","","","","","","",""
"","html-keyboard-response","180","463484","0.0-10.0-1.14","syk56tymeh","one_one","1","direct_first","1","UN04PH03","0","25","1","1","1","1","","0","0","0","null","","","<img src = 'category3/CS8.png' width = '100%;'>","null","","","","","","","","","",""
"","html-keyboard-response","181","463745","0.0-10.0-2.14","syk56tymeh","one_one","1","direct_first","1","UN04PH03","0","25","1","1","1","1","","0","0","0","null","","","<img src = 'targets/17.png' width = '100%;'>","null","","","","","","","","","",""
"","html-keyboard-response","182","464498","0.0-10.0-3.14","syk56tymeh","one_one","1","direct_first","1","UN04PH03","0","25","1","1","1","1","","0","0","0","753","","","<img src = 'targets/mask.png' width = '100%;'>","68","neg","GS","GSold","3","category3/CS8.png","","targets/17.png","indirect","0","14"
"","html-keyboard-response","183","466015","0.0-10.0-0.15","syk56tymeh","one_one","1","direct_first","1","UN04PH03","0","25","1","1","1","1","","0","0","0","null","","","<div style=""font-size:60px;"">+</div>","null","","","","","","","","","",""
"","html-keyboard-response","184","466115","0.0-10.0-1.15","syk56tymeh","one_one","1","direct_first","1","UN04PH03","0","25","1","1","1","1","","0","0","0","null","","","<img src = 'category4/CS6.png' width = '100%;'>","null","","","","","","","","","",""
"","html-keyboard-response","185","466374","0.0-10.0-2.15","syk56tymeh","one_one","1","direct_first","1","UN04PH03","0","25","1","1","1","1","","0","0","0","null","","","<img src = 'targets/25.png' width = '100%;'>","null","","","","","","","","","",""
"","html-keyboard-response","186","467004","0.0-10.0-3.15","syk56tymeh","one_one","1","direct_first","1","UN04PH03","0","25","1","1","1","1","","0","0","0","629","","","<img src = 'targets/mask.png' width = '100%;'>","75","neg","GS","GSold","4","category4/CS6.png","","targets/25.png","indirect","1","15"
"","survey-html-form","187","472740","0.0-11.0","syk56tymeh","one_one","1","direct_first","1","UN04PH03","0","25","1","1","1","1","","0","0","0","5224","","{}","","","","","","","","","","","",""
"","html-keyboard-response","188","475754","0.0-12.0-0.0","syk56tymeh","one_one","1","direct_first","1","UN04PH03","0","25","1","1","1","1","","0","0","0","null","","","<div style=""font-size:60px;"">+</div>","null","","","","","","","","","",""
"","html-keyboard-response","189","475853","0.0-12.0-1.0","syk56tymeh","one_one","1","direct_first","1","UN04PH03","0","25","1","1","1","1","","0","0","0","null","","","<img src = 'category1/ma.png' width = '100%;'>","null","","","","","","","","","",""
"","html-keyboard-response","190","476114","0.0-12.0-2.0","syk56tymeh","one_one","1","direct_first","1","UN04PH03","0","25","1","1","1","1","","0","0","0","null","","","<img src = 'targets/48.png' width = '100%;'>","null","","","","","","","","","",""
"","html-keyboard-response","191","476947","0.0-12.0-3.0","syk56tymeh","one_one","1","direct_first","1","UN04PH03","0","25","1","1","1","1","","0","0","0","832","","","<img src = 'targets/mask.png' width = '100%;'>","68","pos","GS","abstract","1","category1/ma.png","","targets/48.png","indirect","0","16"
"","html-keyboard-response","192","478464","0.0-12.0-0.1","syk56tymeh","one_one","1","direct_first","1","UN04PH03","0","25","1","1","1","1","","0","0","0","null","","","<div style=""font-size:60px;"">+</div>","null","","","","","","","","","",""
"","html-keyboard-response","193","478564","0.0-12.0-1.1","syk56tymeh","one_one","1","direct_first","1","UN04PH03","0","25","1","1","1","1","","0","0","0","null","","","<img src = 'category2/GS1.png' width = '100%;'>","null","","","","","","","","","",""
"","html-keyboard-response","194","478824","0.0-12.0-2.1","syk56tymeh","one_one","1","direct_first","1","UN04PH03","0","25","1","1","1","1","","0","0","0","null","","","<img src = 'targets/24.png' width = '100%;'>","null","","","","","","","","","",""
"","html-keyboard-response","195","479413","0.0-12.0-3.1","syk56tymeh","one_one","1","direct_first","1","UN04PH03","0","25","1","1","1","1","","0","0","0","588","","","<img src = 'targets/mask.png' width = '100%;'>","68","pos","GS","GSnew","2","category2/GS1.png","","targets/24.png","indirect","0","17"
"","html-keyboard-response","196","480934","0.0-12.0-0.2","syk56tymeh","one_one","1","direct_first","1","UN04PH03","0","25","1","1","1","1","","0","0","0","null","","","<div style=""font-size:60px;"">+</div>","null","","","","","","","","","",""
"","html-keyboard-response","197","481033","0.0-12.0-1.2","syk56tymeh","one_one","1","direct_first","1","UN04PH03","0","25","1","1","1","1","","0","0","0","null","","","<img src = 'category4/GS2.png' width = '100%;'>","null","","","","","","","","","",""
"","html-keyboard-response","198","481293","0.0-12.0-2.2","syk56tymeh","one_one","1","direct_first","1","UN04PH03","0","25","1","1","1","1","","0","0","0","null","","","<img src = 'targets/32.png' width = '100%;'>","null","","","","","","","","","",""
"","html-keyboard-response","199","482408","0.0-12.0-3.2","syk56tymeh","one_one","1","direct_first","1","UN04PH03","0","25","1","1","1","1","","0","0","0","1114","","","<img src = 'targets/mask.png' width = '100%;'>","75","neg","GS","GSnew","4","category4/GS2.png","","targets/32.png","indirect","1","18"
"","html-keyboard-response","200","483923","0.0-12.0-0.3","syk56tymeh","one_one","1","direct_first","1","UN04PH03","0","25","1","1","1","1","","0","0","0","null","","","<div style=""font-size:60px;"">+</div>","null","","","","","","","","","",""
"","html-keyboard-response","201","484023","0.0-12.0-1.3","syk56tymeh","one_one","1","direct_first","1","UN04PH03","0","25","1","1","1","1","","0","0","0","null","","","<img src = 'category4/GS3.png' width = '100%;'>","null","","","","","","","","","",""
"","html-keyboard-response","202","484283","0.0-12.0-2.3","syk56tymeh","one_one","1","direct_first","1","UN04PH03","0","25","1","1","1","1","","0","0","0","null","","","<img src = 'targets/27.png' width = '100%;'>","null","","","","","","","","","",""
"","html-keyboard-response","203","484984","0.0-12.0-3.3","syk56tymeh","one_one","1","direct_first","1","UN04PH03","0","25","1","1","1","1","","0","0","0","700","","","<img src = 'targets/mask.png' width = '100%;'>","75","neg","GS","GSnew","4","category4/GS3.png","","targets/27.png","indirect","1","19"
"","html-keyboard-response","204","486504","0.0-12.0-0.4","syk56tymeh","one_one","1","direct_first","1","UN04PH03","0","25","1","1","1","1","","0","0","0","null","","","<div style=""font-size:60px;"">+</div>","null","","","","","","","","","",""
"","html-keyboard-response","205","486603","0.0-12.0-1.4","syk56tymeh","one_one","1","direct_first","1","UN04PH03","0","25","1","1","1","1","","0","0","0","null","","","<img src = 'category3/GS2.png' width = '100%;'>","null","","","","","","","","","",""
"","html-keyboard-response","206","486863","0.0-12.0-2.4","syk56tymeh","one_one","1","direct_first","1","UN04PH03","0","25","1","1","1","1","","0","0","0","null","","","<img src = 'targets/33.png' width = '100%;'>","null","","","","","","","","","",""
"","html-keyboard-response","207","487709","0.0-12.0-3.4","syk56tymeh","one_one","1","direct_first","1","UN04PH03","0","25","1","1","1","1","","0","0","0","846","","","<img src = 'targets/mask.png' width = '100%;'>","68","neg","GS","GSnew","3","category3/GS2.png","","targets/33.png","indirect","0","20"
"","html-keyboard-response","208","489223","0.0-12.0-0.5","syk56tymeh","one_one","1","direct_first","1","UN04PH03","0","25","1","1","1","1","","0","0","0","null","","","<div style=""font-size:60px;"">+</div>","null","","","","","","","","","",""
"","html-keyboard-response","209","489323","0.0-12.0-1.5","syk56tymeh","one_one","1","direct_first","1","UN04PH03","0","25","1","1","1","1","","0","0","0","null","","","<img src = 'category1/GS3.png' width = '100%;'>","null","","","","","","","","","",""
"","html-keyboard-response","210","489583","0.0-12.0-2.5","syk56tymeh","one_one","1","direct_first","1","UN04PH03","0","25","1","1","1","1","","0","0","0","null","","","<img src = 'targets/5.png' width = '100%;'>","null","","","","","","","","","",""
"","html-keyboard-response","211","490125","0.0-12.0-3.5","syk56tymeh","one_one","1","direct_first","1","UN04PH03","0","25","1","1","1","1","","0","0","0","542","","","<img src = 'targets/mask.png' width = '100%;'>","75","pos","GS","GSnew","1","category1/GS3.png","","targets/5.png","indirect","1","21"
"","html-keyboard-response","212","491643","0.0-12.0-0.6","syk56tymeh","one_one","1","direct_first","1","UN04PH03","0","25","1","1","1","1","","0","0","0","null","","","<div style=""font-size:60px;"">+</div>","null","","","","","","","","","",""
"","html-keyboard-response","213","491743","0.0-12.0-1.6","syk56tymeh","one_one","1","direct_first","1","UN04PH03","0","25","1","1","1","1","","0","0","0","null","","","<img src = 'category2/GS2.png' width = '100%;'>","null","","","","","","","","","",""
"","html-keyboard-response","214","492003","0.0-12.0-2.6","syk56tymeh","one_one","1","direct_first","1","UN04PH03","0","25","1","1","1","1","","0","0","0","null","","","<img src = 'targets/6.png' width = '100%;'>","null","","","","","","","","","",""
"","html-keyboard-response","215","492822","0.0-12.0-3.6","syk56tymeh","one_one","1","direct_first","1","UN04PH03","0","25","1","1","1","1","","0","0","0","817","","","<img src = 'targets/mask.png' width = '100%;'>","75","pos","GS","GSnew","2","category2/GS2.png","","targets/6.png","indirect","1","22"
"","html-keyboard-response","216","494333","0.0-12.0-0.7","syk56tymeh","one_one","1","direct_first","1","UN04PH03","0","25","1","1","1","1","","0","0","0","null","","","<div style=""font-size:60px;"">+</div>","null","","","","","","","","","",""
"","html-keyboard-response","217","494433","0.0-12.0-1.7","syk56tymeh","one_one","1","direct_first","1","UN04PH03","0","25","1","1","1","1","","0","0","0","null","","","<img src = 'category3/GS3.png' width = '100%;'>","null","","","","","","","","","",""
"","html-keyboard-response","218","494693","0.0-12.0-2.7","syk56tymeh","one_one","1","direct_first","1","UN04PH03","0","25","1","1","1","1","","0","0","0","null","","","<img src = 'targets/3.png' width = '100%;'>","null","","","","","","","","","",""
"","html-keyboard-response","219","495377","0.0-12.0-3.7","syk56tymeh","one_one","1","direct_first","1","UN04PH03","0","25","1","1","1","1","","0","0","0","683","","","<img src = 'targets/mask.png' width = '100%;'>","68","neg","GS","GSnew","3","category3/GS3.png","","targets/3.png","indirect","0","23"
"","html-keyboard-response","220","496893","0.0-12.0-0.8","syk56tymeh","one_one","1","direct_first","1","UN04PH03","0","25","1","1","1","1","","0","0","0","null","","","<div style=""font-size:60px;"">+</div>","null","","","","","","","","","",""
"","html-keyboard-response","221","496993","0.0-12.0-1.8","syk56tymeh","one_one","1","direct_first","1","UN04PH03","0","25","1","1","1","1","","0","0","0","null","","","<img src = 'category3/wang.png' width = '100%;'>","null","","","","","","","","","",""
"","html-keyboard-response","222","497252","0.0-12.0-2.8","syk56tymeh","one_one","1","direct_first","1","UN04PH03","0","25","1","1","1","1","","0","0","0","null","","","<img src = 'targets/44.png' width = '100%;'>","null","","","","","","","","","",""
"","html-keyboard-response","223","498003","0.0-12.0-3.8","syk56tymeh","one_one","1","direct_first","1","UN04PH03","0","25","1","1","1","1","","0","0","0","749","","","<img src = 'targets/mask.png' width = '100%;'>","75","neg","GS","abstract","3","category3/wang.png","","targets/44.png","indirect","1","24"
"","html-keyboard-response","224","499522","0.0-12.0-0.9","syk56tymeh","one_one","1","direct_first","1","UN04PH03","0","25","1","1","1","1","","0","0","0","null","","","<div style=""font-size:60px;"">+</div>","null","","","","","","","","","",""
"","html-keyboard-response","225","499623","0.0-12.0-1.9","syk56tymeh","one_one","1","direct_first","1","UN04PH03","0","25","1","1","1","1","","0","0","0","null","","","<img src = 'category3/GS1.png' width = '100%;'>","null","","","","","","","","","",""
"","html-keyboard-response","226","499882","0.0-12.0-2.9","syk56tymeh","one_one","1","direct_first","1","UN04PH03","0","25","1","1","1","1","","0","0","0","null","","","<img src = 'targets/47.png' width = '100%;'>","null","","","","","","","","","",""
"","html-keyboard-response","227","500439","0.0-12.0-3.9","syk56tymeh","one_one","1","direct_first","1","UN04PH03","0","25","1","1","1","1","","0","0","0","555","","","<img src = 'targets/mask.png' width = '100%;'>","68","neg","GS","GSnew","3","category3/GS1.png","","targets/47.png","indirect","0","25"
"","html-keyboard-response","228","501952","0.0-12.0-0.10","syk56tymeh","one_one","1","direct_first","1","UN04PH03","0","25","1","1","1","1","","0","0","0","null","","","<div style=""font-size:60px;"">+</div>","null","","","","","","","","","",""
"","html-keyboard-response","229","502052","0.0-12.0-1.10","syk56tymeh","one_one","1","direct_first","1","UN04PH03","0","25","1","1","1","1","","0","0","0","null","","","<img src = 'category4/lin.png' width = '100%;'>","null","","","","","","","","","",""
"","html-keyboard-response","230","502312","0.0-12.0-2.10","syk56tymeh","one_one","1","direct_first","1","UN04PH03","0","25","1","1","1","1","","0","0","0","null","","","<img src = 'targets/4.png' width = '100%;'>","null","","","","","","","","","",""
"","html-keyboard-response","231","502855","0.0-12.0-3.10","syk56tymeh","one_one","1","direct_first","1","UN04PH03","0","25","1","1","1","1","","0","0","0","542","","","<img src = 'targets/mask.png' width = '100%;'>","75","neg","GS","abstract","4","category4/lin.png","","targets/4.png","indirect","1","26"
"","html-keyboard-response","232","504372","0.0-12.0-0.11","syk56tymeh","one_one","1","direct_first","1","UN04PH03","0","25","1","1","1","1","","0","0","0","null","","","<div style=""font-size:60px;"">+</div>","null","","","","","","","","","",""
"","html-keyboard-response","233","504472","0.0-12.0-1.11","syk56tymeh","one_one","1","direct_first","1","UN04PH03","0","25","1","1","1","1","","0","0","0","null","","","<img src = 'category4/GS1.png' width = '100%;'>","null","","","","","","","","","",""
"","html-keyboard-response","234","504732","0.0-12.0-2.11","syk56tymeh","one_one","1","direct_first","1","UN04PH03","0","25","1","1","1","1","","0","0","0","null","","","<img src = 'targets/20.png' width = '100%;'>","null","","","","","","","","","",""
"","html-keyboard-response","235","506799","0.0-12.0-3.11","syk56tymeh","one_one","1","direct_first","1","UN04PH03","0","25","1","1","1","1","","0","0","0","2064","","","<img src = 'targets/mask.png' width = '100%;'>","68","neg","GS","GSnew","4","category4/GS1.png","","targets/20.png","indirect","0","27"
"","html-keyboard-response","236","508312","0.0-12.0-0.12","syk56tymeh","one_one","1","direct_first","1","UN04PH03","0","25","1","1","1","1","","0","0","0","null","","","<div style=""font-size:60px;"">+</div>","null","","","","","","","","","",""
"","html-keyboard-response","237","508412","0.0-12.0-1.12","syk56tymeh","one_one","1","direct_first","1","UN04PH03","0","25","1","1","1","1","","0","0","0","null","","","<img src = 'category2/men.png' width = '100%;'>","null","","","","","","","","","",""
"","html-keyboard-response","238","508672","0.0-12.0-2.12","syk56tymeh","one_one","1","direct_first","1","UN04PH03","0","25","1","1","1","1","","0","0","0","null","","","<img src = 'targets/41.png' width = '100%;'>","null","","","","","","","","","",""
"","html-keyboard-response","239","509265","0.0-12.0-3.12","syk56tymeh","one_one","1","direct_first","1","UN04PH03","0","25","1","1","1","1","","0","0","0","592","","","<img src = 'targets/mask.png' width = '100%;'>","75","pos","GS","abstract","2","category2/men.png","","targets/41.png","indirect","1","28"
"","html-keyboard-response","240","510781","0.0-12.0-0.13","syk56tymeh","one_one","1","direct_first","1","UN04PH03","0","25","1","1","1","1","","0","0","0","null","","","<div style=""font-size:60px;"">+</div>","null","","","","","","","","","",""
"","html-keyboard-response","241","510882","0.0-12.0-1.13","syk56tymeh","one_one","1","direct_first","1","UN04PH03","0","25","1","1","1","1","","0","0","0","null","","","<img src = 'category1/GS2.png' width = '100%;'>","null","","","","","","","","","",""
"","html-keyboard-response","242","511142","0.0-12.0-2.13","syk56tymeh","one_one","1","direct_first","1","UN04PH03","0","25","1","1","1","1","","0","0","0","null","","","<img src = 'targets/28.png' width = '100%;'>","null","","","","","","","","","",""
"","html-keyboard-response","243","511851","0.0-12.0-3.13","syk56tymeh","one_one","1","direct_first","1","UN04PH03","0","25","1","1","1","1","","0","0","0","709","","","<img src = 'targets/mask.png' width = '100%;'>","68","pos","GS","GSnew","1","category1/GS2.png","","targets/28.png","indirect","0","29"
"","html-keyboard-response","244","513362","0.0-12.0-0.14","syk56tymeh","one_one","1","direct_first","1","UN04PH03","0","25","1","1","1","1","","0","0","0","null","","","<div style=""font-size:60px;"">+</div>","null","","","","","","","","","",""
"","html-keyboard-response","245","513461","0.0-12.0-1.14","syk56tymeh","one_one","1","direct_first","1","UN04PH03","0","25","1","1","1","1","","0","0","0","null","","","<img src = 'category2/GS3.png' width = '100%;'>","null","","","","","","","","","",""
"","html-keyboard-response","246","513722","0.0-12.0-2.14","syk56tymeh","one_one","1","direct_first","1","UN04PH03","0","25","1","1","1","1","","0","0","0","null","","","<img src = 'targets/37.png' width = '100%;'>","null","","","","","","","","","",""
"","html-keyboard-response","247","514238","0.0-12.0-3.14","syk56tymeh","one_one","1","direct_first","1","UN04PH03","0","25","1","1","1","1","","0","0","0","515","","","<img src = 'targets/mask.png' width = '100%;'>","75","pos","GS","GSnew","2","category2/GS3.png","","targets/37.png","indirect","1","30"
"","html-keyboard-response","248","515751","0.0-12.0-0.15","syk56tymeh","one_one","1","direct_first","1","UN04PH03","0","25","1","1","1","1","","0","0","0","null","","","<div style=""font-size:60px;"">+</div>","null","","","","","","","","","",""
"","html-keyboard-response","249","515852","0.0-12.0-1.15","syk56tymeh","one_one","1","direct_first","1","UN04PH03","0","25","1","1","1","1","","0","0","0","null","","","<img src = 'category1/GS1.png' width = '100%;'>","null","","","","","","","","","",""
"","html-keyboard-response","250","516111","0.0-12.0-2.15","syk56tymeh","one_one","1","direct_first","1","UN04PH03","0","25","1","1","1","1","","0","0","0","null","","","<img src = 'targets/12.png' width = '100%;'>","null","","","","","","","","","",""
"","html-keyboard-response","251","516813","0.0-12.0-3.15","syk56tymeh","one_one","1","direct_first","1","UN04PH03","0","25","1","1","1","1","","0","0","0","701","","","<img src = 'targets/mask.png' width = '100%;'>","68","pos","GS","GSnew","1","category1/GS1.png","","targets/12.png","indirect","0","31"
"","survey-html-form","252","522607","0.0-13.0","syk56tymeh","one_one","1","direct_first","1","UN04PH03","0","25","1","1","1","1","","0","0","0","5285","","{}","","","","","","","","","","","",""
"","image-slider-response","253","528827","0.0-14.0-0.0","syk56tymeh","one_one","1","direct_first","1","UN04PH03","0","25","1","1","1","1","","0","0","0","5211","","","","","neg","All","all","4","category4/lin_all.png","22","","all","",""
"","image-slider-response","254","532874","0.0-14.0-0.1","syk56tymeh","one_one","1","direct_first","1","UN04PH03","0","25","1","1","1","1","","0","0","0","4043","","","","","pos","All","all","2","category2/men_all.png","-23","","all","",""
"","image-slider-response","255","537833","0.0-14.0-0.2","syk56tymeh","one_one","1","direct_first","1","UN04PH03","0","25","1","1","1","1","","0","0","0","4911","","","","","pos","All","all","1","category1/ma_all.png","-23","","all","",""
"","image-slider-response","256","541902","0.0-14.0-0.3","syk56tymeh","one_one","1","direct_first","1","UN04PH03","0","25","1","1","1","1","","0","0","0","4064","","","","","neg","All","all","3","category3/wang_all.png","16","","all","",""
"","survey-text","257","546606","0.0-15.0","syk56tymeh","one_one","1","direct_first","1","UN04PH03","0","25","1","1","1","1","","0","0","0","4695","","{""comment"":""""}","","","","","","","","","","","",""
"","survey-html-form","258","561210","0.0-16.0","syk56tymeh","one_one","1","direct_first","1","UN04PH03","0","25","1","1","1","1","","0","0","0","14601","","{""hinschauen"":""0"",""ablenkung"":""0"",""gewissenhaft"":""0""}","","","","","","","","","","","",""
