"success","trial_type","trial_index","time_elapsed","internal_node_id","subject","condition","condition_code","measure","measure_code","codeword","gender","age","education","chinese","fach","handedness","comment","hinschauen","ablenkung","gewissenhaft","rt","url","responses","stimulus","key_press","val","type","type_specific","category","cs_selected","target","indirect","task","nr_pres","response"
"true","fullscreen","0","2303477","0.0-0.0","sokpp702rx","many_one","0","indirect_first","0","ig04er23","0","25","1","1","3","1","","0","1","0","","","","","","","","","","","","","","",""
"","external-html","1","2330783","0.0-1.0","sokpp702rx","many_one","0","indirect_first","0","ig04er23","0","25","1","1","3","1","","0","1","0","27247.484999941662","text/information.html","","","","","","","","","","","","",""
"","external-html","2","2350970","0.0-2.0","sokpp702rx","many_one","0","indirect_first","0","ig04er23","0","25","1","1","3","1","","0","1","0","20129.36499994248","text/consent.html","","","","","","","","","","","","",""
"","survey-html-form","3","2392269","0.0-3.0","sokpp702rx","many_one","0","indirect_first","0","ig04er23","0","25","1","1","3","1","","0","1","0","41285.10500001721","","{""codeword_enter"":""ig04er23""}","","","","","","","","","","","",""
"","survey-html-form","4","2416391","0.0-4.0","sokpp702rx","many_one","0","indirect_first","0","ig04er23","0","25","1","1","3","1","","0","1","0","24114.190000109375","","{""age"":""25"",""education"":""1"",""subject"":""3"",""gender"":""0"",""handedness"":""1"",""chinese"":""1""}","","","","","","","","","","","",""
"","survey-html-form","5","2418665","0.0-5.0","sokpp702rx","many_one","0","indirect_first","0","ig04er23","0","25","1","1","3","1","","0","1","0","2266.150000039488","","{}","","","","","","","","","","","",""
"","html-keyboard-response","6","2422685","0.0-6.0-0.0-0.0","sokpp702rx","many_one","0","indirect_first","0","ig04er23","0","25","1","1","3","1","","0","1","0","null","","","<div class = 'row'><div class = 'column'><img src = 'usneg/9182.bmp' width = '100%;'></div><div class = 'column'><img src = 'category1/CS3.png' width = '70%;'></div></div>","null","neg","CS","CS","1","category1/CS3.png","","","","",""
"","html-keyboard-response","7","2425199","0.0-6.0-0.0-0.1","sokpp702rx","many_one","0","indirect_first","0","ig04er23","0","25","1","1","3","1","","0","1","0","null","","","<div class = 'row'><div class = 'column'><img src = 'usneg/2900.bmp' width = '100%;'></div><div class = 'column'><img src = 'category2/CS7.png' width = '70%;'></div></div>","null","neg","CS","CS","2","category2/CS7.png","","","","",""
"","html-keyboard-response","8","2427706","0.0-6.0-0.0-0.2","sokpp702rx","many_one","0","indirect_first","0","ig04er23","0","25","1","1","3","1","","0","1","0","null","","","<div class = 'row'><div class = 'column'><img src = 'category4/CS5.png' width = '70%;'></div><div class = 'column'><img src = 'uspos/2160.bmp' width = '100%;'></div></div>","null","pos","CS","CS","4","category4/CS5.png","","","","",""
"","html-keyboard-response","9","2430218","0.0-6.0-0.0-0.3","sokpp702rx","many_one","0","indirect_first","0","ig04er23","0","25","1","1","3","1","","0","1","0","null","","","<div class = 'row'><div class = 'column'><img src = 'uspos/2311.bmp' width = '100%;'></div><div class = 'column'><img src = 'category3/CS10.png' width = '70%;'></div></div>","null","pos","CS","CS","3","category3/CS10.png","","","","",""
"","html-keyboard-response","10","2432726","0.0-6.0-0.0-0.4","sokpp702rx","many_one","0","indirect_first","0","ig04er23","0","25","1","1","3","1","","0","1","0","null","","","<div class = 'row'><div class = 'column'><img src = 'usneg/9830.bmp' width = '100%;'></div><div class = 'column'><img src = 'category2/CS2.png' width = '70%;'></div></div>","null","neg","CS","CS","2","category2/CS2.png","","","","",""
"","html-keyboard-response","11","2435244","0.0-6.0-0.0-0.5","sokpp702rx","many_one","0","indirect_first","0","ig04er23","0","25","1","1","3","1","","0","1","0","null","","","<div class = 'row'><div class = 'column'><img src = 'usneg/9340.bmp' width = '100%;'></div><div class = 'column'><img src = 'category1/CS10.png' width = '70%;'></div></div>","null","neg","CS","CS","1","category1/CS10.png","","","","",""
"","html-keyboard-response","12","2437769","0.0-6.0-0.0-0.6","sokpp702rx","many_one","0","indirect_first","0","ig04er23","0","25","1","1","3","1","","0","1","0","null","","","<div class = 'row'><div class = 'column'><img src = 'category4/CS1.png' width = '70%;'></div><div class = 'column'><img src = 'uspos/2165.bmp' width = '100%;'></div></div>","null","pos","CS","CS","4","category4/CS1.png","","","","",""
"","html-keyboard-response","13","2440276","0.0-6.0-0.0-0.7","sokpp702rx","many_one","0","indirect_first","0","ig04er23","0","25","1","1","3","1","","0","1","0","null","","","<div class = 'row'><div class = 'column'><img src = 'category2/CS4.png' width = '70%;'></div><div class = 'column'><img src = 'usneg/9435.bmp' width = '100%;'></div></div>","null","neg","CS","CS","2","category2/CS4.png","","","","",""
"","html-keyboard-response","14","2442780","0.0-6.0-0.0-0.8","sokpp702rx","many_one","0","indirect_first","0","ig04er23","0","25","1","1","3","1","","0","1","0","null","","","<div class = 'row'><div class = 'column'><img src = 'category3/CS7.png' width = '70%;'></div><div class = 'column'><img src = 'uspos/2057.bmp' width = '100%;'></div></div>","null","pos","CS","CS","3","category3/CS7.png","","","","",""
"","html-keyboard-response","15","2445296","0.0-6.0-0.0-0.9","sokpp702rx","many_one","0","indirect_first","0","ig04er23","0","25","1","1","3","1","","0","1","0","null","","","<div class = 'row'><div class = 'column'><img src = 'uspos/8190.bmp' width = '100%;'></div><div class = 'column'><img src = 'category3/CS2.png' width = '70%;'></div></div>","null","pos","CS","CS","3","category3/CS2.png","","","","",""
"","html-keyboard-response","16","2447810","0.0-6.0-0.0-0.10","sokpp702rx","many_one","0","indirect_first","0","ig04er23","0","25","1","1","3","1","","0","1","0","null","","","<div class = 'row'><div class = 'column'><img src = 'uspos/2340.bmp' width = '100%;'></div><div class = 'column'><img src = 'category3/CS8.png' width = '70%;'></div></div>","null","pos","CS","CS","3","category3/CS8.png","","","","",""
"","html-keyboard-response","17","2450318","0.0-6.0-0.0-0.11","sokpp702rx","many_one","0","indirect_first","0","ig04er23","0","25","1","1","3","1","","0","1","0","null","","","<div class = 'row'><div class = 'column'><img src = 'category4/CS10.png' width = '70%;'></div><div class = 'column'><img src = 'uspos/5470.bmp' width = '100%;'></div></div>","null","pos","CS","CS","4","category4/CS10.png","","","","",""
"","html-keyboard-response","18","2452837","0.0-6.0-0.0-0.12","sokpp702rx","many_one","0","indirect_first","0","ig04er23","0","25","1","1","3","1","","0","1","0","null","","","<div class = 'row'><div class = 'column'><img src = 'category4/CS7.png' width = '70%;'></div><div class = 'column'><img src = 'uspos/8540.bmp' width = '100%;'></div></div>","null","pos","CS","CS","4","category4/CS7.png","","","","",""
"","html-keyboard-response","19","2455358","0.0-6.0-0.0-0.13","sokpp702rx","many_one","0","indirect_first","0","ig04er23","0","25","1","1","3","1","","0","1","0","null","","","<div class = 'row'><div class = 'column'><img src = 'usneg/9584.bmp' width = '100%;'></div><div class = 'column'><img src = 'category2/CS1.png' width = '70%;'></div></div>","null","neg","CS","CS","2","category2/CS1.png","","","","",""
"","html-keyboard-response","20","2457868","0.0-6.0-0.0-0.14","sokpp702rx","many_one","0","indirect_first","0","ig04er23","0","25","1","1","3","1","","0","1","0","null","","","<div class = 'row'><div class = 'column'><img src = 'category3/CS9.png' width = '70%;'></div><div class = 'column'><img src = 'uspos/5621.bmp' width = '100%;'></div></div>","null","pos","CS","CS","3","category3/CS9.png","","","","",""
"","html-keyboard-response","21","2460384","0.0-6.0-0.0-0.15","sokpp702rx","many_one","0","indirect_first","0","ig04er23","0","25","1","1","3","1","","0","1","0","null","","","<div class = 'row'><div class = 'column'><img src = 'usneg/2750.bmp' width = '100%;'></div><div class = 'column'><img src = 'category1/CS8.png' width = '70%;'></div></div>","null","neg","CS","CS","1","category1/CS8.png","","","","",""
"","html-keyboard-response","22","2462896","0.0-6.0-0.0-0.16","sokpp702rx","many_one","0","indirect_first","0","ig04er23","0","25","1","1","3","1","","0","1","0","null","","","<div class = 'row'><div class = 'column'><img src = 'category1/CS4.png' width = '70%;'></div><div class = 'column'><img src = 'usneg/9421.bmp' width = '100%;'></div></div>","null","neg","CS","CS","1","category1/CS4.png","","","","",""
"","html-keyboard-response","23","2465409","0.0-6.0-0.0-0.17","sokpp702rx","many_one","0","indirect_first","0","ig04er23","0","25","1","1","3","1","","0","1","0","null","","","<div class = 'row'><div class = 'column'><img src = 'usneg/9560.bmp' width = '100%;'></div><div class = 'column'><img src = 'category2/CS5.png' width = '70%;'></div></div>","null","neg","CS","CS","2","category2/CS5.png","","","","",""
"","html-keyboard-response","24","2467922","0.0-6.0-0.0-0.18","sokpp702rx","many_one","0","indirect_first","0","ig04er23","0","25","1","1","3","1","","0","1","0","null","","","<div class = 'row'><div class = 'column'><img src = 'uspos/7580.bmp' width = '100%;'></div><div class = 'column'><img src = 'category4/CS4.png' width = '70%;'></div></div>","null","pos","CS","CS","4","category4/CS4.png","","","","",""
"","html-keyboard-response","25","2470429","0.0-6.0-0.0-0.19","sokpp702rx","many_one","0","indirect_first","0","ig04er23","0","25","1","1","3","1","","0","1","0","null","","","<div class = 'row'><div class = 'column'><img src = 'category1/CS5.png' width = '70%;'></div><div class = 'column'><img src = 'usneg/9342.bmp' width = '100%;'></div></div>","null","neg","CS","CS","1","category1/CS5.png","","","","",""
"","survey-html-form","26","2474125","0.0-6.0-1.0","sokpp702rx","many_one","0","indirect_first","0","ig04er23","0","25","1","1","3","1","","0","1","0","3189.0149998944253","","{}","","","","","","","","","","","",""
"","html-keyboard-response","27","2478136","0.0-6.0-2.0-0.0","sokpp702rx","many_one","0","indirect_first","0","ig04er23","0","25","1","1","3","1","","0","1","0","null","","","<div class = 'row'><div class = 'column'><img src = 'usneg/9182.bmp' width = '100%;'></div><div class = 'column'><img src = 'category1/CS3.png' width = '70%;'></div></div>","null","neg","CS","CS","1","category1/CS3.png","","","","",""
"","html-keyboard-response","28","2480659","0.0-6.0-2.0-0.1","sokpp702rx","many_one","0","indirect_first","0","ig04er23","0","25","1","1","3","1","","0","1","0","null","","","<div class = 'row'><div class = 'column'><img src = 'uspos/5470.bmp' width = '100%;'></div><div class = 'column'><img src = 'category4/CS10.png' width = '70%;'></div></div>","null","pos","CS","CS","4","category4/CS10.png","","","","",""
"","html-keyboard-response","29","2483175","0.0-6.0-2.0-0.2","sokpp702rx","many_one","0","indirect_first","0","ig04er23","0","25","1","1","3","1","","0","1","0","null","","","<div class = 'row'><div class = 'column'><img src = 'usneg/2750.bmp' width = '100%;'></div><div class = 'column'><img src = 'category1/CS8.png' width = '70%;'></div></div>","null","neg","CS","CS","1","category1/CS8.png","","","","",""
"","html-keyboard-response","30","2485691","0.0-6.0-2.0-0.3","sokpp702rx","many_one","0","indirect_first","0","ig04er23","0","25","1","1","3","1","","0","1","0","null","","","<div class = 'row'><div class = 'column'><img src = 'category2/CS4.png' width = '70%;'></div><div class = 'column'><img src = 'usneg/9435.bmp' width = '100%;'></div></div>","null","neg","CS","CS","2","category2/CS4.png","","","","",""
"","html-keyboard-response","31","2488202","0.0-6.0-2.0-0.4","sokpp702rx","many_one","0","indirect_first","0","ig04er23","0","25","1","1","3","1","","0","1","0","null","","","<div class = 'row'><div class = 'column'><img src = 'category1/CS10.png' width = '70%;'></div><div class = 'column'><img src = 'usneg/9340.bmp' width = '100%;'></div></div>","null","neg","CS","CS","1","category1/CS10.png","","","","",""
"","html-keyboard-response","32","2490718","0.0-6.0-2.0-0.5","sokpp702rx","many_one","0","indirect_first","0","ig04er23","0","25","1","1","3","1","","0","1","0","null","","","<div class = 'row'><div class = 'column'><img src = 'category4/CS1.png' width = '70%;'></div><div class = 'column'><img src = 'uspos/2165.bmp' width = '100%;'></div></div>","null","pos","CS","CS","4","category4/CS1.png","","","","",""
"","html-keyboard-response","33","2493229","0.0-6.0-2.0-0.6","sokpp702rx","many_one","0","indirect_first","0","ig04er23","0","25","1","1","3","1","","0","1","0","null","","","<div class = 'row'><div class = 'column'><img src = 'category4/CS5.png' width = '70%;'></div><div class = 'column'><img src = 'uspos/2160.bmp' width = '100%;'></div></div>","null","pos","CS","CS","4","category4/CS5.png","","","","",""
"","html-keyboard-response","34","2495747","0.0-6.0-2.0-0.7","sokpp702rx","many_one","0","indirect_first","0","ig04er23","0","25","1","1","3","1","","0","1","0","null","","","<div class = 'row'><div class = 'column'><img src = 'usneg/9560.bmp' width = '100%;'></div><div class = 'column'><img src = 'category2/CS5.png' width = '70%;'></div></div>","null","neg","CS","CS","2","category2/CS5.png","","","","",""
"","html-keyboard-response","35","2498257","0.0-6.0-2.0-0.8","sokpp702rx","many_one","0","indirect_first","0","ig04er23","0","25","1","1","3","1","","0","1","0","null","","","<div class = 'row'><div class = 'column'><img src = 'usneg/9342.bmp' width = '100%;'></div><div class = 'column'><img src = 'category1/CS5.png' width = '70%;'></div></div>","null","neg","CS","CS","1","category1/CS5.png","","","","",""
"","html-keyboard-response","36","2500764","0.0-6.0-2.0-0.9","sokpp702rx","many_one","0","indirect_first","0","ig04er23","0","25","1","1","3","1","","0","1","0","null","","","<div class = 'row'><div class = 'column'><img src = 'uspos/2311.bmp' width = '100%;'></div><div class = 'column'><img src = 'category3/CS10.png' width = '70%;'></div></div>","null","pos","CS","CS","3","category3/CS10.png","","","","",""
"","html-keyboard-response","37","2503280","0.0-6.0-2.0-0.10","sokpp702rx","many_one","0","indirect_first","0","ig04er23","0","25","1","1","3","1","","0","1","0","null","","","<div class = 'row'><div class = 'column'><img src = 'category3/CS7.png' width = '70%;'></div><div class = 'column'><img src = 'uspos/2057.bmp' width = '100%;'></div></div>","null","pos","CS","CS","3","category3/CS7.png","","","","",""
"","html-keyboard-response","38","2505786","0.0-6.0-2.0-0.11","sokpp702rx","many_one","0","indirect_first","0","ig04er23","0","25","1","1","3","1","","0","1","0","null","","","<div class = 'row'><div class = 'column'><img src = 'category2/CS2.png' width = '70%;'></div><div class = 'column'><img src = 'usneg/9830.bmp' width = '100%;'></div></div>","null","neg","CS","CS","2","category2/CS2.png","","","","",""
"","html-keyboard-response","39","2508309","0.0-6.0-2.0-0.12","sokpp702rx","many_one","0","indirect_first","0","ig04er23","0","25","1","1","3","1","","0","1","0","null","","","<div class = 'row'><div class = 'column'><img src = 'category1/CS4.png' width = '70%;'></div><div class = 'column'><img src = 'usneg/9421.bmp' width = '100%;'></div></div>","null","neg","CS","CS","1","category1/CS4.png","","","","",""
"","html-keyboard-response","40","2510825","0.0-6.0-2.0-0.13","sokpp702rx","many_one","0","indirect_first","0","ig04er23","0","25","1","1","3","1","","0","1","0","null","","","<div class = 'row'><div class = 'column'><img src = 'category3/CS8.png' width = '70%;'></div><div class = 'column'><img src = 'uspos/2340.bmp' width = '100%;'></div></div>","null","pos","CS","CS","3","category3/CS8.png","","","","",""
"","html-keyboard-response","41","2513337","0.0-6.0-2.0-0.14","sokpp702rx","many_one","0","indirect_first","0","ig04er23","0","25","1","1","3","1","","0","1","0","null","","","<div class = 'row'><div class = 'column'><img src = 'uspos/8540.bmp' width = '100%;'></div><div class = 'column'><img src = 'category4/CS7.png' width = '70%;'></div></div>","null","pos","CS","CS","4","category4/CS7.png","","","","",""
"","html-keyboard-response","42","2515850","0.0-6.0-2.0-0.15","sokpp702rx","many_one","0","indirect_first","0","ig04er23","0","25","1","1","3","1","","0","1","0","null","","","<div class = 'row'><div class = 'column'><img src = 'uspos/8190.bmp' width = '100%;'></div><div class = 'column'><img src = 'category3/CS2.png' width = '70%;'></div></div>","null","pos","CS","CS","3","category3/CS2.png","","","","",""
"","html-keyboard-response","43","2518364","0.0-6.0-2.0-0.16","sokpp702rx","many_one","0","indirect_first","0","ig04er23","0","25","1","1","3","1","","0","1","0","null","","","<div class = 'row'><div class = 'column'><img src = 'category2/CS7.png' width = '70%;'></div><div class = 'column'><img src = 'usneg/2900.bmp' width = '100%;'></div></div>","null","neg","CS","CS","2","category2/CS7.png","","","","",""
"","html-keyboard-response","44","2520876","0.0-6.0-2.0-0.17","sokpp702rx","many_one","0","indirect_first","0","ig04er23","0","25","1","1","3","1","","0","1","0","null","","","<div class = 'row'><div class = 'column'><img src = 'category3/CS9.png' width = '70%;'></div><div class = 'column'><img src = 'uspos/5621.bmp' width = '100%;'></div></div>","null","pos","CS","CS","3","category3/CS9.png","","","","",""
"","html-keyboard-response","45","2523388","0.0-6.0-2.0-0.18","sokpp702rx","many_one","0","indirect_first","0","ig04er23","0","25","1","1","3","1","","0","1","0","null","","","<div class = 'row'><div class = 'column'><img src = 'uspos/7580.bmp' width = '100%;'></div><div class = 'column'><img src = 'category4/CS4.png' width = '70%;'></div></div>","null","pos","CS","CS","4","category4/CS4.png","","","","",""
"","html-keyboard-response","46","2525900","0.0-6.0-2.0-0.19","sokpp702rx","many_one","0","indirect_first","0","ig04er23","0","25","1","1","3","1","","0","1","0","null","","","<div class = 'row'><div class = 'column'><img src = 'usneg/9584.bmp' width = '100%;'></div><div class = 'column'><img src = 'category2/CS1.png' width = '70%;'></div></div>","null","neg","CS","CS","2","category2/CS1.png","","","","",""
"","survey-html-form","47","2531850","0.0-6.0-3.0","sokpp702rx","many_one","0","indirect_first","0","ig04er23","0","25","1","1","3","1","","0","1","0","5437.904999824241","","{}","","","","","","","","","","","",""
"","html-keyboard-response","48","2535863","0.0-6.0-4.0-0.0","sokpp702rx","many_one","0","indirect_first","0","ig04er23","0","25","1","1","3","1","","0","1","0","null","","","<div class = 'row'><div class = 'column'><img src = 'category1/CS10.png' width = '70%;'></div><div class = 'column'><img src = 'usneg/9340.bmp' width = '100%;'></div></div>","null","neg","CS","CS","1","category1/CS10.png","","","","",""
"","html-keyboard-response","49","2538375","0.0-6.0-4.0-0.1","sokpp702rx","many_one","0","indirect_first","0","ig04er23","0","25","1","1","3","1","","0","1","0","null","","","<div class = 'row'><div class = 'column'><img src = 'uspos/5470.bmp' width = '100%;'></div><div class = 'column'><img src = 'category4/CS10.png' width = '70%;'></div></div>","null","pos","CS","CS","4","category4/CS10.png","","","","",""
"","html-keyboard-response","50","2540884","0.0-6.0-4.0-0.2","sokpp702rx","many_one","0","indirect_first","0","ig04er23","0","25","1","1","3","1","","0","1","0","null","","","<div class = 'row'><div class = 'column'><img src = 'usneg/9421.bmp' width = '100%;'></div><div class = 'column'><img src = 'category1/CS4.png' width = '70%;'></div></div>","null","neg","CS","CS","1","category1/CS4.png","","","","",""
"","html-keyboard-response","51","2543397","0.0-6.0-4.0-0.3","sokpp702rx","many_one","0","indirect_first","0","ig04er23","0","25","1","1","3","1","","0","1","0","null","","","<div class = 'row'><div class = 'column'><img src = 'uspos/8540.bmp' width = '100%;'></div><div class = 'column'><img src = 'category4/CS7.png' width = '70%;'></div></div>","null","pos","CS","CS","4","category4/CS7.png","","","","",""
"","html-keyboard-response","52","2545905","0.0-6.0-4.0-0.4","sokpp702rx","many_one","0","indirect_first","0","ig04er23","0","25","1","1","3","1","","0","1","0","null","","","<div class = 'row'><div class = 'column'><img src = 'category4/CS1.png' width = '70%;'></div><div class = 'column'><img src = 'uspos/2165.bmp' width = '100%;'></div></div>","null","pos","CS","CS","4","category4/CS1.png","","","","",""
"","html-keyboard-response","53","2548417","0.0-6.0-4.0-0.5","sokpp702rx","many_one","0","indirect_first","0","ig04er23","0","25","1","1","3","1","","0","1","0","null","","","<div class = 'row'><div class = 'column'><img src = 'category3/CS7.png' width = '70%;'></div><div class = 'column'><img src = 'uspos/2057.bmp' width = '100%;'></div></div>","null","pos","CS","CS","3","category3/CS7.png","","","","",""
"","html-keyboard-response","54","2550935","0.0-6.0-4.0-0.6","sokpp702rx","many_one","0","indirect_first","0","ig04er23","0","25","1","1","3","1","","0","1","0","null","","","<div class = 'row'><div class = 'column'><img src = 'usneg/9182.bmp' width = '100%;'></div><div class = 'column'><img src = 'category1/CS3.png' width = '70%;'></div></div>","null","neg","CS","CS","1","category1/CS3.png","","","","",""
"","html-keyboard-response","55","2553447","0.0-6.0-4.0-0.7","sokpp702rx","many_one","0","indirect_first","0","ig04er23","0","25","1","1","3","1","","0","1","0","null","","","<div class = 'row'><div class = 'column'><img src = 'category3/CS9.png' width = '70%;'></div><div class = 'column'><img src = 'uspos/5621.bmp' width = '100%;'></div></div>","null","pos","CS","CS","3","category3/CS9.png","","","","",""
"","html-keyboard-response","56","2555966","0.0-6.0-4.0-0.8","sokpp702rx","many_one","0","indirect_first","0","ig04er23","0","25","1","1","3","1","","0","1","0","null","","","<div class = 'row'><div class = 'column'><img src = 'category2/CS7.png' width = '70%;'></div><div class = 'column'><img src = 'usneg/2900.bmp' width = '100%;'></div></div>","null","neg","CS","CS","2","category2/CS7.png","","","","",""
"","html-keyboard-response","57","2558476","0.0-6.0-4.0-0.9","sokpp702rx","many_one","0","indirect_first","0","ig04er23","0","25","1","1","3","1","","0","1","0","null","","","<div class = 'row'><div class = 'column'><img src = 'category1/CS5.png' width = '70%;'></div><div class = 'column'><img src = 'usneg/9342.bmp' width = '100%;'></div></div>","null","neg","CS","CS","1","category1/CS5.png","","","","",""
"","html-keyboard-response","58","2560995","0.0-6.0-4.0-0.10","sokpp702rx","many_one","0","indirect_first","0","ig04er23","0","25","1","1","3","1","","0","1","0","null","","","<div class = 'row'><div class = 'column'><img src = 'category3/CS10.png' width = '70%;'></div><div class = 'column'><img src = 'uspos/2311.bmp' width = '100%;'></div></div>","null","pos","CS","CS","3","category3/CS10.png","","","","",""
"","html-keyboard-response","59","2563499","0.0-6.0-4.0-0.11","sokpp702rx","many_one","0","indirect_first","0","ig04er23","0","25","1","1","3","1","","0","1","0","null","","","<div class = 'row'><div class = 'column'><img src = 'category3/CS2.png' width = '70%;'></div><div class = 'column'><img src = 'uspos/8190.bmp' width = '100%;'></div></div>","null","pos","CS","CS","3","category3/CS2.png","","","","",""
"","html-keyboard-response","60","2566008","0.0-6.0-4.0-0.12","sokpp702rx","many_one","0","indirect_first","0","ig04er23","0","25","1","1","3","1","","0","1","0","null","","","<div class = 'row'><div class = 'column'><img src = 'category2/CS1.png' width = '70%;'></div><div class = 'column'><img src = 'usneg/9584.bmp' width = '100%;'></div></div>","null","neg","CS","CS","2","category2/CS1.png","","","","",""
"","html-keyboard-response","61","2568526","0.0-6.0-4.0-0.13","sokpp702rx","many_one","0","indirect_first","0","ig04er23","0","25","1","1","3","1","","0","1","0","null","","","<div class = 'row'><div class = 'column'><img src = 'usneg/9435.bmp' width = '100%;'></div><div class = 'column'><img src = 'category2/CS4.png' width = '70%;'></div></div>","null","neg","CS","CS","2","category2/CS4.png","","","","",""
"","html-keyboard-response","62","2571039","0.0-6.0-4.0-0.14","sokpp702rx","many_one","0","indirect_first","0","ig04er23","0","25","1","1","3","1","","0","1","0","null","","","<div class = 'row'><div class = 'column'><img src = 'category2/CS2.png' width = '70%;'></div><div class = 'column'><img src = 'usneg/9830.bmp' width = '100%;'></div></div>","null","neg","CS","CS","2","category2/CS2.png","","","","",""
"","html-keyboard-response","63","2573544","0.0-6.0-4.0-0.15","sokpp702rx","many_one","0","indirect_first","0","ig04er23","0","25","1","1","3","1","","0","1","0","null","","","<div class = 'row'><div class = 'column'><img src = 'usneg/2750.bmp' width = '100%;'></div><div class = 'column'><img src = 'category1/CS8.png' width = '70%;'></div></div>","null","neg","CS","CS","1","category1/CS8.png","","","","",""
"","html-keyboard-response","64","2576054","0.0-6.0-4.0-0.16","sokpp702rx","many_one","0","indirect_first","0","ig04er23","0","25","1","1","3","1","","0","1","0","null","","","<div class = 'row'><div class = 'column'><img src = 'category4/CS5.png' width = '70%;'></div><div class = 'column'><img src = 'uspos/2160.bmp' width = '100%;'></div></div>","null","pos","CS","CS","4","category4/CS5.png","","","","",""
"","html-keyboard-response","65","2578564","0.0-6.0-4.0-0.17","sokpp702rx","many_one","0","indirect_first","0","ig04er23","0","25","1","1","3","1","","0","1","0","null","","","<div class = 'row'><div class = 'column'><img src = 'uspos/2340.bmp' width = '100%;'></div><div class = 'column'><img src = 'category3/CS8.png' width = '70%;'></div></div>","null","pos","CS","CS","3","category3/CS8.png","","","","",""
"","html-keyboard-response","66","2581082","0.0-6.0-4.0-0.18","sokpp702rx","many_one","0","indirect_first","0","ig04er23","0","25","1","1","3","1","","0","1","0","null","","","<div class = 'row'><div class = 'column'><img src = 'category4/CS4.png' width = '70%;'></div><div class = 'column'><img src = 'uspos/7580.bmp' width = '100%;'></div></div>","null","pos","CS","CS","4","category4/CS4.png","","","","",""
"","html-keyboard-response","67","2583592","0.0-6.0-4.0-0.19","sokpp702rx","many_one","0","indirect_first","0","ig04er23","0","25","1","1","3","1","","0","1","0","null","","","<div class = 'row'><div class = 'column'><img src = 'category2/CS5.png' width = '70%;'></div><div class = 'column'><img src = 'usneg/9560.bmp' width = '100%;'></div></div>","null","neg","CS","CS","2","category2/CS5.png","","","","",""
"","survey-html-form","68","2586308","0.0-6.0-5.0","sokpp702rx","many_one","0","indirect_first","0","ig04er23","0","25","1","1","3","1","","0","1","0","2205.9449998196214","","{}","","","","","","","","","","","",""
"","html-keyboard-response","69","2590326","0.0-6.0-6.0-0.0","sokpp702rx","many_one","0","indirect_first","0","ig04er23","0","25","1","1","3","1","","0","1","0","null","","","<div class = 'row'><div class = 'column'><img src = 'uspos/7580.bmp' width = '100%;'></div><div class = 'column'><img src = 'category4/CS4.png' width = '70%;'></div></div>","null","pos","CS","CS","4","category4/CS4.png","","","","",""
"","html-keyboard-response","70","2592848","0.0-6.0-6.0-0.1","sokpp702rx","many_one","0","indirect_first","0","ig04er23","0","25","1","1","3","1","","0","1","0","null","","","<div class = 'row'><div class = 'column'><img src = 'category3/CS7.png' width = '70%;'></div><div class = 'column'><img src = 'uspos/2057.bmp' width = '100%;'></div></div>","null","pos","CS","CS","3","category3/CS7.png","","","","",""
"","html-keyboard-response","71","2595366","0.0-6.0-6.0-0.2","sokpp702rx","many_one","0","indirect_first","0","ig04er23","0","25","1","1","3","1","","0","1","0","null","","","<div class = 'row'><div class = 'column'><img src = 'category4/CS7.png' width = '70%;'></div><div class = 'column'><img src = 'uspos/8540.bmp' width = '100%;'></div></div>","null","pos","CS","CS","4","category4/CS7.png","","","","",""
"","html-keyboard-response","72","2597880","0.0-6.0-6.0-0.3","sokpp702rx","many_one","0","indirect_first","0","ig04er23","0","25","1","1","3","1","","0","1","0","null","","","<div class = 'row'><div class = 'column'><img src = 'category4/CS1.png' width = '70%;'></div><div class = 'column'><img src = 'uspos/2165.bmp' width = '100%;'></div></div>","null","pos","CS","CS","4","category4/CS1.png","","","","",""
"","html-keyboard-response","73","2600391","0.0-6.0-6.0-0.4","sokpp702rx","many_one","0","indirect_first","0","ig04er23","0","25","1","1","3","1","","0","1","0","null","","","<div class = 'row'><div class = 'column'><img src = 'category1/CS10.png' width = '70%;'></div><div class = 'column'><img src = 'usneg/9340.bmp' width = '100%;'></div></div>","null","neg","CS","CS","1","category1/CS10.png","","","","",""
"","html-keyboard-response","74","2602907","0.0-6.0-6.0-0.5","sokpp702rx","many_one","0","indirect_first","0","ig04er23","0","25","1","1","3","1","","0","1","0","null","","","<div class = 'row'><div class = 'column'><img src = 'uspos/5470.bmp' width = '100%;'></div><div class = 'column'><img src = 'category4/CS10.png' width = '70%;'></div></div>","null","pos","CS","CS","4","category4/CS10.png","","","","",""
"","html-keyboard-response","75","2605422","0.0-6.0-6.0-0.6","sokpp702rx","many_one","0","indirect_first","0","ig04er23","0","25","1","1","3","1","","0","1","0","null","","","<div class = 'row'><div class = 'column'><img src = 'usneg/2750.bmp' width = '100%;'></div><div class = 'column'><img src = 'category1/CS8.png' width = '70%;'></div></div>","null","neg","CS","CS","1","category1/CS8.png","","","","",""
"","html-keyboard-response","76","2607934","0.0-6.0-6.0-0.7","sokpp702rx","many_one","0","indirect_first","0","ig04er23","0","25","1","1","3","1","","0","1","0","null","","","<div class = 'row'><div class = 'column'><img src = 'category4/CS5.png' width = '70%;'></div><div class = 'column'><img src = 'uspos/2160.bmp' width = '100%;'></div></div>","null","pos","CS","CS","4","category4/CS5.png","","","","",""
"","html-keyboard-response","77","2610452","0.0-6.0-6.0-0.8","sokpp702rx","many_one","0","indirect_first","0","ig04er23","0","25","1","1","3","1","","0","1","0","null","","","<div class = 'row'><div class = 'column'><img src = 'category2/CS1.png' width = '70%;'></div><div class = 'column'><img src = 'usneg/9584.bmp' width = '100%;'></div></div>","null","neg","CS","CS","2","category2/CS1.png","","","","",""
"","html-keyboard-response","78","2612972","0.0-6.0-6.0-0.9","sokpp702rx","many_one","0","indirect_first","0","ig04er23","0","25","1","1","3","1","","0","1","0","null","","","<div class = 'row'><div class = 'column'><img src = 'category3/CS10.png' width = '70%;'></div><div class = 'column'><img src = 'uspos/2311.bmp' width = '100%;'></div></div>","null","pos","CS","CS","3","category3/CS10.png","","","","",""
"","html-keyboard-response","79","2615478","0.0-6.0-6.0-0.10","sokpp702rx","many_one","0","indirect_first","0","ig04er23","0","25","1","1","3","1","","0","1","0","null","","","<div class = 'row'><div class = 'column'><img src = 'category1/CS5.png' width = '70%;'></div><div class = 'column'><img src = 'usneg/9342.bmp' width = '100%;'></div></div>","null","neg","CS","CS","1","category1/CS5.png","","","","",""
"","html-keyboard-response","80","2618001","0.0-6.0-6.0-0.11","sokpp702rx","many_one","0","indirect_first","0","ig04er23","0","25","1","1","3","1","","0","1","0","null","","","<div class = 'row'><div class = 'column'><img src = 'uspos/5621.bmp' width = '100%;'></div><div class = 'column'><img src = 'category3/CS9.png' width = '70%;'></div></div>","null","pos","CS","CS","3","category3/CS9.png","","","","",""
"","html-keyboard-response","81","2620515","0.0-6.0-6.0-0.12","sokpp702rx","many_one","0","indirect_first","0","ig04er23","0","25","1","1","3","1","","0","1","0","null","","","<div class = 'row'><div class = 'column'><img src = 'category3/CS8.png' width = '70%;'></div><div class = 'column'><img src = 'uspos/2340.bmp' width = '100%;'></div></div>","null","pos","CS","CS","3","category3/CS8.png","","","","",""
"","html-keyboard-response","82","2623024","0.0-6.0-6.0-0.13","sokpp702rx","many_one","0","indirect_first","0","ig04er23","0","25","1","1","3","1","","0","1","0","null","","","<div class = 'row'><div class = 'column'><img src = 'category2/CS4.png' width = '70%;'></div><div class = 'column'><img src = 'usneg/9435.bmp' width = '100%;'></div></div>","null","neg","CS","CS","2","category2/CS4.png","","","","",""
"","html-keyboard-response","83","2625532","0.0-6.0-6.0-0.14","sokpp702rx","many_one","0","indirect_first","0","ig04er23","0","25","1","1","3","1","","0","1","0","null","","","<div class = 'row'><div class = 'column'><img src = 'usneg/9182.bmp' width = '100%;'></div><div class = 'column'><img src = 'category1/CS3.png' width = '70%;'></div></div>","null","neg","CS","CS","1","category1/CS3.png","","","","",""
"","html-keyboard-response","84","2628039","0.0-6.0-6.0-0.15","sokpp702rx","many_one","0","indirect_first","0","ig04er23","0","25","1","1","3","1","","0","1","0","null","","","<div class = 'row'><div class = 'column'><img src = 'usneg/9830.bmp' width = '100%;'></div><div class = 'column'><img src = 'category2/CS2.png' width = '70%;'></div></div>","null","neg","CS","CS","2","category2/CS2.png","","","","",""
"","html-keyboard-response","85","2630554","0.0-6.0-6.0-0.16","sokpp702rx","many_one","0","indirect_first","0","ig04er23","0","25","1","1","3","1","","0","1","0","null","","","<div class = 'row'><div class = 'column'><img src = 'uspos/8190.bmp' width = '100%;'></div><div class = 'column'><img src = 'category3/CS2.png' width = '70%;'></div></div>","null","pos","CS","CS","3","category3/CS2.png","","","","",""
"","html-keyboard-response","86","2633073","0.0-6.0-6.0-0.17","sokpp702rx","many_one","0","indirect_first","0","ig04er23","0","25","1","1","3","1","","0","1","0","null","","","<div class = 'row'><div class = 'column'><img src = 'category2/CS7.png' width = '70%;'></div><div class = 'column'><img src = 'usneg/2900.bmp' width = '100%;'></div></div>","null","neg","CS","CS","2","category2/CS7.png","","","","",""
"","html-keyboard-response","87","2635586","0.0-6.0-6.0-0.18","sokpp702rx","many_one","0","indirect_first","0","ig04er23","0","25","1","1","3","1","","0","1","0","null","","","<div class = 'row'><div class = 'column'><img src = 'usneg/9560.bmp' width = '100%;'></div><div class = 'column'><img src = 'category2/CS5.png' width = '70%;'></div></div>","null","neg","CS","CS","2","category2/CS5.png","","","","",""
"","html-keyboard-response","88","2638099","0.0-6.0-6.0-0.19","sokpp702rx","many_one","0","indirect_first","0","ig04er23","0","25","1","1","3","1","","0","1","0","null","","","<div class = 'row'><div class = 'column'><img src = 'category1/CS4.png' width = '70%;'></div><div class = 'column'><img src = 'usneg/9421.bmp' width = '100%;'></div></div>","null","neg","CS","CS","1","category1/CS4.png","","","","",""
"","html-keyboard-response","89","2678815","0.0-7.0","sokpp702rx","many_one","0","indirect_first","0","ig04er23","0","25","1","1","3","1","","0","1","0","40211.224999977276","","","<p>Sie sehen nun die chinesischen Zeichen nur ganz kurz. Danach sehen Sie die jeweilige Aussprache der Zeichen als Silbe auf dem Bildschrim. Ihre Aufgabe ist es, für jede Silbe anzugeben, ob diese etwas angenehmes, oder unangenehmes bedeuten könnte. Verlassen Sie sich hier vor allem auf Ihre Intuition.<br><br>Die Zeichen werden nur zur Orientierung dargestellt, beachten Sie sie deshalb nicht. Konzentrieren Sie sich vor allem auf die Silben. <br>Reagieren Sie mit folgenden zwei Tasten: <br><br><b>'D' </b> wenn die Silbe etwas <b>unangenehmes</b> bedeuten könnte. <br><b>'K'</b> wenn die Silbe etwas <b>angenehmes</b> bedeuten könnte. <br><br>Bitte legen Sie nun den Zeigefinger der linken Hand auf die Taste 'D' und den Zeigefinger der rechten Hand auf die Taste 'K'. <br>Reagieren Sie auf jede Silbe so schnell wie möglich. Uns interessiert Ihre spontane Reaktion. <br> <br> <br>Drücken Sie 'D' oder 'K', um die nächste Aufgabe zu starten. </p>","75","","","","","","","","","",""
"","html-keyboard-response","90","2681827","0.0-8.0-0.0","sokpp702rx","many_one","0","indirect_first","0","ig04er23","0","25","1","1","3","1","","0","1","0","null","","","<div style=""font-size:60px;"">+</div>","null","","","","","","","","","",""
"","html-keyboard-response","91","2681920","0.0-8.0-1.0","sokpp702rx","many_one","0","indirect_first","0","ig04er23","0","25","1","1","3","1","","0","1","0","null","","","<img src = 'category1/CS2.png' width = '100%;'>","null","","","","","","","","","",""
"","html-keyboard-response","92","2682179","0.0-8.0-2.0","sokpp702rx","many_one","0","indirect_first","0","ig04er23","0","25","1","1","3","1","","0","1","0","null","","","<img src = 'targets/30.png' width = '100%;'>","null","","","","","","","","","",""
"","html-keyboard-response","93","2686670","0.0-8.0-3.0","sokpp702rx","many_one","0","indirect_first","0","ig04er23","0","25","1","1","3","1","","0","1","0","4489.744999911636","","","<img src = 'targets/mask.png' width = '100%;'>","75","neg","GS","GSold","1","category1/CS2.png","targets/30.png","1","indirect","0",""
"","html-keyboard-response","94","2688186","0.0-8.0-0.1","sokpp702rx","many_one","0","indirect_first","0","ig04er23","0","25","1","1","3","1","","0","1","0","null","","","<div style=""font-size:60px;"">+</div>","null","","","","","","","","","",""
"","html-keyboard-response","95","2688279","0.0-8.0-1.1","sokpp702rx","many_one","0","indirect_first","0","ig04er23","0","25","1","1","3","1","","0","1","0","null","","","<img src = 'category2/CS5.png' width = '100%;'>","null","","","","","","","","","",""
"","html-keyboard-response","96","2688537","0.0-8.0-2.1","sokpp702rx","many_one","0","indirect_first","0","ig04er23","0","25","1","1","3","1","","0","1","0","null","","","<img src = 'targets/3.png' width = '100%;'>","null","","","","","","","","","",""
"","html-keyboard-response","97","2690633","0.0-8.0-3.1","sokpp702rx","many_one","0","indirect_first","0","ig04er23","0","25","1","1","3","1","","0","1","0","2094.0099998842925","","","<img src = 'targets/mask.png' width = '100%;'>","68","neg","CS","CS","2","category2/CS5.png","targets/3.png","0","indirect","1",""
"","html-keyboard-response","98","2692138","0.0-8.0-0.2","sokpp702rx","many_one","0","indirect_first","0","ig04er23","0","25","1","1","3","1","","0","1","0","null","","","<div style=""font-size:60px;"">+</div>","null","","","","","","","","","",""
"","html-keyboard-response","99","2692239","0.0-8.0-1.2","sokpp702rx","many_one","0","indirect_first","0","ig04er23","0","25","1","1","3","1","","0","1","0","null","","","<img src = 'category4/CS4.png' width = '100%;'>","null","","","","","","","","","",""
"","html-keyboard-response","100","2692499","0.0-8.0-2.2","sokpp702rx","many_one","0","indirect_first","0","ig04er23","0","25","1","1","3","1","","0","1","0","null","","","<img src = 'targets/19.png' width = '100%;'>","null","","","","","","","","","",""
"","html-keyboard-response","101","2694539","0.0-8.0-3.2","sokpp702rx","many_one","0","indirect_first","0","ig04er23","0","25","1","1","3","1","","0","1","0","2037.7549999393523","","","<img src = 'targets/mask.png' width = '100%;'>","75","pos","CS","CS","4","category4/CS4.png","targets/19.png","1","indirect","2",""
"","html-keyboard-response","102","2696046","0.0-8.0-0.3","sokpp702rx","many_one","0","indirect_first","0","ig04er23","0","25","1","1","3","1","","0","1","0","null","","","<div style=""font-size:60px;"">+</div>","null","","","","","","","","","",""
"","html-keyboard-response","103","2696146","0.0-8.0-1.3","sokpp702rx","many_one","0","indirect_first","0","ig04er23","0","25","1","1","3","1","","0","1","0","null","","","<img src = 'category4/CS5.png' width = '100%;'>","null","","","","","","","","","",""
"","html-keyboard-response","104","2696411","0.0-8.0-2.3","sokpp702rx","many_one","0","indirect_first","0","ig04er23","0","25","1","1","3","1","","0","1","0","null","","","<img src = 'targets/18.png' width = '100%;'>","null","","","","","","","","","",""
"","html-keyboard-response","105","2698059","0.0-8.0-3.3","sokpp702rx","many_one","0","indirect_first","0","ig04er23","0","25","1","1","3","1","","0","1","0","1645.5550000537187","","","<img src = 'targets/mask.png' width = '100%;'>","68","pos","CS","CS","4","category4/CS5.png","targets/18.png","0","indirect","3",""
"","html-keyboard-response","106","2699570","0.0-8.0-0.4","sokpp702rx","many_one","0","indirect_first","0","ig04er23","0","25","1","1","3","1","","0","1","0","null","","","<div style=""font-size:60px;"">+</div>","null","","","","","","","","","",""
"","html-keyboard-response","107","2699664","0.0-8.0-1.4","sokpp702rx","many_one","0","indirect_first","0","ig04er23","0","25","1","1","3","1","","0","1","0","null","","","<img src = 'category3/CS7.png' width = '100%;'>","null","","","","","","","","","",""
"","html-keyboard-response","108","2699932","0.0-8.0-2.4","sokpp702rx","many_one","0","indirect_first","0","ig04er23","0","25","1","1","3","1","","0","1","0","null","","","<img src = 'targets/14.png' width = '100%;'>","null","","","","","","","","","",""
"","html-keyboard-response","109","2702086","0.0-8.0-3.4","sokpp702rx","many_one","0","indirect_first","0","ig04er23","0","25","1","1","3","1","","0","1","0","2151.1699999682605","","","<img src = 'targets/mask.png' width = '100%;'>","68","pos","CS","CS","3","category3/CS7.png","targets/14.png","0","indirect","4",""
"","html-keyboard-response","110","2703596","0.0-8.0-0.5","sokpp702rx","many_one","0","indirect_first","0","ig04er23","0","25","1","1","3","1","","0","1","0","null","","","<div style=""font-size:60px;"">+</div>","null","","","","","","","","","",""
"","html-keyboard-response","111","2703694","0.0-8.0-1.5","sokpp702rx","many_one","0","indirect_first","0","ig04er23","0","25","1","1","3","1","","0","1","0","null","","","<img src = 'category3/CS10.png' width = '100%;'>","null","","","","","","","","","",""
"","html-keyboard-response","112","2703957","0.0-8.0-2.5","sokpp702rx","many_one","0","indirect_first","0","ig04er23","0","25","1","1","3","1","","0","1","0","null","","","<img src = 'targets/40.png' width = '100%;'>","null","","","","","","","","","",""
"","html-keyboard-response","113","2705097","0.0-8.0-3.5","sokpp702rx","many_one","0","indirect_first","0","ig04er23","0","25","1","1","3","1","","0","1","0","1137.749999994412","","","<img src = 'targets/mask.png' width = '100%;'>","75","pos","CS","CS","3","category3/CS10.png","targets/40.png","1","indirect","5",""
"","html-keyboard-response","114","2706607","0.0-8.0-0.6","sokpp702rx","many_one","0","indirect_first","0","ig04er23","0","25","1","1","3","1","","0","1","0","null","","","<div style=""font-size:60px;"">+</div>","null","","","","","","","","","",""
"","html-keyboard-response","115","2706704","0.0-8.0-1.6","sokpp702rx","many_one","0","indirect_first","0","ig04er23","0","25","1","1","3","1","","0","1","0","null","","","<img src = 'category2/CS7.png' width = '100%;'>","null","","","","","","","","","",""
"","html-keyboard-response","116","2706965","0.0-8.0-2.6","sokpp702rx","many_one","0","indirect_first","0","ig04er23","0","25","1","1","3","1","","0","1","0","null","","","<img src = 'targets/34.png' width = '100%;'>","null","","","","","","","","","",""
"","html-keyboard-response","117","2708873","0.0-8.0-3.6","sokpp702rx","many_one","0","indirect_first","0","ig04er23","0","25","1","1","3","1","","0","1","0","1904.6650000382215","","","<img src = 'targets/mask.png' width = '100%;'>","68","neg","CS","CS","2","category2/CS7.png","targets/34.png","0","indirect","6",""
"","html-keyboard-response","118","2710382","0.0-8.0-0.7","sokpp702rx","many_one","0","indirect_first","0","ig04er23","0","25","1","1","3","1","","0","1","0","null","","","<div style=""font-size:60px;"">+</div>","null","","","","","","","","","",""
"","html-keyboard-response","119","2710475","0.0-8.0-1.7","sokpp702rx","many_one","0","indirect_first","0","ig04er23","0","25","1","1","3","1","","0","1","0","null","","","<img src = 'category1/CS3.png' width = '100%;'>","null","","","","","","","","","",""
"","html-keyboard-response","120","2710731","0.0-8.0-2.7","sokpp702rx","many_one","0","indirect_first","0","ig04er23","0","25","1","1","3","1","","0","1","0","null","","","<img src = 'targets/27.png' width = '100%;'>","null","","","","","","","","","",""
"","html-keyboard-response","121","2711729","0.0-8.0-3.7","sokpp702rx","many_one","0","indirect_first","0","ig04er23","0","25","1","1","3","1","","0","1","0","996.0499999579042","","","<img src = 'targets/mask.png' width = '100%;'>","75","neg","CS","CS","1","category1/CS3.png","targets/27.png","1","indirect","7",""
"","html-keyboard-response","122","2713240","0.0-8.0-0.8","sokpp702rx","many_one","0","indirect_first","0","ig04er23","0","25","1","1","3","1","","0","1","0","null","","","<div style=""font-size:60px;"">+</div>","null","","","","","","","","","",""
"","html-keyboard-response","123","2713342","0.0-8.0-1.8","sokpp702rx","many_one","0","indirect_first","0","ig04er23","0","25","1","1","3","1","","0","1","0","null","","","<img src = 'category1/CS8.png' width = '100%;'>","null","","","","","","","","","",""
"","html-keyboard-response","124","2713611","0.0-8.0-2.8","sokpp702rx","many_one","0","indirect_first","0","ig04er23","0","25","1","1","3","1","","0","1","0","null","","","<img src = 'targets/26.png' width = '100%;'>","null","","","","","","","","","",""
"","html-keyboard-response","125","2715108","0.0-8.0-3.8","sokpp702rx","many_one","0","indirect_first","0","ig04er23","0","25","1","1","3","1","","0","1","0","1494.6800000034273","","","<img src = 'targets/mask.png' width = '100%;'>","75","neg","CS","CS","1","category1/CS8.png","targets/26.png","1","indirect","8",""
"","html-keyboard-response","126","2716616","0.0-8.0-0.9","sokpp702rx","many_one","0","indirect_first","0","ig04er23","0","25","1","1","3","1","","0","1","0","null","","","<div style=""font-size:60px;"">+</div>","null","","","","","","","","","",""
"","html-keyboard-response","127","2716711","0.0-8.0-1.9","sokpp702rx","many_one","0","indirect_first","0","ig04er23","0","25","1","1","3","1","","0","1","0","null","","","<img src = 'category4/CS7.png' width = '100%;'>","null","","","","","","","","","",""
"","html-keyboard-response","128","2716967","0.0-8.0-2.9","sokpp702rx","many_one","0","indirect_first","0","ig04er23","0","25","1","1","3","1","","0","1","0","null","","","<img src = 'targets/39.png' width = '100%;'>","null","","","","","","","","","",""
"","html-keyboard-response","129","2717591","0.0-8.0-3.9","sokpp702rx","many_one","0","indirect_first","0","ig04er23","0","25","1","1","3","1","","0","1","0","622.0400000456721","","","<img src = 'targets/mask.png' width = '100%;'>","75","pos","CS","CS","4","category4/CS7.png","targets/39.png","1","indirect","9",""
"","html-keyboard-response","130","2719104","0.0-8.0-0.10","sokpp702rx","many_one","0","indirect_first","0","ig04er23","0","25","1","1","3","1","","0","1","0","null","","","<div style=""font-size:60px;"">+</div>","null","","","","","","","","","",""
"","html-keyboard-response","131","2719205","0.0-8.0-1.10","sokpp702rx","many_one","0","indirect_first","0","ig04er23","0","25","1","1","3","1","","0","1","0","null","","","<img src = 'category1/CS4.png' width = '100%;'>","null","","","","","","","","","",""
"","html-keyboard-response","132","2719464","0.0-8.0-2.10","sokpp702rx","many_one","0","indirect_first","0","ig04er23","0","25","1","1","3","1","","0","1","0","null","","","<img src = 'targets/8.png' width = '100%;'>","null","","","","","","","","","",""
"","html-keyboard-response","133","2720422","0.0-8.0-3.10","sokpp702rx","many_one","0","indirect_first","0","ig04er23","0","25","1","1","3","1","","0","1","0","956.169999903068","","","<img src = 'targets/mask.png' width = '100%;'>","75","neg","CS","CS","1","category1/CS4.png","targets/8.png","1","indirect","10",""
"","html-keyboard-response","134","2721937","0.0-8.0-0.11","sokpp702rx","many_one","0","indirect_first","0","ig04er23","0","25","1","1","3","1","","0","1","0","null","","","<div style=""font-size:60px;"">+</div>","null","","","","","","","","","",""
"","html-keyboard-response","135","2722038","0.0-8.0-1.11","sokpp702rx","many_one","0","indirect_first","0","ig04er23","0","25","1","1","3","1","","0","1","0","null","","","<img src = 'category4/CS10.png' width = '100%;'>","null","","","","","","","","","",""
"","html-keyboard-response","136","2722304","0.0-8.0-2.11","sokpp702rx","many_one","0","indirect_first","0","ig04er23","0","25","1","1","3","1","","0","1","0","null","","","<img src = 'targets/33.png' width = '100%;'>","null","","","","","","","","","",""
"","html-keyboard-response","137","2722793","0.0-8.0-3.11","sokpp702rx","many_one","0","indirect_first","0","ig04er23","0","25","1","1","3","1","","0","1","0","487.31999984011054","","","<img src = 'targets/mask.png' width = '100%;'>","75","pos","CS","CS","4","category4/CS10.png","targets/33.png","1","indirect","11",""
"","html-keyboard-response","138","2724297","0.0-8.0-0.12","sokpp702rx","many_one","0","indirect_first","0","ig04er23","0","25","1","1","3","1","","0","1","0","null","","","<div style=""font-size:60px;"">+</div>","null","","","","","","","","","",""
"","html-keyboard-response","139","2724393","0.0-8.0-1.12","sokpp702rx","many_one","0","indirect_first","0","ig04er23","0","25","1","1","3","1","","0","1","0","null","","","<img src = 'category2/CS1.png' width = '100%;'>","null","","","","","","","","","",""
"","html-keyboard-response","140","2724658","0.0-8.0-2.12","sokpp702rx","many_one","0","indirect_first","0","ig04er23","0","25","1","1","3","1","","0","1","0","null","","","<img src = 'targets/45.png' width = '100%;'>","null","","","","","","","","","",""
"","html-keyboard-response","141","2725348","0.0-8.0-3.12","sokpp702rx","many_one","0","indirect_first","0","ig04er23","0","25","1","1","3","1","","0","1","0","688.6100000701845","","","<img src = 'targets/mask.png' width = '100%;'>","75","neg","CS","CS","2","category2/CS1.png","targets/45.png","1","indirect","12",""
"","html-keyboard-response","142","2726865","0.0-8.0-0.13","sokpp702rx","many_one","0","indirect_first","0","ig04er23","0","25","1","1","3","1","","0","1","0","null","","","<div style=""font-size:60px;"">+</div>","null","","","","","","","","","",""
"","html-keyboard-response","143","2726964","0.0-8.0-1.13","sokpp702rx","many_one","0","indirect_first","0","ig04er23","0","25","1","1","3","1","","0","1","0","null","","","<img src = 'category2/CS4.png' width = '100%;'>","null","","","","","","","","","",""
"","html-keyboard-response","144","2727225","0.0-8.0-2.13","sokpp702rx","many_one","0","indirect_first","0","ig04er23","0","25","1","1","3","1","","0","1","0","null","","","<img src = 'targets/12.png' width = '100%;'>","null","","","","","","","","","",""
"","html-keyboard-response","145","2728101","0.0-8.0-3.13","sokpp702rx","many_one","0","indirect_first","0","ig04er23","0","25","1","1","3","1","","0","1","0","873.3999999240041","","","<img src = 'targets/mask.png' width = '100%;'>","68","neg","CS","CS","2","category2/CS4.png","targets/12.png","0","indirect","13",""
"","html-keyboard-response","146","2729619","0.0-8.0-0.14","sokpp702rx","many_one","0","indirect_first","0","ig04er23","0","25","1","1","3","1","","0","1","0","null","","","<div style=""font-size:60px;"">+</div>","null","","","","","","","","","",""
"","html-keyboard-response","147","2729719","0.0-8.0-1.14","sokpp702rx","many_one","0","indirect_first","0","ig04er23","0","25","1","1","3","1","","0","1","0","null","","","<img src = 'category4/CS1.png' width = '100%;'>","null","","","","","","","","","",""
"","html-keyboard-response","148","2729982","0.0-8.0-2.14","sokpp702rx","many_one","0","indirect_first","0","ig04er23","0","25","1","1","3","1","","0","1","0","null","","","<img src = 'targets/7.png' width = '100%;'>","null","","","","","","","","","",""
"","html-keyboard-response","149","2730334","0.0-8.0-3.14","sokpp702rx","many_one","0","indirect_first","0","ig04er23","0","25","1","1","3","1","","0","1","0","350.8699999656528","","","<img src = 'targets/mask.png' width = '100%;'>","75","pos","CS","CS","4","category4/CS1.png","targets/7.png","1","indirect","14",""
"","html-keyboard-response","150","2731844","0.0-8.0-0.15","sokpp702rx","many_one","0","indirect_first","0","ig04er23","0","25","1","1","3","1","","0","1","0","null","","","<div style=""font-size:60px;"">+</div>","null","","","","","","","","","",""
"","html-keyboard-response","151","2731938","0.0-8.0-1.15","sokpp702rx","many_one","0","indirect_first","0","ig04er23","0","25","1","1","3","1","","0","1","0","null","","","<img src = 'category1/CS1.png' width = '100%;'>","null","","","","","","","","","",""
"","html-keyboard-response","152","2732193","0.0-8.0-2.15","sokpp702rx","many_one","0","indirect_first","0","ig04er23","0","25","1","1","3","1","","0","1","0","null","","","<img src = 'targets/17.png' width = '100%;'>","null","","","","","","","","","",""
"","html-keyboard-response","153","2732815","0.0-8.0-3.15","sokpp702rx","many_one","0","indirect_first","0","ig04er23","0","25","1","1","3","1","","0","1","0","620.3049998730421","","","<img src = 'targets/mask.png' width = '100%;'>","68","neg","GS","GSold","1","category1/CS1.png","targets/17.png","0","indirect","15",""
"","html-keyboard-response","154","2734327","0.0-8.0-0.16","sokpp702rx","many_one","0","indirect_first","0","ig04er23","0","25","1","1","3","1","","0","1","0","null","","","<div style=""font-size:60px;"">+</div>","null","","","","","","","","","",""
"","html-keyboard-response","155","2734425","0.0-8.0-1.16","sokpp702rx","many_one","0","indirect_first","0","ig04er23","0","25","1","1","3","1","","0","1","0","null","","","<img src = 'category3/CS5.png' width = '100%;'>","null","","","","","","","","","",""
"","html-keyboard-response","156","2734685","0.0-8.0-2.16","sokpp702rx","many_one","0","indirect_first","0","ig04er23","0","25","1","1","3","1","","0","1","0","null","","","<img src = 'targets/15.png' width = '100%;'>","null","","","","","","","","","",""
"","html-keyboard-response","157","2735264","0.0-8.0-3.16","sokpp702rx","many_one","0","indirect_first","0","ig04er23","0","25","1","1","3","1","","0","1","0","577.5600001215935","","","<img src = 'targets/mask.png' width = '100%;'>","75","pos","GS","GSold","3","category3/CS5.png","targets/15.png","1","indirect","16",""
"","html-keyboard-response","158","2736789","0.0-8.0-0.17","sokpp702rx","many_one","0","indirect_first","0","ig04er23","0","25","1","1","3","1","","0","1","0","null","","","<div style=""font-size:60px;"">+</div>","null","","","","","","","","","",""
"","html-keyboard-response","159","2736887","0.0-8.0-1.17","sokpp702rx","many_one","0","indirect_first","0","ig04er23","0","25","1","1","3","1","","0","1","0","null","","","<img src = 'category1/CS6.png' width = '100%;'>","null","","","","","","","","","",""
"","html-keyboard-response","160","2737145","0.0-8.0-2.17","sokpp702rx","many_one","0","indirect_first","0","ig04er23","0","25","1","1","3","1","","0","1","0","null","","","<img src = 'targets/43.png' width = '100%;'>","null","","","","","","","","","",""
"","html-keyboard-response","161","2738215","0.0-8.0-3.17","sokpp702rx","many_one","0","indirect_first","0","ig04er23","0","25","1","1","3","1","","0","1","0","1067.7250002045184","","","<img src = 'targets/mask.png' width = '100%;'>","68","neg","GS","GSold","1","category1/CS6.png","targets/43.png","0","indirect","17",""
"","html-keyboard-response","162","2739726","0.0-8.0-0.18","sokpp702rx","many_one","0","indirect_first","0","ig04er23","0","25","1","1","3","1","","0","1","0","null","","","<div style=""font-size:60px;"">+</div>","null","","","","","","","","","",""
"","html-keyboard-response","163","2739824","0.0-8.0-1.18","sokpp702rx","many_one","0","indirect_first","0","ig04er23","0","25","1","1","3","1","","0","1","0","null","","","<img src = 'category2/CS2.png' width = '100%;'>","null","","","","","","","","","",""
"","html-keyboard-response","164","2740092","0.0-8.0-2.18","sokpp702rx","many_one","0","indirect_first","0","ig04er23","0","25","1","1","3","1","","0","1","0","null","","","<img src = 'targets/36.png' width = '100%;'>","null","","","","","","","","","",""
"","html-keyboard-response","165","2741002","0.0-8.0-3.18","sokpp702rx","many_one","0","indirect_first","0","ig04er23","0","25","1","1","3","1","","0","1","0","909.080000128597","","","<img src = 'targets/mask.png' width = '100%;'>","68","neg","CS","CS","2","category2/CS2.png","targets/36.png","0","indirect","18",""
"","html-keyboard-response","166","2742516","0.0-8.0-0.19","sokpp702rx","many_one","0","indirect_first","0","ig04er23","0","25","1","1","3","1","","0","1","0","null","","","<div style=""font-size:60px;"">+</div>","null","","","","","","","","","",""
"","html-keyboard-response","167","2742608","0.0-8.0-1.19","sokpp702rx","many_one","0","indirect_first","0","ig04er23","0","25","1","1","3","1","","0","1","0","null","","","<img src = 'category1/CS5.png' width = '100%;'>","null","","","","","","","","","",""
"","html-keyboard-response","168","2742869","0.0-8.0-2.19","sokpp702rx","many_one","0","indirect_first","0","ig04er23","0","25","1","1","3","1","","0","1","0","null","","","<img src = 'targets/21.png' width = '100%;'>","null","","","","","","","","","",""
"","html-keyboard-response","169","2743685","0.0-8.0-3.19","sokpp702rx","many_one","0","indirect_first","0","ig04er23","0","25","1","1","3","1","","0","1","0","814.57499996759","","","<img src = 'targets/mask.png' width = '100%;'>","75","neg","CS","CS","1","category1/CS5.png","targets/21.png","1","indirect","19",""
"","html-keyboard-response","170","2745192","0.0-8.0-0.20","sokpp702rx","many_one","0","indirect_first","0","ig04er23","0","25","1","1","3","1","","0","1","0","null","","","<div style=""font-size:60px;"">+</div>","null","","","","","","","","","",""
"","html-keyboard-response","171","2745292","0.0-8.0-1.20","sokpp702rx","many_one","0","indirect_first","0","ig04er23","0","25","1","1","3","1","","0","1","0","null","","","<img src = 'category3/CS2.png' width = '100%;'>","null","","","","","","","","","",""
"","html-keyboard-response","172","2745548","0.0-8.0-2.20","sokpp702rx","many_one","0","indirect_first","0","ig04er23","0","25","1","1","3","1","","0","1","0","null","","","<img src = 'targets/2.png' width = '100%;'>","null","","","","","","","","","",""
"","html-keyboard-response","173","2745963","0.0-8.0-3.20","sokpp702rx","many_one","0","indirect_first","0","ig04er23","0","25","1","1","3","1","","0","1","0","412.4050000682473","","","<img src = 'targets/mask.png' width = '100%;'>","75","pos","CS","CS","3","category3/CS2.png","targets/2.png","1","indirect","20",""
"","html-keyboard-response","174","2747476","0.0-8.0-0.21","sokpp702rx","many_one","0","indirect_first","0","ig04er23","0","25","1","1","3","1","","0","1","0","null","","","<div style=""font-size:60px;"">+</div>","null","","","","","","","","","",""
"","html-keyboard-response","175","2747575","0.0-8.0-1.21","sokpp702rx","many_one","0","indirect_first","0","ig04er23","0","25","1","1","3","1","","0","1","0","null","","","<img src = 'category3/CS9.png' width = '100%;'>","null","","","","","","","","","",""
"","html-keyboard-response","176","2747839","0.0-8.0-2.21","sokpp702rx","many_one","0","indirect_first","0","ig04er23","0","25","1","1","3","1","","0","1","0","null","","","<img src = 'targets/23.png' width = '100%;'>","null","","","","","","","","","",""
"","html-keyboard-response","177","2748376","0.0-8.0-3.21","sokpp702rx","many_one","0","indirect_first","0","ig04er23","0","25","1","1","3","1","","0","1","0","535.4299999307841","","","<img src = 'targets/mask.png' width = '100%;'>","75","pos","CS","CS","3","category3/CS9.png","targets/23.png","1","indirect","21",""
"","html-keyboard-response","178","2749888","0.0-8.0-0.22","sokpp702rx","many_one","0","indirect_first","0","ig04er23","0","25","1","1","3","1","","0","1","0","null","","","<div style=""font-size:60px;"">+</div>","null","","","","","","","","","",""
"","html-keyboard-response","179","2749989","0.0-8.0-1.22","sokpp702rx","many_one","0","indirect_first","0","ig04er23","0","25","1","1","3","1","","0","1","0","null","","","<img src = 'category1/CS10.png' width = '100%;'>","null","","","","","","","","","",""
"","html-keyboard-response","180","2750251","0.0-8.0-2.22","sokpp702rx","many_one","0","indirect_first","0","ig04er23","0","25","1","1","3","1","","0","1","0","null","","","<img src = 'targets/41.png' width = '100%;'>","null","","","","","","","","","",""
"","html-keyboard-response","181","2750761","0.0-8.0-3.22","sokpp702rx","many_one","0","indirect_first","0","ig04er23","0","25","1","1","3","1","","0","1","0","507.99499987624586","","","<img src = 'targets/mask.png' width = '100%;'>","68","neg","CS","CS","1","category1/CS10.png","targets/41.png","0","indirect","22",""
"","html-keyboard-response","182","2752276","0.0-8.0-0.23","sokpp702rx","many_one","0","indirect_first","0","ig04er23","0","25","1","1","3","1","","0","1","0","null","","","<div style=""font-size:60px;"">+</div>","null","","","","","","","","","",""
"","html-keyboard-response","183","2752368","0.0-8.0-1.23","sokpp702rx","many_one","0","indirect_first","0","ig04er23","0","25","1","1","3","1","","0","1","0","null","","","<img src = 'category3/CS8.png' width = '100%;'>","null","","","","","","","","","",""
"","html-keyboard-response","184","2752627","0.0-8.0-2.23","sokpp702rx","many_one","0","indirect_first","0","ig04er23","0","25","1","1","3","1","","0","1","0","null","","","<img src = 'targets/11.png' width = '100%;'>","null","","","","","","","","","",""
"","html-keyboard-response","185","2753601","0.0-8.0-3.23","sokpp702rx","many_one","0","indirect_first","0","ig04er23","0","25","1","1","3","1","","0","1","0","972.7799999527633","","","<img src = 'targets/mask.png' width = '100%;'>","75","pos","CS","CS","3","category3/CS8.png","targets/11.png","1","indirect","23",""
"","survey-html-form","186","2759246","0.0-9.0","sokpp702rx","many_one","0","indirect_first","0","ig04er23","0","25","1","1","3","1","","0","1","0","5142.479999922216","","{}","","","","","","","","","","","",""
"","html-keyboard-response","187","2762255","0.0-10.0-0.0","sokpp702rx","many_one","0","indirect_first","0","ig04er23","0","25","1","1","3","1","","0","1","0","null","","","<div style=""font-size:60px;"">+</div>","null","","","","","","","","","",""
"","html-keyboard-response","188","2762351","0.0-10.0-1.0","sokpp702rx","many_one","0","indirect_first","0","ig04er23","0","25","1","1","3","1","","0","1","0","null","","","<img src = 'category2/GS2.png' width = '100%;'>","null","","","","","","","","","",""
"","html-keyboard-response","189","2762618","0.0-10.0-2.0","sokpp702rx","many_one","0","indirect_first","0","ig04er23","0","25","1","1","3","1","","0","1","0","null","","","<img src = 'targets/46.png' width = '100%;'>","null","","","","","","","","","",""
"","html-keyboard-response","190","2764059","0.0-10.0-3.0","sokpp702rx","many_one","0","indirect_first","0","ig04er23","0","25","1","1","3","1","","0","1","0","1438.109999988228","","","<img src = 'targets/mask.png' width = '100%;'>","75","neg","GS","GSnew","2","category2/GS2.png","targets/46.png","1","indirect","24",""
"","html-keyboard-response","191","2765568","0.0-10.0-0.1","sokpp702rx","many_one","0","indirect_first","0","ig04er23","0","25","1","1","3","1","","0","1","0","null","","","<div style=""font-size:60px;"">+</div>","null","","","","","","","","","",""
"","html-keyboard-response","192","2765670","0.0-10.0-1.1","sokpp702rx","many_one","0","indirect_first","0","ig04er23","0","25","1","1","3","1","","0","1","0","null","","","<img src = 'category1/GS3.png' width = '100%;'>","null","","","","","","","","","",""
"","html-keyboard-response","193","2765932","0.0-10.0-2.1","sokpp702rx","many_one","0","indirect_first","0","ig04er23","0","25","1","1","3","1","","0","1","0","null","","","<img src = 'targets/24.png' width = '100%;'>","null","","","","","","","","","",""
"","html-keyboard-response","194","2766793","0.0-10.0-3.1","sokpp702rx","many_one","0","indirect_first","0","ig04er23","0","25","1","1","3","1","","0","1","0","858.7050000205636","","","<img src = 'targets/mask.png' width = '100%;'>","68","neg","GS","GSnew","1","category1/GS3.png","targets/24.png","0","indirect","25",""
"","html-keyboard-response","195","2768309","0.0-10.0-0.2","sokpp702rx","many_one","0","indirect_first","0","ig04er23","0","25","1","1","3","1","","0","1","0","null","","","<div style=""font-size:60px;"">+</div>","null","","","","","","","","","",""
"","html-keyboard-response","196","2768401","0.0-10.0-1.2","sokpp702rx","many_one","0","indirect_first","0","ig04er23","0","25","1","1","3","1","","0","1","0","null","","","<img src = 'category3/CS4.png' width = '100%;'>","null","","","","","","","","","",""
"","html-keyboard-response","197","2768661","0.0-10.0-2.2","sokpp702rx","many_one","0","indirect_first","0","ig04er23","0","25","1","1","3","1","","0","1","0","null","","","<img src = 'targets/31.png' width = '100%;'>","null","","","","","","","","","",""
"","html-keyboard-response","198","2769938","0.0-10.0-3.2","sokpp702rx","many_one","0","indirect_first","0","ig04er23","0","25","1","1","3","1","","0","1","0","1274.5949998497963","","","<img src = 'targets/mask.png' width = '100%;'>","68","pos","GS","GSold","3","category3/CS4.png","targets/31.png","0","indirect","26",""
"","html-keyboard-response","199","2771451","0.0-10.0-0.3","sokpp702rx","many_one","0","indirect_first","0","ig04er23","0","25","1","1","3","1","","0","1","0","null","","","<div style=""font-size:60px;"">+</div>","null","","","","","","","","","",""
"","html-keyboard-response","200","2771547","0.0-10.0-1.3","sokpp702rx","many_one","0","indirect_first","0","ig04er23","0","25","1","1","3","1","","0","1","0","null","","","<img src = 'category2/CS9.png' width = '100%;'>","null","","","","","","","","","",""
"","html-keyboard-response","201","2771808","0.0-10.0-2.3","sokpp702rx","many_one","0","indirect_first","0","ig04er23","0","25","1","1","3","1","","0","1","0","null","","","<img src = 'targets/38.png' width = '100%;'>","null","","","","","","","","","",""
"","html-keyboard-response","202","2772866","0.0-10.0-3.3","sokpp702rx","many_one","0","indirect_first","0","ig04er23","0","25","1","1","3","1","","0","1","0","1054.7050000168383","","","<img src = 'targets/mask.png' width = '100%;'>","68","neg","GS","GSold","2","category2/CS9.png","targets/38.png","0","indirect","27",""
"","html-keyboard-response","203","2774385","0.0-10.0-0.4","sokpp702rx","many_one","0","indirect_first","0","ig04er23","0","25","1","1","3","1","","0","1","0","null","","","<div style=""font-size:60px;"">+</div>","null","","","","","","","","","",""
"","html-keyboard-response","204","2774478","0.0-10.0-1.4","sokpp702rx","many_one","0","indirect_first","0","ig04er23","0","25","1","1","3","1","","0","1","0","null","","","<img src = 'category1/GS2.png' width = '100%;'>","null","","","","","","","","","",""
"","html-keyboard-response","205","2774741","0.0-10.0-2.4","sokpp702rx","many_one","0","indirect_first","0","ig04er23","0","25","1","1","3","1","","0","1","0","null","","","<img src = 'targets/32.png' width = '100%;'>","null","","","","","","","","","",""
"","html-keyboard-response","206","2775361","0.0-10.0-3.4","sokpp702rx","many_one","0","indirect_first","0","ig04er23","0","25","1","1","3","1","","0","1","0","616.5199999231845","","","<img src = 'targets/mask.png' width = '100%;'>","68","neg","GS","GSnew","1","category1/GS2.png","targets/32.png","0","indirect","28",""
"","html-keyboard-response","207","2776870","0.0-10.0-0.5","sokpp702rx","many_one","0","indirect_first","0","ig04er23","0","25","1","1","3","1","","0","1","0","null","","","<div style=""font-size:60px;"">+</div>","null","","","","","","","","","",""
"","html-keyboard-response","208","2776966","0.0-10.0-1.5","sokpp702rx","many_one","0","indirect_first","0","ig04er23","0","25","1","1","3","1","","0","1","0","null","","","<img src = 'category2/GS3.png' width = '100%;'>","null","","","","","","","","","",""
"","html-keyboard-response","209","2777224","0.0-10.0-2.5","sokpp702rx","many_one","0","indirect_first","0","ig04er23","0","25","1","1","3","1","","0","1","0","null","","","<img src = 'targets/48.png' width = '100%;'>","null","","","","","","","","","",""
"","html-keyboard-response","210","2777801","0.0-10.0-3.5","sokpp702rx","many_one","0","indirect_first","0","ig04er23","0","25","1","1","3","1","","0","1","0","574.9350001569837","","","<img src = 'targets/mask.png' width = '100%;'>","75","neg","GS","GSnew","2","category2/GS3.png","targets/48.png","1","indirect","29",""
"","html-keyboard-response","211","2779318","0.0-10.0-0.6","sokpp702rx","many_one","0","indirect_first","0","ig04er23","0","25","1","1","3","1","","0","1","0","null","","","<div style=""font-size:60px;"">+</div>","null","","","","","","","","","",""
"","html-keyboard-response","212","2779416","0.0-10.0-1.6","sokpp702rx","many_one","0","indirect_first","0","ig04er23","0","25","1","1","3","1","","0","1","0","null","","","<img src = 'category3/GS3.png' width = '100%;'>","null","","","","","","","","","",""
"","html-keyboard-response","213","2779672","0.0-10.0-2.6","sokpp702rx","many_one","0","indirect_first","0","ig04er23","0","25","1","1","3","1","","0","1","0","null","","","<img src = 'targets/28.png' width = '100%;'>","null","","","","","","","","","",""
"","html-keyboard-response","214","2780123","0.0-10.0-3.6","sokpp702rx","many_one","0","indirect_first","0","ig04er23","0","25","1","1","3","1","","0","1","0","449.0349998231977","","","<img src = 'targets/mask.png' width = '100%;'>","75","pos","GS","GSnew","3","category3/GS3.png","targets/28.png","1","indirect","30",""
"","html-keyboard-response","215","2781632","0.0-10.0-0.7","sokpp702rx","many_one","0","indirect_first","0","ig04er23","0","25","1","1","3","1","","0","1","0","null","","","<div style=""font-size:60px;"">+</div>","null","","","","","","","","","",""
"","html-keyboard-response","216","2781728","0.0-10.0-1.7","sokpp702rx","many_one","0","indirect_first","0","ig04er23","0","25","1","1","3","1","","0","1","0","null","","","<img src = 'category3/GS2.png' width = '100%;'>","null","","","","","","","","","",""
"","html-keyboard-response","217","2781997","0.0-10.0-2.7","sokpp702rx","many_one","0","indirect_first","0","ig04er23","0","25","1","1","3","1","","0","1","0","null","","","<img src = 'targets/5.png' width = '100%;'>","null","","","","","","","","","",""
"","html-keyboard-response","218","2783450","0.0-10.0-3.7","sokpp702rx","many_one","0","indirect_first","0","ig04er23","0","25","1","1","3","1","","0","1","0","1450.9450001642108","","","<img src = 'targets/mask.png' width = '100%;'>","68","pos","GS","GSnew","3","category3/GS2.png","targets/5.png","0","indirect","31",""
"","html-keyboard-response","219","2784966","0.0-10.0-0.8","sokpp702rx","many_one","0","indirect_first","0","ig04er23","0","25","1","1","3","1","","0","1","0","null","","","<div style=""font-size:60px;"">+</div>","null","","","","","","","","","",""
"","html-keyboard-response","220","2785065","0.0-10.0-1.8","sokpp702rx","many_one","0","indirect_first","0","ig04er23","0","25","1","1","3","1","","0","1","0","null","","","<img src = 'category4/GS2.png' width = '100%;'>","null","","","","","","","","","",""
"","html-keyboard-response","221","2785326","0.0-10.0-2.8","sokpp702rx","many_one","0","indirect_first","0","ig04er23","0","25","1","1","3","1","","0","1","0","null","","","<img src = 'targets/16.png' width = '100%;'>","null","","","","","","","","","",""
"","html-keyboard-response","222","2786918","0.0-10.0-3.8","sokpp702rx","many_one","0","indirect_first","0","ig04er23","0","25","1","1","3","1","","0","1","0","1589.0150000341237","","","<img src = 'targets/mask.png' width = '100%;'>","68","pos","GS","GSnew","4","category4/GS2.png","targets/16.png","0","indirect","32",""
"","html-keyboard-response","223","2788430","0.0-10.0-0.9","sokpp702rx","many_one","0","indirect_first","0","ig04er23","0","25","1","1","3","1","","0","1","0","null","","","<div style=""font-size:60px;"">+</div>","null","","","","","","","","","",""
"","html-keyboard-response","224","2788530","0.0-10.0-1.9","sokpp702rx","many_one","0","indirect_first","0","ig04er23","0","25","1","1","3","1","","0","1","0","null","","","<img src = 'category2/CS8.png' width = '100%;'>","null","","","","","","","","","",""
"","html-keyboard-response","225","2788790","0.0-10.0-2.9","sokpp702rx","many_one","0","indirect_first","0","ig04er23","0","25","1","1","3","1","","0","1","0","null","","","<img src = 'targets/22.png' width = '100%;'>","null","","","","","","","","","",""
"","html-keyboard-response","226","2789951","0.0-10.0-3.9","sokpp702rx","many_one","0","indirect_first","0","ig04er23","0","25","1","1","3","1","","0","1","0","1159.0150000993162","","","<img src = 'targets/mask.png' width = '100%;'>","75","neg","GS","GSold","2","category2/CS8.png","targets/22.png","1","indirect","33",""
"","html-keyboard-response","227","2791464","0.0-10.0-0.10","sokpp702rx","many_one","0","indirect_first","0","ig04er23","0","25","1","1","3","1","","0","1","0","null","","","<div style=""font-size:60px;"">+</div>","null","","","","","","","","","",""
"","html-keyboard-response","228","2791556","0.0-10.0-1.10","sokpp702rx","many_one","0","indirect_first","0","ig04er23","0","25","1","1","3","1","","0","1","0","null","","","<img src = 'category1/ma.png' width = '100%;'>","null","","","","","","","","","",""
"","html-keyboard-response","229","2791818","0.0-10.0-2.10","sokpp702rx","many_one","0","indirect_first","0","ig04er23","0","25","1","1","3","1","","0","1","0","null","","","<img src = 'targets/29.png' width = '100%;'>","null","","","","","","","","","",""
"","html-keyboard-response","230","2793588","0.0-10.0-3.10","sokpp702rx","many_one","0","indirect_first","0","ig04er23","0","25","1","1","3","1","","0","1","0","1768.3449999894947","","","<img src = 'targets/mask.png' width = '100%;'>","68","neg","GS","abstract","1","category1/ma.png","targets/29.png","0","indirect","34",""
"","html-keyboard-response","231","2795092","0.0-10.0-0.11","sokpp702rx","many_one","0","indirect_first","0","ig04er23","0","25","1","1","3","1","","0","1","0","null","","","<div style=""font-size:60px;"">+</div>","null","","","","","","","","","",""
"","html-keyboard-response","232","2795192","0.0-10.0-1.11","sokpp702rx","many_one","0","indirect_first","0","ig04er23","0","25","1","1","3","1","","0","1","0","null","","","<img src = 'category4/CS2.png' width = '100%;'>","null","","","","","","","","","",""
"","html-keyboard-response","233","2795455","0.0-10.0-2.11","sokpp702rx","many_one","0","indirect_first","0","ig04er23","0","25","1","1","3","1","","0","1","0","null","","","<img src = 'targets/10.png' width = '100%;'>","null","","","","","","","","","",""
"","html-keyboard-response","234","2796348","0.0-10.0-3.11","sokpp702rx","many_one","0","indirect_first","0","ig04er23","0","25","1","1","3","1","","0","1","0","890.3850000351667","","","<img src = 'targets/mask.png' width = '100%;'>","75","pos","GS","GSold","4","category4/CS2.png","targets/10.png","1","indirect","35",""
"","html-keyboard-response","235","2797864","0.0-10.0-0.12","sokpp702rx","many_one","0","indirect_first","0","ig04er23","0","25","1","1","3","1","","0","1","0","null","","","<div style=""font-size:60px;"">+</div>","null","","","","","","","","","",""
"","html-keyboard-response","236","2797958","0.0-10.0-1.12","sokpp702rx","many_one","0","indirect_first","0","ig04er23","0","25","1","1","3","1","","0","1","0","null","","","<img src = 'category3/CS3.png' width = '100%;'>","null","","","","","","","","","",""
"","html-keyboard-response","237","2798226","0.0-10.0-2.12","sokpp702rx","many_one","0","indirect_first","0","ig04er23","0","25","1","1","3","1","","0","1","0","null","","","<img src = 'targets/25.png' width = '100%;'>","null","","","","","","","","","",""
"","html-keyboard-response","238","2799033","0.0-10.0-3.12","sokpp702rx","many_one","0","indirect_first","0","ig04er23","0","25","1","1","3","1","","0","1","0","806.0000000987202","","","<img src = 'targets/mask.png' width = '100%;'>","75","pos","GS","GSold","3","category3/CS3.png","targets/25.png","1","indirect","36",""
"","html-keyboard-response","239","2800544","0.0-10.0-0.13","sokpp702rx","many_one","0","indirect_first","0","ig04er23","0","25","1","1","3","1","","0","1","0","null","","","<div style=""font-size:60px;"">+</div>","null","","","","","","","","","",""
"","html-keyboard-response","240","2800642","0.0-10.0-1.13","sokpp702rx","many_one","0","indirect_first","0","ig04er23","0","25","1","1","3","1","","0","1","0","null","","","<img src = 'category4/CS9.png' width = '100%;'>","null","","","","","","","","","",""
"","html-keyboard-response","241","2800913","0.0-10.0-2.13","sokpp702rx","many_one","0","indirect_first","0","ig04er23","0","25","1","1","3","1","","0","1","0","null","","","<img src = 'targets/4.png' width = '100%;'>","null","","","","","","","","","",""
"","html-keyboard-response","242","2801531","0.0-10.0-3.13","sokpp702rx","many_one","0","indirect_first","0","ig04er23","0","25","1","1","3","1","","0","1","0","615.019999910146","","","<img src = 'targets/mask.png' width = '100%;'>","75","pos","GS","GSold","4","category4/CS9.png","targets/4.png","1","indirect","37",""
"","html-keyboard-response","243","2803050","0.0-10.0-0.14","sokpp702rx","many_one","0","indirect_first","0","ig04er23","0","25","1","1","3","1","","0","1","0","null","","","<div style=""font-size:60px;"">+</div>","null","","","","","","","","","",""
"","html-keyboard-response","244","2803150","0.0-10.0-1.14","sokpp702rx","many_one","0","indirect_first","0","ig04er23","0","25","1","1","3","1","","0","1","0","null","","","<img src = 'category4/lin.png' width = '100%;'>","null","","","","","","","","","",""
"","html-keyboard-response","245","2803414","0.0-10.0-2.14","sokpp702rx","many_one","0","indirect_first","0","ig04er23","0","25","1","1","3","1","","0","1","0","null","","","<img src = 'targets/44.png' width = '100%;'>","null","","","","","","","","","",""
"","html-keyboard-response","246","2804644","0.0-10.0-3.14","sokpp702rx","many_one","0","indirect_first","0","ig04er23","0","25","1","1","3","1","","0","1","0","1228.910000063479","","","<img src = 'targets/mask.png' width = '100%;'>","75","pos","GS","abstract","4","category4/lin.png","targets/44.png","1","indirect","38",""
"","html-keyboard-response","247","2806155","0.0-10.0-0.15","sokpp702rx","many_one","0","indirect_first","0","ig04er23","0","25","1","1","3","1","","0","1","0","null","","","<div style=""font-size:60px;"">+</div>","null","","","","","","","","","",""
"","html-keyboard-response","248","2806253","0.0-10.0-1.15","sokpp702rx","many_one","0","indirect_first","0","ig04er23","0","25","1","1","3","1","","0","1","0","null","","","<img src = 'category2/CS10.png' width = '100%;'>","null","","","","","","","","","",""
"","html-keyboard-response","249","2806520","0.0-10.0-2.15","sokpp702rx","many_one","0","indirect_first","0","ig04er23","0","25","1","1","3","1","","0","1","0","null","","","<img src = 'targets/20.png' width = '100%;'>","null","","","","","","","","","",""
"","html-keyboard-response","250","2807708","0.0-10.0-3.15","sokpp702rx","many_one","0","indirect_first","0","ig04er23","0","25","1","1","3","1","","0","1","0","1186.720000114292","","","<img src = 'targets/mask.png' width = '100%;'>","68","neg","GS","GSold","2","category2/CS10.png","targets/20.png","0","indirect","39",""
"","html-keyboard-response","251","2809216","0.0-10.0-0.16","sokpp702rx","many_one","0","indirect_first","0","ig04er23","0","25","1","1","3","1","","0","1","0","null","","","<div style=""font-size:60px;"">+</div>","null","","","","","","","","","",""
"","html-keyboard-response","252","2809314","0.0-10.0-1.16","sokpp702rx","many_one","0","indirect_first","0","ig04er23","0","25","1","1","3","1","","0","1","0","null","","","<img src = 'category4/GS1.png' width = '100%;'>","null","","","","","","","","","",""
"","html-keyboard-response","253","2809571","0.0-10.0-2.16","sokpp702rx","many_one","0","indirect_first","0","ig04er23","0","25","1","1","3","1","","0","1","0","null","","","<img src = 'targets/6.png' width = '100%;'>","null","","","","","","","","","",""
"","html-keyboard-response","254","2810994","0.0-10.0-3.16","sokpp702rx","many_one","0","indirect_first","0","ig04er23","0","25","1","1","3","1","","0","1","0","1420.2149999327958","","","<img src = 'targets/mask.png' width = '100%;'>","75","pos","GS","GSnew","4","category4/GS1.png","targets/6.png","1","indirect","40",""
"","html-keyboard-response","255","2812505","0.0-10.0-0.17","sokpp702rx","many_one","0","indirect_first","0","ig04er23","0","25","1","1","3","1","","0","1","0","null","","","<div style=""font-size:60px;"">+</div>","null","","","","","","","","","",""
"","html-keyboard-response","256","2812599","0.0-10.0-1.17","sokpp702rx","many_one","0","indirect_first","0","ig04er23","0","25","1","1","3","1","","0","1","0","null","","","<img src = 'category1/GS1.png' width = '100%;'>","null","","","","","","","","","",""
"","html-keyboard-response","257","2812865","0.0-10.0-2.17","sokpp702rx","many_one","0","indirect_first","0","ig04er23","0","25","1","1","3","1","","0","1","0","null","","","<img src = 'targets/13.png' width = '100%;'>","null","","","","","","","","","",""
"","html-keyboard-response","258","2814115","0.0-10.0-3.17","sokpp702rx","many_one","0","indirect_first","0","ig04er23","0","25","1","1","3","1","","0","1","0","1247.2450002096593","","","<img src = 'targets/mask.png' width = '100%;'>","68","neg","GS","GSnew","1","category1/GS1.png","targets/13.png","0","indirect","41",""
"","html-keyboard-response","259","2815620","0.0-10.0-0.18","sokpp702rx","many_one","0","indirect_first","0","ig04er23","0","25","1","1","3","1","","0","1","0","null","","","<div style=""font-size:60px;"">+</div>","null","","","","","","","","","",""
"","html-keyboard-response","260","2815712","0.0-10.0-1.18","sokpp702rx","many_one","0","indirect_first","0","ig04er23","0","25","1","1","3","1","","0","1","0","null","","","<img src = 'category3/wang.png' width = '100%;'>","null","","","","","","","","","",""
"","html-keyboard-response","261","2815971","0.0-10.0-2.18","sokpp702rx","many_one","0","indirect_first","0","ig04er23","0","25","1","1","3","1","","0","1","0","null","","","<img src = 'targets/1.png' width = '100%;'>","null","","","","","","","","","",""
"","html-keyboard-response","262","2816933","0.0-10.0-3.18","sokpp702rx","many_one","0","indirect_first","0","ig04er23","0","25","1","1","3","1","","0","1","0","959.9699999671429","","","<img src = 'targets/mask.png' width = '100%;'>","68","pos","GS","abstract","3","category3/wang.png","targets/1.png","0","indirect","42",""
"","html-keyboard-response","263","2818445","0.0-10.0-0.19","sokpp702rx","many_one","0","indirect_first","0","ig04er23","0","25","1","1","3","1","","0","1","0","null","","","<div style=""font-size:60px;"">+</div>","null","","","","","","","","","",""
"","html-keyboard-response","264","2818540","0.0-10.0-1.19","sokpp702rx","many_one","0","indirect_first","0","ig04er23","0","25","1","1","3","1","","0","1","0","null","","","<img src = 'category2/GS1.png' width = '100%;'>","null","","","","","","","","","",""
"","html-keyboard-response","265","2818806","0.0-10.0-2.19","sokpp702rx","many_one","0","indirect_first","0","ig04er23","0","25","1","1","3","1","","0","1","0","null","","","<img src = 'targets/35.png' width = '100%;'>","null","","","","","","","","","",""
"","html-keyboard-response","266","2820073","0.0-10.0-3.19","sokpp702rx","many_one","0","indirect_first","0","ig04er23","0","25","1","1","3","1","","0","1","0","1264.3299999181181","","","<img src = 'targets/mask.png' width = '100%;'>","75","neg","GS","GSnew","2","category2/GS1.png","targets/35.png","1","indirect","43",""
"","html-keyboard-response","267","2821582","0.0-10.0-0.20","sokpp702rx","many_one","0","indirect_first","0","ig04er23","0","25","1","1","3","1","","0","1","0","null","","","<div style=""font-size:60px;"">+</div>","null","","","","","","","","","",""
"","html-keyboard-response","268","2821678","0.0-10.0-1.20","sokpp702rx","many_one","0","indirect_first","0","ig04er23","0","25","1","1","3","1","","0","1","0","null","","","<img src = 'category3/GS1.png' width = '100%;'>","null","","","","","","","","","",""
"","html-keyboard-response","269","2821944","0.0-10.0-2.20","sokpp702rx","many_one","0","indirect_first","0","ig04er23","0","25","1","1","3","1","","0","1","0","null","","","<img src = 'targets/47.png' width = '100%;'>","null","","","","","","","","","",""
"","html-keyboard-response","270","2822694","0.0-10.0-3.20","sokpp702rx","many_one","0","indirect_first","0","ig04er23","0","25","1","1","3","1","","0","1","0","748.5449998639524","","","<img src = 'targets/mask.png' width = '100%;'>","75","pos","GS","GSnew","3","category3/GS1.png","targets/47.png","1","indirect","44",""
"","html-keyboard-response","271","2824207","0.0-10.0-0.21","sokpp702rx","many_one","0","indirect_first","0","ig04er23","0","25","1","1","3","1","","0","1","0","null","","","<div style=""font-size:60px;"">+</div>","null","","","","","","","","","",""
"","html-keyboard-response","272","2824306","0.0-10.0-1.21","sokpp702rx","many_one","0","indirect_first","0","ig04er23","0","25","1","1","3","1","","0","1","0","null","","","<img src = 'category4/GS3.png' width = '100%;'>","null","","","","","","","","","",""
"","html-keyboard-response","273","2824569","0.0-10.0-2.21","sokpp702rx","many_one","0","indirect_first","0","ig04er23","0","25","1","1","3","1","","0","1","0","null","","","<img src = 'targets/42.png' width = '100%;'>","null","","","","","","","","","",""
"","html-keyboard-response","274","2826746","0.0-10.0-3.21","sokpp702rx","many_one","0","indirect_first","0","ig04er23","0","25","1","1","3","1","","0","1","0","2175.434999866411","","","<img src = 'targets/mask.png' width = '100%;'>","68","pos","GS","GSnew","4","category4/GS3.png","targets/42.png","0","indirect","45",""
"","html-keyboard-response","275","2828256","0.0-10.0-0.22","sokpp702rx","many_one","0","indirect_first","0","ig04er23","0","25","1","1","3","1","","0","1","0","null","","","<div style=""font-size:60px;"">+</div>","null","","","","","","","","","",""
"","html-keyboard-response","276","2828356","0.0-10.0-1.22","sokpp702rx","many_one","0","indirect_first","0","ig04er23","0","25","1","1","3","1","","0","1","0","null","","","<img src = 'category4/CS8.png' width = '100%;'>","null","","","","","","","","","",""
"","html-keyboard-response","277","2828620","0.0-10.0-2.22","sokpp702rx","many_one","0","indirect_first","0","ig04er23","0","25","1","1","3","1","","0","1","0","null","","","<img src = 'targets/9.png' width = '100%;'>","null","","","","","","","","","",""
"","html-keyboard-response","278","2830179","0.0-10.0-3.22","sokpp702rx","many_one","0","indirect_first","0","ig04er23","0","25","1","1","3","1","","0","1","0","1556.3449999317527","","","<img src = 'targets/mask.png' width = '100%;'>","68","pos","GS","GSold","4","category4/CS8.png","targets/9.png","0","indirect","46",""
"","html-keyboard-response","279","2831697","0.0-10.0-0.23","sokpp702rx","many_one","0","indirect_first","0","ig04er23","0","25","1","1","3","1","","0","1","0","null","","","<div style=""font-size:60px;"">+</div>","null","","","","","","","","","",""
"","html-keyboard-response","280","2831789","0.0-10.0-1.23","sokpp702rx","many_one","0","indirect_first","0","ig04er23","0","25","1","1","3","1","","0","1","0","null","","","<img src = 'category2/men.png' width = '100%;'>","null","","","","","","","","","",""
"","html-keyboard-response","281","2832049","0.0-10.0-2.23","sokpp702rx","many_one","0","indirect_first","0","ig04er23","0","25","1","1","3","1","","0","1","0","null","","","<img src = 'targets/37.png' width = '100%;'>","null","","","","","","","","","",""
"","html-keyboard-response","282","2832939","0.0-10.0-3.23","sokpp702rx","many_one","0","indirect_first","0","ig04er23","0","25","1","1","3","1","","0","1","0","887.6199999358505","","","<img src = 'targets/mask.png' width = '100%;'>","68","neg","GS","abstract","2","category2/men.png","targets/37.png","0","indirect","47",""
"","survey-html-form","283","2849103","0.0-11.0","sokpp702rx","many_one","0","indirect_first","0","ig04er23","0","25","1","1","3","1","","0","1","0","15655.560000101104","","{}","","","","","","","","","","","",""
"","image-slider-response","284","2858041","0.0-12.0-0.0","sokpp702rx","many_one","0","indirect_first","0","ig04er23","0","25","1","1","3","1","","0","1","0","6932.749999919906","","","","","pos","CS","CS","3","category3/CS8.png","targets/11.png","","direct","","54"
"","image-slider-response","285","2861096","0.0-12.0-0.1","sokpp702rx","many_one","0","indirect_first","0","ig04er23","0","25","1","1","3","1","","0","1","0","3050.8699999190867","","","","","pos","CS","CS","4","category4/CS10.png","targets/33.png","","direct","","53"
"","image-slider-response","286","2865435","0.0-12.0-0.2","sokpp702rx","many_one","0","indirect_first","0","ig04er23","0","25","1","1","3","1","","0","1","0","4337.524999864399","","","","","neg","GS","GSnew","2","category2/GS2.png","targets/46.png","","direct","","-48"
"","image-slider-response","287","2868040","0.0-12.0-0.3","sokpp702rx","many_one","0","indirect_first","0","ig04er23","0","25","1","1","3","1","","0","1","0","2600.7550000213087","","","","","neg","GS","GSnew","2","category2/GS1.png","targets/35.png","","direct","","-38"
"","image-slider-response","288","2872168","0.0-12.0-0.4","sokpp702rx","many_one","0","indirect_first","0","ig04er23","0","25","1","1","3","1","","0","1","0","4125.375000061467","","","","","neg","CS","CS","2","category2/CS2.png","targets/36.png","","direct","","-24"
"","image-slider-response","289","2876256","0.0-12.0-0.5","sokpp702rx","many_one","0","indirect_first","0","ig04er23","0","25","1","1","3","1","","0","1","0","4083.8800000492483","","","","","pos","GS","abstract","4","category4/lin.png","targets/44.png","","direct","","-38"
"","image-slider-response","290","2879151","0.0-12.0-0.6","sokpp702rx","many_one","0","indirect_first","0","ig04er23","0","25","1","1","3","1","","0","1","0","2890.374999959022","","","","","neg","GS","GSnew","1","category1/GS1.png","targets/13.png","","direct","","-21"
"","image-slider-response","291","2883063","0.0-12.0-0.7","sokpp702rx","many_one","0","indirect_first","0","ig04er23","0","25","1","1","3","1","","0","1","0","3909.6799998078495","","","","","neg","GS","abstract","1","category1/ma.png","targets/29.png","","direct","","10"
"","image-slider-response","292","2886499","0.0-12.0-0.8","sokpp702rx","many_one","0","indirect_first","0","ig04er23","0","25","1","1","3","1","","0","1","0","3431.6400000825524","","","","","neg","GS","GSnew","1","category1/GS3.png","targets/24.png","","direct","","12"
"","image-slider-response","293","2891290","0.0-12.0-0.9","sokpp702rx","many_one","0","indirect_first","0","ig04er23","0","25","1","1","3","1","","0","1","0","4786.904999986291","","","","","pos","GS","GSold","4","category4/CS9.png","targets/4.png","","direct","","30"
"","image-slider-response","294","2896549","0.0-12.0-0.10","sokpp702rx","many_one","0","indirect_first","0","ig04er23","0","25","1","1","3","1","","0","1","0","5255.400000140071","","","","","pos","CS","CS","3","category3/CS10.png","targets/40.png","","direct","","19"
"","image-slider-response","295","2900219","0.0-12.0-0.11","sokpp702rx","many_one","0","indirect_first","0","ig04er23","0","25","1","1","3","1","","0","1","0","3666.0050000064075","","","","","pos","CS","CS","3","category3/CS2.png","targets/2.png","","direct","","24"
"","image-slider-response","296","2903973","0.0-12.0-0.12","sokpp702rx","many_one","0","indirect_first","0","ig04er23","0","25","1","1","3","1","","0","1","0","3750.8450001478195","","","","","pos","GS","GSnew","4","category4/GS3.png","targets/42.png","","direct","","22"
"","image-slider-response","297","2907052","0.0-12.0-0.13","sokpp702rx","many_one","0","indirect_first","0","ig04er23","0","25","1","1","3","1","","0","1","0","3075.1499999314547","","","","","neg","CS","CS","1","category1/CS8.png","targets/26.png","","direct","","-36"
"","image-slider-response","298","2911400","0.0-12.0-0.14","sokpp702rx","many_one","0","indirect_first","0","ig04er23","0","25","1","1","3","1","","0","1","0","4343.915000092238","","","","","neg","CS","CS","2","category2/CS4.png","targets/12.png","","direct","","6"
"","image-slider-response","299","2915775","0.0-12.0-0.15","sokpp702rx","many_one","0","indirect_first","0","ig04er23","0","25","1","1","3","1","","0","1","0","4371.565000154078","","","","","pos","GS","GSold","3","category3/CS3.png","targets/25.png","","direct","","39"
"","image-slider-response","300","2918232","0.0-12.0-0.16","sokpp702rx","many_one","0","indirect_first","0","ig04er23","0","25","1","1","3","1","","0","1","0","2452.8349998872727","","","","","pos","CS","CS","4","category4/CS1.png","targets/7.png","","direct","","35"
"","image-slider-response","301","2922950","0.0-12.0-0.17","sokpp702rx","many_one","0","indirect_first","0","ig04er23","0","25","1","1","3","1","","0","1","0","4715.464999899268","","","","","pos","GS","abstract","3","category3/wang.png","targets/1.png","","direct","","5"
"","image-slider-response","302","2926198","0.0-12.0-0.18","sokpp702rx","many_one","0","indirect_first","0","ig04er23","0","25","1","1","3","1","","0","1","0","3244.070000015199","","","","","neg","GS","GSold","2","category2/CS10.png","targets/20.png","","direct","","36"
"","image-slider-response","303","2929110","0.0-12.0-0.19","sokpp702rx","many_one","0","indirect_first","0","ig04er23","0","25","1","1","3","1","","0","1","0","2908.714999910444","","","","","pos","GS","GSnew","4","category4/GS1.png","targets/6.png","","direct","","18"
"","image-slider-response","304","2931761","0.0-12.0-0.20","sokpp702rx","many_one","0","indirect_first","0","ig04er23","0","25","1","1","3","1","","0","1","0","2648.75499997288","","","","","neg","GS","GSold","1","category1/CS1.png","targets/17.png","","direct","","-53"
"","image-slider-response","305","2934568","0.0-12.0-0.21","sokpp702rx","many_one","0","indirect_first","0","ig04er23","0","25","1","1","3","1","","0","1","0","2803.0900000594556","","","","","neg","GS","GSnew","2","category2/GS3.png","targets/48.png","","direct","","-49"
"","image-slider-response","306","2938847","0.0-12.0-0.22","sokpp702rx","many_one","0","indirect_first","0","ig04er23","0","25","1","1","3","1","","0","1","0","4276.504999957979","","","","","neg","CS","CS","1","category1/CS10.png","targets/41.png","","direct","","-18"
"","image-slider-response","307","2943918","0.0-12.0-0.23","sokpp702rx","many_one","0","indirect_first","0","ig04er23","0","25","1","1","3","1","","0","1","0","5067.839999916032","","","","","pos","GS","GSnew","3","category3/GS2.png","targets/5.png","","direct","","19"
"","image-slider-response","308","2948970","0.0-12.0-0.24","sokpp702rx","many_one","0","indirect_first","0","ig04er23","0","25","1","1","3","1","","0","1","0","5047.904999926686","","","","","neg","GS","GSold","1","category1/CS2.png","targets/30.png","","direct","","-49"
"","image-slider-response","309","2952097","0.0-12.0-0.25","sokpp702rx","many_one","0","indirect_first","0","ig04er23","0","25","1","1","3","1","","0","1","0","3123.589999973774","","","","","neg","GS","abstract","2","category2/men.png","targets/37.png","","direct","","-26"
"","image-slider-response","310","2956230","0.0-12.0-0.26","sokpp702rx","many_one","0","indirect_first","0","ig04er23","0","25","1","1","3","1","","0","1","0","4129.4599999673665","","","","","neg","CS","CS","1","category1/CS3.png","targets/27.png","","direct","","12"
"","image-slider-response","311","2959630","0.0-12.0-0.27","sokpp702rx","many_one","0","indirect_first","0","ig04er23","0","25","1","1","3","1","","0","1","0","3396.4750000741333","","","","","pos","GS","GSold","3","category3/CS5.png","targets/15.png","","direct","","33"
"","image-slider-response","312","2962716","0.0-12.0-0.28","sokpp702rx","many_one","0","indirect_first","0","ig04er23","0","25","1","1","3","1","","0","1","0","3083.145000040531","","","","","neg","CS","CS","2","category2/CS1.png","targets/45.png","","direct","","37"
"","image-slider-response","313","2965588","0.0-12.0-0.29","sokpp702rx","many_one","0","indirect_first","0","ig04er23","0","25","1","1","3","1","","0","1","0","2869.1150001250207","","","","","neg","GS","GSold","2","category2/CS9.png","targets/38.png","","direct","","37"
"","image-slider-response","314","2968200","0.0-12.0-0.30","sokpp702rx","many_one","0","indirect_first","0","ig04er23","0","25","1","1","3","1","","0","1","0","2608.494999818504","","","","","neg","CS","CS","1","category1/CS5.png","targets/21.png","","direct","","-4"
"","image-slider-response","315","2971916","0.0-12.0-0.31","sokpp702rx","many_one","0","indirect_first","0","ig04er23","0","25","1","1","3","1","","0","1","0","3713.840000098571","","","","","pos","GS","GSold","4","category4/CS8.png","targets/9.png","","direct","","9"
"","image-slider-response","316","2975167","0.0-12.0-0.32","sokpp702rx","many_one","0","indirect_first","0","ig04er23","0","25","1","1","3","1","","0","1","0","3247.505000093952","","","","","neg","GS","GSold","1","category1/CS6.png","targets/43.png","","direct","","5"
"","image-slider-response","317","2977839","0.0-12.0-0.33","sokpp702rx","many_one","0","indirect_first","0","ig04er23","0","25","1","1","3","1","","0","1","0","2668.8750002067536","","","","","neg","GS","GSold","2","category2/CS8.png","targets/22.png","","direct","","-17"
"","image-slider-response","318","2981039","0.0-12.0-0.34","sokpp702rx","many_one","0","indirect_first","0","ig04er23","0","25","1","1","3","1","","0","1","0","3196.510000154376","","","","","pos","GS","GSnew","4","category4/GS2.png","targets/16.png","","direct","","17"
"","image-slider-response","319","2985883","0.0-12.0-0.35","sokpp702rx","many_one","0","indirect_first","0","ig04er23","0","25","1","1","3","1","","0","1","0","4842.010000022128","","","","","pos","CS","CS","3","category3/CS9.png","targets/23.png","","direct","","39"
"","image-slider-response","320","2989138","0.0-12.0-0.36","sokpp702rx","many_one","0","indirect_first","0","ig04er23","0","25","1","1","3","1","","0","1","0","3250.559999840334","","","","","pos","CS","CS","4","category4/CS5.png","targets/18.png","","direct","","3"
"","image-slider-response","321","2992029","0.0-12.0-0.37","sokpp702rx","many_one","0","indirect_first","0","ig04er23","0","25","1","1","3","1","","0","1","0","2888.329999987036","","","","","pos","CS","CS","3","category3/CS7.png","targets/14.png","","direct","","-13"
"","image-slider-response","322","2994978","0.0-12.0-0.38","sokpp702rx","many_one","0","indirect_first","0","ig04er23","0","25","1","1","3","1","","0","1","0","2946.144999936223","","","","","pos","GS","GSnew","3","category3/GS3.png","targets/28.png","","direct","","21"
"","image-slider-response","323","2998490","0.0-12.0-0.39","sokpp702rx","many_one","0","indirect_first","0","ig04er23","0","25","1","1","3","1","","0","1","0","3509.5649999566376","","","","","neg","GS","GSnew","1","category1/GS2.png","targets/32.png","","direct","","27"
