"success","trial_type","trial_index","time_elapsed","internal_node_id","subject","condition","condition_code","measure","measure_code","codeword","gender","age","education","chinese","fach","handedness","comment","hinschauen","ablenkung","gewissenhaft","rt","url","responses","stimulus","key_press","val","type","type_specific","category","cs_selected","response","target","task","indirect","nr_pres"
"true","fullscreen","0","4045","0.0-0.0","vhqac8chyp","many_one","0","direct_first","1","en07an17","0","22","1","1","3","2","","0","1","0","","","","","","","","","","","","","","",""
"","external-html","1","46258","0.0-1.0","vhqac8chyp","many_one","0","direct_first","1","en07an17","0","22","1","1","3","2","","0","1","0","42154","text/information.html","","","","","","","","","","","","",""
"","external-html","2","57795","0.0-2.0","vhqac8chyp","many_one","0","direct_first","1","en07an17","0","22","1","1","3","2","","0","1","0","11410","text/consent.html","","","","","","","","","","","","",""
"","survey-html-form","3","97080","0.0-3.0","vhqac8chyp","many_one","0","direct_first","1","en07an17","0","22","1","1","3","2","","0","1","0","39274","","{""codeword_enter"":""en07an17""}","","","","","","","","","","","",""
"","survey-html-form","4","118540","0.0-4.0","vhqac8chyp","many_one","0","direct_first","1","en07an17","0","22","1","1","3","2","","0","1","0","21447","","{""age"":""22"",""education"":""1"",""subject"":""3"",""gender"":""0"",""handedness"":""2"",""chinese"":""1""}","","","","","","","","","","","",""
"","survey-html-form","5","123315","0.0-5.0","vhqac8chyp","many_one","0","direct_first","1","en07an17","0","22","1","1","3","2","","0","1","0","4767","","{}","","","","","","","","","","","",""
"","html-keyboard-response","6","127347","0.0-6.0-0.0-0.0","vhqac8chyp","many_one","0","direct_first","1","en07an17","0","22","1","1","3","2","","0","1","0","null","","","<div class = 'row'><div class = 'column'><img src = 'uspos/1340.bmp' width = '100%;'></div><div class = 'column'><img src = 'category4/CS10.png' width = '70%;'></div></div>","null","pos","CS","CS","4","category4/CS10.png","","","","",""
"","html-keyboard-response","7","129886","0.0-6.0-0.0-0.1","vhqac8chyp","many_one","0","direct_first","1","en07an17","0","22","1","1","3","2","","0","1","0","null","","","<div class = 'row'><div class = 'column'><img src = 'category2/CS3.png' width = '70%;'></div><div class = 'column'><img src = 'usneg/9560.bmp' width = '100%;'></div></div>","null","neg","CS","CS","2","category2/CS3.png","","","","",""
"","html-keyboard-response","8","132427","0.0-6.0-0.0-0.2","vhqac8chyp","many_one","0","direct_first","1","en07an17","0","22","1","1","3","2","","0","1","0","null","","","<div class = 'row'><div class = 'column'><img src = 'uspos/4625.bmp' width = '100%;'></div><div class = 'column'><img src = 'category3/CS9.png' width = '70%;'></div></div>","null","pos","CS","CS","3","category3/CS9.png","","","","",""
"","html-keyboard-response","9","134954","0.0-6.0-0.0-0.3","vhqac8chyp","many_one","0","direct_first","1","en07an17","0","22","1","1","3","2","","0","1","0","null","","","<div class = 'row'><div class = 'column'><img src = 'uspos/2530.bmp' width = '100%;'></div><div class = 'column'><img src = 'category3/CS4.png' width = '70%;'></div></div>","null","pos","CS","CS","3","category3/CS4.png","","","","",""
"","html-keyboard-response","10","137477","0.0-6.0-0.0-0.4","vhqac8chyp","many_one","0","direct_first","1","en07an17","0","22","1","1","3","2","","0","1","0","null","","","<div class = 'row'><div class = 'column'><img src = 'usneg/9180.bmp' width = '100%;'></div><div class = 'column'><img src = 'category2/CS1.png' width = '70%;'></div></div>","null","neg","CS","CS","2","category2/CS1.png","","","","",""
"","html-keyboard-response","11","140017","0.0-6.0-0.0-0.5","vhqac8chyp","many_one","0","direct_first","1","en07an17","0","22","1","1","3","2","","0","1","0","null","","","<div class = 'row'><div class = 'column'><img src = 'uspos/2160.bmp' width = '100%;'></div><div class = 'column'><img src = 'category4/CS6.png' width = '70%;'></div></div>","null","pos","CS","CS","4","category4/CS6.png","","","","",""
"","html-keyboard-response","12","142546","0.0-6.0-0.0-0.6","vhqac8chyp","many_one","0","direct_first","1","en07an17","0","22","1","1","3","2","","0","1","0","null","","","<div class = 'row'><div class = 'column'><img src = 'usneg/9584.bmp' width = '100%;'></div><div class = 'column'><img src = 'category1/CS10.png' width = '70%;'></div></div>","null","neg","CS","CS","1","category1/CS10.png","","","","",""
"","html-keyboard-response","13","145086","0.0-6.0-0.0-0.7","vhqac8chyp","many_one","0","direct_first","1","en07an17","0","22","1","1","3","2","","0","1","0","null","","","<div class = 'row'><div class = 'column'><img src = 'category1/CS9.png' width = '70%;'></div><div class = 'column'><img src = 'usneg/9342.bmp' width = '100%;'></div></div>","null","neg","CS","CS","1","category1/CS9.png","","","","",""
"","html-keyboard-response","14","147617","0.0-6.0-0.0-0.8","vhqac8chyp","many_one","0","direct_first","1","en07an17","0","22","1","1","3","2","","0","1","0","null","","","<div class = 'row'><div class = 'column'><img src = 'usneg/6020.bmp' width = '100%;'></div><div class = 'column'><img src = 'category1/CS4.png' width = '70%;'></div></div>","null","neg","CS","CS","1","category1/CS4.png","","","","",""
"","html-keyboard-response","15","150156","0.0-6.0-0.0-0.9","vhqac8chyp","many_one","0","direct_first","1","en07an17","0","22","1","1","3","2","","0","1","0","null","","","<div class = 'row'><div class = 'column'><img src = 'category3/CS7.png' width = '70%;'></div><div class = 'column'><img src = 'uspos/2550.bmp' width = '100%;'></div></div>","null","pos","CS","CS","3","category3/CS7.png","","","","",""
"","html-keyboard-response","16","152697","0.0-6.0-0.0-0.10","vhqac8chyp","many_one","0","direct_first","1","en07an17","0","22","1","1","3","2","","0","1","0","null","","","<div class = 'row'><div class = 'column'><img src = 'category3/CS6.png' width = '70%;'></div><div class = 'column'><img src = 'uspos/2341.bmp' width = '100%;'></div></div>","null","pos","CS","CS","3","category3/CS6.png","","","","",""
"","html-keyboard-response","17","155225","0.0-6.0-0.0-0.11","vhqac8chyp","many_one","0","direct_first","1","en07an17","0","22","1","1","3","2","","0","1","0","null","","","<div class = 'row'><div class = 'column'><img src = 'category4/CS9.png' width = '70%;'></div><div class = 'column'><img src = 'uspos/2900.2.bmp' width = '100%;'></div></div>","null","pos","CS","CS","4","category4/CS9.png","","","","",""
"","html-keyboard-response","18","157755","0.0-6.0-0.0-0.12","vhqac8chyp","many_one","0","direct_first","1","en07an17","0","22","1","1","3","2","","0","1","0","null","","","<div class = 'row'><div class = 'column'><img src = 'usneg/9220.bmp' width = '100%;'></div><div class = 'column'><img src = 'category1/CS3.png' width = '70%;'></div></div>","null","neg","CS","CS","1","category1/CS3.png","","","","",""
"","html-keyboard-response","19","160279","0.0-6.0-0.0-0.13","vhqac8chyp","many_one","0","direct_first","1","en07an17","0","22","1","1","3","2","","0","1","0","null","","","<div class = 'row'><div class = 'column'><img src = 'category4/CS7.png' width = '70%;'></div><div class = 'column'><img src = 'uspos/1710.bmp' width = '100%;'></div></div>","null","pos","CS","CS","4","category4/CS7.png","","","","",""
"","html-keyboard-response","20","162816","0.0-6.0-0.0-0.14","vhqac8chyp","many_one","0","direct_first","1","en07an17","0","22","1","1","3","2","","0","1","0","null","","","<div class = 'row'><div class = 'column'><img src = 'usneg/7380.bmp' width = '100%;'></div><div class = 'column'><img src = 'category1/CS5.png' width = '70%;'></div></div>","null","neg","CS","CS","1","category1/CS5.png","","","","",""
"","html-keyboard-response","21","165355","0.0-6.0-0.0-0.15","vhqac8chyp","many_one","0","direct_first","1","en07an17","0","22","1","1","3","2","","0","1","0","null","","","<div class = 'row'><div class = 'column'><img src = 'category2/CS4.png' width = '70%;'></div><div class = 'column'><img src = 'usneg/9830.bmp' width = '100%;'></div></div>","null","neg","CS","CS","2","category2/CS4.png","","","","",""
"","html-keyboard-response","22","167886","0.0-6.0-0.0-0.16","vhqac8chyp","many_one","0","direct_first","1","en07an17","0","22","1","1","3","2","","0","1","0","null","","","<div class = 'row'><div class = 'column'><img src = 'usneg/9181.bmp' width = '100%;'></div><div class = 'column'><img src = 'category2/CS2.png' width = '70%;'></div></div>","null","neg","CS","CS","2","category2/CS2.png","","","","",""
"","html-keyboard-response","23","170426","0.0-6.0-0.0-0.17","vhqac8chyp","many_one","0","direct_first","1","en07an17","0","22","1","1","3","2","","0","1","0","null","","","<div class = 'row'><div class = 'column'><img src = 'uspos/5600.bmp' width = '100%;'></div><div class = 'column'><img src = 'category4/CS4.png' width = '70%;'></div></div>","null","pos","CS","CS","4","category4/CS4.png","","","","",""
"","html-keyboard-response","24","172956","0.0-6.0-0.0-0.18","vhqac8chyp","many_one","0","direct_first","1","en07an17","0","22","1","1","3","2","","0","1","0","null","","","<div class = 'row'><div class = 'column'><img src = 'category2/CS7.png' width = '70%;'></div><div class = 'column'><img src = 'usneg/6212.bmp' width = '100%;'></div></div>","null","neg","CS","CS","2","category2/CS7.png","","","","",""
"","html-keyboard-response","25","175497","0.0-6.0-0.0-0.19","vhqac8chyp","many_one","0","direct_first","1","en07an17","0","22","1","1","3","2","","0","1","0","null","","","<div class = 'row'><div class = 'column'><img src = 'category3/CS8.png' width = '70%;'></div><div class = 'column'><img src = 'uspos/2208.bmp' width = '100%;'></div></div>","null","pos","CS","CS","3","category3/CS8.png","","","","",""
"","survey-html-form","26","178977","0.0-6.0-1.0","vhqac8chyp","many_one","0","direct_first","1","en07an17","0","22","1","1","3","2","","0","1","0","2961","","{}","","","","","","","","","","","",""
"","html-keyboard-response","27","183005","0.0-6.0-2.0-0.0","vhqac8chyp","many_one","0","direct_first","1","en07an17","0","22","1","1","3","2","","0","1","0","null","","","<div class = 'row'><div class = 'column'><img src = 'category2/CS4.png' width = '70%;'></div><div class = 'column'><img src = 'usneg/9830.bmp' width = '100%;'></div></div>","null","neg","CS","CS","2","category2/CS4.png","","","","",""
"","html-keyboard-response","28","185544","0.0-6.0-2.0-0.1","vhqac8chyp","many_one","0","direct_first","1","en07an17","0","22","1","1","3","2","","0","1","0","null","","","<div class = 'row'><div class = 'column'><img src = 'uspos/2208.bmp' width = '100%;'></div><div class = 'column'><img src = 'category3/CS8.png' width = '70%;'></div></div>","null","pos","CS","CS","3","category3/CS8.png","","","","",""
"","html-keyboard-response","29","188085","0.0-6.0-2.0-0.2","vhqac8chyp","many_one","0","direct_first","1","en07an17","0","22","1","1","3","2","","0","1","0","null","","","<div class = 'row'><div class = 'column'><img src = 'uspos/2341.bmp' width = '100%;'></div><div class = 'column'><img src = 'category3/CS6.png' width = '70%;'></div></div>","null","pos","CS","CS","3","category3/CS6.png","","","","",""
"","html-keyboard-response","30","190624","0.0-6.0-2.0-0.3","vhqac8chyp","many_one","0","direct_first","1","en07an17","0","22","1","1","3","2","","0","1","0","null","","","<div class = 'row'><div class = 'column'><img src = 'category4/CS4.png' width = '70%;'></div><div class = 'column'><img src = 'uspos/5600.bmp' width = '100%;'></div></div>","null","pos","CS","CS","4","category4/CS4.png","","","","",""
"","html-keyboard-response","31","193166","0.0-6.0-2.0-0.4","vhqac8chyp","many_one","0","direct_first","1","en07an17","0","22","1","1","3","2","","0","1","0","null","","","<div class = 'row'><div class = 'column'><img src = 'category1/CS3.png' width = '70%;'></div><div class = 'column'><img src = 'usneg/9220.bmp' width = '100%;'></div></div>","null","neg","CS","CS","1","category1/CS3.png","","","","",""
"","html-keyboard-response","32","195701","0.0-6.0-2.0-0.5","vhqac8chyp","many_one","0","direct_first","1","en07an17","0","22","1","1","3","2","","0","1","0","null","","","<div class = 'row'><div class = 'column'><img src = 'category1/CS10.png' width = '70%;'></div><div class = 'column'><img src = 'usneg/9584.bmp' width = '100%;'></div></div>","null","neg","CS","CS","1","category1/CS10.png","","","","",""
"","html-keyboard-response","33","198245","0.0-6.0-2.0-0.6","vhqac8chyp","many_one","0","direct_first","1","en07an17","0","22","1","1","3","2","","0","1","0","null","","","<div class = 'row'><div class = 'column'><img src = 'category1/CS9.png' width = '70%;'></div><div class = 'column'><img src = 'usneg/9342.bmp' width = '100%;'></div></div>","null","neg","CS","CS","1","category1/CS9.png","","","","",""
"","html-keyboard-response","34","200785","0.0-6.0-2.0-0.7","vhqac8chyp","many_one","0","direct_first","1","en07an17","0","22","1","1","3","2","","0","1","0","null","","","<div class = 'row'><div class = 'column'><img src = 'uspos/1710.bmp' width = '100%;'></div><div class = 'column'><img src = 'category4/CS7.png' width = '70%;'></div></div>","null","pos","CS","CS","4","category4/CS7.png","","","","",""
"","html-keyboard-response","35","203325","0.0-6.0-2.0-0.8","vhqac8chyp","many_one","0","direct_first","1","en07an17","0","22","1","1","3","2","","0","1","0","null","","","<div class = 'row'><div class = 'column'><img src = 'category4/CS9.png' width = '70%;'></div><div class = 'column'><img src = 'uspos/2900.2.bmp' width = '100%;'></div></div>","null","pos","CS","CS","4","category4/CS9.png","","","","",""
"","html-keyboard-response","36","205865","0.0-6.0-2.0-0.9","vhqac8chyp","many_one","0","direct_first","1","en07an17","0","22","1","1","3","2","","0","1","0","null","","","<div class = 'row'><div class = 'column'><img src = 'uspos/2550.bmp' width = '100%;'></div><div class = 'column'><img src = 'category3/CS7.png' width = '70%;'></div></div>","null","pos","CS","CS","3","category3/CS7.png","","","","",""
"","html-keyboard-response","37","208404","0.0-6.0-2.0-0.10","vhqac8chyp","many_one","0","direct_first","1","en07an17","0","22","1","1","3","2","","0","1","0","null","","","<div class = 'row'><div class = 'column'><img src = 'category2/CS2.png' width = '70%;'></div><div class = 'column'><img src = 'usneg/9181.bmp' width = '100%;'></div></div>","null","neg","CS","CS","2","category2/CS2.png","","","","",""
"","html-keyboard-response","38","210945","0.0-6.0-2.0-0.11","vhqac8chyp","many_one","0","direct_first","1","en07an17","0","22","1","1","3","2","","0","1","0","null","","","<div class = 'row'><div class = 'column'><img src = 'uspos/2160.bmp' width = '100%;'></div><div class = 'column'><img src = 'category4/CS6.png' width = '70%;'></div></div>","null","pos","CS","CS","4","category4/CS6.png","","","","",""
"","html-keyboard-response","39","213485","0.0-6.0-2.0-0.12","vhqac8chyp","many_one","0","direct_first","1","en07an17","0","22","1","1","3","2","","0","1","0","null","","","<div class = 'row'><div class = 'column'><img src = 'usneg/9180.bmp' width = '100%;'></div><div class = 'column'><img src = 'category2/CS1.png' width = '70%;'></div></div>","null","neg","CS","CS","2","category2/CS1.png","","","","",""
"","html-keyboard-response","40","216022","0.0-6.0-2.0-0.13","vhqac8chyp","many_one","0","direct_first","1","en07an17","0","22","1","1","3","2","","0","1","0","null","","","<div class = 'row'><div class = 'column'><img src = 'category1/CS5.png' width = '70%;'></div><div class = 'column'><img src = 'usneg/7380.bmp' width = '100%;'></div></div>","null","neg","CS","CS","1","category1/CS5.png","","","","",""
"","html-keyboard-response","41","218565","0.0-6.0-2.0-0.14","vhqac8chyp","many_one","0","direct_first","1","en07an17","0","22","1","1","3","2","","0","1","0","null","","","<div class = 'row'><div class = 'column'><img src = 'category2/CS3.png' width = '70%;'></div><div class = 'column'><img src = 'usneg/9560.bmp' width = '100%;'></div></div>","null","neg","CS","CS","2","category2/CS3.png","","","","",""
"","html-keyboard-response","42","221095","0.0-6.0-2.0-0.15","vhqac8chyp","many_one","0","direct_first","1","en07an17","0","22","1","1","3","2","","0","1","0","null","","","<div class = 'row'><div class = 'column'><img src = 'uspos/2530.bmp' width = '100%;'></div><div class = 'column'><img src = 'category3/CS4.png' width = '70%;'></div></div>","null","pos","CS","CS","3","category3/CS4.png","","","","",""
"","html-keyboard-response","43","223630","0.0-6.0-2.0-0.16","vhqac8chyp","many_one","0","direct_first","1","en07an17","0","22","1","1","3","2","","0","1","0","null","","","<div class = 'row'><div class = 'column'><img src = 'usneg/6020.bmp' width = '100%;'></div><div class = 'column'><img src = 'category1/CS4.png' width = '70%;'></div></div>","null","neg","CS","CS","1","category1/CS4.png","","","","",""
"","html-keyboard-response","44","226164","0.0-6.0-2.0-0.17","vhqac8chyp","many_one","0","direct_first","1","en07an17","0","22","1","1","3","2","","0","1","0","null","","","<div class = 'row'><div class = 'column'><img src = 'uspos/1340.bmp' width = '100%;'></div><div class = 'column'><img src = 'category4/CS10.png' width = '70%;'></div></div>","null","pos","CS","CS","4","category4/CS10.png","","","","",""
"","html-keyboard-response","45","228705","0.0-6.0-2.0-0.18","vhqac8chyp","many_one","0","direct_first","1","en07an17","0","22","1","1","3","2","","0","1","0","null","","","<div class = 'row'><div class = 'column'><img src = 'usneg/6212.bmp' width = '100%;'></div><div class = 'column'><img src = 'category2/CS7.png' width = '70%;'></div></div>","null","neg","CS","CS","2","category2/CS7.png","","","","",""
"","html-keyboard-response","46","231241","0.0-6.0-2.0-0.19","vhqac8chyp","many_one","0","direct_first","1","en07an17","0","22","1","1","3","2","","0","1","0","null","","","<div class = 'row'><div class = 'column'><img src = 'category3/CS9.png' width = '70%;'></div><div class = 'column'><img src = 'uspos/4625.bmp' width = '100%;'></div></div>","null","pos","CS","CS","3","category3/CS9.png","","","","",""
"","survey-html-form","47","288733","0.0-6.0-3.0","vhqac8chyp","many_one","0","direct_first","1","en07an17","0","22","1","1","3","2","","0","1","0","56966","","{}","","","","","","","","","","","",""
"","html-keyboard-response","48","292755","0.0-6.0-4.0-0.0","vhqac8chyp","many_one","0","direct_first","1","en07an17","0","22","1","1","3","2","","0","1","0","null","","","<div class = 'row'><div class = 'column'><img src = 'category1/CS4.png' width = '70%;'></div><div class = 'column'><img src = 'usneg/6020.bmp' width = '100%;'></div></div>","null","neg","CS","CS","1","category1/CS4.png","","","","",""
"","html-keyboard-response","49","295295","0.0-6.0-4.0-0.1","vhqac8chyp","many_one","0","direct_first","1","en07an17","0","22","1","1","3","2","","0","1","0","null","","","<div class = 'row'><div class = 'column'><img src = 'category3/CS6.png' width = '70%;'></div><div class = 'column'><img src = 'uspos/2341.bmp' width = '100%;'></div></div>","null","pos","CS","CS","3","category3/CS6.png","","","","",""
"","html-keyboard-response","50","297835","0.0-6.0-4.0-0.2","vhqac8chyp","many_one","0","direct_first","1","en07an17","0","22","1","1","3","2","","0","1","0","null","","","<div class = 'row'><div class = 'column'><img src = 'category3/CS9.png' width = '70%;'></div><div class = 'column'><img src = 'uspos/4625.bmp' width = '100%;'></div></div>","null","pos","CS","CS","3","category3/CS9.png","","","","",""
"","html-keyboard-response","51","300365","0.0-6.0-4.0-0.3","vhqac8chyp","many_one","0","direct_first","1","en07an17","0","22","1","1","3","2","","0","1","0","null","","","<div class = 'row'><div class = 'column'><img src = 'category4/CS7.png' width = '70%;'></div><div class = 'column'><img src = 'uspos/1710.bmp' width = '100%;'></div></div>","null","pos","CS","CS","4","category4/CS7.png","","","","",""
"","html-keyboard-response","52","302903","0.0-6.0-4.0-0.4","vhqac8chyp","many_one","0","direct_first","1","en07an17","0","22","1","1","3","2","","0","1","0","null","","","<div class = 'row'><div class = 'column'><img src = 'category1/CS3.png' width = '70%;'></div><div class = 'column'><img src = 'usneg/9220.bmp' width = '100%;'></div></div>","null","neg","CS","CS","1","category1/CS3.png","","","","",""
"","html-keyboard-response","53","305445","0.0-6.0-4.0-0.5","vhqac8chyp","many_one","0","direct_first","1","en07an17","0","22","1","1","3","2","","0","1","0","null","","","<div class = 'row'><div class = 'column'><img src = 'usneg/7380.bmp' width = '100%;'></div><div class = 'column'><img src = 'category1/CS5.png' width = '70%;'></div></div>","null","neg","CS","CS","1","category1/CS5.png","","","","",""
"","html-keyboard-response","54","307986","0.0-6.0-4.0-0.6","vhqac8chyp","many_one","0","direct_first","1","en07an17","0","22","1","1","3","2","","0","1","0","null","","","<div class = 'row'><div class = 'column'><img src = 'category4/CS4.png' width = '70%;'></div><div class = 'column'><img src = 'uspos/5600.bmp' width = '100%;'></div></div>","null","pos","CS","CS","4","category4/CS4.png","","","","",""
"","html-keyboard-response","55","310516","0.0-6.0-4.0-0.7","vhqac8chyp","many_one","0","direct_first","1","en07an17","0","22","1","1","3","2","","0","1","0","null","","","<div class = 'row'><div class = 'column'><img src = 'category2/CS1.png' width = '70%;'></div><div class = 'column'><img src = 'usneg/9180.bmp' width = '100%;'></div></div>","null","neg","CS","CS","2","category2/CS1.png","","","","",""
"","html-keyboard-response","56","313055","0.0-6.0-4.0-0.8","vhqac8chyp","many_one","0","direct_first","1","en07an17","0","22","1","1","3","2","","0","1","0","null","","","<div class = 'row'><div class = 'column'><img src = 'category4/CS10.png' width = '70%;'></div><div class = 'column'><img src = 'uspos/1340.bmp' width = '100%;'></div></div>","null","pos","CS","CS","4","category4/CS10.png","","","","",""
"","html-keyboard-response","57","315586","0.0-6.0-4.0-0.9","vhqac8chyp","many_one","0","direct_first","1","en07an17","0","22","1","1","3","2","","0","1","0","null","","","<div class = 'row'><div class = 'column'><img src = 'usneg/9830.bmp' width = '100%;'></div><div class = 'column'><img src = 'category2/CS4.png' width = '70%;'></div></div>","null","neg","CS","CS","2","category2/CS4.png","","","","",""
"","html-keyboard-response","58","318126","0.0-6.0-4.0-0.10","vhqac8chyp","many_one","0","direct_first","1","en07an17","0","22","1","1","3","2","","0","1","0","null","","","<div class = 'row'><div class = 'column'><img src = 'usneg/9181.bmp' width = '100%;'></div><div class = 'column'><img src = 'category2/CS2.png' width = '70%;'></div></div>","null","neg","CS","CS","2","category2/CS2.png","","","","",""
"","html-keyboard-response","59","320656","0.0-6.0-4.0-0.11","vhqac8chyp","many_one","0","direct_first","1","en07an17","0","22","1","1","3","2","","0","1","0","null","","","<div class = 'row'><div class = 'column'><img src = 'usneg/9584.bmp' width = '100%;'></div><div class = 'column'><img src = 'category1/CS10.png' width = '70%;'></div></div>","null","neg","CS","CS","1","category1/CS10.png","","","","",""
"","html-keyboard-response","60","323196","0.0-6.0-4.0-0.12","vhqac8chyp","many_one","0","direct_first","1","en07an17","0","22","1","1","3","2","","0","1","0","null","","","<div class = 'row'><div class = 'column'><img src = 'category3/CS4.png' width = '70%;'></div><div class = 'column'><img src = 'uspos/2530.bmp' width = '100%;'></div></div>","null","pos","CS","CS","3","category3/CS4.png","","","","",""
"","html-keyboard-response","61","325737","0.0-6.0-4.0-0.13","vhqac8chyp","many_one","0","direct_first","1","en07an17","0","22","1","1","3","2","","0","1","0","null","","","<div class = 'row'><div class = 'column'><img src = 'category4/CS6.png' width = '70%;'></div><div class = 'column'><img src = 'uspos/2160.bmp' width = '100%;'></div></div>","null","pos","CS","CS","4","category4/CS6.png","","","","",""
"","html-keyboard-response","62","328276","0.0-6.0-4.0-0.14","vhqac8chyp","many_one","0","direct_first","1","en07an17","0","22","1","1","3","2","","0","1","0","null","","","<div class = 'row'><div class = 'column'><img src = 'category3/CS7.png' width = '70%;'></div><div class = 'column'><img src = 'uspos/2550.bmp' width = '100%;'></div></div>","null","pos","CS","CS","3","category3/CS7.png","","","","",""
"","html-keyboard-response","63","330816","0.0-6.0-4.0-0.15","vhqac8chyp","many_one","0","direct_first","1","en07an17","0","22","1","1","3","2","","0","1","0","null","","","<div class = 'row'><div class = 'column'><img src = 'category3/CS8.png' width = '70%;'></div><div class = 'column'><img src = 'uspos/2208.bmp' width = '100%;'></div></div>","null","pos","CS","CS","3","category3/CS8.png","","","","",""
"","html-keyboard-response","64","333356","0.0-6.0-4.0-0.16","vhqac8chyp","many_one","0","direct_first","1","en07an17","0","22","1","1","3","2","","0","1","0","null","","","<div class = 'row'><div class = 'column'><img src = 'usneg/6212.bmp' width = '100%;'></div><div class = 'column'><img src = 'category2/CS7.png' width = '70%;'></div></div>","null","neg","CS","CS","2","category2/CS7.png","","","","",""
"","html-keyboard-response","65","335891","0.0-6.0-4.0-0.17","vhqac8chyp","many_one","0","direct_first","1","en07an17","0","22","1","1","3","2","","0","1","0","null","","","<div class = 'row'><div class = 'column'><img src = 'category2/CS3.png' width = '70%;'></div><div class = 'column'><img src = 'usneg/9560.bmp' width = '100%;'></div></div>","null","neg","CS","CS","2","category2/CS3.png","","","","",""
"","html-keyboard-response","66","338406","0.0-6.0-4.0-0.18","vhqac8chyp","many_one","0","direct_first","1","en07an17","0","22","1","1","3","2","","0","1","0","null","","","<div class = 'row'><div class = 'column'><img src = 'usneg/9342.bmp' width = '100%;'></div><div class = 'column'><img src = 'category1/CS9.png' width = '70%;'></div></div>","null","neg","CS","CS","1","category1/CS9.png","","","","",""
"","html-keyboard-response","67","340947","0.0-6.0-4.0-0.19","vhqac8chyp","many_one","0","direct_first","1","en07an17","0","22","1","1","3","2","","0","1","0","null","","","<div class = 'row'><div class = 'column'><img src = 'uspos/2900.2.bmp' width = '100%;'></div><div class = 'column'><img src = 'category4/CS9.png' width = '70%;'></div></div>","null","pos","CS","CS","4","category4/CS9.png","","","","",""
"","survey-html-form","68","343614","0.0-6.0-5.0","vhqac8chyp","many_one","0","direct_first","1","en07an17","0","22","1","1","3","2","","0","1","0","2148","","{}","","","","","","","","","","","",""
"","html-keyboard-response","69","347643","0.0-6.0-6.0-0.0","vhqac8chyp","many_one","0","direct_first","1","en07an17","0","22","1","1","3","2","","0","1","0","null","","","<div class = 'row'><div class = 'column'><img src = 'usneg/6212.bmp' width = '100%;'></div><div class = 'column'><img src = 'category2/CS7.png' width = '70%;'></div></div>","null","neg","CS","CS","2","category2/CS7.png","","","","",""
"","html-keyboard-response","70","350185","0.0-6.0-6.0-0.1","vhqac8chyp","many_one","0","direct_first","1","en07an17","0","22","1","1","3","2","","0","1","0","null","","","<div class = 'row'><div class = 'column'><img src = 'category1/CS9.png' width = '70%;'></div><div class = 'column'><img src = 'usneg/9342.bmp' width = '100%;'></div></div>","null","neg","CS","CS","1","category1/CS9.png","","","","",""
"","html-keyboard-response","71","352725","0.0-6.0-6.0-0.2","vhqac8chyp","many_one","0","direct_first","1","en07an17","0","22","1","1","3","2","","0","1","0","null","","","<div class = 'row'><div class = 'column'><img src = 'uspos/2160.bmp' width = '100%;'></div><div class = 'column'><img src = 'category4/CS6.png' width = '70%;'></div></div>","null","pos","CS","CS","4","category4/CS6.png","","","","",""
"","html-keyboard-response","72","355253","0.0-6.0-6.0-0.3","vhqac8chyp","many_one","0","direct_first","1","en07an17","0","22","1","1","3","2","","0","1","0","null","","","<div class = 'row'><div class = 'column'><img src = 'usneg/6020.bmp' width = '100%;'></div><div class = 'column'><img src = 'category1/CS4.png' width = '70%;'></div></div>","null","neg","CS","CS","1","category1/CS4.png","","","","",""
"","html-keyboard-response","73","357795","0.0-6.0-6.0-0.4","vhqac8chyp","many_one","0","direct_first","1","en07an17","0","22","1","1","3","2","","0","1","0","null","","","<div class = 'row'><div class = 'column'><img src = 'category1/CS3.png' width = '70%;'></div><div class = 'column'><img src = 'usneg/9220.bmp' width = '100%;'></div></div>","null","neg","CS","CS","1","category1/CS3.png","","","","",""
"","html-keyboard-response","74","360315","0.0-6.0-6.0-0.5","vhqac8chyp","many_one","0","direct_first","1","en07an17","0","22","1","1","3","2","","0","1","0","null","","","<div class = 'row'><div class = 'column'><img src = 'category3/CS6.png' width = '70%;'></div><div class = 'column'><img src = 'uspos/2341.bmp' width = '100%;'></div></div>","null","pos","CS","CS","3","category3/CS6.png","","","","",""
"","html-keyboard-response","75","362853","0.0-6.0-6.0-0.6","vhqac8chyp","many_one","0","direct_first","1","en07an17","0","22","1","1","3","2","","0","1","0","null","","","<div class = 'row'><div class = 'column'><img src = 'category4/CS9.png' width = '70%;'></div><div class = 'column'><img src = 'uspos/2900.2.bmp' width = '100%;'></div></div>","null","pos","CS","CS","4","category4/CS9.png","","","","",""
"","html-keyboard-response","76","365395","0.0-6.0-6.0-0.7","vhqac8chyp","many_one","0","direct_first","1","en07an17","0","22","1","1","3","2","","0","1","0","null","","","<div class = 'row'><div class = 'column'><img src = 'category4/CS10.png' width = '70%;'></div><div class = 'column'><img src = 'uspos/1340.bmp' width = '100%;'></div></div>","null","pos","CS","CS","4","category4/CS10.png","","","","",""
"","html-keyboard-response","77","367935","0.0-6.0-6.0-0.8","vhqac8chyp","many_one","0","direct_first","1","en07an17","0","22","1","1","3","2","","0","1","0","null","","","<div class = 'row'><div class = 'column'><img src = 'usneg/7380.bmp' width = '100%;'></div><div class = 'column'><img src = 'category1/CS5.png' width = '70%;'></div></div>","null","neg","CS","CS","1","category1/CS5.png","","","","",""
"","html-keyboard-response","78","370475","0.0-6.0-6.0-0.9","vhqac8chyp","many_one","0","direct_first","1","en07an17","0","22","1","1","3","2","","0","1","0","null","","","<div class = 'row'><div class = 'column'><img src = 'uspos/2530.bmp' width = '100%;'></div><div class = 'column'><img src = 'category3/CS4.png' width = '70%;'></div></div>","null","pos","CS","CS","3","category3/CS4.png","","","","",""
"","html-keyboard-response","79","373016","0.0-6.0-6.0-0.10","vhqac8chyp","many_one","0","direct_first","1","en07an17","0","22","1","1","3","2","","0","1","0","null","","","<div class = 'row'><div class = 'column'><img src = 'category3/CS9.png' width = '70%;'></div><div class = 'column'><img src = 'uspos/4625.bmp' width = '100%;'></div></div>","null","pos","CS","CS","3","category3/CS9.png","","","","",""
"","html-keyboard-response","80","375556","0.0-6.0-6.0-0.11","vhqac8chyp","many_one","0","direct_first","1","en07an17","0","22","1","1","3","2","","0","1","0","null","","","<div class = 'row'><div class = 'column'><img src = 'category3/CS7.png' width = '70%;'></div><div class = 'column'><img src = 'uspos/2550.bmp' width = '100%;'></div></div>","null","pos","CS","CS","3","category3/CS7.png","","","","",""
"","html-keyboard-response","81","378095","0.0-6.0-6.0-0.12","vhqac8chyp","many_one","0","direct_first","1","en07an17","0","22","1","1","3","2","","0","1","0","null","","","<div class = 'row'><div class = 'column'><img src = 'category2/CS4.png' width = '70%;'></div><div class = 'column'><img src = 'usneg/9830.bmp' width = '100%;'></div></div>","null","neg","CS","CS","2","category2/CS4.png","","","","",""
"","html-keyboard-response","82","380635","0.0-6.0-6.0-0.13","vhqac8chyp","many_one","0","direct_first","1","en07an17","0","22","1","1","3","2","","0","1","0","null","","","<div class = 'row'><div class = 'column'><img src = 'category4/CS4.png' width = '70%;'></div><div class = 'column'><img src = 'uspos/5600.bmp' width = '100%;'></div></div>","null","pos","CS","CS","4","category4/CS4.png","","","","",""
"","html-keyboard-response","83","383171","0.0-6.0-6.0-0.14","vhqac8chyp","many_one","0","direct_first","1","en07an17","0","22","1","1","3","2","","0","1","0","null","","","<div class = 'row'><div class = 'column'><img src = 'usneg/9584.bmp' width = '100%;'></div><div class = 'column'><img src = 'category1/CS10.png' width = '70%;'></div></div>","null","neg","CS","CS","1","category1/CS10.png","","","","",""
"","html-keyboard-response","84","385714","0.0-6.0-6.0-0.15","vhqac8chyp","many_one","0","direct_first","1","en07an17","0","22","1","1","3","2","","0","1","0","null","","","<div class = 'row'><div class = 'column'><img src = 'usneg/9560.bmp' width = '100%;'></div><div class = 'column'><img src = 'category2/CS3.png' width = '70%;'></div></div>","null","neg","CS","CS","2","category2/CS3.png","","","","",""
"","html-keyboard-response","85","388255","0.0-6.0-6.0-0.16","vhqac8chyp","many_one","0","direct_first","1","en07an17","0","22","1","1","3","2","","0","1","0","null","","","<div class = 'row'><div class = 'column'><img src = 'category3/CS8.png' width = '70%;'></div><div class = 'column'><img src = 'uspos/2208.bmp' width = '100%;'></div></div>","null","pos","CS","CS","3","category3/CS8.png","","","","",""
"","html-keyboard-response","86","390795","0.0-6.0-6.0-0.17","vhqac8chyp","many_one","0","direct_first","1","en07an17","0","22","1","1","3","2","","0","1","0","null","","","<div class = 'row'><div class = 'column'><img src = 'category2/CS1.png' width = '70%;'></div><div class = 'column'><img src = 'usneg/9180.bmp' width = '100%;'></div></div>","null","neg","CS","CS","2","category2/CS1.png","","","","",""
"","html-keyboard-response","87","393334","0.0-6.0-6.0-0.18","vhqac8chyp","many_one","0","direct_first","1","en07an17","0","22","1","1","3","2","","0","1","0","null","","","<div class = 'row'><div class = 'column'><img src = 'usneg/9181.bmp' width = '100%;'></div><div class = 'column'><img src = 'category2/CS2.png' width = '70%;'></div></div>","null","neg","CS","CS","2","category2/CS2.png","","","","",""
"","html-keyboard-response","88","395866","0.0-6.0-6.0-0.19","vhqac8chyp","many_one","0","direct_first","1","en07an17","0","22","1","1","3","2","","0","1","0","null","","","<div class = 'row'><div class = 'column'><img src = 'category4/CS7.png' width = '70%;'></div><div class = 'column'><img src = 'uspos/1710.bmp' width = '100%;'></div></div>","null","pos","CS","CS","4","category4/CS7.png","","","","",""
"","survey-html-form","89","407775","0.0-7.0","vhqac8chyp","many_one","0","direct_first","1","en07an17","0","22","1","1","3","2","","0","1","0","11389","","{}","","","","","","","","","","","",""
"","image-slider-response","90","416054","0.0-8.0-0.0","vhqac8chyp","many_one","0","direct_first","1","en07an17","0","22","1","1","3","2","","0","1","0","6242","","","","","neg","CS","CS","1","category1/CS4.png","28","targets/42.png","direct","",""
"","image-slider-response","91","419854","0.0-8.0-0.1","vhqac8chyp","many_one","0","direct_first","1","en07an17","0","22","1","1","3","2","","0","1","0","3791","","","","","pos","GS","abstract","4","category4/lin.png","15","targets/25.png","direct","",""
"","image-slider-response","92","423274","0.0-8.0-0.2","vhqac8chyp","many_one","0","direct_first","1","en07an17","0","22","1","1","3","2","","0","1","0","3411","","","","","pos","CS","CS","4","category4/CS4.png","24","targets/5.png","direct","",""
"","image-slider-response","93","427084","0.0-8.0-0.3","vhqac8chyp","many_one","0","direct_first","1","en07an17","0","22","1","1","3","2","","0","1","0","3801","","","","","pos","CS","CS","3","category3/CS6.png","-24","targets/21.png","direct","",""
"","image-slider-response","94","432357","0.0-8.0-0.4","vhqac8chyp","many_one","0","direct_first","1","en07an17","0","22","1","1","3","2","","0","1","0","5263","","","","","pos","GS","GSnew","4","category4/GS1.png","-12","targets/31.png","direct","",""
"","image-slider-response","95","436004","0.0-8.0-0.5","vhqac8chyp","many_one","0","direct_first","1","en07an17","0","22","1","1","3","2","","0","1","0","3640","","","","","neg","CS","CS","2","category2/CS4.png","-18","targets/23.png","direct","",""
"","image-slider-response","96","440862","0.0-8.0-0.6","vhqac8chyp","many_one","0","direct_first","1","en07an17","0","22","1","1","3","2","","0","1","0","4849","","","","","neg","CS","CS","1","category1/CS9.png","21","targets/43.png","direct","",""
"","image-slider-response","97","444324","0.0-8.0-0.7","vhqac8chyp","many_one","0","direct_first","1","en07an17","0","22","1","1","3","2","","0","1","0","3451","","","","","pos","GS","GSold","3","category3/CS1.png","-26","targets/27.png","direct","",""
"","image-slider-response","98","450232","0.0-8.0-0.8","vhqac8chyp","many_one","0","direct_first","1","en07an17","0","22","1","1","3","2","","0","1","0","5900","","","","","pos","GS","GSnew","3","category3/GS3.png","-3","targets/38.png","direct","",""
"","image-slider-response","99","453428","0.0-8.0-0.9","vhqac8chyp","many_one","0","direct_first","1","en07an17","0","22","1","1","3","2","","0","1","0","3187","","","","","neg","CS","CS","1","category1/CS3.png","19","targets/15.png","direct","",""
"","image-slider-response","100","456776","0.0-8.0-0.10","vhqac8chyp","many_one","0","direct_first","1","en07an17","0","22","1","1","3","2","","0","1","0","3343","","","","","neg","GS","GSold","2","category2/CS5.png","-22","targets/32.png","direct","",""
"","image-slider-response","101","460105","0.0-8.0-0.11","vhqac8chyp","many_one","0","direct_first","1","en07an17","0","22","1","1","3","2","","0","1","0","3320","","","","","pos","GS","GSold","4","category4/CS3.png","-13","targets/47.png","direct","",""
"","image-slider-response","102","463323","0.0-8.0-0.12","vhqac8chyp","many_one","0","direct_first","1","en07an17","0","22","1","1","3","2","","0","1","0","3210","","","","","neg","GS","GSnew","1","category1/GS1.png","-14","targets/26.png","direct","",""
"","image-slider-response","103","467011","0.0-8.0-0.13","vhqac8chyp","many_one","0","direct_first","1","en07an17","0","22","1","1","3","2","","0","1","0","3679","","","","","pos","GS","GSold","3","category3/CS3.png","-3","targets/8.png","direct","",""
"","image-slider-response","104","471192","0.0-8.0-0.14","vhqac8chyp","many_one","0","direct_first","1","en07an17","0","22","1","1","3","2","","0","1","0","4173","","","","","pos","GS","GSnew","4","category4/GS2.png","9","targets/3.png","direct","",""
"","image-slider-response","105","475094","0.0-8.0-0.15","vhqac8chyp","many_one","0","direct_first","1","en07an17","0","22","1","1","3","2","","0","1","0","3894","","","","","pos","CS","CS","4","category4/CS6.png","24","targets/37.png","direct","",""
"","image-slider-response","106","478424","0.0-8.0-0.16","vhqac8chyp","many_one","0","direct_first","1","en07an17","0","22","1","1","3","2","","0","1","0","3321","","","","","neg","GS","GSnew","1","category1/GS2.png","-12","targets/16.png","direct","",""
"","image-slider-response","107","482792","0.0-8.0-0.17","vhqac8chyp","many_one","0","direct_first","1","en07an17","0","22","1","1","3","2","","0","1","0","4361","","","","","neg","GS","GSold","1","category1/CS7.png","18","targets/24.png","direct","",""
"","image-slider-response","108","486356","0.0-8.0-0.18","vhqac8chyp","many_one","0","direct_first","1","en07an17","0","22","1","1","3","2","","0","1","0","3554","","","","","pos","CS","CS","4","category4/CS7.png","-11","targets/11.png","direct","",""
"","image-slider-response","109","489804","0.0-8.0-0.19","vhqac8chyp","many_one","0","direct_first","1","en07an17","0","22","1","1","3","2","","0","1","0","3440","","","","","neg","GS","GSnew","2","category2/GS3.png","-22","targets/39.png","direct","",""
"","image-slider-response","110","493124","0.0-8.0-0.20","vhqac8chyp","many_one","0","direct_first","1","en07an17","0","22","1","1","3","2","","0","1","0","3313","","","","","pos","CS","CS","3","category3/CS4.png","-12","targets/7.png","direct","",""
"","image-slider-response","111","497173","0.0-8.0-0.21","vhqac8chyp","many_one","0","direct_first","1","en07an17","0","22","1","1","3","2","","0","1","0","4040","","","","","pos","GS","abstract","3","category3/wang.png","-13","targets/1.png","direct","",""
"","image-slider-response","112","500284","0.0-8.0-0.22","vhqac8chyp","many_one","0","direct_first","1","en07an17","0","22","1","1","3","2","","0","1","0","3102","","","","","pos","CS","CS","4","category4/CS9.png","19","targets/20.png","direct","",""
"","image-slider-response","113","503862","0.0-8.0-0.23","vhqac8chyp","many_one","0","direct_first","1","en07an17","0","22","1","1","3","2","","0","1","0","3570","","","","","neg","GS","GSnew","1","category1/GS3.png","15","targets/40.png","direct","",""
"","image-slider-response","114","507376","0.0-8.0-0.24","vhqac8chyp","many_one","0","direct_first","1","en07an17","0","22","1","1","3","2","","0","1","0","3502","","","","","neg","GS","abstract","2","category2/men.png","-35","targets/34.png","direct","",""
"","image-slider-response","115","510354","0.0-8.0-0.25","vhqac8chyp","many_one","0","direct_first","1","en07an17","0","22","1","1","3","2","","0","1","0","2971","","","","","neg","GS","GSold","1","category1/CS6.png","20","targets/36.png","direct","",""
"","image-slider-response","116","512811","0.0-8.0-0.26","vhqac8chyp","many_one","0","direct_first","1","en07an17","0","22","1","1","3","2","","0","1","0","2449","","","","","pos","CS","CS","3","category3/CS9.png","-9","targets/18.png","direct","",""
"","image-slider-response","117","515495","0.0-8.0-0.27","vhqac8chyp","many_one","0","direct_first","1","en07an17","0","22","1","1","3","2","","0","1","0","2674","","","","","pos","GS","GSnew","3","category3/GS1.png","7","targets/4.png","direct","",""
"","image-slider-response","118","518011","0.0-8.0-0.28","vhqac8chyp","many_one","0","direct_first","1","en07an17","0","22","1","1","3","2","","0","1","0","2506","","","","","neg","GS","GSold","2","category2/CS8.png","-11","targets/19.png","direct","",""
"","image-slider-response","119","522302","0.0-8.0-0.29","vhqac8chyp","many_one","0","direct_first","1","en07an17","0","22","1","1","3","2","","0","1","0","4283","","","","","neg","GS","abstract","1","category1/ma.png","-2","targets/17.png","direct","",""
"","image-slider-response","120","525061","0.0-8.0-0.30","vhqac8chyp","many_one","0","direct_first","1","en07an17","0","22","1","1","3","2","","0","1","0","2749","","","","","neg","CS","CS","2","category2/CS7.png","-7","targets/33.png","direct","",""
"","image-slider-response","121","527974","0.0-8.0-0.31","vhqac8chyp","many_one","0","direct_first","1","en07an17","0","22","1","1","3","2","","0","1","0","2905","","","","","neg","CS","CS","1","category1/CS10.png","-12","targets/10.png","direct","",""
"","image-slider-response","122","530855","0.0-8.0-0.32","vhqac8chyp","many_one","0","direct_first","1","en07an17","0","22","1","1","3","2","","0","1","0","2872","","","","","neg","GS","GSold","1","category1/CS2.png","-9","targets/6.png","direct","",""
"","image-slider-response","123","533622","0.0-8.0-0.33","vhqac8chyp","many_one","0","direct_first","1","en07an17","0","22","1","1","3","2","","0","1","0","2761","","","","","pos","CS","CS","3","category3/CS8.png","-16","targets/46.png","direct","",""
"","image-slider-response","124","536511","0.0-8.0-0.34","vhqac8chyp","many_one","0","direct_first","1","en07an17","0","22","1","1","3","2","","0","1","0","2880","","","","","neg","CS","CS","2","category2/CS3.png","-16","targets/13.png","direct","",""
"","image-slider-response","125","540955","0.0-8.0-0.35","vhqac8chyp","many_one","0","direct_first","1","en07an17","0","22","1","1","3","2","","0","1","0","4434","","","","","pos","CS","CS","4","category4/CS10.png","25","targets/35.png","direct","",""
"","image-slider-response","126","543691","0.0-8.0-0.36","vhqac8chyp","many_one","0","direct_first","1","en07an17","0","22","1","1","3","2","","0","1","0","2728","","","","","pos","GS","GSnew","3","category3/GS2.png","-20","targets/41.png","direct","",""
"","image-slider-response","127","546414","0.0-8.0-0.37","vhqac8chyp","many_one","0","direct_first","1","en07an17","0","22","1","1","3","2","","0","1","0","2713","","","","","neg","CS","CS","1","category1/CS5.png","-8","targets/2.png","direct","",""
"","image-slider-response","128","549793","0.0-8.0-0.38","vhqac8chyp","many_one","0","direct_first","1","en07an17","0","22","1","1","3","2","","0","1","0","3372","","","","","pos","GS","GSnew","4","category4/GS3.png","-15","targets/29.png","direct","",""
"","image-slider-response","129","552712","0.0-8.0-0.39","vhqac8chyp","many_one","0","direct_first","1","en07an17","0","22","1","1","3","2","","0","1","0","2911","","","","","pos","GS","GSold","4","category4/CS5.png","-12","targets/12.png","direct","",""
"","image-slider-response","130","555933","0.0-8.0-0.40","vhqac8chyp","many_one","0","direct_first","1","en07an17","0","22","1","1","3","2","","0","1","0","3212","","","","","neg","GS","GSold","2","category2/CS10.png","7","targets/28.png","direct","",""
"","image-slider-response","131","558732","0.0-8.0-0.41","vhqac8chyp","many_one","0","direct_first","1","en07an17","0","22","1","1","3","2","","0","1","0","2788","","","","","neg","CS","CS","2","category2/CS1.png","-9","targets/44.png","direct","",""
"","image-slider-response","132","562643","0.0-8.0-0.42","vhqac8chyp","many_one","0","direct_first","1","en07an17","0","22","1","1","3","2","","0","1","0","3901","","","","","neg","CS","CS","2","category2/CS2.png","8","targets/48.png","direct","",""
"","image-slider-response","133","565502","0.0-8.0-0.43","vhqac8chyp","many_one","0","direct_first","1","en07an17","0","22","1","1","3","2","","0","1","0","2851","","","","","pos","CS","CS","3","category3/CS7.png","-12","targets/22.png","direct","",""
"","image-slider-response","134","568036","0.0-8.0-0.44","vhqac8chyp","many_one","0","direct_first","1","en07an17","0","22","1","1","3","2","","0","1","0","2526","","","","","neg","GS","GSnew","2","category2/GS2.png","-11","targets/14.png","direct","",""
"","image-slider-response","135","570739","0.0-8.0-0.45","vhqac8chyp","many_one","0","direct_first","1","en07an17","0","22","1","1","3","2","","0","1","0","2694","","","","","pos","GS","GSold","4","category4/CS8.png","-10","targets/45.png","direct","",""
"","image-slider-response","136","573305","0.0-8.0-0.46","vhqac8chyp","many_one","0","direct_first","1","en07an17","0","22","1","1","3","2","","0","1","0","2558","","","","","pos","GS","GSold","3","category3/CS2.png","-8","targets/30.png","direct","",""
"","image-slider-response","137","576140","0.0-8.0-0.47","vhqac8chyp","many_one","0","direct_first","1","en07an17","0","22","1","1","3","2","","0","1","0","2826","","","","","neg","GS","GSnew","2","category2/GS1.png","6","targets/9.png","direct","",""
"","html-keyboard-response","138","597718","0.0-9.0","vhqac8chyp","many_one","0","direct_first","1","en07an17","0","22","1","1","3","2","","0","1","0","21572","","","<p>Sie sehen nun die chinesischen Zeichen nur ganz kurz. Danach sehen Sie die jeweilige Aussprache der Zeichen als Silbe auf dem Bildschrim. Ihre Aufgabe ist es, für jede Silbe anzugeben, ob diese etwas angenehmes, oder unangenehmes bedeuten könnte. Verlassen Sie sich hier vor allem auf Ihre Intuition.<br><br>Die Zeichen werden nur zur Orientierung dargestellt, beachten Sie sie deshalb nicht. Konzentrieren Sie sich vor allem auf die Silben. <br>Reagieren Sie mit folgenden zwei Tasten: <br><br><b>'D' </b> wenn die Silbe etwas <b>unangenehmes</b> bedeuten könnte. <br><b>'K'</b> wenn die Silbe etwas <b>angenehmes</b> bedeuten könnte. <br><br>Bitte legen Sie nun den Zeigefinger der linken Hand auf die Taste 'D' und den Zeigefinger der rechten Hand auf die Taste 'K'. <br>Reagieren Sie auf jede Silbe so schnell wie möglich. Uns interessiert Ihre spontane Reaktion. <br> <br> <br>Drücken Sie 'D' oder 'K', um die nächste Aufgabe zu starten. </p>","68","","","","","","","","","",""
"","html-keyboard-response","139","600754","0.0-10.0-0.0","vhqac8chyp","many_one","0","direct_first","1","en07an17","0","22","1","1","3","2","","0","1","0","null","","","<div style=""font-size:60px;"">+</div>","null","","","","","","","","","",""
"","html-keyboard-response","140","600854","0.0-10.0-1.0","vhqac8chyp","many_one","0","direct_first","1","en07an17","0","22","1","1","3","2","","0","1","0","null","","","<img src = 'category4/CS7.png' width = '100%;'>","null","","","","","","","","","",""
"","html-keyboard-response","141","601134","0.0-10.0-2.0","vhqac8chyp","many_one","0","direct_first","1","en07an17","0","22","1","1","3","2","","0","1","0","null","","","<img src = 'targets/11.png' width = '100%;'>","null","","","","","","","","","",""
"","html-keyboard-response","142","605483","0.0-10.0-3.0","vhqac8chyp","many_one","0","direct_first","1","en07an17","0","22","1","1","3","2","","0","1","0","4345","","","<img src = 'targets/mask.png' width = '100%;'>","68","pos","CS","CS","4","category4/CS7.png","","targets/11.png","indirect","0","0"
"","html-keyboard-response","143","607019","0.0-10.0-0.1","vhqac8chyp","many_one","0","direct_first","1","en07an17","0","22","1","1","3","2","","0","1","0","null","","","<div style=""font-size:60px;"">+</div>","null","","","","","","","","","",""
"","html-keyboard-response","144","607125","0.0-10.0-1.1","vhqac8chyp","many_one","0","direct_first","1","en07an17","0","22","1","1","3","2","","0","1","0","null","","","<img src = 'category1/CS3.png' width = '100%;'>","null","","","","","","","","","",""
"","html-keyboard-response","145","607404","0.0-10.0-2.1","vhqac8chyp","many_one","0","direct_first","1","en07an17","0","22","1","1","3","2","","0","1","0","null","","","<img src = 'targets/15.png' width = '100%;'>","null","","","","","","","","","",""
"","html-keyboard-response","146","609571","0.0-10.0-3.1","vhqac8chyp","many_one","0","direct_first","1","en07an17","0","22","1","1","3","2","","0","1","0","2162","","","<img src = 'targets/mask.png' width = '100%;'>","75","neg","CS","CS","1","category1/CS3.png","","targets/15.png","indirect","1","1"
"","html-keyboard-response","147","611104","0.0-10.0-0.2","vhqac8chyp","many_one","0","direct_first","1","en07an17","0","22","1","1","3","2","","0","1","0","null","","","<div style=""font-size:60px;"">+</div>","null","","","","","","","","","",""
"","html-keyboard-response","148","611205","0.0-10.0-1.2","vhqac8chyp","many_one","0","direct_first","1","en07an17","0","22","1","1","3","2","","0","1","0","null","","","<img src = 'category4/CS4.png' width = '100%;'>","null","","","","","","","","","",""
"","html-keyboard-response","149","611485","0.0-10.0-2.2","vhqac8chyp","many_one","0","direct_first","1","en07an17","0","22","1","1","3","2","","0","1","0","null","","","<img src = 'targets/5.png' width = '100%;'>","null","","","","","","","","","",""
"","html-keyboard-response","150","612220","0.0-10.0-3.2","vhqac8chyp","many_one","0","direct_first","1","en07an17","0","22","1","1","3","2","","0","1","0","733","","","<img src = 'targets/mask.png' width = '100%;'>","75","pos","CS","CS","4","category4/CS4.png","","targets/5.png","indirect","1","2"
"","html-keyboard-response","151","613756","0.0-10.0-0.3","vhqac8chyp","many_one","0","direct_first","1","en07an17","0","22","1","1","3","2","","0","1","0","null","","","<div style=""font-size:60px;"">+</div>","null","","","","","","","","","",""
"","html-keyboard-response","152","613855","0.0-10.0-1.3","vhqac8chyp","many_one","0","direct_first","1","en07an17","0","22","1","1","3","2","","0","1","0","null","","","<img src = 'category2/CS2.png' width = '100%;'>","null","","","","","","","","","",""
"","html-keyboard-response","153","614134","0.0-10.0-2.3","vhqac8chyp","many_one","0","direct_first","1","en07an17","0","22","1","1","3","2","","0","1","0","null","","","<img src = 'targets/48.png' width = '100%;'>","null","","","","","","","","","",""
"","html-keyboard-response","154","615036","0.0-10.0-3.3","vhqac8chyp","many_one","0","direct_first","1","en07an17","0","22","1","1","3","2","","0","1","0","898","","","<img src = 'targets/mask.png' width = '100%;'>","68","neg","CS","CS","2","category2/CS2.png","","targets/48.png","indirect","0","3"
"","html-keyboard-response","155","616569","0.0-10.0-0.4","vhqac8chyp","many_one","0","direct_first","1","en07an17","0","22","1","1","3","2","","0","1","0","null","","","<div style=""font-size:60px;"">+</div>","null","","","","","","","","","",""
"","html-keyboard-response","156","616665","0.0-10.0-1.4","vhqac8chyp","many_one","0","direct_first","1","en07an17","0","22","1","1","3","2","","0","1","0","null","","","<img src = 'category3/CS4.png' width = '100%;'>","null","","","","","","","","","",""
"","html-keyboard-response","157","616945","0.0-10.0-2.4","vhqac8chyp","many_one","0","direct_first","1","en07an17","0","22","1","1","3","2","","0","1","0","null","","","<img src = 'targets/7.png' width = '100%;'>","null","","","","","","","","","",""
"","html-keyboard-response","158","617576","0.0-10.0-3.4","vhqac8chyp","many_one","0","direct_first","1","en07an17","0","22","1","1","3","2","","0","1","0","627","","","<img src = 'targets/mask.png' width = '100%;'>","75","pos","CS","CS","3","category3/CS4.png","","targets/7.png","indirect","1","4"
"","html-keyboard-response","159","619084","0.0-10.0-0.5","vhqac8chyp","many_one","0","direct_first","1","en07an17","0","22","1","1","3","2","","0","1","0","null","","","<div style=""font-size:60px;"">+</div>","null","","","","","","","","","",""
"","html-keyboard-response","160","619184","0.0-10.0-1.5","vhqac8chyp","many_one","0","direct_first","1","en07an17","0","22","1","1","3","2","","0","1","0","null","","","<img src = 'category2/CS3.png' width = '100%;'>","null","","","","","","","","","",""
"","html-keyboard-response","161","619465","0.0-10.0-2.5","vhqac8chyp","many_one","0","direct_first","1","en07an17","0","22","1","1","3","2","","0","1","0","null","","","<img src = 'targets/13.png' width = '100%;'>","null","","","","","","","","","",""
"","html-keyboard-response","162","620051","0.0-10.0-3.5","vhqac8chyp","many_one","0","direct_first","1","en07an17","0","22","1","1","3","2","","0","1","0","584","","","<img src = 'targets/mask.png' width = '100%;'>","75","neg","CS","CS","2","category2/CS3.png","","targets/13.png","indirect","1","5"
"","html-keyboard-response","163","621585","0.0-10.0-0.6","vhqac8chyp","many_one","0","direct_first","1","en07an17","0","22","1","1","3","2","","0","1","0","null","","","<div style=""font-size:60px;"">+</div>","null","","","","","","","","","",""
"","html-keyboard-response","164","621685","0.0-10.0-1.6","vhqac8chyp","many_one","0","direct_first","1","en07an17","0","22","1","1","3","2","","0","1","0","null","","","<img src = 'category3/CS7.png' width = '100%;'>","null","","","","","","","","","",""
"","html-keyboard-response","165","621965","0.0-10.0-2.6","vhqac8chyp","many_one","0","direct_first","1","en07an17","0","22","1","1","3","2","","0","1","0","null","","","<img src = 'targets/22.png' width = '100%;'>","null","","","","","","","","","",""
"","html-keyboard-response","166","622699","0.0-10.0-3.6","vhqac8chyp","many_one","0","direct_first","1","en07an17","0","22","1","1","3","2","","0","1","0","733","","","<img src = 'targets/mask.png' width = '100%;'>","75","pos","CS","CS","3","category3/CS7.png","","targets/22.png","indirect","1","6"
"","html-keyboard-response","167","624224","0.0-10.0-0.7","vhqac8chyp","many_one","0","direct_first","1","en07an17","0","22","1","1","3","2","","0","1","0","null","","","<div style=""font-size:60px;"">+</div>","null","","","","","","","","","",""
"","html-keyboard-response","168","624324","0.0-10.0-1.7","vhqac8chyp","many_one","0","direct_first","1","en07an17","0","22","1","1","3","2","","0","1","0","null","","","<img src = 'category1/CS6.png' width = '100%;'>","null","","","","","","","","","",""
"","html-keyboard-response","169","624605","0.0-10.0-2.7","vhqac8chyp","many_one","0","direct_first","1","en07an17","0","22","1","1","3","2","","0","1","0","null","","","<img src = 'targets/36.png' width = '100%;'>","null","","","","","","","","","",""
"","html-keyboard-response","170","625537","0.0-10.0-3.7","vhqac8chyp","many_one","0","direct_first","1","en07an17","0","22","1","1","3","2","","0","1","0","930","","","<img src = 'targets/mask.png' width = '100%;'>","68","neg","GS","GSold","1","category1/CS6.png","","targets/36.png","indirect","0","7"
"","html-keyboard-response","171","627064","0.0-10.0-0.8","vhqac8chyp","many_one","0","direct_first","1","en07an17","0","22","1","1","3","2","","0","1","0","null","","","<div style=""font-size:60px;"">+</div>","null","","","","","","","","","",""
"","html-keyboard-response","172","627164","0.0-10.0-1.8","vhqac8chyp","many_one","0","direct_first","1","en07an17","0","22","1","1","3","2","","0","1","0","null","","","<img src = 'category1/CS9.png' width = '100%;'>","null","","","","","","","","","",""
"","html-keyboard-response","173","627445","0.0-10.0-2.8","vhqac8chyp","many_one","0","direct_first","1","en07an17","0","22","1","1","3","2","","0","1","0","null","","","<img src = 'targets/43.png' width = '100%;'>","null","","","","","","","","","",""
"","html-keyboard-response","174","628214","0.0-10.0-3.8","vhqac8chyp","many_one","0","direct_first","1","en07an17","0","22","1","1","3","2","","0","1","0","768","","","<img src = 'targets/mask.png' width = '100%;'>","75","neg","CS","CS","1","category1/CS9.png","","targets/43.png","indirect","1","8"
"","html-keyboard-response","175","629744","0.0-10.0-0.9","vhqac8chyp","many_one","0","direct_first","1","en07an17","0","22","1","1","3","2","","0","1","0","null","","","<div style=""font-size:60px;"">+</div>","null","","","","","","","","","",""
"","html-keyboard-response","176","629845","0.0-10.0-1.9","vhqac8chyp","many_one","0","direct_first","1","en07an17","0","22","1","1","3","2","","0","1","0","null","","","<img src = 'category4/CS6.png' width = '100%;'>","null","","","","","","","","","",""
"","html-keyboard-response","177","630125","0.0-10.0-2.9","vhqac8chyp","many_one","0","direct_first","1","en07an17","0","22","1","1","3","2","","0","1","0","null","","","<img src = 'targets/37.png' width = '100%;'>","null","","","","","","","","","",""
"","html-keyboard-response","178","630813","0.0-10.0-3.9","vhqac8chyp","many_one","0","direct_first","1","en07an17","0","22","1","1","3","2","","0","1","0","685","","","<img src = 'targets/mask.png' width = '100%;'>","75","pos","CS","CS","4","category4/CS6.png","","targets/37.png","indirect","1","9"
"","html-keyboard-response","179","632344","0.0-10.0-0.10","vhqac8chyp","many_one","0","direct_first","1","en07an17","0","22","1","1","3","2","","0","1","0","null","","","<div style=""font-size:60px;"">+</div>","null","","","","","","","","","",""
"","html-keyboard-response","180","632444","0.0-10.0-1.10","vhqac8chyp","many_one","0","direct_first","1","en07an17","0","22","1","1","3","2","","0","1","0","null","","","<img src = 'category1/CS5.png' width = '100%;'>","null","","","","","","","","","",""
"","html-keyboard-response","181","632724","0.0-10.0-2.10","vhqac8chyp","many_one","0","direct_first","1","en07an17","0","22","1","1","3","2","","0","1","0","null","","","<img src = 'targets/2.png' width = '100%;'>","null","","","","","","","","","",""
"","html-keyboard-response","182","633236","0.0-10.0-3.10","vhqac8chyp","many_one","0","direct_first","1","en07an17","0","22","1","1","3","2","","0","1","0","509","","","<img src = 'targets/mask.png' width = '100%;'>","68","neg","CS","CS","1","category1/CS5.png","","targets/2.png","indirect","0","10"
"","html-keyboard-response","183","634764","0.0-10.0-0.11","vhqac8chyp","many_one","0","direct_first","1","en07an17","0","22","1","1","3","2","","0","1","0","null","","","<div style=""font-size:60px;"">+</div>","null","","","","","","","","","",""
"","html-keyboard-response","184","634864","0.0-10.0-1.11","vhqac8chyp","many_one","0","direct_first","1","en07an17","0","22","1","1","3","2","","0","1","0","null","","","<img src = 'category1/CS10.png' width = '100%;'>","null","","","","","","","","","",""
"","html-keyboard-response","185","635144","0.0-10.0-2.11","vhqac8chyp","many_one","0","direct_first","1","en07an17","0","22","1","1","3","2","","0","1","0","null","","","<img src = 'targets/10.png' width = '100%;'>","null","","","","","","","","","",""
"","html-keyboard-response","186","635680","0.0-10.0-3.11","vhqac8chyp","many_one","0","direct_first","1","en07an17","0","22","1","1","3","2","","0","1","0","533","","","<img src = 'targets/mask.png' width = '100%;'>","75","neg","CS","CS","1","category1/CS10.png","","targets/10.png","indirect","1","11"
"","html-keyboard-response","187","637194","0.0-10.0-0.12","vhqac8chyp","many_one","0","direct_first","1","en07an17","0","22","1","1","3","2","","0","1","0","null","","","<div style=""font-size:60px;"">+</div>","null","","","","","","","","","",""
"","html-keyboard-response","188","637295","0.0-10.0-1.12","vhqac8chyp","many_one","0","direct_first","1","en07an17","0","22","1","1","3","2","","0","1","0","null","","","<img src = 'category4/CS10.png' width = '100%;'>","null","","","","","","","","","",""
"","html-keyboard-response","189","637575","0.0-10.0-2.12","vhqac8chyp","many_one","0","direct_first","1","en07an17","0","22","1","1","3","2","","0","1","0","null","","","<img src = 'targets/35.png' width = '100%;'>","null","","","","","","","","","",""
"","html-keyboard-response","190","638409","0.0-10.0-3.12","vhqac8chyp","many_one","0","direct_first","1","en07an17","0","22","1","1","3","2","","0","1","0","832","","","<img src = 'targets/mask.png' width = '100%;'>","75","pos","CS","CS","4","category4/CS10.png","","targets/35.png","indirect","1","12"
"","html-keyboard-response","191","639924","0.0-10.0-0.13","vhqac8chyp","many_one","0","direct_first","1","en07an17","0","22","1","1","3","2","","0","1","0","null","","","<div style=""font-size:60px;"">+</div>","null","","","","","","","","","",""
"","html-keyboard-response","192","640024","0.0-10.0-1.13","vhqac8chyp","many_one","0","direct_first","1","en07an17","0","22","1","1","3","2","","0","1","0","null","","","<img src = 'category3/CS9.png' width = '100%;'>","null","","","","","","","","","",""
"","html-keyboard-response","193","640305","0.0-10.0-2.13","vhqac8chyp","many_one","0","direct_first","1","en07an17","0","22","1","1","3","2","","0","1","0","null","","","<img src = 'targets/18.png' width = '100%;'>","null","","","","","","","","","",""
"","html-keyboard-response","194","640966","0.0-10.0-3.13","vhqac8chyp","many_one","0","direct_first","1","en07an17","0","22","1","1","3","2","","0","1","0","659","","","<img src = 'targets/mask.png' width = '100%;'>","68","pos","CS","CS","3","category3/CS9.png","","targets/18.png","indirect","0","13"
"","html-keyboard-response","195","642504","0.0-10.0-0.14","vhqac8chyp","many_one","0","direct_first","1","en07an17","0","22","1","1","3","2","","0","1","0","null","","","<div style=""font-size:60px;"">+</div>","null","","","","","","","","","",""
"","html-keyboard-response","196","642604","0.0-10.0-1.14","vhqac8chyp","many_one","0","direct_first","1","en07an17","0","22","1","1","3","2","","0","1","0","null","","","<img src = 'category4/CS5.png' width = '100%;'>","null","","","","","","","","","",""
"","html-keyboard-response","197","642885","0.0-10.0-2.14","vhqac8chyp","many_one","0","direct_first","1","en07an17","0","22","1","1","3","2","","0","1","0","null","","","<img src = 'targets/12.png' width = '100%;'>","null","","","","","","","","","",""
"","html-keyboard-response","198","644021","0.0-10.0-3.14","vhqac8chyp","many_one","0","direct_first","1","en07an17","0","22","1","1","3","2","","0","1","0","1135","","","<img src = 'targets/mask.png' width = '100%;'>","68","pos","GS","GSold","4","category4/CS5.png","","targets/12.png","indirect","0","14"
"","html-keyboard-response","199","645544","0.0-10.0-0.15","vhqac8chyp","many_one","0","direct_first","1","en07an17","0","22","1","1","3","2","","0","1","0","null","","","<div style=""font-size:60px;"">+</div>","null","","","","","","","","","",""
"","html-keyboard-response","200","645644","0.0-10.0-1.15","vhqac8chyp","many_one","0","direct_first","1","en07an17","0","22","1","1","3","2","","0","1","0","null","","","<img src = 'category3/CS8.png' width = '100%;'>","null","","","","","","","","","",""
"","html-keyboard-response","201","645924","0.0-10.0-2.15","vhqac8chyp","many_one","0","direct_first","1","en07an17","0","22","1","1","3","2","","0","1","0","null","","","<img src = 'targets/46.png' width = '100%;'>","null","","","","","","","","","",""
"","html-keyboard-response","202","646730","0.0-10.0-3.15","vhqac8chyp","many_one","0","direct_first","1","en07an17","0","22","1","1","3","2","","0","1","0","803","","","<img src = 'targets/mask.png' width = '100%;'>","75","pos","CS","CS","3","category3/CS8.png","","targets/46.png","indirect","1","15"
"","html-keyboard-response","203","648264","0.0-10.0-0.16","vhqac8chyp","many_one","0","direct_first","1","en07an17","0","22","1","1","3","2","","0","1","0","null","","","<div style=""font-size:60px;"">+</div>","null","","","","","","","","","",""
"","html-keyboard-response","204","648364","0.0-10.0-1.16","vhqac8chyp","many_one","0","direct_first","1","en07an17","0","22","1","1","3","2","","0","1","0","null","","","<img src = 'category1/CS4.png' width = '100%;'>","null","","","","","","","","","",""
"","html-keyboard-response","205","648644","0.0-10.0-2.16","vhqac8chyp","many_one","0","direct_first","1","en07an17","0","22","1","1","3","2","","0","1","0","null","","","<img src = 'targets/42.png' width = '100%;'>","null","","","","","","","","","",""
"","html-keyboard-response","206","649142","0.0-10.0-3.16","vhqac8chyp","many_one","0","direct_first","1","en07an17","0","22","1","1","3","2","","0","1","0","496","","","<img src = 'targets/mask.png' width = '100%;'>","75","neg","CS","CS","1","category1/CS4.png","","targets/42.png","indirect","1","16"
"","html-keyboard-response","207","650660","0.0-10.0-0.17","vhqac8chyp","many_one","0","direct_first","1","en07an17","0","22","1","1","3","2","","0","1","0","null","","","<div style=""font-size:60px;"">+</div>","null","","","","","","","","","",""
"","html-keyboard-response","208","650765","0.0-10.0-1.17","vhqac8chyp","many_one","0","direct_first","1","en07an17","0","22","1","1","3","2","","0","1","0","null","","","<img src = 'category4/CS9.png' width = '100%;'>","null","","","","","","","","","",""
"","html-keyboard-response","209","651044","0.0-10.0-2.17","vhqac8chyp","many_one","0","direct_first","1","en07an17","0","22","1","1","3","2","","0","1","0","null","","","<img src = 'targets/20.png' width = '100%;'>","null","","","","","","","","","",""
"","html-keyboard-response","210","651476","0.0-10.0-3.17","vhqac8chyp","many_one","0","direct_first","1","en07an17","0","22","1","1","3","2","","0","1","0","429","","","<img src = 'targets/mask.png' width = '100%;'>","68","pos","CS","CS","4","category4/CS9.png","","targets/20.png","indirect","0","17"
"","html-keyboard-response","211","653014","0.0-10.0-0.18","vhqac8chyp","many_one","0","direct_first","1","en07an17","0","22","1","1","3","2","","0","1","0","null","","","<div style=""font-size:60px;"">+</div>","null","","","","","","","","","",""
"","html-keyboard-response","212","653115","0.0-10.0-1.18","vhqac8chyp","many_one","0","direct_first","1","en07an17","0","22","1","1","3","2","","0","1","0","null","","","<img src = 'category1/CS2.png' width = '100%;'>","null","","","","","","","","","",""
"","html-keyboard-response","213","653395","0.0-10.0-2.18","vhqac8chyp","many_one","0","direct_first","1","en07an17","0","22","1","1","3","2","","0","1","0","null","","","<img src = 'targets/6.png' width = '100%;'>","null","","","","","","","","","",""
"","html-keyboard-response","214","654143","0.0-10.0-3.18","vhqac8chyp","many_one","0","direct_first","1","en07an17","0","22","1","1","3","2","","0","1","0","745","","","<img src = 'targets/mask.png' width = '100%;'>","75","neg","GS","GSold","1","category1/CS2.png","","targets/6.png","indirect","1","18"
"","html-keyboard-response","215","655674","0.0-10.0-0.19","vhqac8chyp","many_one","0","direct_first","1","en07an17","0","22","1","1","3","2","","0","1","0","null","","","<div style=""font-size:60px;"">+</div>","null","","","","","","","","","",""
"","html-keyboard-response","216","655775","0.0-10.0-1.19","vhqac8chyp","many_one","0","direct_first","1","en07an17","0","22","1","1","3","2","","0","1","0","null","","","<img src = 'category2/CS7.png' width = '100%;'>","null","","","","","","","","","",""
"","html-keyboard-response","217","656054","0.0-10.0-2.19","vhqac8chyp","many_one","0","direct_first","1","en07an17","0","22","1","1","3","2","","0","1","0","null","","","<img src = 'targets/33.png' width = '100%;'>","null","","","","","","","","","",""
"","html-keyboard-response","218","656526","0.0-10.0-3.19","vhqac8chyp","many_one","0","direct_first","1","en07an17","0","22","1","1","3","2","","0","1","0","469","","","<img src = 'targets/mask.png' width = '100%;'>","68","neg","CS","CS","2","category2/CS7.png","","targets/33.png","indirect","0","19"
"","html-keyboard-response","219","658054","0.0-10.0-0.20","vhqac8chyp","many_one","0","direct_first","1","en07an17","0","22","1","1","3","2","","0","1","0","null","","","<div style=""font-size:60px;"">+</div>","null","","","","","","","","","",""
"","html-keyboard-response","220","658154","0.0-10.0-1.20","vhqac8chyp","many_one","0","direct_first","1","en07an17","0","22","1","1","3","2","","0","1","0","null","","","<img src = 'category2/CS4.png' width = '100%;'>","null","","","","","","","","","",""
"","html-keyboard-response","221","658435","0.0-10.0-2.20","vhqac8chyp","many_one","0","direct_first","1","en07an17","0","22","1","1","3","2","","0","1","0","null","","","<img src = 'targets/23.png' width = '100%;'>","null","","","","","","","","","",""
"","html-keyboard-response","222","658898","0.0-10.0-3.20","vhqac8chyp","many_one","0","direct_first","1","en07an17","0","22","1","1","3","2","","0","1","0","462","","","<img src = 'targets/mask.png' width = '100%;'>","68","neg","CS","CS","2","category2/CS4.png","","targets/23.png","indirect","0","20"
"","html-keyboard-response","223","660434","0.0-10.0-0.21","vhqac8chyp","many_one","0","direct_first","1","en07an17","0","22","1","1","3","2","","0","1","0","null","","","<div style=""font-size:60px;"">+</div>","null","","","","","","","","","",""
"","html-keyboard-response","224","660534","0.0-10.0-1.21","vhqac8chyp","many_one","0","direct_first","1","en07an17","0","22","1","1","3","2","","0","1","0","null","","","<img src = 'category2/CS1.png' width = '100%;'>","null","","","","","","","","","",""
"","html-keyboard-response","225","660812","0.0-10.0-2.21","vhqac8chyp","many_one","0","direct_first","1","en07an17","0","22","1","1","3","2","","0","1","0","null","","","<img src = 'targets/44.png' width = '100%;'>","null","","","","","","","","","",""
"","html-keyboard-response","226","661542","0.0-10.0-3.21","vhqac8chyp","many_one","0","direct_first","1","en07an17","0","22","1","1","3","2","","0","1","0","727","","","<img src = 'targets/mask.png' width = '100%;'>","75","neg","CS","CS","2","category2/CS1.png","","targets/44.png","indirect","1","21"
"","html-keyboard-response","227","663074","0.0-10.0-0.22","vhqac8chyp","many_one","0","direct_first","1","en07an17","0","22","1","1","3","2","","0","1","0","null","","","<div style=""font-size:60px;"">+</div>","null","","","","","","","","","",""
"","html-keyboard-response","228","663174","0.0-10.0-1.22","vhqac8chyp","many_one","0","direct_first","1","en07an17","0","22","1","1","3","2","","0","1","0","null","","","<img src = 'category3/CS6.png' width = '100%;'>","null","","","","","","","","","",""
"","html-keyboard-response","229","663455","0.0-10.0-2.22","vhqac8chyp","many_one","0","direct_first","1","en07an17","0","22","1","1","3","2","","0","1","0","null","","","<img src = 'targets/21.png' width = '100%;'>","null","","","","","","","","","",""
"","html-keyboard-response","230","664114","0.0-10.0-3.22","vhqac8chyp","many_one","0","direct_first","1","en07an17","0","22","1","1","3","2","","0","1","0","657","","","<img src = 'targets/mask.png' width = '100%;'>","68","pos","CS","CS","3","category3/CS6.png","","targets/21.png","indirect","0","22"
"","html-keyboard-response","231","665654","0.0-10.0-0.23","vhqac8chyp","many_one","0","direct_first","1","en07an17","0","22","1","1","3","2","","0","1","0","null","","","<div style=""font-size:60px;"">+</div>","null","","","","","","","","","",""
"","html-keyboard-response","232","665754","0.0-10.0-1.23","vhqac8chyp","many_one","0","direct_first","1","en07an17","0","22","1","1","3","2","","0","1","0","null","","","<img src = 'category1/CS7.png' width = '100%;'>","null","","","","","","","","","",""
"","html-keyboard-response","233","666035","0.0-10.0-2.23","vhqac8chyp","many_one","0","direct_first","1","en07an17","0","22","1","1","3","2","","0","1","0","null","","","<img src = 'targets/24.png' width = '100%;'>","null","","","","","","","","","",""
"","html-keyboard-response","234","666842","0.0-10.0-3.23","vhqac8chyp","many_one","0","direct_first","1","en07an17","0","22","1","1","3","2","","0","1","0","804","","","<img src = 'targets/mask.png' width = '100%;'>","68","neg","GS","GSold","1","category1/CS7.png","","targets/24.png","indirect","0","23"
"","survey-html-form","235","669334","0.0-11.0","vhqac8chyp","many_one","0","direct_first","1","en07an17","0","22","1","1","3","2","","0","1","0","1979","","{}","","","","","","","","","","","",""
"","html-keyboard-response","236","672364","0.0-12.0-0.0","vhqac8chyp","many_one","0","direct_first","1","en07an17","0","22","1","1","3","2","","0","1","0","null","","","<div style=""font-size:60px;"">+</div>","null","","","","","","","","","",""
"","html-keyboard-response","237","672464","0.0-12.0-1.0","vhqac8chyp","many_one","0","direct_first","1","en07an17","0","22","1","1","3","2","","0","1","0","null","","","<img src = 'category1/GS3.png' width = '100%;'>","null","","","","","","","","","",""
"","html-keyboard-response","238","672745","0.0-12.0-2.0","vhqac8chyp","many_one","0","direct_first","1","en07an17","0","22","1","1","3","2","","0","1","0","null","","","<img src = 'targets/40.png' width = '100%;'>","null","","","","","","","","","",""
"","html-keyboard-response","239","673379","0.0-12.0-3.0","vhqac8chyp","many_one","0","direct_first","1","en07an17","0","22","1","1","3","2","","0","1","0","633","","","<img src = 'targets/mask.png' width = '100%;'>","75","neg","GS","GSnew","1","category1/GS3.png","","targets/40.png","indirect","1","24"
"","html-keyboard-response","240","674895","0.0-12.0-0.1","vhqac8chyp","many_one","0","direct_first","1","en07an17","0","22","1","1","3","2","","0","1","0","null","","","<div style=""font-size:60px;"">+</div>","null","","","","","","","","","",""
"","html-keyboard-response","241","674995","0.0-12.0-1.1","vhqac8chyp","many_one","0","direct_first","1","en07an17","0","22","1","1","3","2","","0","1","0","null","","","<img src = 'category1/GS2.png' width = '100%;'>","null","","","","","","","","","",""
"","html-keyboard-response","242","675274","0.0-12.0-2.1","vhqac8chyp","many_one","0","direct_first","1","en07an17","0","22","1","1","3","2","","0","1","0","null","","","<img src = 'targets/16.png' width = '100%;'>","null","","","","","","","","","",""
"","html-keyboard-response","243","675936","0.0-12.0-3.1","vhqac8chyp","many_one","0","direct_first","1","en07an17","0","22","1","1","3","2","","0","1","0","659","","","<img src = 'targets/mask.png' width = '100%;'>","68","neg","GS","GSnew","1","category1/GS2.png","","targets/16.png","indirect","0","25"
"","html-keyboard-response","244","677454","0.0-12.0-0.2","vhqac8chyp","many_one","0","direct_first","1","en07an17","0","22","1","1","3","2","","0","1","0","null","","","<div style=""font-size:60px;"">+</div>","null","","","","","","","","","",""
"","html-keyboard-response","245","677554","0.0-12.0-1.2","vhqac8chyp","many_one","0","direct_first","1","en07an17","0","22","1","1","3","2","","0","1","0","null","","","<img src = 'category3/GS1.png' width = '100%;'>","null","","","","","","","","","",""
"","html-keyboard-response","246","677835","0.0-12.0-2.2","vhqac8chyp","many_one","0","direct_first","1","en07an17","0","22","1","1","3","2","","0","1","0","null","","","<img src = 'targets/4.png' width = '100%;'>","null","","","","","","","","","",""
"","html-keyboard-response","247","678465","0.0-12.0-3.2","vhqac8chyp","many_one","0","direct_first","1","en07an17","0","22","1","1","3","2","","0","1","0","629","","","<img src = 'targets/mask.png' width = '100%;'>","68","pos","GS","GSnew","3","category3/GS1.png","","targets/4.png","indirect","0","26"
"","html-keyboard-response","248","679995","0.0-12.0-0.3","vhqac8chyp","many_one","0","direct_first","1","en07an17","0","22","1","1","3","2","","0","1","0","null","","","<div style=""font-size:60px;"">+</div>","null","","","","","","","","","",""
"","html-keyboard-response","249","680094","0.0-12.0-1.3","vhqac8chyp","many_one","0","direct_first","1","en07an17","0","22","1","1","3","2","","0","1","0","null","","","<img src = 'category2/CS8.png' width = '100%;'>","null","","","","","","","","","",""
"","html-keyboard-response","250","680374","0.0-12.0-2.3","vhqac8chyp","many_one","0","direct_first","1","en07an17","0","22","1","1","3","2","","0","1","0","null","","","<img src = 'targets/19.png' width = '100%;'>","null","","","","","","","","","",""
"","html-keyboard-response","251","680985","0.0-12.0-3.3","vhqac8chyp","many_one","0","direct_first","1","en07an17","0","22","1","1","3","2","","0","1","0","607","","","<img src = 'targets/mask.png' width = '100%;'>","68","neg","GS","GSold","2","category2/CS8.png","","targets/19.png","indirect","0","27"
"","html-keyboard-response","252","682514","0.0-12.0-0.4","vhqac8chyp","many_one","0","direct_first","1","en07an17","0","22","1","1","3","2","","0","1","0","null","","","<div style=""font-size:60px;"">+</div>","null","","","","","","","","","",""
"","html-keyboard-response","253","682615","0.0-12.0-1.4","vhqac8chyp","many_one","0","direct_first","1","en07an17","0","22","1","1","3","2","","0","1","0","null","","","<img src = 'category1/GS1.png' width = '100%;'>","null","","","","","","","","","",""
"","html-keyboard-response","254","682895","0.0-12.0-2.4","vhqac8chyp","many_one","0","direct_first","1","en07an17","0","22","1","1","3","2","","0","1","0","null","","","<img src = 'targets/26.png' width = '100%;'>","null","","","","","","","","","",""
"","html-keyboard-response","255","683539","0.0-12.0-3.4","vhqac8chyp","many_one","0","direct_first","1","en07an17","0","22","1","1","3","2","","0","1","0","643","","","<img src = 'targets/mask.png' width = '100%;'>","75","neg","GS","GSnew","1","category1/GS1.png","","targets/26.png","indirect","1","28"
"","html-keyboard-response","256","685074","0.0-12.0-0.5","vhqac8chyp","many_one","0","direct_first","1","en07an17","0","22","1","1","3","2","","0","1","0","null","","","<div style=""font-size:60px;"">+</div>","null","","","","","","","","","",""
"","html-keyboard-response","257","685174","0.0-12.0-1.5","vhqac8chyp","many_one","0","direct_first","1","en07an17","0","22","1","1","3","2","","0","1","0","null","","","<img src = 'category1/ma.png' width = '100%;'>","null","","","","","","","","","",""
"","html-keyboard-response","258","685454","0.0-12.0-2.5","vhqac8chyp","many_one","0","direct_first","1","en07an17","0","22","1","1","3","2","","0","1","0","null","","","<img src = 'targets/17.png' width = '100%;'>","null","","","","","","","","","",""
"","html-keyboard-response","259","686567","0.0-12.0-3.5","vhqac8chyp","many_one","0","direct_first","1","en07an17","0","22","1","1","3","2","","0","1","0","1110","","","<img src = 'targets/mask.png' width = '100%;'>","75","neg","GS","abstract","1","category1/ma.png","","targets/17.png","indirect","1","29"
"","html-keyboard-response","260","688095","0.0-12.0-0.6","vhqac8chyp","many_one","0","direct_first","1","en07an17","0","22","1","1","3","2","","0","1","0","null","","","<div style=""font-size:60px;"">+</div>","null","","","","","","","","","",""
"","html-keyboard-response","261","688194","0.0-12.0-1.6","vhqac8chyp","many_one","0","direct_first","1","en07an17","0","22","1","1","3","2","","0","1","0","null","","","<img src = 'category3/CS3.png' width = '100%;'>","null","","","","","","","","","",""
"","html-keyboard-response","262","688474","0.0-12.0-2.6","vhqac8chyp","many_one","0","direct_first","1","en07an17","0","22","1","1","3","2","","0","1","0","null","","","<img src = 'targets/8.png' width = '100%;'>","null","","","","","","","","","",""
"","html-keyboard-response","263","689082","0.0-12.0-3.6","vhqac8chyp","many_one","0","direct_first","1","en07an17","0","22","1","1","3","2","","0","1","0","605","","","<img src = 'targets/mask.png' width = '100%;'>","68","pos","GS","GSold","3","category3/CS3.png","","targets/8.png","indirect","0","30"
"","html-keyboard-response","264","690614","0.0-12.0-0.7","vhqac8chyp","many_one","0","direct_first","1","en07an17","0","22","1","1","3","2","","0","1","0","null","","","<div style=""font-size:60px;"">+</div>","null","","","","","","","","","",""
"","html-keyboard-response","265","690714","0.0-12.0-1.7","vhqac8chyp","many_one","0","direct_first","1","en07an17","0","22","1","1","3","2","","0","1","0","null","","","<img src = 'category2/CS5.png' width = '100%;'>","null","","","","","","","","","",""
"","html-keyboard-response","266","690994","0.0-12.0-2.7","vhqac8chyp","many_one","0","direct_first","1","en07an17","0","22","1","1","3","2","","0","1","0","null","","","<img src = 'targets/32.png' width = '100%;'>","null","","","","","","","","","",""
"","html-keyboard-response","267","692106","0.0-12.0-3.7","vhqac8chyp","many_one","0","direct_first","1","en07an17","0","22","1","1","3","2","","0","1","0","1110","","","<img src = 'targets/mask.png' width = '100%;'>","75","neg","GS","GSold","2","category2/CS5.png","","targets/32.png","indirect","1","31"
"","html-keyboard-response","268","693639","0.0-12.0-0.8","vhqac8chyp","many_one","0","direct_first","1","en07an17","0","22","1","1","3","2","","0","1","0","null","","","<div style=""font-size:60px;"">+</div>","null","","","","","","","","","",""
"","html-keyboard-response","269","693740","0.0-12.0-1.8","vhqac8chyp","many_one","0","direct_first","1","en07an17","0","22","1","1","3","2","","0","1","0","null","","","<img src = 'category4/CS3.png' width = '100%;'>","null","","","","","","","","","",""
"","html-keyboard-response","270","694025","0.0-12.0-2.8","vhqac8chyp","many_one","0","direct_first","1","en07an17","0","22","1","1","3","2","","0","1","0","null","","","<img src = 'targets/47.png' width = '100%;'>","null","","","","","","","","","",""
"","html-keyboard-response","271","694898","0.0-12.0-3.8","vhqac8chyp","many_one","0","direct_first","1","en07an17","0","22","1","1","3","2","","0","1","0","871","","","<img src = 'targets/mask.png' width = '100%;'>","75","pos","GS","GSold","4","category4/CS3.png","","targets/47.png","indirect","1","32"
"","html-keyboard-response","272","696404","0.0-12.0-0.9","vhqac8chyp","many_one","0","direct_first","1","en07an17","0","22","1","1","3","2","","0","1","0","null","","","<div style=""font-size:60px;"">+</div>","null","","","","","","","","","",""
"","html-keyboard-response","273","696504","0.0-12.0-1.9","vhqac8chyp","many_one","0","direct_first","1","en07an17","0","22","1","1","3","2","","0","1","0","null","","","<img src = 'category3/GS2.png' width = '100%;'>","null","","","","","","","","","",""
"","html-keyboard-response","274","696785","0.0-12.0-2.9","vhqac8chyp","many_one","0","direct_first","1","en07an17","0","22","1","1","3","2","","0","1","0","null","","","<img src = 'targets/41.png' width = '100%;'>","null","","","","","","","","","",""
"","html-keyboard-response","275","697313","0.0-12.0-3.9","vhqac8chyp","many_one","0","direct_first","1","en07an17","0","22","1","1","3","2","","0","1","0","525","","","<img src = 'targets/mask.png' width = '100%;'>","68","pos","GS","GSnew","3","category3/GS2.png","","targets/41.png","indirect","0","33"
"","html-keyboard-response","276","698842","0.0-12.0-0.10","vhqac8chyp","many_one","0","direct_first","1","en07an17","0","22","1","1","3","2","","0","1","0","null","","","<div style=""font-size:60px;"">+</div>","null","","","","","","","","","",""
"","html-keyboard-response","277","698942","0.0-12.0-1.10","vhqac8chyp","many_one","0","direct_first","1","en07an17","0","22","1","1","3","2","","0","1","0","null","","","<img src = 'category4/CS8.png' width = '100%;'>","null","","","","","","","","","",""
"","html-keyboard-response","278","699225","0.0-12.0-2.10","vhqac8chyp","many_one","0","direct_first","1","en07an17","0","22","1","1","3","2","","0","1","0","null","","","<img src = 'targets/45.png' width = '100%;'>","null","","","","","","","","","",""
"","html-keyboard-response","279","700084","0.0-12.0-3.10","vhqac8chyp","many_one","0","direct_first","1","en07an17","0","22","1","1","3","2","","0","1","0","857","","","<img src = 'targets/mask.png' width = '100%;'>","68","pos","GS","GSold","4","category4/CS8.png","","targets/45.png","indirect","0","34"
"","html-keyboard-response","280","701614","0.0-12.0-0.11","vhqac8chyp","many_one","0","direct_first","1","en07an17","0","22","1","1","3","2","","0","1","0","null","","","<div style=""font-size:60px;"">+</div>","null","","","","","","","","","",""
"","html-keyboard-response","281","701715","0.0-12.0-1.11","vhqac8chyp","many_one","0","direct_first","1","en07an17","0","22","1","1","3","2","","0","1","0","null","","","<img src = 'category4/GS3.png' width = '100%;'>","null","","","","","","","","","",""
"","html-keyboard-response","282","701994","0.0-12.0-2.11","vhqac8chyp","many_one","0","direct_first","1","en07an17","0","22","1","1","3","2","","0","1","0","null","","","<img src = 'targets/29.png' width = '100%;'>","null","","","","","","","","","",""
"","html-keyboard-response","283","702573","0.0-12.0-3.11","vhqac8chyp","many_one","0","direct_first","1","en07an17","0","22","1","1","3","2","","0","1","0","576","","","<img src = 'targets/mask.png' width = '100%;'>","75","pos","GS","GSnew","4","category4/GS3.png","","targets/29.png","indirect","1","35"
"","html-keyboard-response","284","704114","0.0-12.0-0.12","vhqac8chyp","many_one","0","direct_first","1","en07an17","0","22","1","1","3","2","","0","1","0","null","","","<div style=""font-size:60px;"">+</div>","null","","","","","","","","","",""
"","html-keyboard-response","285","704215","0.0-12.0-1.12","vhqac8chyp","many_one","0","direct_first","1","en07an17","0","22","1","1","3","2","","0","1","0","null","","","<img src = 'category4/lin.png' width = '100%;'>","null","","","","","","","","","",""
"","html-keyboard-response","286","704495","0.0-12.0-2.12","vhqac8chyp","many_one","0","direct_first","1","en07an17","0","22","1","1","3","2","","0","1","0","null","","","<img src = 'targets/25.png' width = '100%;'>","null","","","","","","","","","",""
"","html-keyboard-response","287","705196","0.0-12.0-3.12","vhqac8chyp","many_one","0","direct_first","1","en07an17","0","22","1","1","3","2","","0","1","0","700","","","<img src = 'targets/mask.png' width = '100%;'>","75","pos","GS","abstract","4","category4/lin.png","","targets/25.png","indirect","1","36"
"","html-keyboard-response","288","706734","0.0-12.0-0.13","vhqac8chyp","many_one","0","direct_first","1","en07an17","0","22","1","1","3","2","","0","1","0","null","","","<div style=""font-size:60px;"">+</div>","null","","","","","","","","","",""
"","html-keyboard-response","289","706835","0.0-12.0-1.13","vhqac8chyp","many_one","0","direct_first","1","en07an17","0","22","1","1","3","2","","0","1","0","null","","","<img src = 'category2/CS10.png' width = '100%;'>","null","","","","","","","","","",""
"","html-keyboard-response","290","707114","0.0-12.0-2.13","vhqac8chyp","many_one","0","direct_first","1","en07an17","0","22","1","1","3","2","","0","1","0","null","","","<img src = 'targets/28.png' width = '100%;'>","null","","","","","","","","","",""
"","html-keyboard-response","291","707532","0.0-12.0-3.13","vhqac8chyp","many_one","0","direct_first","1","en07an17","0","22","1","1","3","2","","0","1","0","416","","","<img src = 'targets/mask.png' width = '100%;'>","68","neg","GS","GSold","2","category2/CS10.png","","targets/28.png","indirect","0","37"
"","html-keyboard-response","292","709051","0.0-12.0-0.14","vhqac8chyp","many_one","0","direct_first","1","en07an17","0","22","1","1","3","2","","0","1","0","null","","","<div style=""font-size:60px;"">+</div>","null","","","","","","","","","",""
"","html-keyboard-response","293","709151","0.0-12.0-1.14","vhqac8chyp","many_one","0","direct_first","1","en07an17","0","22","1","1","3","2","","0","1","0","null","","","<img src = 'category3/GS3.png' width = '100%;'>","null","","","","","","","","","",""
"","html-keyboard-response","294","709435","0.0-12.0-2.14","vhqac8chyp","many_one","0","direct_first","1","en07an17","0","22","1","1","3","2","","0","1","0","null","","","<img src = 'targets/38.png' width = '100%;'>","null","","","","","","","","","",""
"","html-keyboard-response","295","710244","0.0-12.0-3.14","vhqac8chyp","many_one","0","direct_first","1","en07an17","0","22","1","1","3","2","","0","1","0","807","","","<img src = 'targets/mask.png' width = '100%;'>","75","pos","GS","GSnew","3","category3/GS3.png","","targets/38.png","indirect","1","38"
"","html-keyboard-response","296","711774","0.0-12.0-0.15","vhqac8chyp","many_one","0","direct_first","1","en07an17","0","22","1","1","3","2","","0","1","0","null","","","<div style=""font-size:60px;"">+</div>","null","","","","","","","","","",""
"","html-keyboard-response","297","711875","0.0-12.0-1.15","vhqac8chyp","many_one","0","direct_first","1","en07an17","0","22","1","1","3","2","","0","1","0","null","","","<img src = 'category3/wang.png' width = '100%;'>","null","","","","","","","","","",""
"","html-keyboard-response","298","712153","0.0-12.0-2.15","vhqac8chyp","many_one","0","direct_first","1","en07an17","0","22","1","1","3","2","","0","1","0","null","","","<img src = 'targets/1.png' width = '100%;'>","null","","","","","","","","","",""
"","html-keyboard-response","299","712747","0.0-12.0-3.15","vhqac8chyp","many_one","0","direct_first","1","en07an17","0","22","1","1","3","2","","0","1","0","592","","","<img src = 'targets/mask.png' width = '100%;'>","75","pos","GS","abstract","3","category3/wang.png","","targets/1.png","indirect","1","39"
"","html-keyboard-response","300","714254","0.0-12.0-0.16","vhqac8chyp","many_one","0","direct_first","1","en07an17","0","22","1","1","3","2","","0","1","0","null","","","<div style=""font-size:60px;"">+</div>","null","","","","","","","","","",""
"","html-keyboard-response","301","714354","0.0-12.0-1.16","vhqac8chyp","many_one","0","direct_first","1","en07an17","0","22","1","1","3","2","","0","1","0","null","","","<img src = 'category4/GS1.png' width = '100%;'>","null","","","","","","","","","",""
"","html-keyboard-response","302","714635","0.0-12.0-2.16","vhqac8chyp","many_one","0","direct_first","1","en07an17","0","22","1","1","3","2","","0","1","0","null","","","<img src = 'targets/31.png' width = '100%;'>","null","","","","","","","","","",""
"","html-keyboard-response","303","715186","0.0-12.0-3.16","vhqac8chyp","many_one","0","direct_first","1","en07an17","0","22","1","1","3","2","","0","1","0","551","","","<img src = 'targets/mask.png' width = '100%;'>","68","pos","GS","GSnew","4","category4/GS1.png","","targets/31.png","indirect","0","40"
"","html-keyboard-response","304","716714","0.0-12.0-0.17","vhqac8chyp","many_one","0","direct_first","1","en07an17","0","22","1","1","3","2","","0","1","0","null","","","<div style=""font-size:60px;"">+</div>","null","","","","","","","","","",""
"","html-keyboard-response","305","716815","0.0-12.0-1.17","vhqac8chyp","many_one","0","direct_first","1","en07an17","0","22","1","1","3","2","","0","1","0","null","","","<img src = 'category2/GS2.png' width = '100%;'>","null","","","","","","","","","",""
"","html-keyboard-response","306","717095","0.0-12.0-2.17","vhqac8chyp","many_one","0","direct_first","1","en07an17","0","22","1","1","3","2","","0","1","0","null","","","<img src = 'targets/14.png' width = '100%;'>","null","","","","","","","","","",""
"","html-keyboard-response","307","717549","0.0-12.0-3.17","vhqac8chyp","many_one","0","direct_first","1","en07an17","0","22","1","1","3","2","","0","1","0","452","","","<img src = 'targets/mask.png' width = '100%;'>","75","neg","GS","GSnew","2","category2/GS2.png","","targets/14.png","indirect","1","41"
"","html-keyboard-response","308","719075","0.0-12.0-0.18","vhqac8chyp","many_one","0","direct_first","1","en07an17","0","22","1","1","3","2","","0","1","0","null","","","<div style=""font-size:60px;"">+</div>","null","","","","","","","","","",""
"","html-keyboard-response","309","719175","0.0-12.0-1.18","vhqac8chyp","many_one","0","direct_first","1","en07an17","0","22","1","1","3","2","","0","1","0","null","","","<img src = 'category2/GS1.png' width = '100%;'>","null","","","","","","","","","",""
"","html-keyboard-response","310","719454","0.0-12.0-2.18","vhqac8chyp","many_one","0","direct_first","1","en07an17","0","22","1","1","3","2","","0","1","0","null","","","<img src = 'targets/9.png' width = '100%;'>","null","","","","","","","","","",""
"","html-keyboard-response","311","719994","0.0-12.0-3.18","vhqac8chyp","many_one","0","direct_first","1","en07an17","0","22","1","1","3","2","","0","1","0","537","","","<img src = 'targets/mask.png' width = '100%;'>","75","neg","GS","GSnew","2","category2/GS1.png","","targets/9.png","indirect","1","42"
"","html-keyboard-response","312","721534","0.0-12.0-0.19","vhqac8chyp","many_one","0","direct_first","1","en07an17","0","22","1","1","3","2","","0","1","0","null","","","<div style=""font-size:60px;"">+</div>","null","","","","","","","","","",""
"","html-keyboard-response","313","721635","0.0-12.0-1.19","vhqac8chyp","many_one","0","direct_first","1","en07an17","0","22","1","1","3","2","","0","1","0","null","","","<img src = 'category4/GS2.png' width = '100%;'>","null","","","","","","","","","",""
"","html-keyboard-response","314","721905","0.0-12.0-2.19","vhqac8chyp","many_one","0","direct_first","1","en07an17","0","22","1","1","3","2","","0","1","0","null","","","<img src = 'targets/3.png' width = '100%;'>","null","","","","","","","","","",""
"","html-keyboard-response","315","722472","0.0-12.0-3.19","vhqac8chyp","many_one","0","direct_first","1","en07an17","0","22","1","1","3","2","","0","1","0","562","","","<img src = 'targets/mask.png' width = '100%;'>","68","pos","GS","GSnew","4","category4/GS2.png","","targets/3.png","indirect","0","43"
"","html-keyboard-response","316","724005","0.0-12.0-0.20","vhqac8chyp","many_one","0","direct_first","1","en07an17","0","22","1","1","3","2","","0","1","0","null","","","<div style=""font-size:60px;"">+</div>","null","","","","","","","","","",""
"","html-keyboard-response","317","724106","0.0-12.0-1.20","vhqac8chyp","many_one","0","direct_first","1","en07an17","0","22","1","1","3","2","","0","1","0","null","","","<img src = 'category2/GS3.png' width = '100%;'>","null","","","","","","","","","",""
"","html-keyboard-response","318","724385","0.0-12.0-2.20","vhqac8chyp","many_one","0","direct_first","1","en07an17","0","22","1","1","3","2","","0","1","0","null","","","<img src = 'targets/39.png' width = '100%;'>","null","","","","","","","","","",""
"","html-keyboard-response","319","724938","0.0-12.0-3.20","vhqac8chyp","many_one","0","direct_first","1","en07an17","0","22","1","1","3","2","","0","1","0","551","","","<img src = 'targets/mask.png' width = '100%;'>","68","neg","GS","GSnew","2","category2/GS3.png","","targets/39.png","indirect","0","44"
"","html-keyboard-response","320","726464","0.0-12.0-0.21","vhqac8chyp","many_one","0","direct_first","1","en07an17","0","22","1","1","3","2","","0","1","0","null","","","<div style=""font-size:60px;"">+</div>","null","","","","","","","","","",""
"","html-keyboard-response","321","726565","0.0-12.0-1.21","vhqac8chyp","many_one","0","direct_first","1","en07an17","0","22","1","1","3","2","","0","1","0","null","","","<img src = 'category3/CS2.png' width = '100%;'>","null","","","","","","","","","",""
"","html-keyboard-response","322","726839","0.0-12.0-2.21","vhqac8chyp","many_one","0","direct_first","1","en07an17","0","22","1","1","3","2","","0","1","0","null","","","<img src = 'targets/30.png' width = '100%;'>","null","","","","","","","","","",""
"","html-keyboard-response","323","727222","0.0-12.0-3.21","vhqac8chyp","many_one","0","direct_first","1","en07an17","0","22","1","1","3","2","","0","1","0","381","","","<img src = 'targets/mask.png' width = '100%;'>","75","pos","GS","GSold","3","category3/CS2.png","","targets/30.png","indirect","1","45"
"","html-keyboard-response","324","728744","0.0-12.0-0.22","vhqac8chyp","many_one","0","direct_first","1","en07an17","0","22","1","1","3","2","","0","1","0","null","","","<div style=""font-size:60px;"">+</div>","null","","","","","","","","","",""
"","html-keyboard-response","325","728844","0.0-12.0-1.22","vhqac8chyp","many_one","0","direct_first","1","en07an17","0","22","1","1","3","2","","0","1","0","null","","","<img src = 'category3/CS1.png' width = '100%;'>","null","","","","","","","","","",""
"","html-keyboard-response","326","729125","0.0-12.0-2.22","vhqac8chyp","many_one","0","direct_first","1","en07an17","0","22","1","1","3","2","","0","1","0","null","","","<img src = 'targets/27.png' width = '100%;'>","null","","","","","","","","","",""
"","html-keyboard-response","327","729771","0.0-12.0-3.22","vhqac8chyp","many_one","0","direct_first","1","en07an17","0","22","1","1","3","2","","0","1","0","643","","","<img src = 'targets/mask.png' width = '100%;'>","75","pos","GS","GSold","3","category3/CS1.png","","targets/27.png","indirect","1","46"
"","html-keyboard-response","328","731304","0.0-12.0-0.23","vhqac8chyp","many_one","0","direct_first","1","en07an17","0","22","1","1","3","2","","0","1","0","null","","","<div style=""font-size:60px;"">+</div>","null","","","","","","","","","",""
"","html-keyboard-response","329","731404","0.0-12.0-1.23","vhqac8chyp","many_one","0","direct_first","1","en07an17","0","22","1","1","3","2","","0","1","0","null","","","<img src = 'category2/men.png' width = '100%;'>","null","","","","","","","","","",""
"","html-keyboard-response","330","731680","0.0-12.0-2.23","vhqac8chyp","many_one","0","direct_first","1","en07an17","0","22","1","1","3","2","","0","1","0","null","","","<img src = 'targets/34.png' width = '100%;'>","null","","","","","","","","","",""
"","html-keyboard-response","331","732239","0.0-12.0-3.23","vhqac8chyp","many_one","0","direct_first","1","en07an17","0","22","1","1","3","2","","0","1","0","558","","","<img src = 'targets/mask.png' width = '100%;'>","68","neg","GS","abstract","2","category2/men.png","","targets/34.png","indirect","0","47"
"","survey-html-form","332","740356","0.0-13.0","vhqac8chyp","many_one","0","direct_first","1","en07an17","0","22","1","1","3","2","","0","1","0","7601","","{}","","","","","","","","","","","",""
