"success","trial_type","trial_index","time_elapsed","internal_node_id","subject","condition","condition_code","measure","measure_code","codeword","gender","age","education","chinese","fach","handedness","comment","hinschauen","ablenkung","gewissenhaft","rt","url","responses","stimulus","key_press","val","type","type_specific","category","cs_selected","target","indirect","task","nr_pres","response"
"true","fullscreen","0","4142","0.0-0.0","93ut7vddfs","many_one","0","indirect_first","0","ch04el13","0","26","1","1","3","2","Etwas seltsam, habe mich die ganze Zeit nach dem Sinn gefragt ","0","1","0","","","","","","","","","","","","","","",""
"","external-html","1","27003","0.0-1.0","93ut7vddfs","many_one","0","indirect_first","0","ch04el13","0","26","1","1","3","2","Etwas seltsam, habe mich die ganze Zeit nach dem Sinn gefragt ","0","1","0","22777.395000011893","text/information.html","","","","","","","","","","","","",""
"","external-html","2","41320","0.0-2.0","93ut7vddfs","many_one","0","indirect_first","0","ch04el13","0","26","1","1","3","2","Etwas seltsam, habe mich die ganze Zeit nach dem Sinn gefragt ","0","1","0","14238.63999999594","text/consent.html","","","","","","","","","","","","",""
"","survey-html-form","3","63491","0.0-3.0","93ut7vddfs","many_one","0","indirect_first","0","ch04el13","0","26","1","1","3","2","Etwas seltsam, habe mich die ganze Zeit nach dem Sinn gefragt ","0","1","0","22165.76499999792","","{""codeword_enter"":""ch04el13""}","","","","","","","","","","","",""
"","survey-html-form","4","85504","0.0-4.0","93ut7vddfs","many_one","0","indirect_first","0","ch04el13","0","26","1","1","3","2","Etwas seltsam, habe mich die ganze Zeit nach dem Sinn gefragt ","0","1","0","22004.514999993262","","{""age"":""26"",""education"":""1"",""subject"":""3"",""gender"":""0"",""handedness"":""2"",""chinese"":""1""}","","","","","","","","","","","",""
"","survey-html-form","5","87047","0.0-5.0","93ut7vddfs","many_one","0","indirect_first","0","ch04el13","0","26","1","1","3","2","Etwas seltsam, habe mich die ganze Zeit nach dem Sinn gefragt ","0","1","0","1535.3699999977835","","{}","","","","","","","","","","","",""
"","html-keyboard-response","6","91056","0.0-6.0-0.0-0.0","93ut7vddfs","many_one","0","indirect_first","0","ch04el13","0","26","1","1","3","2","Etwas seltsam, habe mich die ganze Zeit nach dem Sinn gefragt ","0","1","0","null","","","<div class = 'row'><div class = 'column'><img src = 'uspos/5830.bmp' width = '100%;'></div><div class = 'column'><img src = 'category1/CS8.png' width = '70%;'></div></div>","null","pos","CS","CS","1","category1/CS8.png","","","","",""
"","html-keyboard-response","7","93566","0.0-6.0-0.0-0.1","93ut7vddfs","many_one","0","indirect_first","0","ch04el13","0","26","1","1","3","2","Etwas seltsam, habe mich die ganze Zeit nach dem Sinn gefragt ","0","1","0","null","","","<div class = 'row'><div class = 'column'><img src = 'category1/CS10.png' width = '70%;'></div><div class = 'column'><img src = 'uspos/8350.bmp' width = '100%;'></div></div>","null","pos","CS","CS","1","category1/CS10.png","","","","",""
"","html-keyboard-response","8","96074","0.0-6.0-0.0-0.2","93ut7vddfs","many_one","0","indirect_first","0","ch04el13","0","26","1","1","3","2","Etwas seltsam, habe mich die ganze Zeit nach dem Sinn gefragt ","0","1","0","null","","","<div class = 'row'><div class = 'column'><img src = 'category1/CS3.png' width = '70%;'></div><div class = 'column'><img src = 'uspos/2160.bmp' width = '100%;'></div></div>","null","pos","CS","CS","1","category1/CS3.png","","","","",""
"","html-keyboard-response","9","98581","0.0-6.0-0.0-0.3","93ut7vddfs","many_one","0","indirect_first","0","ch04el13","0","26","1","1","3","2","Etwas seltsam, habe mich die ganze Zeit nach dem Sinn gefragt ","0","1","0","null","","","<div class = 'row'><div class = 'column'><img src = 'category2/CS9.png' width = '70%;'></div><div class = 'column'><img src = 'usneg/9041.bmp' width = '100%;'></div></div>","null","neg","CS","CS","2","category2/CS9.png","","","","",""
"","html-keyboard-response","10","101088","0.0-6.0-0.0-0.4","93ut7vddfs","many_one","0","indirect_first","0","ch04el13","0","26","1","1","3","2","Etwas seltsam, habe mich die ganze Zeit nach dem Sinn gefragt ","0","1","0","null","","","<div class = 'row'><div class = 'column'><img src = 'uspos/4599.bmp' width = '100%;'></div><div class = 'column'><img src = 'category1/CS5.png' width = '70%;'></div></div>","null","pos","CS","CS","1","category1/CS5.png","","","","",""
"","html-keyboard-response","11","103597","0.0-6.0-0.0-0.5","93ut7vddfs","many_one","0","indirect_first","0","ch04el13","0","26","1","1","3","2","Etwas seltsam, habe mich die ganze Zeit nach dem Sinn gefragt ","0","1","0","null","","","<div class = 'row'><div class = 'column'><img src = 'category2/CS10.png' width = '70%;'></div><div class = 'column'><img src = 'usneg/3160.bmp' width = '100%;'></div></div>","null","neg","CS","CS","2","category2/CS10.png","","","","",""
"","html-keyboard-response","12","106111","0.0-6.0-0.0-0.6","93ut7vddfs","many_one","0","indirect_first","0","ch04el13","0","26","1","1","3","2","Etwas seltsam, habe mich die ganze Zeit nach dem Sinn gefragt ","0","1","0","null","","","<div class = 'row'><div class = 'column'><img src = 'category4/CS1.png' width = '70%;'></div><div class = 'column'><img src = 'uspos/7325.bmp' width = '100%;'></div></div>","null","pos","CS","CS","4","category4/CS1.png","","","","",""
"","html-keyboard-response","13","108622","0.0-6.0-0.0-0.7","93ut7vddfs","many_one","0","indirect_first","0","ch04el13","0","26","1","1","3","2","Etwas seltsam, habe mich die ganze Zeit nach dem Sinn gefragt ","0","1","0","null","","","<div class = 'row'><div class = 'column'><img src = 'uspos/2900.2.bmp' width = '100%;'></div><div class = 'column'><img src = 'category4/CS3.png' width = '70%;'></div></div>","null","pos","CS","CS","4","category4/CS3.png","","","","",""
"","html-keyboard-response","14","111132","0.0-6.0-0.0-0.8","93ut7vddfs","many_one","0","indirect_first","0","ch04el13","0","26","1","1","3","2","Etwas seltsam, habe mich die ganze Zeit nach dem Sinn gefragt ","0","1","0","null","","","<div class = 'row'><div class = 'column'><img src = 'category2/CS7.png' width = '70%;'></div><div class = 'column'><img src = 'usneg/9520.bmp' width = '100%;'></div></div>","null","neg","CS","CS","2","category2/CS7.png","","","","",""
"","html-keyboard-response","15","113645","0.0-6.0-0.0-0.9","93ut7vddfs","many_one","0","indirect_first","0","ch04el13","0","26","1","1","3","2","Etwas seltsam, habe mich die ganze Zeit nach dem Sinn gefragt ","0","1","0","null","","","<div class = 'row'><div class = 'column'><img src = 'category3/CS8.png' width = '70%;'></div><div class = 'column'><img src = 'usneg/9635.2.bmp' width = '100%;'></div></div>","null","neg","CS","CS","3","category3/CS8.png","","","","",""
"","html-keyboard-response","16","116159","0.0-6.0-0.0-0.10","93ut7vddfs","many_one","0","indirect_first","0","ch04el13","0","26","1","1","3","2","Etwas seltsam, habe mich die ganze Zeit nach dem Sinn gefragt ","0","1","0","null","","","<div class = 'row'><div class = 'column'><img src = 'usneg/6020.bmp' width = '100%;'></div><div class = 'column'><img src = 'category3/CS2.png' width = '70%;'></div></div>","null","neg","CS","CS","3","category3/CS2.png","","","","",""
"","html-keyboard-response","17","118672","0.0-6.0-0.0-0.11","93ut7vddfs","many_one","0","indirect_first","0","ch04el13","0","26","1","1","3","2","Etwas seltsam, habe mich die ganze Zeit nach dem Sinn gefragt ","0","1","0","null","","","<div class = 'row'><div class = 'column'><img src = 'usneg/8485.bmp' width = '100%;'></div><div class = 'column'><img src = 'category2/CS4.png' width = '70%;'></div></div>","null","neg","CS","CS","2","category2/CS4.png","","","","",""
"","html-keyboard-response","18","121186","0.0-6.0-0.0-0.12","93ut7vddfs","many_one","0","indirect_first","0","ch04el13","0","26","1","1","3","2","Etwas seltsam, habe mich die ganze Zeit nach dem Sinn gefragt ","0","1","0","null","","","<div class = 'row'><div class = 'column'><img src = 'category3/CS7.png' width = '70%;'></div><div class = 'column'><img src = 'usneg/9181.bmp' width = '100%;'></div></div>","null","neg","CS","CS","3","category3/CS7.png","","","","",""
"","html-keyboard-response","19","123692","0.0-6.0-0.0-0.13","93ut7vddfs","many_one","0","indirect_first","0","ch04el13","0","26","1","1","3","2","Etwas seltsam, habe mich die ganze Zeit nach dem Sinn gefragt ","0","1","0","null","","","<div class = 'row'><div class = 'column'><img src = 'category3/CS10.png' width = '70%;'></div><div class = 'column'><img src = 'usneg/9050.bmp' width = '100%;'></div></div>","null","neg","CS","CS","3","category3/CS10.png","","","","",""
"","html-keyboard-response","20","126198","0.0-6.0-0.0-0.14","93ut7vddfs","many_one","0","indirect_first","0","ch04el13","0","26","1","1","3","2","Etwas seltsam, habe mich die ganze Zeit nach dem Sinn gefragt ","0","1","0","null","","","<div class = 'row'><div class = 'column'><img src = 'category4/CS8.png' width = '70%;'></div><div class = 'column'><img src = 'uspos/1710.bmp' width = '100%;'></div></div>","null","pos","CS","CS","4","category4/CS8.png","","","","",""
"","html-keyboard-response","21","128708","0.0-6.0-0.0-0.15","93ut7vddfs","many_one","0","indirect_first","0","ch04el13","0","26","1","1","3","2","Etwas seltsam, habe mich die ganze Zeit nach dem Sinn gefragt ","0","1","0","null","","","<div class = 'row'><div class = 'column'><img src = 'usneg/9560.bmp' width = '100%;'></div><div class = 'column'><img src = 'category2/CS1.png' width = '70%;'></div></div>","null","neg","CS","CS","2","category2/CS1.png","","","","",""
"","html-keyboard-response","22","131223","0.0-6.0-0.0-0.16","93ut7vddfs","many_one","0","indirect_first","0","ch04el13","0","26","1","1","3","2","Etwas seltsam, habe mich die ganze Zeit nach dem Sinn gefragt ","0","1","0","null","","","<div class = 'row'><div class = 'column'><img src = 'uspos/1463.bmp' width = '100%;'></div><div class = 'column'><img src = 'category4/CS4.png' width = '70%;'></div></div>","null","pos","CS","CS","4","category4/CS4.png","","","","",""
"","html-keyboard-response","23","133734","0.0-6.0-0.0-0.17","93ut7vddfs","many_one","0","indirect_first","0","ch04el13","0","26","1","1","3","2","Etwas seltsam, habe mich die ganze Zeit nach dem Sinn gefragt ","0","1","0","null","","","<div class = 'row'><div class = 'column'><img src = 'category3/CS3.png' width = '70%;'></div><div class = 'column'><img src = 'usneg/9182.bmp' width = '100%;'></div></div>","null","neg","CS","CS","3","category3/CS3.png","","","","",""
"","html-keyboard-response","24","136247","0.0-6.0-0.0-0.18","93ut7vddfs","many_one","0","indirect_first","0","ch04el13","0","26","1","1","3","2","Etwas seltsam, habe mich die ganze Zeit nach dem Sinn gefragt ","0","1","0","null","","","<div class = 'row'><div class = 'column'><img src = 'category4/CS10.png' width = '70%;'></div><div class = 'column'><img src = 'uspos/2150.bmp' width = '100%;'></div></div>","null","pos","CS","CS","4","category4/CS10.png","","","","",""
"","html-keyboard-response","25","138759","0.0-6.0-0.0-0.19","93ut7vddfs","many_one","0","indirect_first","0","ch04el13","0","26","1","1","3","2","Etwas seltsam, habe mich die ganze Zeit nach dem Sinn gefragt ","0","1","0","null","","","<div class = 'row'><div class = 'column'><img src = 'uspos/2165.bmp' width = '100%;'></div><div class = 'column'><img src = 'category1/CS7.png' width = '70%;'></div></div>","null","pos","CS","CS","1","category1/CS7.png","","","","",""
"","survey-html-form","26","143413","0.0-6.0-1.0","93ut7vddfs","many_one","0","indirect_first","0","ch04el13","0","26","1","1","3","2","Etwas seltsam, habe mich die ganze Zeit nach dem Sinn gefragt ","0","1","0","4147.19000000332","","{}","","","","","","","","","","","",""
"","html-keyboard-response","27","147425","0.0-6.0-2.0-0.0","93ut7vddfs","many_one","0","indirect_first","0","ch04el13","0","26","1","1","3","2","Etwas seltsam, habe mich die ganze Zeit nach dem Sinn gefragt ","0","1","0","null","","","<div class = 'row'><div class = 'column'><img src = 'category2/CS4.png' width = '70%;'></div><div class = 'column'><img src = 'usneg/8485.bmp' width = '100%;'></div></div>","null","neg","CS","CS","2","category2/CS4.png","","","","",""
"","html-keyboard-response","28","149933","0.0-6.0-2.0-0.1","93ut7vddfs","many_one","0","indirect_first","0","ch04el13","0","26","1","1","3","2","Etwas seltsam, habe mich die ganze Zeit nach dem Sinn gefragt ","0","1","0","null","","","<div class = 'row'><div class = 'column'><img src = 'category1/CS8.png' width = '70%;'></div><div class = 'column'><img src = 'uspos/5830.bmp' width = '100%;'></div></div>","null","pos","CS","CS","1","category1/CS8.png","","","","",""
"","html-keyboard-response","29","152442","0.0-6.0-2.0-0.2","93ut7vddfs","many_one","0","indirect_first","0","ch04el13","0","26","1","1","3","2","Etwas seltsam, habe mich die ganze Zeit nach dem Sinn gefragt ","0","1","0","null","","","<div class = 'row'><div class = 'column'><img src = 'uspos/2160.bmp' width = '100%;'></div><div class = 'column'><img src = 'category1/CS3.png' width = '70%;'></div></div>","null","pos","CS","CS","1","category1/CS3.png","","","","",""
"","html-keyboard-response","30","154955","0.0-6.0-2.0-0.3","93ut7vddfs","many_one","0","indirect_first","0","ch04el13","0","26","1","1","3","2","Etwas seltsam, habe mich die ganze Zeit nach dem Sinn gefragt ","0","1","0","null","","","<div class = 'row'><div class = 'column'><img src = 'uspos/1463.bmp' width = '100%;'></div><div class = 'column'><img src = 'category4/CS4.png' width = '70%;'></div></div>","null","pos","CS","CS","4","category4/CS4.png","","","","",""
"","html-keyboard-response","31","157469","0.0-6.0-2.0-0.4","93ut7vddfs","many_one","0","indirect_first","0","ch04el13","0","26","1","1","3","2","Etwas seltsam, habe mich die ganze Zeit nach dem Sinn gefragt ","0","1","0","null","","","<div class = 'row'><div class = 'column'><img src = 'usneg/9181.bmp' width = '100%;'></div><div class = 'column'><img src = 'category3/CS7.png' width = '70%;'></div></div>","null","neg","CS","CS","3","category3/CS7.png","","","","",""
"","html-keyboard-response","32","159977","0.0-6.0-2.0-0.5","93ut7vddfs","many_one","0","indirect_first","0","ch04el13","0","26","1","1","3","2","Etwas seltsam, habe mich die ganze Zeit nach dem Sinn gefragt ","0","1","0","null","","","<div class = 'row'><div class = 'column'><img src = 'category2/CS1.png' width = '70%;'></div><div class = 'column'><img src = 'usneg/9560.bmp' width = '100%;'></div></div>","null","neg","CS","CS","2","category2/CS1.png","","","","",""
"","html-keyboard-response","33","162490","0.0-6.0-2.0-0.6","93ut7vddfs","many_one","0","indirect_first","0","ch04el13","0","26","1","1","3","2","Etwas seltsam, habe mich die ganze Zeit nach dem Sinn gefragt ","0","1","0","null","","","<div class = 'row'><div class = 'column'><img src = 'uspos/2150.bmp' width = '100%;'></div><div class = 'column'><img src = 'category4/CS10.png' width = '70%;'></div></div>","null","pos","CS","CS","4","category4/CS10.png","","","","",""
"","html-keyboard-response","34","165003","0.0-6.0-2.0-0.7","93ut7vddfs","many_one","0","indirect_first","0","ch04el13","0","26","1","1","3","2","Etwas seltsam, habe mich die ganze Zeit nach dem Sinn gefragt ","0","1","0","null","","","<div class = 'row'><div class = 'column'><img src = 'usneg/9041.bmp' width = '100%;'></div><div class = 'column'><img src = 'category2/CS9.png' width = '70%;'></div></div>","null","neg","CS","CS","2","category2/CS9.png","","","","",""
"","html-keyboard-response","35","167516","0.0-6.0-2.0-0.8","93ut7vddfs","many_one","0","indirect_first","0","ch04el13","0","26","1","1","3","2","Etwas seltsam, habe mich die ganze Zeit nach dem Sinn gefragt ","0","1","0","null","","","<div class = 'row'><div class = 'column'><img src = 'uspos/1710.bmp' width = '100%;'></div><div class = 'column'><img src = 'category4/CS8.png' width = '70%;'></div></div>","null","pos","CS","CS","4","category4/CS8.png","","","","",""
"","html-keyboard-response","36","170030","0.0-6.0-2.0-0.9","93ut7vddfs","many_one","0","indirect_first","0","ch04el13","0","26","1","1","3","2","Etwas seltsam, habe mich die ganze Zeit nach dem Sinn gefragt ","0","1","0","null","","","<div class = 'row'><div class = 'column'><img src = 'uspos/8350.bmp' width = '100%;'></div><div class = 'column'><img src = 'category1/CS10.png' width = '70%;'></div></div>","null","pos","CS","CS","1","category1/CS10.png","","","","",""
"","html-keyboard-response","37","172543","0.0-6.0-2.0-0.10","93ut7vddfs","many_one","0","indirect_first","0","ch04el13","0","26","1","1","3","2","Etwas seltsam, habe mich die ganze Zeit nach dem Sinn gefragt ","0","1","0","null","","","<div class = 'row'><div class = 'column'><img src = 'category3/CS8.png' width = '70%;'></div><div class = 'column'><img src = 'usneg/9635.2.bmp' width = '100%;'></div></div>","null","neg","CS","CS","3","category3/CS8.png","","","","",""
"","html-keyboard-response","38","175056","0.0-6.0-2.0-0.11","93ut7vddfs","many_one","0","indirect_first","0","ch04el13","0","26","1","1","3","2","Etwas seltsam, habe mich die ganze Zeit nach dem Sinn gefragt ","0","1","0","null","","","<div class = 'row'><div class = 'column'><img src = 'category3/CS2.png' width = '70%;'></div><div class = 'column'><img src = 'usneg/6020.bmp' width = '100%;'></div></div>","null","neg","CS","CS","3","category3/CS2.png","","","","",""
"","html-keyboard-response","39","177569","0.0-6.0-2.0-0.12","93ut7vddfs","many_one","0","indirect_first","0","ch04el13","0","26","1","1","3","2","Etwas seltsam, habe mich die ganze Zeit nach dem Sinn gefragt ","0","1","0","null","","","<div class = 'row'><div class = 'column'><img src = 'uspos/4599.bmp' width = '100%;'></div><div class = 'column'><img src = 'category1/CS5.png' width = '70%;'></div></div>","null","pos","CS","CS","1","category1/CS5.png","","","","",""
"","html-keyboard-response","40","180084","0.0-6.0-2.0-0.13","93ut7vddfs","many_one","0","indirect_first","0","ch04el13","0","26","1","1","3","2","Etwas seltsam, habe mich die ganze Zeit nach dem Sinn gefragt ","0","1","0","null","","","<div class = 'row'><div class = 'column'><img src = 'uspos/7325.bmp' width = '100%;'></div><div class = 'column'><img src = 'category4/CS1.png' width = '70%;'></div></div>","null","pos","CS","CS","4","category4/CS1.png","","","","",""
"","html-keyboard-response","41","182597","0.0-6.0-2.0-0.14","93ut7vddfs","many_one","0","indirect_first","0","ch04el13","0","26","1","1","3","2","Etwas seltsam, habe mich die ganze Zeit nach dem Sinn gefragt ","0","1","0","null","","","<div class = 'row'><div class = 'column'><img src = 'category4/CS3.png' width = '70%;'></div><div class = 'column'><img src = 'uspos/2900.2.bmp' width = '100%;'></div></div>","null","pos","CS","CS","4","category4/CS3.png","","","","",""
"","html-keyboard-response","42","185108","0.0-6.0-2.0-0.15","93ut7vddfs","many_one","0","indirect_first","0","ch04el13","0","26","1","1","3","2","Etwas seltsam, habe mich die ganze Zeit nach dem Sinn gefragt ","0","1","0","null","","","<div class = 'row'><div class = 'column'><img src = 'uspos/2165.bmp' width = '100%;'></div><div class = 'column'><img src = 'category1/CS7.png' width = '70%;'></div></div>","null","pos","CS","CS","1","category1/CS7.png","","","","",""
"","html-keyboard-response","43","187622","0.0-6.0-2.0-0.16","93ut7vddfs","many_one","0","indirect_first","0","ch04el13","0","26","1","1","3","2","Etwas seltsam, habe mich die ganze Zeit nach dem Sinn gefragt ","0","1","0","null","","","<div class = 'row'><div class = 'column'><img src = 'usneg/3160.bmp' width = '100%;'></div><div class = 'column'><img src = 'category2/CS10.png' width = '70%;'></div></div>","null","neg","CS","CS","2","category2/CS10.png","","","","",""
"","html-keyboard-response","44","190135","0.0-6.0-2.0-0.17","93ut7vddfs","many_one","0","indirect_first","0","ch04el13","0","26","1","1","3","2","Etwas seltsam, habe mich die ganze Zeit nach dem Sinn gefragt ","0","1","0","null","","","<div class = 'row'><div class = 'column'><img src = 'usneg/9520.bmp' width = '100%;'></div><div class = 'column'><img src = 'category2/CS7.png' width = '70%;'></div></div>","null","neg","CS","CS","2","category2/CS7.png","","","","",""
"","html-keyboard-response","45","192646","0.0-6.0-2.0-0.18","93ut7vddfs","many_one","0","indirect_first","0","ch04el13","0","26","1","1","3","2","Etwas seltsam, habe mich die ganze Zeit nach dem Sinn gefragt ","0","1","0","null","","","<div class = 'row'><div class = 'column'><img src = 'usneg/9050.bmp' width = '100%;'></div><div class = 'column'><img src = 'category3/CS10.png' width = '70%;'></div></div>","null","neg","CS","CS","3","category3/CS10.png","","","","",""
"","html-keyboard-response","46","195159","0.0-6.0-2.0-0.19","93ut7vddfs","many_one","0","indirect_first","0","ch04el13","0","26","1","1","3","2","Etwas seltsam, habe mich die ganze Zeit nach dem Sinn gefragt ","0","1","0","null","","","<div class = 'row'><div class = 'column'><img src = 'usneg/9182.bmp' width = '100%;'></div><div class = 'column'><img src = 'category3/CS3.png' width = '70%;'></div></div>","null","neg","CS","CS","3","category3/CS3.png","","","","",""
"","survey-html-form","47","197633","0.0-6.0-3.0","93ut7vddfs","many_one","0","indirect_first","0","ch04el13","0","26","1","1","3","2","Etwas seltsam, habe mich die ganze Zeit nach dem Sinn gefragt ","0","1","0","1967.2149999969406","","{}","","","","","","","","","","","",""
"","html-keyboard-response","48","201647","0.0-6.0-4.0-0.0","93ut7vddfs","many_one","0","indirect_first","0","ch04el13","0","26","1","1","3","2","Etwas seltsam, habe mich die ganze Zeit nach dem Sinn gefragt ","0","1","0","null","","","<div class = 'row'><div class = 'column'><img src = 'usneg/9635.2.bmp' width = '100%;'></div><div class = 'column'><img src = 'category3/CS8.png' width = '70%;'></div></div>","null","neg","CS","CS","3","category3/CS8.png","","","","",""
"","html-keyboard-response","49","204155","0.0-6.0-4.0-0.1","93ut7vddfs","many_one","0","indirect_first","0","ch04el13","0","26","1","1","3","2","Etwas seltsam, habe mich die ganze Zeit nach dem Sinn gefragt ","0","1","0","null","","","<div class = 'row'><div class = 'column'><img src = 'usneg/9041.bmp' width = '100%;'></div><div class = 'column'><img src = 'category2/CS9.png' width = '70%;'></div></div>","null","neg","CS","CS","2","category2/CS9.png","","","","",""
"","html-keyboard-response","50","206668","0.0-6.0-4.0-0.2","93ut7vddfs","many_one","0","indirect_first","0","ch04el13","0","26","1","1","3","2","Etwas seltsam, habe mich die ganze Zeit nach dem Sinn gefragt ","0","1","0","null","","","<div class = 'row'><div class = 'column'><img src = 'category4/CS4.png' width = '70%;'></div><div class = 'column'><img src = 'uspos/1463.bmp' width = '100%;'></div></div>","null","pos","CS","CS","4","category4/CS4.png","","","","",""
"","html-keyboard-response","51","209181","0.0-6.0-4.0-0.3","93ut7vddfs","many_one","0","indirect_first","0","ch04el13","0","26","1","1","3","2","Etwas seltsam, habe mich die ganze Zeit nach dem Sinn gefragt ","0","1","0","null","","","<div class = 'row'><div class = 'column'><img src = 'uspos/8350.bmp' width = '100%;'></div><div class = 'column'><img src = 'category1/CS10.png' width = '70%;'></div></div>","null","pos","CS","CS","1","category1/CS10.png","","","","",""
"","html-keyboard-response","52","211685","0.0-6.0-4.0-0.4","93ut7vddfs","many_one","0","indirect_first","0","ch04el13","0","26","1","1","3","2","Etwas seltsam, habe mich die ganze Zeit nach dem Sinn gefragt ","0","1","0","null","","","<div class = 'row'><div class = 'column'><img src = 'uspos/5830.bmp' width = '100%;'></div><div class = 'column'><img src = 'category1/CS8.png' width = '70%;'></div></div>","null","pos","CS","CS","1","category1/CS8.png","","","","",""
"","html-keyboard-response","53","214191","0.0-6.0-4.0-0.5","93ut7vddfs","many_one","0","indirect_first","0","ch04el13","0","26","1","1","3","2","Etwas seltsam, habe mich die ganze Zeit nach dem Sinn gefragt ","0","1","0","null","","","<div class = 'row'><div class = 'column'><img src = 'category2/CS1.png' width = '70%;'></div><div class = 'column'><img src = 'usneg/9560.bmp' width = '100%;'></div></div>","null","neg","CS","CS","2","category2/CS1.png","","","","",""
"","html-keyboard-response","54","216704","0.0-6.0-4.0-0.6","93ut7vddfs","many_one","0","indirect_first","0","ch04el13","0","26","1","1","3","2","Etwas seltsam, habe mich die ganze Zeit nach dem Sinn gefragt ","0","1","0","null","","","<div class = 'row'><div class = 'column'><img src = 'usneg/9181.bmp' width = '100%;'></div><div class = 'column'><img src = 'category3/CS7.png' width = '70%;'></div></div>","null","neg","CS","CS","3","category3/CS7.png","","","","",""
"","html-keyboard-response","55","219217","0.0-6.0-4.0-0.7","93ut7vddfs","many_one","0","indirect_first","0","ch04el13","0","26","1","1","3","2","Etwas seltsam, habe mich die ganze Zeit nach dem Sinn gefragt ","0","1","0","null","","","<div class = 'row'><div class = 'column'><img src = 'usneg/9520.bmp' width = '100%;'></div><div class = 'column'><img src = 'category2/CS7.png' width = '70%;'></div></div>","null","neg","CS","CS","2","category2/CS7.png","","","","",""
"","html-keyboard-response","56","221723","0.0-6.0-4.0-0.8","93ut7vddfs","many_one","0","indirect_first","0","ch04el13","0","26","1","1","3","2","Etwas seltsam, habe mich die ganze Zeit nach dem Sinn gefragt ","0","1","0","null","","","<div class = 'row'><div class = 'column'><img src = 'usneg/8485.bmp' width = '100%;'></div><div class = 'column'><img src = 'category2/CS4.png' width = '70%;'></div></div>","null","neg","CS","CS","2","category2/CS4.png","","","","",""
"","html-keyboard-response","57","224232","0.0-6.0-4.0-0.9","93ut7vddfs","many_one","0","indirect_first","0","ch04el13","0","26","1","1","3","2","Etwas seltsam, habe mich die ganze Zeit nach dem Sinn gefragt ","0","1","0","null","","","<div class = 'row'><div class = 'column'><img src = 'uspos/4599.bmp' width = '100%;'></div><div class = 'column'><img src = 'category1/CS5.png' width = '70%;'></div></div>","null","pos","CS","CS","1","category1/CS5.png","","","","",""
"","html-keyboard-response","58","226738","0.0-6.0-4.0-0.10","93ut7vddfs","many_one","0","indirect_first","0","ch04el13","0","26","1","1","3","2","Etwas seltsam, habe mich die ganze Zeit nach dem Sinn gefragt ","0","1","0","null","","","<div class = 'row'><div class = 'column'><img src = 'uspos/2160.bmp' width = '100%;'></div><div class = 'column'><img src = 'category1/CS3.png' width = '70%;'></div></div>","null","pos","CS","CS","1","category1/CS3.png","","","","",""
"","html-keyboard-response","59","229251","0.0-6.0-4.0-0.11","93ut7vddfs","many_one","0","indirect_first","0","ch04el13","0","26","1","1","3","2","Etwas seltsam, habe mich die ganze Zeit nach dem Sinn gefragt ","0","1","0","null","","","<div class = 'row'><div class = 'column'><img src = 'category3/CS10.png' width = '70%;'></div><div class = 'column'><img src = 'usneg/9050.bmp' width = '100%;'></div></div>","null","neg","CS","CS","3","category3/CS10.png","","","","",""
"","html-keyboard-response","60","231763","0.0-6.0-4.0-0.12","93ut7vddfs","many_one","0","indirect_first","0","ch04el13","0","26","1","1","3","2","Etwas seltsam, habe mich die ganze Zeit nach dem Sinn gefragt ","0","1","0","null","","","<div class = 'row'><div class = 'column'><img src = 'category4/CS1.png' width = '70%;'></div><div class = 'column'><img src = 'uspos/7325.bmp' width = '100%;'></div></div>","null","pos","CS","CS","4","category4/CS1.png","","","","",""
"","html-keyboard-response","61","234276","0.0-6.0-4.0-0.13","93ut7vddfs","many_one","0","indirect_first","0","ch04el13","0","26","1","1","3","2","Etwas seltsam, habe mich die ganze Zeit nach dem Sinn gefragt ","0","1","0","null","","","<div class = 'row'><div class = 'column'><img src = 'category4/CS3.png' width = '70%;'></div><div class = 'column'><img src = 'uspos/2900.2.bmp' width = '100%;'></div></div>","null","pos","CS","CS","4","category4/CS3.png","","","","",""
"","html-keyboard-response","62","236786","0.0-6.0-4.0-0.14","93ut7vddfs","many_one","0","indirect_first","0","ch04el13","0","26","1","1","3","2","Etwas seltsam, habe mich die ganze Zeit nach dem Sinn gefragt ","0","1","0","null","","","<div class = 'row'><div class = 'column'><img src = 'category3/CS3.png' width = '70%;'></div><div class = 'column'><img src = 'usneg/9182.bmp' width = '100%;'></div></div>","null","neg","CS","CS","3","category3/CS3.png","","","","",""
"","html-keyboard-response","63","239299","0.0-6.0-4.0-0.15","93ut7vddfs","many_one","0","indirect_first","0","ch04el13","0","26","1","1","3","2","Etwas seltsam, habe mich die ganze Zeit nach dem Sinn gefragt ","0","1","0","null","","","<div class = 'row'><div class = 'column'><img src = 'usneg/6020.bmp' width = '100%;'></div><div class = 'column'><img src = 'category3/CS2.png' width = '70%;'></div></div>","null","neg","CS","CS","3","category3/CS2.png","","","","",""
"","html-keyboard-response","64","241813","0.0-6.0-4.0-0.16","93ut7vddfs","many_one","0","indirect_first","0","ch04el13","0","26","1","1","3","2","Etwas seltsam, habe mich die ganze Zeit nach dem Sinn gefragt ","0","1","0","null","","","<div class = 'row'><div class = 'column'><img src = 'category2/CS10.png' width = '70%;'></div><div class = 'column'><img src = 'usneg/3160.bmp' width = '100%;'></div></div>","null","neg","CS","CS","2","category2/CS10.png","","","","",""
"","html-keyboard-response","65","244321","0.0-6.0-4.0-0.17","93ut7vddfs","many_one","0","indirect_first","0","ch04el13","0","26","1","1","3","2","Etwas seltsam, habe mich die ganze Zeit nach dem Sinn gefragt ","0","1","0","null","","","<div class = 'row'><div class = 'column'><img src = 'uspos/2165.bmp' width = '100%;'></div><div class = 'column'><img src = 'category1/CS7.png' width = '70%;'></div></div>","null","pos","CS","CS","1","category1/CS7.png","","","","",""
"","html-keyboard-response","66","246830","0.0-6.0-4.0-0.18","93ut7vddfs","many_one","0","indirect_first","0","ch04el13","0","26","1","1","3","2","Etwas seltsam, habe mich die ganze Zeit nach dem Sinn gefragt ","0","1","0","null","","","<div class = 'row'><div class = 'column'><img src = 'uspos/2150.bmp' width = '100%;'></div><div class = 'column'><img src = 'category4/CS10.png' width = '70%;'></div></div>","null","pos","CS","CS","4","category4/CS10.png","","","","",""
"","html-keyboard-response","67","249339","0.0-6.0-4.0-0.19","93ut7vddfs","many_one","0","indirect_first","0","ch04el13","0","26","1","1","3","2","Etwas seltsam, habe mich die ganze Zeit nach dem Sinn gefragt ","0","1","0","null","","","<div class = 'row'><div class = 'column'><img src = 'uspos/1710.bmp' width = '100%;'></div><div class = 'column'><img src = 'category4/CS8.png' width = '70%;'></div></div>","null","pos","CS","CS","4","category4/CS8.png","","","","",""
"","survey-html-form","68","251898","0.0-6.0-5.0","93ut7vddfs","many_one","0","indirect_first","0","ch04el13","0","26","1","1","3","2","Etwas seltsam, habe mich die ganze Zeit nach dem Sinn gefragt ","0","1","0","2051.869999995688","","{}","","","","","","","","","","","",""
"","html-keyboard-response","69","255914","0.0-6.0-6.0-0.0","93ut7vddfs","many_one","0","indirect_first","0","ch04el13","0","26","1","1","3","2","Etwas seltsam, habe mich die ganze Zeit nach dem Sinn gefragt ","0","1","0","null","","","<div class = 'row'><div class = 'column'><img src = 'usneg/3160.bmp' width = '100%;'></div><div class = 'column'><img src = 'category2/CS10.png' width = '70%;'></div></div>","null","neg","CS","CS","2","category2/CS10.png","","","","",""
"","html-keyboard-response","70","258422","0.0-6.0-6.0-0.1","93ut7vddfs","many_one","0","indirect_first","0","ch04el13","0","26","1","1","3","2","Etwas seltsam, habe mich die ganze Zeit nach dem Sinn gefragt ","0","1","0","null","","","<div class = 'row'><div class = 'column'><img src = 'category2/CS1.png' width = '70%;'></div><div class = 'column'><img src = 'usneg/9560.bmp' width = '100%;'></div></div>","null","neg","CS","CS","2","category2/CS1.png","","","","",""
"","html-keyboard-response","71","260929","0.0-6.0-6.0-0.2","93ut7vddfs","many_one","0","indirect_first","0","ch04el13","0","26","1","1","3","2","Etwas seltsam, habe mich die ganze Zeit nach dem Sinn gefragt ","0","1","0","null","","","<div class = 'row'><div class = 'column'><img src = 'category1/CS3.png' width = '70%;'></div><div class = 'column'><img src = 'uspos/2160.bmp' width = '100%;'></div></div>","null","pos","CS","CS","1","category1/CS3.png","","","","",""
"","html-keyboard-response","72","263443","0.0-6.0-6.0-0.3","93ut7vddfs","many_one","0","indirect_first","0","ch04el13","0","26","1","1","3","2","Etwas seltsam, habe mich die ganze Zeit nach dem Sinn gefragt ","0","1","0","null","","","<div class = 'row'><div class = 'column'><img src = 'usneg/9050.bmp' width = '100%;'></div><div class = 'column'><img src = 'category3/CS10.png' width = '70%;'></div></div>","null","neg","CS","CS","3","category3/CS10.png","","","","",""
"","html-keyboard-response","73","265956","0.0-6.0-6.0-0.4","93ut7vddfs","many_one","0","indirect_first","0","ch04el13","0","26","1","1","3","2","Etwas seltsam, habe mich die ganze Zeit nach dem Sinn gefragt ","0","1","0","null","","","<div class = 'row'><div class = 'column'><img src = 'category2/CS4.png' width = '70%;'></div><div class = 'column'><img src = 'usneg/8485.bmp' width = '100%;'></div></div>","null","neg","CS","CS","2","category2/CS4.png","","","","",""
"","html-keyboard-response","74","268463","0.0-6.0-6.0-0.5","93ut7vddfs","many_one","0","indirect_first","0","ch04el13","0","26","1","1","3","2","Etwas seltsam, habe mich die ganze Zeit nach dem Sinn gefragt ","0","1","0","null","","","<div class = 'row'><div class = 'column'><img src = 'category1/CS5.png' width = '70%;'></div><div class = 'column'><img src = 'uspos/4599.bmp' width = '100%;'></div></div>","null","pos","CS","CS","1","category1/CS5.png","","","","",""
"","html-keyboard-response","75","270969","0.0-6.0-6.0-0.6","93ut7vddfs","many_one","0","indirect_first","0","ch04el13","0","26","1","1","3","2","Etwas seltsam, habe mich die ganze Zeit nach dem Sinn gefragt ","0","1","0","null","","","<div class = 'row'><div class = 'column'><img src = 'category4/CS1.png' width = '70%;'></div><div class = 'column'><img src = 'uspos/7325.bmp' width = '100%;'></div></div>","null","pos","CS","CS","4","category4/CS1.png","","","","",""
"","html-keyboard-response","76","273479","0.0-6.0-6.0-0.7","93ut7vddfs","many_one","0","indirect_first","0","ch04el13","0","26","1","1","3","2","Etwas seltsam, habe mich die ganze Zeit nach dem Sinn gefragt ","0","1","0","null","","","<div class = 'row'><div class = 'column'><img src = 'usneg/9041.bmp' width = '100%;'></div><div class = 'column'><img src = 'category2/CS9.png' width = '70%;'></div></div>","null","neg","CS","CS","2","category2/CS9.png","","","","",""
"","html-keyboard-response","77","275992","0.0-6.0-6.0-0.8","93ut7vddfs","many_one","0","indirect_first","0","ch04el13","0","26","1","1","3","2","Etwas seltsam, habe mich die ganze Zeit nach dem Sinn gefragt ","0","1","0","null","","","<div class = 'row'><div class = 'column'><img src = 'category2/CS7.png' width = '70%;'></div><div class = 'column'><img src = 'usneg/9520.bmp' width = '100%;'></div></div>","null","neg","CS","CS","2","category2/CS7.png","","","","",""
"","html-keyboard-response","78","278498","0.0-6.0-6.0-0.9","93ut7vddfs","many_one","0","indirect_first","0","ch04el13","0","26","1","1","3","2","Etwas seltsam, habe mich die ganze Zeit nach dem Sinn gefragt ","0","1","0","null","","","<div class = 'row'><div class = 'column'><img src = 'usneg/9635.2.bmp' width = '100%;'></div><div class = 'column'><img src = 'category3/CS8.png' width = '70%;'></div></div>","null","neg","CS","CS","3","category3/CS8.png","","","","",""
"","html-keyboard-response","79","281011","0.0-6.0-6.0-0.10","93ut7vddfs","many_one","0","indirect_first","0","ch04el13","0","26","1","1","3","2","Etwas seltsam, habe mich die ganze Zeit nach dem Sinn gefragt ","0","1","0","null","","","<div class = 'row'><div class = 'column'><img src = 'uspos/2165.bmp' width = '100%;'></div><div class = 'column'><img src = 'category1/CS7.png' width = '70%;'></div></div>","null","pos","CS","CS","1","category1/CS7.png","","","","",""
"","html-keyboard-response","80","283523","0.0-6.0-6.0-0.11","93ut7vddfs","many_one","0","indirect_first","0","ch04el13","0","26","1","1","3","2","Etwas seltsam, habe mich die ganze Zeit nach dem Sinn gefragt ","0","1","0","null","","","<div class = 'row'><div class = 'column'><img src = 'category3/CS7.png' width = '70%;'></div><div class = 'column'><img src = 'usneg/9181.bmp' width = '100%;'></div></div>","null","neg","CS","CS","3","category3/CS7.png","","","","",""
"","html-keyboard-response","81","286029","0.0-6.0-6.0-0.12","93ut7vddfs","many_one","0","indirect_first","0","ch04el13","0","26","1","1","3","2","Etwas seltsam, habe mich die ganze Zeit nach dem Sinn gefragt ","0","1","0","null","","","<div class = 'row'><div class = 'column'><img src = 'category4/CS10.png' width = '70%;'></div><div class = 'column'><img src = 'uspos/2150.bmp' width = '100%;'></div></div>","null","pos","CS","CS","4","category4/CS10.png","","","","",""
"","html-keyboard-response","82","288539","0.0-6.0-6.0-0.13","93ut7vddfs","many_one","0","indirect_first","0","ch04el13","0","26","1","1","3","2","Etwas seltsam, habe mich die ganze Zeit nach dem Sinn gefragt ","0","1","0","null","","","<div class = 'row'><div class = 'column'><img src = 'usneg/6020.bmp' width = '100%;'></div><div class = 'column'><img src = 'category3/CS2.png' width = '70%;'></div></div>","null","neg","CS","CS","3","category3/CS2.png","","","","",""
"","html-keyboard-response","83","291050","0.0-6.0-6.0-0.14","93ut7vddfs","many_one","0","indirect_first","0","ch04el13","0","26","1","1","3","2","Etwas seltsam, habe mich die ganze Zeit nach dem Sinn gefragt ","0","1","0","null","","","<div class = 'row'><div class = 'column'><img src = 'category3/CS3.png' width = '70%;'></div><div class = 'column'><img src = 'usneg/9182.bmp' width = '100%;'></div></div>","null","neg","CS","CS","3","category3/CS3.png","","","","",""
"","html-keyboard-response","84","293562","0.0-6.0-6.0-0.15","93ut7vddfs","many_one","0","indirect_first","0","ch04el13","0","26","1","1","3","2","Etwas seltsam, habe mich die ganze Zeit nach dem Sinn gefragt ","0","1","0","null","","","<div class = 'row'><div class = 'column'><img src = 'category4/CS4.png' width = '70%;'></div><div class = 'column'><img src = 'uspos/1463.bmp' width = '100%;'></div></div>","null","pos","CS","CS","4","category4/CS4.png","","","","",""
"","html-keyboard-response","85","296073","0.0-6.0-6.0-0.16","93ut7vddfs","many_one","0","indirect_first","0","ch04el13","0","26","1","1","3","2","Etwas seltsam, habe mich die ganze Zeit nach dem Sinn gefragt ","0","1","0","null","","","<div class = 'row'><div class = 'column'><img src = 'category1/CS8.png' width = '70%;'></div><div class = 'column'><img src = 'uspos/5830.bmp' width = '100%;'></div></div>","null","pos","CS","CS","1","category1/CS8.png","","","","",""
"","html-keyboard-response","86","298585","0.0-6.0-6.0-0.17","93ut7vddfs","many_one","0","indirect_first","0","ch04el13","0","26","1","1","3","2","Etwas seltsam, habe mich die ganze Zeit nach dem Sinn gefragt ","0","1","0","null","","","<div class = 'row'><div class = 'column'><img src = 'category4/CS3.png' width = '70%;'></div><div class = 'column'><img src = 'uspos/2900.2.bmp' width = '100%;'></div></div>","null","pos","CS","CS","4","category4/CS3.png","","","","",""
"","html-keyboard-response","87","301089","0.0-6.0-6.0-0.18","93ut7vddfs","many_one","0","indirect_first","0","ch04el13","0","26","1","1","3","2","Etwas seltsam, habe mich die ganze Zeit nach dem Sinn gefragt ","0","1","0","null","","","<div class = 'row'><div class = 'column'><img src = 'uspos/8350.bmp' width = '100%;'></div><div class = 'column'><img src = 'category1/CS10.png' width = '70%;'></div></div>","null","pos","CS","CS","1","category1/CS10.png","","","","",""
"","html-keyboard-response","88","303599","0.0-6.0-6.0-0.19","93ut7vddfs","many_one","0","indirect_first","0","ch04el13","0","26","1","1","3","2","Etwas seltsam, habe mich die ganze Zeit nach dem Sinn gefragt ","0","1","0","null","","","<div class = 'row'><div class = 'column'><img src = 'uspos/1710.bmp' width = '100%;'></div><div class = 'column'><img src = 'category4/CS8.png' width = '70%;'></div></div>","null","pos","CS","CS","4","category4/CS8.png","","","","",""
"","html-keyboard-response","89","317068","0.0-7.0","93ut7vddfs","many_one","0","indirect_first","0","ch04el13","0","26","1","1","3","2","Etwas seltsam, habe mich die ganze Zeit nach dem Sinn gefragt ","0","1","0","12961.144999993849","","","<p>Sie sehen nun die chinesischen Zeichen nur ganz kurz. Danach sehen Sie die jeweilige Aussprache der Zeichen als Silbe auf dem Bildschrim. Ihre Aufgabe ist es, für jede Silbe anzugeben, ob diese etwas angenehmes, oder unangenehmes bedeuten könnte. Verlassen Sie sich hier vor allem auf Ihre Intuition.<br><br>Die Zeichen werden nur zur Orientierung dargestellt, beachten Sie sie deshalb nicht. Konzentrieren Sie sich vor allem auf die Silben. <br>Reagieren Sie mit folgenden zwei Tasten: <br><br><b>'D' </b> wenn die Silbe etwas <b>unangenehmes</b> bedeuten könnte. <br><b>'K'</b> wenn die Silbe etwas <b>angenehmes</b> bedeuten könnte. <br><br>Bitte legen Sie nun den Zeigefinger der linken Hand auf die Taste 'D' und den Zeigefinger der rechten Hand auf die Taste 'K'. <br>Reagieren Sie auf jede Silbe so schnell wie möglich. Uns interessiert Ihre spontane Reaktion. <br> <br> <br>Drücken Sie 'D' oder 'K', um die nächste Aufgabe zu starten. </p>","68","","","","","","","","","",""
"","html-keyboard-response","90","320079","0.0-8.0-0.0","93ut7vddfs","many_one","0","indirect_first","0","ch04el13","0","26","1","1","3","2","Etwas seltsam, habe mich die ganze Zeit nach dem Sinn gefragt ","0","1","0","null","","","<div style=""font-size:60px;"">+</div>","null","","","","","","","","","",""
"","html-keyboard-response","91","320175","0.0-8.0-1.0","93ut7vddfs","many_one","0","indirect_first","0","ch04el13","0","26","1","1","3","2","Etwas seltsam, habe mich die ganze Zeit nach dem Sinn gefragt ","0","1","0","null","","","<img src = 'category4/CS1.png' width = '100%;'>","null","","","","","","","","","",""
"","html-keyboard-response","92","320435","0.0-8.0-2.0","93ut7vddfs","many_one","0","indirect_first","0","ch04el13","0","26","1","1","3","2","Etwas seltsam, habe mich die ganze Zeit nach dem Sinn gefragt ","0","1","0","null","","","<img src = 'targets/40.png' width = '100%;'>","null","","","","","","","","","",""
"","html-keyboard-response","93","325901","0.0-8.0-3.0","93ut7vddfs","many_one","0","indirect_first","0","ch04el13","0","26","1","1","3","2","Etwas seltsam, habe mich die ganze Zeit nach dem Sinn gefragt ","0","1","0","5463.920000009239","","","<img src = 'targets/mask.png' width = '100%;'>","75","pos","CS","CS","4","category4/CS1.png","targets/40.png","1","indirect","0",""
"","html-keyboard-response","94","327407","0.0-8.0-0.1","93ut7vddfs","many_one","0","indirect_first","0","ch04el13","0","26","1","1","3","2","Etwas seltsam, habe mich die ganze Zeit nach dem Sinn gefragt ","0","1","0","null","","","<div style=""font-size:60px;"">+</div>","null","","","","","","","","","",""
"","html-keyboard-response","95","327503","0.0-8.0-1.1","93ut7vddfs","many_one","0","indirect_first","0","ch04el13","0","26","1","1","3","2","Etwas seltsam, habe mich die ganze Zeit nach dem Sinn gefragt ","0","1","0","null","","","<img src = 'category4/CS8.png' width = '100%;'>","null","","","","","","","","","",""
"","html-keyboard-response","96","327765","0.0-8.0-2.1","93ut7vddfs","many_one","0","indirect_first","0","ch04el13","0","26","1","1","3","2","Etwas seltsam, habe mich die ganze Zeit nach dem Sinn gefragt ","0","1","0","null","","","<img src = 'targets/17.png' width = '100%;'>","null","","","","","","","","","",""
"","html-keyboard-response","97","331542","0.0-8.0-3.1","93ut7vddfs","many_one","0","indirect_first","0","ch04el13","0","26","1","1","3","2","Etwas seltsam, habe mich die ganze Zeit nach dem Sinn gefragt ","0","1","0","3775.0399999931687","","","<img src = 'targets/mask.png' width = '100%;'>","75","pos","CS","CS","4","category4/CS8.png","targets/17.png","1","indirect","1",""
"","html-keyboard-response","98","333053","0.0-8.0-0.2","93ut7vddfs","many_one","0","indirect_first","0","ch04el13","0","26","1","1","3","2","Etwas seltsam, habe mich die ganze Zeit nach dem Sinn gefragt ","0","1","0","null","","","<div style=""font-size:60px;"">+</div>","null","","","","","","","","","",""
"","html-keyboard-response","99","333149","0.0-8.0-1.2","93ut7vddfs","many_one","0","indirect_first","0","ch04el13","0","26","1","1","3","2","Etwas seltsam, habe mich die ganze Zeit nach dem Sinn gefragt ","0","1","0","null","","","<img src = 'category3/CS10.png' width = '100%;'>","null","","","","","","","","","",""
"","html-keyboard-response","100","333411","0.0-8.0-2.2","93ut7vddfs","many_one","0","indirect_first","0","ch04el13","0","26","1","1","3","2","Etwas seltsam, habe mich die ganze Zeit nach dem Sinn gefragt ","0","1","0","null","","","<img src = 'targets/41.png' width = '100%;'>","null","","","","","","","","","",""
"","html-keyboard-response","101","334589","0.0-8.0-3.2","93ut7vddfs","many_one","0","indirect_first","0","ch04el13","0","26","1","1","3","2","Etwas seltsam, habe mich die ganze Zeit nach dem Sinn gefragt ","0","1","0","1175.9750000055647","","","<img src = 'targets/mask.png' width = '100%;'>","68","neg","CS","CS","3","category3/CS10.png","targets/41.png","0","indirect","2",""
"","html-keyboard-response","102","336100","0.0-8.0-0.3","93ut7vddfs","many_one","0","indirect_first","0","ch04el13","0","26","1","1","3","2","Etwas seltsam, habe mich die ganze Zeit nach dem Sinn gefragt ","0","1","0","null","","","<div style=""font-size:60px;"">+</div>","null","","","","","","","","","",""
"","html-keyboard-response","103","336197","0.0-8.0-1.3","93ut7vddfs","many_one","0","indirect_first","0","ch04el13","0","26","1","1","3","2","Etwas seltsam, habe mich die ganze Zeit nach dem Sinn gefragt ","0","1","0","null","","","<img src = 'category3/CS2.png' width = '100%;'>","null","","","","","","","","","",""
"","html-keyboard-response","104","336457","0.0-8.0-2.3","93ut7vddfs","many_one","0","indirect_first","0","ch04el13","0","26","1","1","3","2","Etwas seltsam, habe mich die ganze Zeit nach dem Sinn gefragt ","0","1","0","null","","","<img src = 'targets/24.png' width = '100%;'>","null","","","","","","","","","",""
"","html-keyboard-response","105","337198","0.0-8.0-3.3","93ut7vddfs","many_one","0","indirect_first","0","ch04el13","0","26","1","1","3","2","Etwas seltsam, habe mich die ganze Zeit nach dem Sinn gefragt ","0","1","0","739.2350000009174","","","<img src = 'targets/mask.png' width = '100%;'>","68","neg","CS","CS","3","category3/CS2.png","targets/24.png","0","indirect","3",""
"","html-keyboard-response","106","338706","0.0-8.0-0.4","93ut7vddfs","many_one","0","indirect_first","0","ch04el13","0","26","1","1","3","2","Etwas seltsam, habe mich die ganze Zeit nach dem Sinn gefragt ","0","1","0","null","","","<div style=""font-size:60px;"">+</div>","null","","","","","","","","","",""
"","html-keyboard-response","107","338798","0.0-8.0-1.4","93ut7vddfs","many_one","0","indirect_first","0","ch04el13","0","26","1","1","3","2","Etwas seltsam, habe mich die ganze Zeit nach dem Sinn gefragt ","0","1","0","null","","","<img src = 'category2/CS8.png' width = '100%;'>","null","","","","","","","","","",""
"","html-keyboard-response","108","339060","0.0-8.0-2.4","93ut7vddfs","many_one","0","indirect_first","0","ch04el13","0","26","1","1","3","2","Etwas seltsam, habe mich die ganze Zeit nach dem Sinn gefragt ","0","1","0","null","","","<img src = 'targets/9.png' width = '100%;'>","null","","","","","","","","","",""
"","html-keyboard-response","109","340549","0.0-8.0-3.4","93ut7vddfs","many_one","0","indirect_first","0","ch04el13","0","26","1","1","3","2","Etwas seltsam, habe mich die ganze Zeit nach dem Sinn gefragt ","0","1","0","1487.7399999968475","","","<img src = 'targets/mask.png' width = '100%;'>","68","neg","GS","GSold","2","category2/CS8.png","targets/9.png","0","indirect","4",""
"","html-keyboard-response","110","342060","0.0-8.0-0.5","93ut7vddfs","many_one","0","indirect_first","0","ch04el13","0","26","1","1","3","2","Etwas seltsam, habe mich die ganze Zeit nach dem Sinn gefragt ","0","1","0","null","","","<div style=""font-size:60px;"">+</div>","null","","","","","","","","","",""
"","html-keyboard-response","111","342157","0.0-8.0-1.5","93ut7vddfs","many_one","0","indirect_first","0","ch04el13","0","26","1","1","3","2","Etwas seltsam, habe mich die ganze Zeit nach dem Sinn gefragt ","0","1","0","null","","","<img src = 'category1/CS10.png' width = '100%;'>","null","","","","","","","","","",""
"","html-keyboard-response","112","342414","0.0-8.0-2.5","93ut7vddfs","many_one","0","indirect_first","0","ch04el13","0","26","1","1","3","2","Etwas seltsam, habe mich die ganze Zeit nach dem Sinn gefragt ","0","1","0","null","","","<img src = 'targets/43.png' width = '100%;'>","null","","","","","","","","","",""
"","html-keyboard-response","113","343789","0.0-8.0-3.5","93ut7vddfs","many_one","0","indirect_first","0","ch04el13","0","26","1","1","3","2","Etwas seltsam, habe mich die ganze Zeit nach dem Sinn gefragt ","0","1","0","1373.1600000028266","","","<img src = 'targets/mask.png' width = '100%;'>","75","pos","CS","CS","1","category1/CS10.png","targets/43.png","1","indirect","5",""
"","html-keyboard-response","114","345298","0.0-8.0-0.6","93ut7vddfs","many_one","0","indirect_first","0","ch04el13","0","26","1","1","3","2","Etwas seltsam, habe mich die ganze Zeit nach dem Sinn gefragt ","0","1","0","null","","","<div style=""font-size:60px;"">+</div>","null","","","","","","","","","",""
"","html-keyboard-response","115","345395","0.0-8.0-1.6","93ut7vddfs","many_one","0","indirect_first","0","ch04el13","0","26","1","1","3","2","Etwas seltsam, habe mich die ganze Zeit nach dem Sinn gefragt ","0","1","0","null","","","<img src = 'category1/CS3.png' width = '100%;'>","null","","","","","","","","","",""
"","html-keyboard-response","116","345656","0.0-8.0-2.6","93ut7vddfs","many_one","0","indirect_first","0","ch04el13","0","26","1","1","3","2","Etwas seltsam, habe mich die ganze Zeit nach dem Sinn gefragt ","0","1","0","null","","","<img src = 'targets/35.png' width = '100%;'>","null","","","","","","","","","",""
"","html-keyboard-response","117","349191","0.0-8.0-3.6","93ut7vddfs","many_one","0","indirect_first","0","ch04el13","0","26","1","1","3","2","Etwas seltsam, habe mich die ganze Zeit nach dem Sinn gefragt ","0","1","0","3532.5299999967683","","","<img src = 'targets/mask.png' width = '100%;'>","75","pos","CS","CS","1","category1/CS3.png","targets/35.png","1","indirect","6",""
"","html-keyboard-response","118","350702","0.0-8.0-0.7","93ut7vddfs","many_one","0","indirect_first","0","ch04el13","0","26","1","1","3","2","Etwas seltsam, habe mich die ganze Zeit nach dem Sinn gefragt ","0","1","0","null","","","<div style=""font-size:60px;"">+</div>","null","","","","","","","","","",""
"","html-keyboard-response","119","350794","0.0-8.0-1.7","93ut7vddfs","many_one","0","indirect_first","0","ch04el13","0","26","1","1","3","2","Etwas seltsam, habe mich die ganze Zeit nach dem Sinn gefragt ","0","1","0","null","","","<img src = 'category3/CS7.png' width = '100%;'>","null","","","","","","","","","",""
"","html-keyboard-response","120","351055","0.0-8.0-2.7","93ut7vddfs","many_one","0","indirect_first","0","ch04el13","0","26","1","1","3","2","Etwas seltsam, habe mich die ganze Zeit nach dem Sinn gefragt ","0","1","0","null","","","<img src = 'targets/45.png' width = '100%;'>","null","","","","","","","","","",""
"","html-keyboard-response","121","351646","0.0-8.0-3.7","93ut7vddfs","many_one","0","indirect_first","0","ch04el13","0","26","1","1","3","2","Etwas seltsam, habe mich die ganze Zeit nach dem Sinn gefragt ","0","1","0","588.3199999952922","","","<img src = 'targets/mask.png' width = '100%;'>","68","neg","CS","CS","3","category3/CS7.png","targets/45.png","0","indirect","7",""
"","html-keyboard-response","122","353155","0.0-8.0-0.8","93ut7vddfs","many_one","0","indirect_first","0","ch04el13","0","26","1","1","3","2","Etwas seltsam, habe mich die ganze Zeit nach dem Sinn gefragt ","0","1","0","null","","","<div style=""font-size:60px;"">+</div>","null","","","","","","","","","",""
"","html-keyboard-response","123","353251","0.0-8.0-1.8","93ut7vddfs","many_one","0","indirect_first","0","ch04el13","0","26","1","1","3","2","Etwas seltsam, habe mich die ganze Zeit nach dem Sinn gefragt ","0","1","0","null","","","<img src = 'category1/CS2.png' width = '100%;'>","null","","","","","","","","","",""
"","html-keyboard-response","124","353513","0.0-8.0-2.8","93ut7vddfs","many_one","0","indirect_first","0","ch04el13","0","26","1","1","3","2","Etwas seltsam, habe mich die ganze Zeit nach dem Sinn gefragt ","0","1","0","null","","","<img src = 'targets/27.png' width = '100%;'>","null","","","","","","","","","",""
"","html-keyboard-response","125","355838","0.0-8.0-3.8","93ut7vddfs","many_one","0","indirect_first","0","ch04el13","0","26","1","1","3","2","Etwas seltsam, habe mich die ganze Zeit nach dem Sinn gefragt ","0","1","0","2322.6550000108546","","","<img src = 'targets/mask.png' width = '100%;'>","75","pos","GS","GSold","1","category1/CS2.png","targets/27.png","1","indirect","8",""
"","html-keyboard-response","126","357347","0.0-8.0-0.9","93ut7vddfs","many_one","0","indirect_first","0","ch04el13","0","26","1","1","3","2","Etwas seltsam, habe mich die ganze Zeit nach dem Sinn gefragt ","0","1","0","null","","","<div style=""font-size:60px;"">+</div>","null","","","","","","","","","",""
"","html-keyboard-response","127","357444","0.0-8.0-1.9","93ut7vddfs","many_one","0","indirect_first","0","ch04el13","0","26","1","1","3","2","Etwas seltsam, habe mich die ganze Zeit nach dem Sinn gefragt ","0","1","0","null","","","<img src = 'category4/CS4.png' width = '100%;'>","null","","","","","","","","","",""
"","html-keyboard-response","128","357706","0.0-8.0-2.9","93ut7vddfs","many_one","0","indirect_first","0","ch04el13","0","26","1","1","3","2","Etwas seltsam, habe mich die ganze Zeit nach dem Sinn gefragt ","0","1","0","null","","","<img src = 'targets/26.png' width = '100%;'>","null","","","","","","","","","",""
"","html-keyboard-response","129","359916","0.0-8.0-3.9","93ut7vddfs","many_one","0","indirect_first","0","ch04el13","0","26","1","1","3","2","Etwas seltsam, habe mich die ganze Zeit nach dem Sinn gefragt ","0","1","0","2207.9200000007404","","","<img src = 'targets/mask.png' width = '100%;'>","75","pos","CS","CS","4","category4/CS4.png","targets/26.png","1","indirect","9",""
"","html-keyboard-response","130","361425","0.0-8.0-0.10","93ut7vddfs","many_one","0","indirect_first","0","ch04el13","0","26","1","1","3","2","Etwas seltsam, habe mich die ganze Zeit nach dem Sinn gefragt ","0","1","0","null","","","<div style=""font-size:60px;"">+</div>","null","","","","","","","","","",""
"","html-keyboard-response","131","361522","0.0-8.0-1.10","93ut7vddfs","many_one","0","indirect_first","0","ch04el13","0","26","1","1","3","2","Etwas seltsam, habe mich die ganze Zeit nach dem Sinn gefragt ","0","1","0","null","","","<img src = 'category3/CS3.png' width = '100%;'>","null","","","","","","","","","",""
"","html-keyboard-response","132","361777","0.0-8.0-2.10","93ut7vddfs","many_one","0","indirect_first","0","ch04el13","0","26","1","1","3","2","Etwas seltsam, habe mich die ganze Zeit nach dem Sinn gefragt ","0","1","0","null","","","<img src = 'targets/46.png' width = '100%;'>","null","","","","","","","","","",""
"","html-keyboard-response","133","362371","0.0-8.0-3.10","93ut7vddfs","many_one","0","indirect_first","0","ch04el13","0","26","1","1","3","2","Etwas seltsam, habe mich die ganze Zeit nach dem Sinn gefragt ","0","1","0","592.0299999997951","","","<img src = 'targets/mask.png' width = '100%;'>","68","neg","CS","CS","3","category3/CS3.png","targets/46.png","0","indirect","10",""
"","html-keyboard-response","134","363882","0.0-8.0-0.11","93ut7vddfs","many_one","0","indirect_first","0","ch04el13","0","26","1","1","3","2","Etwas seltsam, habe mich die ganze Zeit nach dem Sinn gefragt ","0","1","0","null","","","<div style=""font-size:60px;"">+</div>","null","","","","","","","","","",""
"","html-keyboard-response","135","363976","0.0-8.0-1.11","93ut7vddfs","many_one","0","indirect_first","0","ch04el13","0","26","1","1","3","2","Etwas seltsam, habe mich die ganze Zeit nach dem Sinn gefragt ","0","1","0","null","","","<img src = 'category2/CS10.png' width = '100%;'>","null","","","","","","","","","",""
"","html-keyboard-response","136","364237","0.0-8.0-2.11","93ut7vddfs","many_one","0","indirect_first","0","ch04el13","0","26","1","1","3","2","Etwas seltsam, habe mich die ganze Zeit nach dem Sinn gefragt ","0","1","0","null","","","<img src = 'targets/18.png' width = '100%;'>","null","","","","","","","","","",""
"","html-keyboard-response","137","364899","0.0-8.0-3.11","93ut7vddfs","many_one","0","indirect_first","0","ch04el13","0","26","1","1","3","2","Etwas seltsam, habe mich die ganze Zeit nach dem Sinn gefragt ","0","1","0","660.7899999944493","","","<img src = 'targets/mask.png' width = '100%;'>","68","neg","CS","CS","2","category2/CS10.png","targets/18.png","0","indirect","11",""
"","html-keyboard-response","138","366406","0.0-8.0-0.12","93ut7vddfs","many_one","0","indirect_first","0","ch04el13","0","26","1","1","3","2","Etwas seltsam, habe mich die ganze Zeit nach dem Sinn gefragt ","0","1","0","null","","","<div style=""font-size:60px;"">+</div>","null","","","","","","","","","",""
"","html-keyboard-response","139","366502","0.0-8.0-1.12","93ut7vddfs","many_one","0","indirect_first","0","ch04el13","0","26","1","1","3","2","Etwas seltsam, habe mich die ganze Zeit nach dem Sinn gefragt ","0","1","0","null","","","<img src = 'category1/CS7.png' width = '100%;'>","null","","","","","","","","","",""
"","html-keyboard-response","140","366764","0.0-8.0-2.12","93ut7vddfs","many_one","0","indirect_first","0","ch04el13","0","26","1","1","3","2","Etwas seltsam, habe mich die ganze Zeit nach dem Sinn gefragt ","0","1","0","null","","","<img src = 'targets/29.png' width = '100%;'>","null","","","","","","","","","",""
"","html-keyboard-response","141","368243","0.0-8.0-3.12","93ut7vddfs","many_one","0","indirect_first","0","ch04el13","0","26","1","1","3","2","Etwas seltsam, habe mich die ganze Zeit nach dem Sinn gefragt ","0","1","0","1477.275000012014","","","<img src = 'targets/mask.png' width = '100%;'>","75","pos","CS","CS","1","category1/CS7.png","targets/29.png","1","indirect","12",""
"","html-keyboard-response","142","369754","0.0-8.0-0.13","93ut7vddfs","many_one","0","indirect_first","0","ch04el13","0","26","1","1","3","2","Etwas seltsam, habe mich die ganze Zeit nach dem Sinn gefragt ","0","1","0","null","","","<div style=""font-size:60px;"">+</div>","null","","","","","","","","","",""
"","html-keyboard-response","143","369850","0.0-8.0-1.13","93ut7vddfs","many_one","0","indirect_first","0","ch04el13","0","26","1","1","3","2","Etwas seltsam, habe mich die ganze Zeit nach dem Sinn gefragt ","0","1","0","null","","","<img src = 'category1/CS8.png' width = '100%;'>","null","","","","","","","","","",""
"","html-keyboard-response","144","370108","0.0-8.0-2.13","93ut7vddfs","many_one","0","indirect_first","0","ch04el13","0","26","1","1","3","2","Etwas seltsam, habe mich die ganze Zeit nach dem Sinn gefragt ","0","1","0","null","","","<img src = 'targets/3.png' width = '100%;'>","null","","","","","","","","","",""
"","html-keyboard-response","145","372973","0.0-8.0-3.13","93ut7vddfs","many_one","0","indirect_first","0","ch04el13","0","26","1","1","3","2","Etwas seltsam, habe mich die ganze Zeit nach dem Sinn gefragt ","0","1","0","2863.310000000638","","","<img src = 'targets/mask.png' width = '100%;'>","75","pos","CS","CS","1","category1/CS8.png","targets/3.png","1","indirect","13",""
"","html-keyboard-response","146","374480","0.0-8.0-0.14","93ut7vddfs","many_one","0","indirect_first","0","ch04el13","0","26","1","1","3","2","Etwas seltsam, habe mich die ganze Zeit nach dem Sinn gefragt ","0","1","0","null","","","<div style=""font-size:60px;"">+</div>","null","","","","","","","","","",""
"","html-keyboard-response","147","374576","0.0-8.0-1.14","93ut7vddfs","many_one","0","indirect_first","0","ch04el13","0","26","1","1","3","2","Etwas seltsam, habe mich die ganze Zeit nach dem Sinn gefragt ","0","1","0","null","","","<img src = 'category4/CS3.png' width = '100%;'>","null","","","","","","","","","",""
"","html-keyboard-response","148","374838","0.0-8.0-2.14","93ut7vddfs","many_one","0","indirect_first","0","ch04el13","0","26","1","1","3","2","Etwas seltsam, habe mich die ganze Zeit nach dem Sinn gefragt ","0","1","0","null","","","<img src = 'targets/1.png' width = '100%;'>","null","","","","","","","","","",""
"","html-keyboard-response","149","376725","0.0-8.0-3.14","93ut7vddfs","many_one","0","indirect_first","0","ch04el13","0","26","1","1","3","2","Etwas seltsam, habe mich die ganze Zeit nach dem Sinn gefragt ","0","1","0","1884.0100000088569","","","<img src = 'targets/mask.png' width = '100%;'>","75","pos","CS","CS","4","category4/CS3.png","targets/1.png","1","indirect","14",""
"","html-keyboard-response","150","378234","0.0-8.0-0.15","93ut7vddfs","many_one","0","indirect_first","0","ch04el13","0","26","1","1","3","2","Etwas seltsam, habe mich die ganze Zeit nach dem Sinn gefragt ","0","1","0","null","","","<div style=""font-size:60px;"">+</div>","null","","","","","","","","","",""
"","html-keyboard-response","151","378330","0.0-8.0-1.15","93ut7vddfs","many_one","0","indirect_first","0","ch04el13","0","26","1","1","3","2","Etwas seltsam, habe mich die ganze Zeit nach dem Sinn gefragt ","0","1","0","null","","","<img src = 'category2/CS7.png' width = '100%;'>","null","","","","","","","","","",""
"","html-keyboard-response","152","378592","0.0-8.0-2.15","93ut7vddfs","many_one","0","indirect_first","0","ch04el13","0","26","1","1","3","2","Etwas seltsam, habe mich die ganze Zeit nach dem Sinn gefragt ","0","1","0","null","","","<img src = 'targets/33.png' width = '100%;'>","null","","","","","","","","","",""
"","html-keyboard-response","153","379492","0.0-8.0-3.15","93ut7vddfs","many_one","0","indirect_first","0","ch04el13","0","26","1","1","3","2","Etwas seltsam, habe mich die ganze Zeit nach dem Sinn gefragt ","0","1","0","898.0850000079954","","","<img src = 'targets/mask.png' width = '100%;'>","68","neg","CS","CS","2","category2/CS7.png","targets/33.png","0","indirect","15",""
"","html-keyboard-response","154","381002","0.0-8.0-0.16","93ut7vddfs","many_one","0","indirect_first","0","ch04el13","0","26","1","1","3","2","Etwas seltsam, habe mich die ganze Zeit nach dem Sinn gefragt ","0","1","0","null","","","<div style=""font-size:60px;"">+</div>","null","","","","","","","","","",""
"","html-keyboard-response","155","381097","0.0-8.0-1.16","93ut7vddfs","many_one","0","indirect_first","0","ch04el13","0","26","1","1","3","2","Etwas seltsam, habe mich die ganze Zeit nach dem Sinn gefragt ","0","1","0","null","","","<img src = 'category2/CS6.png' width = '100%;'>","null","","","","","","","","","",""
"","html-keyboard-response","156","381355","0.0-8.0-2.16","93ut7vddfs","many_one","0","indirect_first","0","ch04el13","0","26","1","1","3","2","Etwas seltsam, habe mich die ganze Zeit nach dem Sinn gefragt ","0","1","0","null","","","<img src = 'targets/28.png' width = '100%;'>","null","","","","","","","","","",""
"","html-keyboard-response","157","381932","0.0-8.0-3.16","93ut7vddfs","many_one","0","indirect_first","0","ch04el13","0","26","1","1","3","2","Etwas seltsam, habe mich die ganze Zeit nach dem Sinn gefragt ","0","1","0","575.8250000071712","","","<img src = 'targets/mask.png' width = '100%;'>","68","neg","GS","GSold","2","category2/CS6.png","targets/28.png","0","indirect","16",""
"","html-keyboard-response","158","383441","0.0-8.0-0.17","93ut7vddfs","many_one","0","indirect_first","0","ch04el13","0","26","1","1","3","2","Etwas seltsam, habe mich die ganze Zeit nach dem Sinn gefragt ","0","1","0","null","","","<div style=""font-size:60px;"">+</div>","null","","","","","","","","","",""
"","html-keyboard-response","159","383538","0.0-8.0-1.17","93ut7vddfs","many_one","0","indirect_first","0","ch04el13","0","26","1","1","3","2","Etwas seltsam, habe mich die ganze Zeit nach dem Sinn gefragt ","0","1","0","null","","","<img src = 'category2/CS1.png' width = '100%;'>","null","","","","","","","","","",""
"","html-keyboard-response","160","383794","0.0-8.0-2.17","93ut7vddfs","many_one","0","indirect_first","0","ch04el13","0","26","1","1","3","2","Etwas seltsam, habe mich die ganze Zeit nach dem Sinn gefragt ","0","1","0","null","","","<img src = 'targets/31.png' width = '100%;'>","null","","","","","","","","","",""
"","html-keyboard-response","161","384573","0.0-8.0-3.17","93ut7vddfs","many_one","0","indirect_first","0","ch04el13","0","26","1","1","3","2","Etwas seltsam, habe mich die ganze Zeit nach dem Sinn gefragt ","0","1","0","777.010000005248","","","<img src = 'targets/mask.png' width = '100%;'>","68","neg","CS","CS","2","category2/CS1.png","targets/31.png","0","indirect","17",""
"","html-keyboard-response","162","386079","0.0-8.0-0.18","93ut7vddfs","many_one","0","indirect_first","0","ch04el13","0","26","1","1","3","2","Etwas seltsam, habe mich die ganze Zeit nach dem Sinn gefragt ","0","1","0","null","","","<div style=""font-size:60px;"">+</div>","null","","","","","","","","","",""
"","html-keyboard-response","163","386173","0.0-8.0-1.18","93ut7vddfs","many_one","0","indirect_first","0","ch04el13","0","26","1","1","3","2","Etwas seltsam, habe mich die ganze Zeit nach dem Sinn gefragt ","0","1","0","null","","","<img src = 'category4/CS10.png' width = '100%;'>","null","","","","","","","","","",""
"","html-keyboard-response","164","386435","0.0-8.0-2.18","93ut7vddfs","many_one","0","indirect_first","0","ch04el13","0","26","1","1","3","2","Etwas seltsam, habe mich die ganze Zeit nach dem Sinn gefragt ","0","1","0","null","","","<img src = 'targets/38.png' width = '100%;'>","null","","","","","","","","","",""
"","html-keyboard-response","165","386932","0.0-8.0-3.18","93ut7vddfs","many_one","0","indirect_first","0","ch04el13","0","26","1","1","3","2","Etwas seltsam, habe mich die ganze Zeit nach dem Sinn gefragt ","0","1","0","496.00500000815373","","","<img src = 'targets/mask.png' width = '100%;'>","75","pos","CS","CS","4","category4/CS10.png","targets/38.png","1","indirect","18",""
"","html-keyboard-response","166","388444","0.0-8.0-0.19","93ut7vddfs","many_one","0","indirect_first","0","ch04el13","0","26","1","1","3","2","Etwas seltsam, habe mich die ganze Zeit nach dem Sinn gefragt ","0","1","0","null","","","<div style=""font-size:60px;"">+</div>","null","","","","","","","","","",""
"","html-keyboard-response","167","388541","0.0-8.0-1.19","93ut7vddfs","many_one","0","indirect_first","0","ch04el13","0","26","1","1","3","2","Etwas seltsam, habe mich die ganze Zeit nach dem Sinn gefragt ","0","1","0","null","","","<img src = 'category2/CS4.png' width = '100%;'>","null","","","","","","","","","",""
"","html-keyboard-response","168","388800","0.0-8.0-2.19","93ut7vddfs","many_one","0","indirect_first","0","ch04el13","0","26","1","1","3","2","Etwas seltsam, habe mich die ganze Zeit nach dem Sinn gefragt ","0","1","0","null","","","<img src = 'targets/25.png' width = '100%;'>","null","","","","","","","","","",""
"","html-keyboard-response","169","390811","0.0-8.0-3.19","93ut7vddfs","many_one","0","indirect_first","0","ch04el13","0","26","1","1","3","2","Etwas seltsam, habe mich die ganze Zeit nach dem Sinn gefragt ","0","1","0","2009.5300000102725","","","<img src = 'targets/mask.png' width = '100%;'>","68","neg","CS","CS","2","category2/CS4.png","targets/25.png","0","indirect","19",""
"","html-keyboard-response","170","392321","0.0-8.0-0.20","93ut7vddfs","many_one","0","indirect_first","0","ch04el13","0","26","1","1","3","2","Etwas seltsam, habe mich die ganze Zeit nach dem Sinn gefragt ","0","1","0","null","","","<div style=""font-size:60px;"">+</div>","null","","","","","","","","","",""
"","html-keyboard-response","171","392418","0.0-8.0-1.20","93ut7vddfs","many_one","0","indirect_first","0","ch04el13","0","26","1","1","3","2","Etwas seltsam, habe mich die ganze Zeit nach dem Sinn gefragt ","0","1","0","null","","","<img src = 'category2/CS9.png' width = '100%;'>","null","","","","","","","","","",""
"","html-keyboard-response","172","392680","0.0-8.0-2.20","93ut7vddfs","many_one","0","indirect_first","0","ch04el13","0","26","1","1","3","2","Etwas seltsam, habe mich die ganze Zeit nach dem Sinn gefragt ","0","1","0","null","","","<img src = 'targets/20.png' width = '100%;'>","null","","","","","","","","","",""
"","html-keyboard-response","173","393523","0.0-8.0-3.20","93ut7vddfs","many_one","0","indirect_first","0","ch04el13","0","26","1","1","3","2","Etwas seltsam, habe mich die ganze Zeit nach dem Sinn gefragt ","0","1","0","841.2650000100257","","","<img src = 'targets/mask.png' width = '100%;'>","68","neg","CS","CS","2","category2/CS9.png","targets/20.png","0","indirect","20",""
"","html-keyboard-response","174","395031","0.0-8.0-0.21","93ut7vddfs","many_one","0","indirect_first","0","ch04el13","0","26","1","1","3","2","Etwas seltsam, habe mich die ganze Zeit nach dem Sinn gefragt ","0","1","0","null","","","<div style=""font-size:60px;"">+</div>","null","","","","","","","","","",""
"","html-keyboard-response","175","395128","0.0-8.0-1.21","93ut7vddfs","many_one","0","indirect_first","0","ch04el13","0","26","1","1","3","2","Etwas seltsam, habe mich die ganze Zeit nach dem Sinn gefragt ","0","1","0","null","","","<img src = 'category1/CS5.png' width = '100%;'>","null","","","","","","","","","",""
"","html-keyboard-response","176","395386","0.0-8.0-2.21","93ut7vddfs","many_one","0","indirect_first","0","ch04el13","0","26","1","1","3","2","Etwas seltsam, habe mich die ganze Zeit nach dem Sinn gefragt ","0","1","0","null","","","<img src = 'targets/47.png' width = '100%;'>","null","","","","","","","","","",""
"","html-keyboard-response","177","396172","0.0-8.0-3.21","93ut7vddfs","many_one","0","indirect_first","0","ch04el13","0","26","1","1","3","2","Etwas seltsam, habe mich die ganze Zeit nach dem Sinn gefragt ","0","1","0","783.9100000128383","","","<img src = 'targets/mask.png' width = '100%;'>","75","pos","CS","CS","1","category1/CS5.png","targets/47.png","1","indirect","21",""
"","html-keyboard-response","178","397682","0.0-8.0-0.22","93ut7vddfs","many_one","0","indirect_first","0","ch04el13","0","26","1","1","3","2","Etwas seltsam, habe mich die ganze Zeit nach dem Sinn gefragt ","0","1","0","null","","","<div style=""font-size:60px;"">+</div>","null","","","","","","","","","",""
"","html-keyboard-response","179","397778","0.0-8.0-1.22","93ut7vddfs","many_one","0","indirect_first","0","ch04el13","0","26","1","1","3","2","Etwas seltsam, habe mich die ganze Zeit nach dem Sinn gefragt ","0","1","0","null","","","<img src = 'category3/CS8.png' width = '100%;'>","null","","","","","","","","","",""
"","html-keyboard-response","180","398040","0.0-8.0-2.22","93ut7vddfs","many_one","0","indirect_first","0","ch04el13","0","26","1","1","3","2","Etwas seltsam, habe mich die ganze Zeit nach dem Sinn gefragt ","0","1","0","null","","","<img src = 'targets/10.png' width = '100%;'>","null","","","","","","","","","",""
"","html-keyboard-response","181","399523","0.0-8.0-3.22","93ut7vddfs","many_one","0","indirect_first","0","ch04el13","0","26","1","1","3","2","Etwas seltsam, habe mich die ganze Zeit nach dem Sinn gefragt ","0","1","0","1480.7799999980489","","","<img src = 'targets/mask.png' width = '100%;'>","68","neg","CS","CS","3","category3/CS8.png","targets/10.png","0","indirect","22",""
"","html-keyboard-response","182","401030","0.0-8.0-0.23","93ut7vddfs","many_one","0","indirect_first","0","ch04el13","0","26","1","1","3","2","Etwas seltsam, habe mich die ganze Zeit nach dem Sinn gefragt ","0","1","0","null","","","<div style=""font-size:60px;"">+</div>","null","","","","","","","","","",""
"","html-keyboard-response","183","401126","0.0-8.0-1.23","93ut7vddfs","many_one","0","indirect_first","0","ch04el13","0","26","1","1","3","2","Etwas seltsam, habe mich die ganze Zeit nach dem Sinn gefragt ","0","1","0","null","","","<img src = 'category2/CS5.png' width = '100%;'>","null","","","","","","","","","",""
"","html-keyboard-response","184","401384","0.0-8.0-2.23","93ut7vddfs","many_one","0","indirect_first","0","ch04el13","0","26","1","1","3","2","Etwas seltsam, habe mich die ganze Zeit nach dem Sinn gefragt ","0","1","0","null","","","<img src = 'targets/4.png' width = '100%;'>","null","","","","","","","","","",""
"","html-keyboard-response","185","402955","0.0-8.0-3.23","93ut7vddfs","many_one","0","indirect_first","0","ch04el13","0","26","1","1","3","2","Etwas seltsam, habe mich die ganze Zeit nach dem Sinn gefragt ","0","1","0","1569.9250000034226","","","<img src = 'targets/mask.png' width = '100%;'>","68","neg","GS","GSold","2","category2/CS5.png","targets/4.png","0","indirect","23",""
"","survey-html-form","186","411889","0.0-9.0","93ut7vddfs","many_one","0","indirect_first","0","ch04el13","0","26","1","1","3","2","Etwas seltsam, habe mich die ganze Zeit nach dem Sinn gefragt ","0","1","0","8427.899999995134","","{}","","","","","","","","","","","",""
"","html-keyboard-response","187","414901","0.0-10.0-0.0","93ut7vddfs","many_one","0","indirect_first","0","ch04el13","0","26","1","1","3","2","Etwas seltsam, habe mich die ganze Zeit nach dem Sinn gefragt ","0","1","0","null","","","<div style=""font-size:60px;"">+</div>","null","","","","","","","","","",""
"","html-keyboard-response","188","414997","0.0-10.0-1.0","93ut7vddfs","many_one","0","indirect_first","0","ch04el13","0","26","1","1","3","2","Etwas seltsam, habe mich die ganze Zeit nach dem Sinn gefragt ","0","1","0","null","","","<img src = 'category4/CS2.png' width = '100%;'>","null","","","","","","","","","",""
"","html-keyboard-response","189","415254","0.0-10.0-2.0","93ut7vddfs","many_one","0","indirect_first","0","ch04el13","0","26","1","1","3","2","Etwas seltsam, habe mich die ganze Zeit nach dem Sinn gefragt ","0","1","0","null","","","<img src = 'targets/5.png' width = '100%;'>","null","","","","","","","","","",""
"","html-keyboard-response","190","416200","0.0-10.0-3.0","93ut7vddfs","many_one","0","indirect_first","0","ch04el13","0","26","1","1","3","2","Etwas seltsam, habe mich die ganze Zeit nach dem Sinn gefragt ","0","1","0","943.3949999947799","","","<img src = 'targets/mask.png' width = '100%;'>","75","pos","GS","GSold","4","category4/CS2.png","targets/5.png","1","indirect","24",""
"","html-keyboard-response","191","417710","0.0-10.0-0.1","93ut7vddfs","many_one","0","indirect_first","0","ch04el13","0","26","1","1","3","2","Etwas seltsam, habe mich die ganze Zeit nach dem Sinn gefragt ","0","1","0","null","","","<div style=""font-size:60px;"">+</div>","null","","","","","","","","","",""
"","html-keyboard-response","192","417807","0.0-10.0-1.1","93ut7vddfs","many_one","0","indirect_first","0","ch04el13","0","26","1","1","3","2","Etwas seltsam, habe mich die ganze Zeit nach dem Sinn gefragt ","0","1","0","null","","","<img src = 'category1/CS4.png' width = '100%;'>","null","","","","","","","","","",""
"","html-keyboard-response","193","418066","0.0-10.0-2.1","93ut7vddfs","many_one","0","indirect_first","0","ch04el13","0","26","1","1","3","2","Etwas seltsam, habe mich die ganze Zeit nach dem Sinn gefragt ","0","1","0","null","","","<img src = 'targets/21.png' width = '100%;'>","null","","","","","","","","","",""
"","html-keyboard-response","194","418718","0.0-10.0-3.1","93ut7vddfs","many_one","0","indirect_first","0","ch04el13","0","26","1","1","3","2","Etwas seltsam, habe mich die ganze Zeit nach dem Sinn gefragt ","0","1","0","651.2500000098953","","","<img src = 'targets/mask.png' width = '100%;'>","75","pos","GS","GSold","1","category1/CS4.png","targets/21.png","1","indirect","25",""
"","html-keyboard-response","195","420222","0.0-10.0-0.2","93ut7vddfs","many_one","0","indirect_first","0","ch04el13","0","26","1","1","3","2","Etwas seltsam, habe mich die ganze Zeit nach dem Sinn gefragt ","0","1","0","null","","","<div style=""font-size:60px;"">+</div>","null","","","","","","","","","",""
"","html-keyboard-response","196","420314","0.0-10.0-1.2","93ut7vddfs","many_one","0","indirect_first","0","ch04el13","0","26","1","1","3","2","Etwas seltsam, habe mich die ganze Zeit nach dem Sinn gefragt ","0","1","0","null","","","<img src = 'category1/GS3.png' width = '100%;'>","null","","","","","","","","","",""
"","html-keyboard-response","197","420576","0.0-10.0-2.2","93ut7vddfs","many_one","0","indirect_first","0","ch04el13","0","26","1","1","3","2","Etwas seltsam, habe mich die ganze Zeit nach dem Sinn gefragt ","0","1","0","null","","","<img src = 'targets/11.png' width = '100%;'>","null","","","","","","","","","",""
"","html-keyboard-response","198","422668","0.0-10.0-3.2","93ut7vddfs","many_one","0","indirect_first","0","ch04el13","0","26","1","1","3","2","Etwas seltsam, habe mich die ganze Zeit nach dem Sinn gefragt ","0","1","0","2090.5449999991106","","","<img src = 'targets/mask.png' width = '100%;'>","75","pos","GS","GSnew","1","category1/GS3.png","targets/11.png","1","indirect","26",""
"","html-keyboard-response","199","424179","0.0-10.0-0.3","93ut7vddfs","many_one","0","indirect_first","0","ch04el13","0","26","1","1","3","2","Etwas seltsam, habe mich die ganze Zeit nach dem Sinn gefragt ","0","1","0","null","","","<div style=""font-size:60px;"">+</div>","null","","","","","","","","","",""
"","html-keyboard-response","200","424276","0.0-10.0-1.3","93ut7vddfs","many_one","0","indirect_first","0","ch04el13","0","26","1","1","3","2","Etwas seltsam, habe mich die ganze Zeit nach dem Sinn gefragt ","0","1","0","null","","","<img src = 'category2/GS2.png' width = '100%;'>","null","","","","","","","","","",""
"","html-keyboard-response","201","424535","0.0-10.0-2.3","93ut7vddfs","many_one","0","indirect_first","0","ch04el13","0","26","1","1","3","2","Etwas seltsam, habe mich die ganze Zeit nach dem Sinn gefragt ","0","1","0","null","","","<img src = 'targets/19.png' width = '100%;'>","null","","","","","","","","","",""
"","html-keyboard-response","202","426203","0.0-10.0-3.3","93ut7vddfs","many_one","0","indirect_first","0","ch04el13","0","26","1","1","3","2","Etwas seltsam, habe mich die ganze Zeit nach dem Sinn gefragt ","0","1","0","1666.2599999981467","","","<img src = 'targets/mask.png' width = '100%;'>","75","neg","GS","GSnew","2","category2/GS2.png","targets/19.png","1","indirect","27",""
"","html-keyboard-response","203","427714","0.0-10.0-0.4","93ut7vddfs","many_one","0","indirect_first","0","ch04el13","0","26","1","1","3","2","Etwas seltsam, habe mich die ganze Zeit nach dem Sinn gefragt ","0","1","0","null","","","<div style=""font-size:60px;"">+</div>","null","","","","","","","","","",""
"","html-keyboard-response","204","427811","0.0-10.0-1.4","93ut7vddfs","many_one","0","indirect_first","0","ch04el13","0","26","1","1","3","2","Etwas seltsam, habe mich die ganze Zeit nach dem Sinn gefragt ","0","1","0","null","","","<img src = 'category1/GS2.png' width = '100%;'>","null","","","","","","","","","",""
"","html-keyboard-response","205","428069","0.0-10.0-2.4","93ut7vddfs","many_one","0","indirect_first","0","ch04el13","0","26","1","1","3","2","Etwas seltsam, habe mich die ganze Zeit nach dem Sinn gefragt ","0","1","0","null","","","<img src = 'targets/32.png' width = '100%;'>","null","","","","","","","","","",""
"","html-keyboard-response","206","429075","0.0-10.0-3.4","93ut7vddfs","many_one","0","indirect_first","0","ch04el13","0","26","1","1","3","2","Etwas seltsam, habe mich die ganze Zeit nach dem Sinn gefragt ","0","1","0","1004.7199999971781","","","<img src = 'targets/mask.png' width = '100%;'>","75","pos","GS","GSnew","1","category1/GS2.png","targets/32.png","1","indirect","28",""
"","html-keyboard-response","207","430582","0.0-10.0-0.5","93ut7vddfs","many_one","0","indirect_first","0","ch04el13","0","26","1","1","3","2","Etwas seltsam, habe mich die ganze Zeit nach dem Sinn gefragt ","0","1","0","null","","","<div style=""font-size:60px;"">+</div>","null","","","","","","","","","",""
"","html-keyboard-response","208","430674","0.0-10.0-1.5","93ut7vddfs","many_one","0","indirect_first","0","ch04el13","0","26","1","1","3","2","Etwas seltsam, habe mich die ganze Zeit nach dem Sinn gefragt ","0","1","0","null","","","<img src = 'category4/lin.png' width = '100%;'>","null","","","","","","","","","",""
"","html-keyboard-response","209","430931","0.0-10.0-2.5","93ut7vddfs","many_one","0","indirect_first","0","ch04el13","0","26","1","1","3","2","Etwas seltsam, habe mich die ganze Zeit nach dem Sinn gefragt ","0","1","0","null","","","<img src = 'targets/6.png' width = '100%;'>","null","","","","","","","","","",""
"","html-keyboard-response","210","433855","0.0-10.0-3.5","93ut7vddfs","many_one","0","indirect_first","0","ch04el13","0","26","1","1","3","2","Etwas seltsam, habe mich die ganze Zeit nach dem Sinn gefragt ","0","1","0","2922.370000000228","","","<img src = 'targets/mask.png' width = '100%;'>","75","pos","GS","abstract","4","category4/lin.png","targets/6.png","1","indirect","29",""
"","html-keyboard-response","211","435361","0.0-10.0-0.6","93ut7vddfs","many_one","0","indirect_first","0","ch04el13","0","26","1","1","3","2","Etwas seltsam, habe mich die ganze Zeit nach dem Sinn gefragt ","0","1","0","null","","","<div style=""font-size:60px;"">+</div>","null","","","","","","","","","",""
"","html-keyboard-response","212","435457","0.0-10.0-1.6","93ut7vddfs","many_one","0","indirect_first","0","ch04el13","0","26","1","1","3","2","Etwas seltsam, habe mich die ganze Zeit nach dem Sinn gefragt ","0","1","0","null","","","<img src = 'category3/GS2.png' width = '100%;'>","null","","","","","","","","","",""
"","html-keyboard-response","213","435717","0.0-10.0-2.6","93ut7vddfs","many_one","0","indirect_first","0","ch04el13","0","26","1","1","3","2","Etwas seltsam, habe mich die ganze Zeit nach dem Sinn gefragt ","0","1","0","null","","","<img src = 'targets/42.png' width = '100%;'>","null","","","","","","","","","",""
"","html-keyboard-response","214","437678","0.0-10.0-3.6","93ut7vddfs","many_one","0","indirect_first","0","ch04el13","0","26","1","1","3","2","Etwas seltsam, habe mich die ganze Zeit nach dem Sinn gefragt ","0","1","0","1959.6000000019558","","","<img src = 'targets/mask.png' width = '100%;'>","68","neg","GS","GSnew","3","category3/GS2.png","targets/42.png","0","indirect","30",""
"","html-keyboard-response","215","439189","0.0-10.0-0.7","93ut7vddfs","many_one","0","indirect_first","0","ch04el13","0","26","1","1","3","2","Etwas seltsam, habe mich die ganze Zeit nach dem Sinn gefragt ","0","1","0","null","","","<div style=""font-size:60px;"">+</div>","null","","","","","","","","","",""
"","html-keyboard-response","216","439285","0.0-10.0-1.7","93ut7vddfs","many_one","0","indirect_first","0","ch04el13","0","26","1","1","3","2","Etwas seltsam, habe mich die ganze Zeit nach dem Sinn gefragt ","0","1","0","null","","","<img src = 'category3/CS9.png' width = '100%;'>","null","","","","","","","","","",""
"","html-keyboard-response","217","439544","0.0-10.0-2.7","93ut7vddfs","many_one","0","indirect_first","0","ch04el13","0","26","1","1","3","2","Etwas seltsam, habe mich die ganze Zeit nach dem Sinn gefragt ","0","1","0","null","","","<img src = 'targets/39.png' width = '100%;'>","null","","","","","","","","","",""
"","html-keyboard-response","218","440822","0.0-10.0-3.7","93ut7vddfs","many_one","0","indirect_first","0","ch04el13","0","26","1","1","3","2","Etwas seltsam, habe mich die ganze Zeit nach dem Sinn gefragt ","0","1","0","1276.0049999924377","","","<img src = 'targets/mask.png' width = '100%;'>","68","neg","GS","GSold","3","category3/CS9.png","targets/39.png","0","indirect","31",""
"","html-keyboard-response","219","442326","0.0-10.0-0.8","93ut7vddfs","many_one","0","indirect_first","0","ch04el13","0","26","1","1","3","2","Etwas seltsam, habe mich die ganze Zeit nach dem Sinn gefragt ","0","1","0","null","","","<div style=""font-size:60px;"">+</div>","null","","","","","","","","","",""
"","html-keyboard-response","220","442424","0.0-10.0-1.8","93ut7vddfs","many_one","0","indirect_first","0","ch04el13","0","26","1","1","3","2","Etwas seltsam, habe mich die ganze Zeit nach dem Sinn gefragt ","0","1","0","null","","","<img src = 'category2/GS3.png' width = '100%;'>","null","","","","","","","","","",""
"","html-keyboard-response","221","442685","0.0-10.0-2.8","93ut7vddfs","many_one","0","indirect_first","0","ch04el13","0","26","1","1","3","2","Etwas seltsam, habe mich die ganze Zeit nach dem Sinn gefragt ","0","1","0","null","","","<img src = 'targets/2.png' width = '100%;'>","null","","","","","","","","","",""
"","html-keyboard-response","222","443398","0.0-10.0-3.8","93ut7vddfs","many_one","0","indirect_first","0","ch04el13","0","26","1","1","3","2","Etwas seltsam, habe mich die ganze Zeit nach dem Sinn gefragt ","0","1","0","710.8100000041304","","","<img src = 'targets/mask.png' width = '100%;'>","75","neg","GS","GSnew","2","category2/GS3.png","targets/2.png","1","indirect","32",""
"","html-keyboard-response","223","444905","0.0-10.0-0.9","93ut7vddfs","many_one","0","indirect_first","0","ch04el13","0","26","1","1","3","2","Etwas seltsam, habe mich die ganze Zeit nach dem Sinn gefragt ","0","1","0","null","","","<div style=""font-size:60px;"">+</div>","null","","","","","","","","","",""
"","html-keyboard-response","224","445002","0.0-10.0-1.9","93ut7vddfs","many_one","0","indirect_first","0","ch04el13","0","26","1","1","3","2","Etwas seltsam, habe mich die ganze Zeit nach dem Sinn gefragt ","0","1","0","null","","","<img src = 'category1/CS1.png' width = '100%;'>","null","","","","","","","","","",""
"","html-keyboard-response","225","445259","0.0-10.0-2.9","93ut7vddfs","many_one","0","indirect_first","0","ch04el13","0","26","1","1","3","2","Etwas seltsam, habe mich die ganze Zeit nach dem Sinn gefragt ","0","1","0","null","","","<img src = 'targets/16.png' width = '100%;'>","null","","","","","","","","","",""
"","html-keyboard-response","226","445895","0.0-10.0-3.9","93ut7vddfs","many_one","0","indirect_first","0","ch04el13","0","26","1","1","3","2","Etwas seltsam, habe mich die ganze Zeit nach dem Sinn gefragt ","0","1","0","634.5699999947101","","","<img src = 'targets/mask.png' width = '100%;'>","68","pos","GS","GSold","1","category1/CS1.png","targets/16.png","0","indirect","33",""
"","html-keyboard-response","227","447401","0.0-10.0-0.10","93ut7vddfs","many_one","0","indirect_first","0","ch04el13","0","26","1","1","3","2","Etwas seltsam, habe mich die ganze Zeit nach dem Sinn gefragt ","0","1","0","null","","","<div style=""font-size:60px;"">+</div>","null","","","","","","","","","",""
"","html-keyboard-response","228","447498","0.0-10.0-1.10","93ut7vddfs","many_one","0","indirect_first","0","ch04el13","0","26","1","1","3","2","Etwas seltsam, habe mich die ganze Zeit nach dem Sinn gefragt ","0","1","0","null","","","<img src = 'category3/CS4.png' width = '100%;'>","null","","","","","","","","","",""
"","html-keyboard-response","229","447760","0.0-10.0-2.10","93ut7vddfs","many_one","0","indirect_first","0","ch04el13","0","26","1","1","3","2","Etwas seltsam, habe mich die ganze Zeit nach dem Sinn gefragt ","0","1","0","null","","","<img src = 'targets/13.png' width = '100%;'>","null","","","","","","","","","",""
"","html-keyboard-response","230","448478","0.0-10.0-3.10","93ut7vddfs","many_one","0","indirect_first","0","ch04el13","0","26","1","1","3","2","Etwas seltsam, habe mich die ganze Zeit nach dem Sinn gefragt ","0","1","0","715.794999996433","","","<img src = 'targets/mask.png' width = '100%;'>","68","neg","GS","GSold","3","category3/CS4.png","targets/13.png","0","indirect","34",""
"","html-keyboard-response","231","449988","0.0-10.0-0.11","93ut7vddfs","many_one","0","indirect_first","0","ch04el13","0","26","1","1","3","2","Etwas seltsam, habe mich die ganze Zeit nach dem Sinn gefragt ","0","1","0","null","","","<div style=""font-size:60px;"">+</div>","null","","","","","","","","","",""
"","html-keyboard-response","232","450085","0.0-10.0-1.11","93ut7vddfs","many_one","0","indirect_first","0","ch04el13","0","26","1","1","3","2","Etwas seltsam, habe mich die ganze Zeit nach dem Sinn gefragt ","0","1","0","null","","","<img src = 'category2/GS1.png' width = '100%;'>","null","","","","","","","","","",""
"","html-keyboard-response","233","450345","0.0-10.0-2.11","93ut7vddfs","many_one","0","indirect_first","0","ch04el13","0","26","1","1","3","2","Etwas seltsam, habe mich die ganze Zeit nach dem Sinn gefragt ","0","1","0","null","","","<img src = 'targets/44.png' width = '100%;'>","null","","","","","","","","","",""
"","html-keyboard-response","234","451262","0.0-10.0-3.11","93ut7vddfs","many_one","0","indirect_first","0","ch04el13","0","26","1","1","3","2","Etwas seltsam, habe mich die ganze Zeit nach dem Sinn gefragt ","0","1","0","915.8949999982724","","","<img src = 'targets/mask.png' width = '100%;'>","75","neg","GS","GSnew","2","category2/GS1.png","targets/44.png","1","indirect","35",""
"","html-keyboard-response","235","452765","0.0-10.0-0.12","93ut7vddfs","many_one","0","indirect_first","0","ch04el13","0","26","1","1","3","2","Etwas seltsam, habe mich die ganze Zeit nach dem Sinn gefragt ","0","1","0","null","","","<div style=""font-size:60px;"">+</div>","null","","","","","","","","","",""
"","html-keyboard-response","236","452861","0.0-10.0-1.12","93ut7vddfs","many_one","0","indirect_first","0","ch04el13","0","26","1","1","3","2","Etwas seltsam, habe mich die ganze Zeit nach dem Sinn gefragt ","0","1","0","null","","","<img src = 'category4/GS3.png' width = '100%;'>","null","","","","","","","","","",""
"","html-keyboard-response","237","453114","0.0-10.0-2.12","93ut7vddfs","many_one","0","indirect_first","0","ch04el13","0","26","1","1","3","2","Etwas seltsam, habe mich die ganze Zeit nach dem Sinn gefragt ","0","1","0","null","","","<img src = 'targets/22.png' width = '100%;'>","null","","","","","","","","","",""
"","html-keyboard-response","238","454438","0.0-10.0-3.12","93ut7vddfs","many_one","0","indirect_first","0","ch04el13","0","26","1","1","3","2","Etwas seltsam, habe mich die ganze Zeit nach dem Sinn gefragt ","0","1","0","1322.4299999856157","","","<img src = 'targets/mask.png' width = '100%;'>","75","pos","GS","GSnew","4","category4/GS3.png","targets/22.png","1","indirect","36",""
"","html-keyboard-response","239","455944","0.0-10.0-0.13","93ut7vddfs","many_one","0","indirect_first","0","ch04el13","0","26","1","1","3","2","Etwas seltsam, habe mich die ganze Zeit nach dem Sinn gefragt ","0","1","0","null","","","<div style=""font-size:60px;"">+</div>","null","","","","","","","","","",""
"","html-keyboard-response","240","456041","0.0-10.0-1.13","93ut7vddfs","many_one","0","indirect_first","0","ch04el13","0","26","1","1","3","2","Etwas seltsam, habe mich die ganze Zeit nach dem Sinn gefragt ","0","1","0","null","","","<img src = 'category3/GS3.png' width = '100%;'>","null","","","","","","","","","",""
"","html-keyboard-response","241","456303","0.0-10.0-2.13","93ut7vddfs","many_one","0","indirect_first","0","ch04el13","0","26","1","1","3","2","Etwas seltsam, habe mich die ganze Zeit nach dem Sinn gefragt ","0","1","0","null","","","<img src = 'targets/23.png' width = '100%;'>","null","","","","","","","","","",""
"","html-keyboard-response","242","457103","0.0-10.0-3.13","93ut7vddfs","many_one","0","indirect_first","0","ch04el13","0","26","1","1","3","2","Etwas seltsam, habe mich die ganze Zeit nach dem Sinn gefragt ","0","1","0","797.3749999946449","","","<img src = 'targets/mask.png' width = '100%;'>","68","neg","GS","GSnew","3","category3/GS3.png","targets/23.png","0","indirect","37",""
"","html-keyboard-response","243","458609","0.0-10.0-0.14","93ut7vddfs","many_one","0","indirect_first","0","ch04el13","0","26","1","1","3","2","Etwas seltsam, habe mich die ganze Zeit nach dem Sinn gefragt ","0","1","0","null","","","<div style=""font-size:60px;"">+</div>","null","","","","","","","","","",""
"","html-keyboard-response","244","458700","0.0-10.0-1.14","93ut7vddfs","many_one","0","indirect_first","0","ch04el13","0","26","1","1","3","2","Etwas seltsam, habe mich die ganze Zeit nach dem Sinn gefragt ","0","1","0","null","","","<img src = 'category2/men.png' width = '100%;'>","null","","","","","","","","","",""
"","html-keyboard-response","245","458957","0.0-10.0-2.14","93ut7vddfs","many_one","0","indirect_first","0","ch04el13","0","26","1","1","3","2","Etwas seltsam, habe mich die ganze Zeit nach dem Sinn gefragt ","0","1","0","null","","","<img src = 'targets/8.png' width = '100%;'>","null","","","","","","","","","",""
"","html-keyboard-response","246","459774","0.0-10.0-3.14","93ut7vddfs","many_one","0","indirect_first","0","ch04el13","0","26","1","1","3","2","Etwas seltsam, habe mich die ganze Zeit nach dem Sinn gefragt ","0","1","0","815.0499999901513","","","<img src = 'targets/mask.png' width = '100%;'>","68","neg","GS","abstract","2","category2/men.png","targets/8.png","0","indirect","38",""
"","html-keyboard-response","247","461284","0.0-10.0-0.15","93ut7vddfs","many_one","0","indirect_first","0","ch04el13","0","26","1","1","3","2","Etwas seltsam, habe mich die ganze Zeit nach dem Sinn gefragt ","0","1","0","null","","","<div style=""font-size:60px;"">+</div>","null","","","","","","","","","",""
"","html-keyboard-response","248","461379","0.0-10.0-1.15","93ut7vddfs","many_one","0","indirect_first","0","ch04el13","0","26","1","1","3","2","Etwas seltsam, habe mich die ganze Zeit nach dem Sinn gefragt ","0","1","0","null","","","<img src = 'category3/wang.png' width = '100%;'>","null","","","","","","","","","",""
"","html-keyboard-response","249","461638","0.0-10.0-2.15","93ut7vddfs","many_one","0","indirect_first","0","ch04el13","0","26","1","1","3","2","Etwas seltsam, habe mich die ganze Zeit nach dem Sinn gefragt ","0","1","0","null","","","<img src = 'targets/12.png' width = '100%;'>","null","","","","","","","","","",""
"","html-keyboard-response","250","462454","0.0-10.0-3.15","93ut7vddfs","many_one","0","indirect_first","0","ch04el13","0","26","1","1","3","2","Etwas seltsam, habe mich die ganze Zeit nach dem Sinn gefragt ","0","1","0","813.8999999937369","","","<img src = 'targets/mask.png' width = '100%;'>","68","neg","GS","abstract","3","category3/wang.png","targets/12.png","0","indirect","39",""
"","html-keyboard-response","251","463963","0.0-10.0-0.16","93ut7vddfs","many_one","0","indirect_first","0","ch04el13","0","26","1","1","3","2","Etwas seltsam, habe mich die ganze Zeit nach dem Sinn gefragt ","0","1","0","null","","","<div style=""font-size:60px;"">+</div>","null","","","","","","","","","",""
"","html-keyboard-response","252","464059","0.0-10.0-1.16","93ut7vddfs","many_one","0","indirect_first","0","ch04el13","0","26","1","1","3","2","Etwas seltsam, habe mich die ganze Zeit nach dem Sinn gefragt ","0","1","0","null","","","<img src = 'category4/GS2.png' width = '100%;'>","null","","","","","","","","","",""
"","html-keyboard-response","253","464319","0.0-10.0-2.16","93ut7vddfs","many_one","0","indirect_first","0","ch04el13","0","26","1","1","3","2","Etwas seltsam, habe mich die ganze Zeit nach dem Sinn gefragt ","0","1","0","null","","","<img src = 'targets/30.png' width = '100%;'>","null","","","","","","","","","",""
"","html-keyboard-response","254","465917","0.0-10.0-3.16","93ut7vddfs","many_one","0","indirect_first","0","ch04el13","0","26","1","1","3","2","Etwas seltsam, habe mich die ganze Zeit nach dem Sinn gefragt ","0","1","0","1596.6750000079628","","","<img src = 'targets/mask.png' width = '100%;'>","68","pos","GS","GSnew","4","category4/GS2.png","targets/30.png","0","indirect","40",""
"","html-keyboard-response","255","467428","0.0-10.0-0.17","93ut7vddfs","many_one","0","indirect_first","0","ch04el13","0","26","1","1","3","2","Etwas seltsam, habe mich die ganze Zeit nach dem Sinn gefragt ","0","1","0","null","","","<div style=""font-size:60px;"">+</div>","null","","","","","","","","","",""
"","html-keyboard-response","256","467521","0.0-10.0-1.17","93ut7vddfs","many_one","0","indirect_first","0","ch04el13","0","26","1","1","3","2","Etwas seltsam, habe mich die ganze Zeit nach dem Sinn gefragt ","0","1","0","null","","","<img src = 'category4/CS9.png' width = '100%;'>","null","","","","","","","","","",""
"","html-keyboard-response","257","467778","0.0-10.0-2.17","93ut7vddfs","many_one","0","indirect_first","0","ch04el13","0","26","1","1","3","2","Etwas seltsam, habe mich die ganze Zeit nach dem Sinn gefragt ","0","1","0","null","","","<img src = 'targets/34.png' width = '100%;'>","null","","","","","","","","","",""
"","html-keyboard-response","258","468950","0.0-10.0-3.17","93ut7vddfs","many_one","0","indirect_first","0","ch04el13","0","26","1","1","3","2","Etwas seltsam, habe mich die ganze Zeit nach dem Sinn gefragt ","0","1","0","1170.350000000326","","","<img src = 'targets/mask.png' width = '100%;'>","75","pos","GS","GSold","4","category4/CS9.png","targets/34.png","1","indirect","41",""
"","html-keyboard-response","259","470458","0.0-10.0-0.18","93ut7vddfs","many_one","0","indirect_first","0","ch04el13","0","26","1","1","3","2","Etwas seltsam, habe mich die ganze Zeit nach dem Sinn gefragt ","0","1","0","null","","","<div style=""font-size:60px;"">+</div>","null","","","","","","","","","",""
"","html-keyboard-response","260","470553","0.0-10.0-1.18","93ut7vddfs","many_one","0","indirect_first","0","ch04el13","0","26","1","1","3","2","Etwas seltsam, habe mich die ganze Zeit nach dem Sinn gefragt ","0","1","0","null","","","<img src = 'category3/CS5.png' width = '100%;'>","null","","","","","","","","","",""
"","html-keyboard-response","261","470814","0.0-10.0-2.18","93ut7vddfs","many_one","0","indirect_first","0","ch04el13","0","26","1","1","3","2","Etwas seltsam, habe mich die ganze Zeit nach dem Sinn gefragt ","0","1","0","null","","","<img src = 'targets/15.png' width = '100%;'>","null","","","","","","","","","",""
"","html-keyboard-response","262","471630","0.0-10.0-3.18","93ut7vddfs","many_one","0","indirect_first","0","ch04el13","0","26","1","1","3","2","Etwas seltsam, habe mich die ganze Zeit nach dem Sinn gefragt ","0","1","0","814.4899999897461","","","<img src = 'targets/mask.png' width = '100%;'>","68","neg","GS","GSold","3","category3/CS5.png","targets/15.png","0","indirect","42",""
"","html-keyboard-response","263","473141","0.0-10.0-0.19","93ut7vddfs","many_one","0","indirect_first","0","ch04el13","0","26","1","1","3","2","Etwas seltsam, habe mich die ganze Zeit nach dem Sinn gefragt ","0","1","0","null","","","<div style=""font-size:60px;"">+</div>","null","","","","","","","","","",""
