"success","trial_type","trial_index","time_elapsed","internal_node_id","subject","condition","condition_code","measure","measure_code","codeword","gender","age","education","chinese","fach","handedness","comment","hinschauen","ablenkung","gewissenhaft","rt","url","responses","stimulus","key_press","val","type","type_specific","category","cs_selected","response","target","task","indirect","nr_pres"
"true","fullscreen","0","354688","0.0-0.0","gy7bbd1bvj","one_one","1","direct_first","1","KL07ER23","0","25","1","1","3","1","","0","1","0","","","","","","","","","","","","","","",""
"","external-html","1","388915","0.0-1.0","gy7bbd1bvj","one_one","1","direct_first","1","KL07ER23","0","25","1","1","3","1","","0","1","0","34129","text/information.html","","","","","","","","","","","","",""
"","external-html","2","401558","0.0-2.0","gy7bbd1bvj","one_one","1","direct_first","1","KL07ER23","0","25","1","1","3","1","","0","1","0","12536","text/consent.html","","","","","","","","","","","","",""
"","survey-html-form","3","429609","0.0-3.0","gy7bbd1bvj","one_one","1","direct_first","1","KL07ER23","0","25","1","1","3","1","","0","1","0","28044","","{""codeword_enter"":""KL07ER23""}","","","","","","","","","","","",""
"","survey-html-form","4","446250","0.0-4.0","gy7bbd1bvj","one_one","1","direct_first","1","KL07ER23","0","25","1","1","3","1","","0","1","0","16628","","{""age"":""25"",""education"":""1"",""subject"":""3"",""gender"":""0"",""handedness"":""1"",""chinese"":""1""}","","","","","","","","","","","",""
"","survey-html-form","5","453792","0.0-5.0","gy7bbd1bvj","one_one","1","direct_first","1","KL07ER23","0","25","1","1","3","1","","0","1","0","7533","","{}","","","","","","","","","","","",""
"","html-keyboard-response","6","457829","0.0-6.0-0.0-0.0","gy7bbd1bvj","one_one","1","direct_first","1","KL07ER23","0","25","1","1","3","1","","0","1","0","null","","","<div class = 'row'><div class = 'column'><img src = 'category2/CS7.png' width = '70%;'></div><div class = 'column'><img src = 'uspos/8350.bmp' width = '100%;'></div></div>","null","pos","CS","CS","2","category2/CS7.png","","","","",""
"","html-keyboard-response","7","460352","0.0-6.0-0.0-0.1","gy7bbd1bvj","one_one","1","direct_first","1","KL07ER23","0","25","1","1","3","1","","0","1","0","null","","","<div class = 'row'><div class = 'column'><img src = 'category1/CS1.png' width = '70%;'></div><div class = 'column'><img src = 'uspos/4625.bmp' width = '100%;'></div></div>","null","pos","CS","CS","1","category1/CS1.png","","","","",""
"","html-keyboard-response","8","462889","0.0-6.0-0.0-0.2","gy7bbd1bvj","one_one","1","direct_first","1","KL07ER23","0","25","1","1","3","1","","0","1","0","null","","","<div class = 'row'><div class = 'column'><img src = 'usneg/9220.bmp' width = '100%;'></div><div class = 'column'><img src = 'category3/CS8.png' width = '70%;'></div></div>","null","neg","CS","CS","3","category3/CS8.png","","","","",""
"","html-keyboard-response","9","465419","0.0-6.0-0.0-0.3","gy7bbd1bvj","one_one","1","direct_first","1","KL07ER23","0","25","1","1","3","1","","0","1","0","null","","","<div class = 'row'><div class = 'column'><img src = 'uspos/4625.bmp' width = '100%;'></div><div class = 'column'><img src = 'category1/CS1.png' width = '70%;'></div></div>","null","pos","CS","CS","1","category1/CS1.png","","","","",""
"","html-keyboard-response","10","467958","0.0-6.0-0.0-0.4","gy7bbd1bvj","one_one","1","direct_first","1","KL07ER23","0","25","1","1","3","1","","0","1","0","null","","","<div class = 'row'><div class = 'column'><img src = 'category4/CS9.png' width = '70%;'></div><div class = 'column'><img src = 'usneg/6838.bmp' width = '100%;'></div></div>","null","neg","CS","CS","4","category4/CS9.png","","","","",""
"","html-keyboard-response","11","470497","0.0-6.0-0.0-0.5","gy7bbd1bvj","one_one","1","direct_first","1","KL07ER23","0","25","1","1","3","1","","0","1","0","null","","","<div class = 'row'><div class = 'column'><img src = 'uspos/4625.bmp' width = '100%;'></div><div class = 'column'><img src = 'category1/CS1.png' width = '70%;'></div></div>","null","pos","CS","CS","1","category1/CS1.png","","","","",""
"","html-keyboard-response","12","473037","0.0-6.0-0.0-0.6","gy7bbd1bvj","one_one","1","direct_first","1","KL07ER23","0","25","1","1","3","1","","0","1","0","null","","","<div class = 'row'><div class = 'column'><img src = 'category4/CS9.png' width = '70%;'></div><div class = 'column'><img src = 'usneg/6838.bmp' width = '100%;'></div></div>","null","neg","CS","CS","4","category4/CS9.png","","","","",""
"","html-keyboard-response","13","475578","0.0-6.0-0.0-0.7","gy7bbd1bvj","one_one","1","direct_first","1","KL07ER23","0","25","1","1","3","1","","0","1","0","null","","","<div class = 'row'><div class = 'column'><img src = 'usneg/9220.bmp' width = '100%;'></div><div class = 'column'><img src = 'category3/CS8.png' width = '70%;'></div></div>","null","neg","CS","CS","3","category3/CS8.png","","","","",""
"","html-keyboard-response","14","478117","0.0-6.0-0.0-0.8","gy7bbd1bvj","one_one","1","direct_first","1","KL07ER23","0","25","1","1","3","1","","0","1","0","null","","","<div class = 'row'><div class = 'column'><img src = 'uspos/8350.bmp' width = '100%;'></div><div class = 'column'><img src = 'category2/CS7.png' width = '70%;'></div></div>","null","pos","CS","CS","2","category2/CS7.png","","","","",""
"","html-keyboard-response","15","480656","0.0-6.0-0.0-0.9","gy7bbd1bvj","one_one","1","direct_first","1","KL07ER23","0","25","1","1","3","1","","0","1","0","null","","","<div class = 'row'><div class = 'column'><img src = 'category4/CS9.png' width = '70%;'></div><div class = 'column'><img src = 'usneg/6838.bmp' width = '100%;'></div></div>","null","neg","CS","CS","4","category4/CS9.png","","","","",""
"","html-keyboard-response","16","483197","0.0-6.0-0.0-0.10","gy7bbd1bvj","one_one","1","direct_first","1","KL07ER23","0","25","1","1","3","1","","0","1","0","null","","","<div class = 'row'><div class = 'column'><img src = 'category3/CS8.png' width = '70%;'></div><div class = 'column'><img src = 'usneg/9220.bmp' width = '100%;'></div></div>","null","neg","CS","CS","3","category3/CS8.png","","","","",""
"","html-keyboard-response","17","485738","0.0-6.0-0.0-0.11","gy7bbd1bvj","one_one","1","direct_first","1","KL07ER23","0","25","1","1","3","1","","0","1","0","null","","","<div class = 'row'><div class = 'column'><img src = 'category2/CS7.png' width = '70%;'></div><div class = 'column'><img src = 'uspos/8350.bmp' width = '100%;'></div></div>","null","pos","CS","CS","2","category2/CS7.png","","","","",""
"","html-keyboard-response","18","488257","0.0-6.0-0.0-0.12","gy7bbd1bvj","one_one","1","direct_first","1","KL07ER23","0","25","1","1","3","1","","0","1","0","null","","","<div class = 'row'><div class = 'column'><img src = 'usneg/6838.bmp' width = '100%;'></div><div class = 'column'><img src = 'category4/CS9.png' width = '70%;'></div></div>","null","neg","CS","CS","4","category4/CS9.png","","","","",""
"","html-keyboard-response","19","490797","0.0-6.0-0.0-0.13","gy7bbd1bvj","one_one","1","direct_first","1","KL07ER23","0","25","1","1","3","1","","0","1","0","null","","","<div class = 'row'><div class = 'column'><img src = 'usneg/9220.bmp' width = '100%;'></div><div class = 'column'><img src = 'category3/CS8.png' width = '70%;'></div></div>","null","neg","CS","CS","3","category3/CS8.png","","","","",""
"","html-keyboard-response","20","493337","0.0-6.0-0.0-0.14","gy7bbd1bvj","one_one","1","direct_first","1","KL07ER23","0","25","1","1","3","1","","0","1","0","null","","","<div class = 'row'><div class = 'column'><img src = 'category1/CS1.png' width = '70%;'></div><div class = 'column'><img src = 'uspos/4625.bmp' width = '100%;'></div></div>","null","pos","CS","CS","1","category1/CS1.png","","","","",""
"","html-keyboard-response","21","495877","0.0-6.0-0.0-0.15","gy7bbd1bvj","one_one","1","direct_first","1","KL07ER23","0","25","1","1","3","1","","0","1","0","null","","","<div class = 'row'><div class = 'column'><img src = 'category2/CS7.png' width = '70%;'></div><div class = 'column'><img src = 'uspos/8350.bmp' width = '100%;'></div></div>","null","pos","CS","CS","2","category2/CS7.png","","","","",""
"","html-keyboard-response","22","498417","0.0-6.0-0.0-0.16","gy7bbd1bvj","one_one","1","direct_first","1","KL07ER23","0","25","1","1","3","1","","0","1","0","null","","","<div class = 'row'><div class = 'column'><img src = 'usneg/6838.bmp' width = '100%;'></div><div class = 'column'><img src = 'category4/CS9.png' width = '70%;'></div></div>","null","neg","CS","CS","4","category4/CS9.png","","","","",""
"","html-keyboard-response","23","500957","0.0-6.0-0.0-0.17","gy7bbd1bvj","one_one","1","direct_first","1","KL07ER23","0","25","1","1","3","1","","0","1","0","null","","","<div class = 'row'><div class = 'column'><img src = 'category1/CS1.png' width = '70%;'></div><div class = 'column'><img src = 'uspos/4625.bmp' width = '100%;'></div></div>","null","pos","CS","CS","1","category1/CS1.png","","","","",""
"","html-keyboard-response","24","503497","0.0-6.0-0.0-0.18","gy7bbd1bvj","one_one","1","direct_first","1","KL07ER23","0","25","1","1","3","1","","0","1","0","null","","","<div class = 'row'><div class = 'column'><img src = 'category2/CS7.png' width = '70%;'></div><div class = 'column'><img src = 'uspos/8350.bmp' width = '100%;'></div></div>","null","pos","CS","CS","2","category2/CS7.png","","","","",""
"","html-keyboard-response","25","506037","0.0-6.0-0.0-0.19","gy7bbd1bvj","one_one","1","direct_first","1","KL07ER23","0","25","1","1","3","1","","0","1","0","null","","","<div class = 'row'><div class = 'column'><img src = 'category3/CS8.png' width = '70%;'></div><div class = 'column'><img src = 'usneg/9220.bmp' width = '100%;'></div></div>","null","neg","CS","CS","3","category3/CS8.png","","","","",""
"","survey-html-form","26","510922","0.0-6.0-1.0","gy7bbd1bvj","one_one","1","direct_first","1","KL07ER23","0","25","1","1","3","1","","0","1","0","4366","","{}","","","","","","","","","","","",""
"","html-keyboard-response","27","514957","0.0-6.0-2.0-0.0","gy7bbd1bvj","one_one","1","direct_first","1","KL07ER23","0","25","1","1","3","1","","0","1","0","null","","","<div class = 'row'><div class = 'column'><img src = 'category2/CS7.png' width = '70%;'></div><div class = 'column'><img src = 'uspos/8350.bmp' width = '100%;'></div></div>","null","pos","CS","CS","2","category2/CS7.png","","","","",""
"","html-keyboard-response","28","517497","0.0-6.0-2.0-0.1","gy7bbd1bvj","one_one","1","direct_first","1","KL07ER23","0","25","1","1","3","1","","0","1","0","null","","","<div class = 'row'><div class = 'column'><img src = 'category4/CS9.png' width = '70%;'></div><div class = 'column'><img src = 'usneg/6838.bmp' width = '100%;'></div></div>","null","neg","CS","CS","4","category4/CS9.png","","","","",""
"","html-keyboard-response","29","520027","0.0-6.0-2.0-0.2","gy7bbd1bvj","one_one","1","direct_first","1","KL07ER23","0","25","1","1","3","1","","0","1","0","null","","","<div class = 'row'><div class = 'column'><img src = 'category3/CS8.png' width = '70%;'></div><div class = 'column'><img src = 'usneg/9220.bmp' width = '100%;'></div></div>","null","neg","CS","CS","3","category3/CS8.png","","","","",""
"","html-keyboard-response","30","522566","0.0-6.0-2.0-0.3","gy7bbd1bvj","one_one","1","direct_first","1","KL07ER23","0","25","1","1","3","1","","0","1","0","null","","","<div class = 'row'><div class = 'column'><img src = 'category2/CS7.png' width = '70%;'></div><div class = 'column'><img src = 'uspos/8350.bmp' width = '100%;'></div></div>","null","pos","CS","CS","2","category2/CS7.png","","","","",""
"","html-keyboard-response","31","525107","0.0-6.0-2.0-0.4","gy7bbd1bvj","one_one","1","direct_first","1","KL07ER23","0","25","1","1","3","1","","0","1","0","null","","","<div class = 'row'><div class = 'column'><img src = 'uspos/4625.bmp' width = '100%;'></div><div class = 'column'><img src = 'category1/CS1.png' width = '70%;'></div></div>","null","pos","CS","CS","1","category1/CS1.png","","","","",""
"","html-keyboard-response","32","527647","0.0-6.0-2.0-0.5","gy7bbd1bvj","one_one","1","direct_first","1","KL07ER23","0","25","1","1","3","1","","0","1","0","null","","","<div class = 'row'><div class = 'column'><img src = 'usneg/6838.bmp' width = '100%;'></div><div class = 'column'><img src = 'category4/CS9.png' width = '70%;'></div></div>","null","neg","CS","CS","4","category4/CS9.png","","","","",""
"","html-keyboard-response","33","530166","0.0-6.0-2.0-0.6","gy7bbd1bvj","one_one","1","direct_first","1","KL07ER23","0","25","1","1","3","1","","0","1","0","null","","","<div class = 'row'><div class = 'column'><img src = 'uspos/4625.bmp' width = '100%;'></div><div class = 'column'><img src = 'category1/CS1.png' width = '70%;'></div></div>","null","pos","CS","CS","1","category1/CS1.png","","","","",""
"","html-keyboard-response","34","532707","0.0-6.0-2.0-0.7","gy7bbd1bvj","one_one","1","direct_first","1","KL07ER23","0","25","1","1","3","1","","0","1","0","null","","","<div class = 'row'><div class = 'column'><img src = 'usneg/6838.bmp' width = '100%;'></div><div class = 'column'><img src = 'category4/CS9.png' width = '70%;'></div></div>","null","neg","CS","CS","4","category4/CS9.png","","","","",""
"","html-keyboard-response","35","535247","0.0-6.0-2.0-0.8","gy7bbd1bvj","one_one","1","direct_first","1","KL07ER23","0","25","1","1","3","1","","0","1","0","null","","","<div class = 'row'><div class = 'column'><img src = 'category1/CS1.png' width = '70%;'></div><div class = 'column'><img src = 'uspos/4625.bmp' width = '100%;'></div></div>","null","pos","CS","CS","1","category1/CS1.png","","","","",""
"","html-keyboard-response","36","537786","0.0-6.0-2.0-0.9","gy7bbd1bvj","one_one","1","direct_first","1","KL07ER23","0","25","1","1","3","1","","0","1","0","null","","","<div class = 'row'><div class = 'column'><img src = 'usneg/9220.bmp' width = '100%;'></div><div class = 'column'><img src = 'category3/CS8.png' width = '70%;'></div></div>","null","neg","CS","CS","3","category3/CS8.png","","","","",""
"","html-keyboard-response","37","540327","0.0-6.0-2.0-0.10","gy7bbd1bvj","one_one","1","direct_first","1","KL07ER23","0","25","1","1","3","1","","0","1","0","null","","","<div class = 'row'><div class = 'column'><img src = 'uspos/8350.bmp' width = '100%;'></div><div class = 'column'><img src = 'category2/CS7.png' width = '70%;'></div></div>","null","pos","CS","CS","2","category2/CS7.png","","","","",""
"","html-keyboard-response","38","542867","0.0-6.0-2.0-0.11","gy7bbd1bvj","one_one","1","direct_first","1","KL07ER23","0","25","1","1","3","1","","0","1","0","null","","","<div class = 'row'><div class = 'column'><img src = 'category3/CS8.png' width = '70%;'></div><div class = 'column'><img src = 'usneg/9220.bmp' width = '100%;'></div></div>","null","neg","CS","CS","3","category3/CS8.png","","","","",""
"","html-keyboard-response","39","545397","0.0-6.0-2.0-0.12","gy7bbd1bvj","one_one","1","direct_first","1","KL07ER23","0","25","1","1","3","1","","0","1","0","null","","","<div class = 'row'><div class = 'column'><img src = 'usneg/6838.bmp' width = '100%;'></div><div class = 'column'><img src = 'category4/CS9.png' width = '70%;'></div></div>","null","neg","CS","CS","4","category4/CS9.png","","","","",""
"","html-keyboard-response","40","547937","0.0-6.0-2.0-0.13","gy7bbd1bvj","one_one","1","direct_first","1","KL07ER23","0","25","1","1","3","1","","0","1","0","null","","","<div class = 'row'><div class = 'column'><img src = 'uspos/8350.bmp' width = '100%;'></div><div class = 'column'><img src = 'category2/CS7.png' width = '70%;'></div></div>","null","pos","CS","CS","2","category2/CS7.png","","","","",""
"","html-keyboard-response","41","550456","0.0-6.0-2.0-0.14","gy7bbd1bvj","one_one","1","direct_first","1","KL07ER23","0","25","1","1","3","1","","0","1","0","null","","","<div class = 'row'><div class = 'column'><img src = 'category1/CS1.png' width = '70%;'></div><div class = 'column'><img src = 'uspos/4625.bmp' width = '100%;'></div></div>","null","pos","CS","CS","1","category1/CS1.png","","","","",""
"","html-keyboard-response","42","552997","0.0-6.0-2.0-0.15","gy7bbd1bvj","one_one","1","direct_first","1","KL07ER23","0","25","1","1","3","1","","0","1","0","null","","","<div class = 'row'><div class = 'column'><img src = 'category3/CS8.png' width = '70%;'></div><div class = 'column'><img src = 'usneg/9220.bmp' width = '100%;'></div></div>","null","neg","CS","CS","3","category3/CS8.png","","","","",""
"","html-keyboard-response","43","555537","0.0-6.0-2.0-0.16","gy7bbd1bvj","one_one","1","direct_first","1","KL07ER23","0","25","1","1","3","1","","0","1","0","null","","","<div class = 'row'><div class = 'column'><img src = 'category1/CS1.png' width = '70%;'></div><div class = 'column'><img src = 'uspos/4625.bmp' width = '100%;'></div></div>","null","pos","CS","CS","1","category1/CS1.png","","","","",""
"","html-keyboard-response","44","558077","0.0-6.0-2.0-0.17","gy7bbd1bvj","one_one","1","direct_first","1","KL07ER23","0","25","1","1","3","1","","0","1","0","null","","","<div class = 'row'><div class = 'column'><img src = 'usneg/6838.bmp' width = '100%;'></div><div class = 'column'><img src = 'category4/CS9.png' width = '70%;'></div></div>","null","neg","CS","CS","4","category4/CS9.png","","","","",""
"","html-keyboard-response","45","560616","0.0-6.0-2.0-0.18","gy7bbd1bvj","one_one","1","direct_first","1","KL07ER23","0","25","1","1","3","1","","0","1","0","null","","","<div class = 'row'><div class = 'column'><img src = 'usneg/9220.bmp' width = '100%;'></div><div class = 'column'><img src = 'category3/CS8.png' width = '70%;'></div></div>","null","neg","CS","CS","3","category3/CS8.png","","","","",""
"","html-keyboard-response","46","563157","0.0-6.0-2.0-0.19","gy7bbd1bvj","one_one","1","direct_first","1","KL07ER23","0","25","1","1","3","1","","0","1","0","null","","","<div class = 'row'><div class = 'column'><img src = 'uspos/8350.bmp' width = '100%;'></div><div class = 'column'><img src = 'category2/CS7.png' width = '70%;'></div></div>","null","pos","CS","CS","2","category2/CS7.png","","","","",""
"","survey-html-form","47","567274","0.0-6.0-3.0","gy7bbd1bvj","one_one","1","direct_first","1","KL07ER23","0","25","1","1","3","1","","0","1","0","3597","","{}","","","","","","","","","","","",""
"","html-keyboard-response","48","571296","0.0-6.0-4.0-0.0","gy7bbd1bvj","one_one","1","direct_first","1","KL07ER23","0","25","1","1","3","1","","0","1","0","null","","","<div class = 'row'><div class = 'column'><img src = 'uspos/4625.bmp' width = '100%;'></div><div class = 'column'><img src = 'category1/CS1.png' width = '70%;'></div></div>","null","pos","CS","CS","1","category1/CS1.png","","","","",""
"","html-keyboard-response","49","573837","0.0-6.0-4.0-0.1","gy7bbd1bvj","one_one","1","direct_first","1","KL07ER23","0","25","1","1","3","1","","0","1","0","null","","","<div class = 'row'><div class = 'column'><img src = 'category2/CS7.png' width = '70%;'></div><div class = 'column'><img src = 'uspos/8350.bmp' width = '100%;'></div></div>","null","pos","CS","CS","2","category2/CS7.png","","","","",""
"","html-keyboard-response","50","576377","0.0-6.0-4.0-0.2","gy7bbd1bvj","one_one","1","direct_first","1","KL07ER23","0","25","1","1","3","1","","0","1","0","null","","","<div class = 'row'><div class = 'column'><img src = 'usneg/6838.bmp' width = '100%;'></div><div class = 'column'><img src = 'category4/CS9.png' width = '70%;'></div></div>","null","neg","CS","CS","4","category4/CS9.png","","","","",""
"","html-keyboard-response","51","578916","0.0-6.0-4.0-0.3","gy7bbd1bvj","one_one","1","direct_first","1","KL07ER23","0","25","1","1","3","1","","0","1","0","null","","","<div class = 'row'><div class = 'column'><img src = 'usneg/9220.bmp' width = '100%;'></div><div class = 'column'><img src = 'category3/CS8.png' width = '70%;'></div></div>","null","neg","CS","CS","3","category3/CS8.png","","","","",""
"","html-keyboard-response","52","581457","0.0-6.0-4.0-0.4","gy7bbd1bvj","one_one","1","direct_first","1","KL07ER23","0","25","1","1","3","1","","0","1","0","null","","","<div class = 'row'><div class = 'column'><img src = 'category2/CS7.png' width = '70%;'></div><div class = 'column'><img src = 'uspos/8350.bmp' width = '100%;'></div></div>","null","pos","CS","CS","2","category2/CS7.png","","","","",""
"","html-keyboard-response","53","583998","0.0-6.0-4.0-0.5","gy7bbd1bvj","one_one","1","direct_first","1","KL07ER23","0","25","1","1","3","1","","0","1","0","null","","","<div class = 'row'><div class = 'column'><img src = 'category1/CS1.png' width = '70%;'></div><div class = 'column'><img src = 'uspos/4625.bmp' width = '100%;'></div></div>","null","pos","CS","CS","1","category1/CS1.png","","","","",""
"","html-keyboard-response","54","586535","0.0-6.0-4.0-0.6","gy7bbd1bvj","one_one","1","direct_first","1","KL07ER23","0","25","1","1","3","1","","0","1","0","null","","","<div class = 'row'><div class = 'column'><img src = 'usneg/9220.bmp' width = '100%;'></div><div class = 'column'><img src = 'category3/CS8.png' width = '70%;'></div></div>","null","neg","CS","CS","3","category3/CS8.png","","","","",""
"","html-keyboard-response","55","589077","0.0-6.0-4.0-0.7","gy7bbd1bvj","one_one","1","direct_first","1","KL07ER23","0","25","1","1","3","1","","0","1","0","null","","","<div class = 'row'><div class = 'column'><img src = 'category4/CS9.png' width = '70%;'></div><div class = 'column'><img src = 'usneg/6838.bmp' width = '100%;'></div></div>","null","neg","CS","CS","4","category4/CS9.png","","","","",""
"","html-keyboard-response","56","591616","0.0-6.0-4.0-0.8","gy7bbd1bvj","one_one","1","direct_first","1","KL07ER23","0","25","1","1","3","1","","0","1","0","null","","","<div class = 'row'><div class = 'column'><img src = 'category2/CS7.png' width = '70%;'></div><div class = 'column'><img src = 'uspos/8350.bmp' width = '100%;'></div></div>","null","pos","CS","CS","2","category2/CS7.png","","","","",""
"","html-keyboard-response","57","594157","0.0-6.0-4.0-0.9","gy7bbd1bvj","one_one","1","direct_first","1","KL07ER23","0","25","1","1","3","1","","0","1","0","null","","","<div class = 'row'><div class = 'column'><img src = 'category4/CS9.png' width = '70%;'></div><div class = 'column'><img src = 'usneg/6838.bmp' width = '100%;'></div></div>","null","neg","CS","CS","4","category4/CS9.png","","","","",""
"","html-keyboard-response","58","596696","0.0-6.0-4.0-0.10","gy7bbd1bvj","one_one","1","direct_first","1","KL07ER23","0","25","1","1","3","1","","0","1","0","null","","","<div class = 'row'><div class = 'column'><img src = 'category2/CS7.png' width = '70%;'></div><div class = 'column'><img src = 'uspos/8350.bmp' width = '100%;'></div></div>","null","pos","CS","CS","2","category2/CS7.png","","","","",""
"","html-keyboard-response","59","599236","0.0-6.0-4.0-0.11","gy7bbd1bvj","one_one","1","direct_first","1","KL07ER23","0","25","1","1","3","1","","0","1","0","null","","","<div class = 'row'><div class = 'column'><img src = 'category3/CS8.png' width = '70%;'></div><div class = 'column'><img src = 'usneg/9220.bmp' width = '100%;'></div></div>","null","neg","CS","CS","3","category3/CS8.png","","","","",""
"","html-keyboard-response","60","601757","0.0-6.0-4.0-0.12","gy7bbd1bvj","one_one","1","direct_first","1","KL07ER23","0","25","1","1","3","1","","0","1","0","null","","","<div class = 'row'><div class = 'column'><img src = 'category4/CS9.png' width = '70%;'></div><div class = 'column'><img src = 'usneg/6838.bmp' width = '100%;'></div></div>","null","neg","CS","CS","4","category4/CS9.png","","","","",""
"","html-keyboard-response","61","604297","0.0-6.0-4.0-0.13","gy7bbd1bvj","one_one","1","direct_first","1","KL07ER23","0","25","1","1","3","1","","0","1","0","null","","","<div class = 'row'><div class = 'column'><img src = 'category2/CS7.png' width = '70%;'></div><div class = 'column'><img src = 'uspos/8350.bmp' width = '100%;'></div></div>","null","pos","CS","CS","2","category2/CS7.png","","","","",""
"","html-keyboard-response","62","606827","0.0-6.0-4.0-0.14","gy7bbd1bvj","one_one","1","direct_first","1","KL07ER23","0","25","1","1","3","1","","0","1","0","null","","","<div class = 'row'><div class = 'column'><img src = 'category1/CS1.png' width = '70%;'></div><div class = 'column'><img src = 'uspos/4625.bmp' width = '100%;'></div></div>","null","pos","CS","CS","1","category1/CS1.png","","","","",""
"","html-keyboard-response","63","609366","0.0-6.0-4.0-0.15","gy7bbd1bvj","one_one","1","direct_first","1","KL07ER23","0","25","1","1","3","1","","0","1","0","null","","","<div class = 'row'><div class = 'column'><img src = 'usneg/9220.bmp' width = '100%;'></div><div class = 'column'><img src = 'category3/CS8.png' width = '70%;'></div></div>","null","neg","CS","CS","3","category3/CS8.png","","","","",""
"","html-keyboard-response","64","611906","0.0-6.0-4.0-0.16","gy7bbd1bvj","one_one","1","direct_first","1","KL07ER23","0","25","1","1","3","1","","0","1","0","null","","","<div class = 'row'><div class = 'column'><img src = 'category1/CS1.png' width = '70%;'></div><div class = 'column'><img src = 'uspos/4625.bmp' width = '100%;'></div></div>","null","pos","CS","CS","1","category1/CS1.png","","","","",""
"","html-keyboard-response","65","614437","0.0-6.0-4.0-0.17","gy7bbd1bvj","one_one","1","direct_first","1","KL07ER23","0","25","1","1","3","1","","0","1","0","null","","","<div class = 'row'><div class = 'column'><img src = 'category4/CS9.png' width = '70%;'></div><div class = 'column'><img src = 'usneg/6838.bmp' width = '100%;'></div></div>","null","neg","CS","CS","4","category4/CS9.png","","","","",""
"","html-keyboard-response","66","616976","0.0-6.0-4.0-0.18","gy7bbd1bvj","one_one","1","direct_first","1","KL07ER23","0","25","1","1","3","1","","0","1","0","null","","","<div class = 'row'><div class = 'column'><img src = 'uspos/4625.bmp' width = '100%;'></div><div class = 'column'><img src = 'category1/CS1.png' width = '70%;'></div></div>","null","pos","CS","CS","1","category1/CS1.png","","","","",""
"","html-keyboard-response","67","619517","0.0-6.0-4.0-0.19","gy7bbd1bvj","one_one","1","direct_first","1","KL07ER23","0","25","1","1","3","1","","0","1","0","null","","","<div class = 'row'><div class = 'column'><img src = 'usneg/9220.bmp' width = '100%;'></div><div class = 'column'><img src = 'category3/CS8.png' width = '70%;'></div></div>","null","neg","CS","CS","3","category3/CS8.png","","","","",""
"","survey-html-form","68","622802","0.0-6.0-5.0","gy7bbd1bvj","one_one","1","direct_first","1","KL07ER23","0","25","1","1","3","1","","0","1","0","2765","","{}","","","","","","","","","","","",""
"","html-keyboard-response","69","626836","0.0-6.0-6.0-0.0","gy7bbd1bvj","one_one","1","direct_first","1","KL07ER23","0","25","1","1","3","1","","0","1","0","null","","","<div class = 'row'><div class = 'column'><img src = 'uspos/4625.bmp' width = '100%;'></div><div class = 'column'><img src = 'category1/CS1.png' width = '70%;'></div></div>","null","pos","CS","CS","1","category1/CS1.png","","","","",""
"","html-keyboard-response","70","629376","0.0-6.0-6.0-0.1","gy7bbd1bvj","one_one","1","direct_first","1","KL07ER23","0","25","1","1","3","1","","0","1","0","null","","","<div class = 'row'><div class = 'column'><img src = 'category3/CS8.png' width = '70%;'></div><div class = 'column'><img src = 'usneg/9220.bmp' width = '100%;'></div></div>","null","neg","CS","CS","3","category3/CS8.png","","","","",""
"","html-keyboard-response","71","631917","0.0-6.0-6.0-0.2","gy7bbd1bvj","one_one","1","direct_first","1","KL07ER23","0","25","1","1","3","1","","0","1","0","null","","","<div class = 'row'><div class = 'column'><img src = 'category2/CS7.png' width = '70%;'></div><div class = 'column'><img src = 'uspos/8350.bmp' width = '100%;'></div></div>","null","pos","CS","CS","2","category2/CS7.png","","","","",""
"","html-keyboard-response","72","634456","0.0-6.0-6.0-0.3","gy7bbd1bvj","one_one","1","direct_first","1","KL07ER23","0","25","1","1","3","1","","0","1","0","null","","","<div class = 'row'><div class = 'column'><img src = 'uspos/4625.bmp' width = '100%;'></div><div class = 'column'><img src = 'category1/CS1.png' width = '70%;'></div></div>","null","pos","CS","CS","1","category1/CS1.png","","","","",""
"","html-keyboard-response","73","636996","0.0-6.0-6.0-0.4","gy7bbd1bvj","one_one","1","direct_first","1","KL07ER23","0","25","1","1","3","1","","0","1","0","null","","","<div class = 'row'><div class = 'column'><img src = 'usneg/9220.bmp' width = '100%;'></div><div class = 'column'><img src = 'category3/CS8.png' width = '70%;'></div></div>","null","neg","CS","CS","3","category3/CS8.png","","","","",""
"","html-keyboard-response","74","639526","0.0-6.0-6.0-0.5","gy7bbd1bvj","one_one","1","direct_first","1","KL07ER23","0","25","1","1","3","1","","0","1","0","null","","","<div class = 'row'><div class = 'column'><img src = 'usneg/6838.bmp' width = '100%;'></div><div class = 'column'><img src = 'category4/CS9.png' width = '70%;'></div></div>","null","neg","CS","CS","4","category4/CS9.png","","","","",""
"","html-keyboard-response","75","642066","0.0-6.0-6.0-0.6","gy7bbd1bvj","one_one","1","direct_first","1","KL07ER23","0","25","1","1","3","1","","0","1","0","null","","","<div class = 'row'><div class = 'column'><img src = 'category3/CS8.png' width = '70%;'></div><div class = 'column'><img src = 'usneg/9220.bmp' width = '100%;'></div></div>","null","neg","CS","CS","3","category3/CS8.png","","","","",""
"","html-keyboard-response","76","644607","0.0-6.0-6.0-0.7","gy7bbd1bvj","one_one","1","direct_first","1","KL07ER23","0","25","1","1","3","1","","0","1","0","null","","","<div class = 'row'><div class = 'column'><img src = 'category4/CS9.png' width = '70%;'></div><div class = 'column'><img src = 'usneg/6838.bmp' width = '100%;'></div></div>","null","neg","CS","CS","4","category4/CS9.png","","","","",""
"","html-keyboard-response","77","647146","0.0-6.0-6.0-0.8","gy7bbd1bvj","one_one","1","direct_first","1","KL07ER23","0","25","1","1","3","1","","0","1","0","null","","","<div class = 'row'><div class = 'column'><img src = 'uspos/8350.bmp' width = '100%;'></div><div class = 'column'><img src = 'category2/CS7.png' width = '70%;'></div></div>","null","pos","CS","CS","2","category2/CS7.png","","","","",""
"","html-keyboard-response","78","649686","0.0-6.0-6.0-0.9","gy7bbd1bvj","one_one","1","direct_first","1","KL07ER23","0","25","1","1","3","1","","0","1","0","null","","","<div class = 'row'><div class = 'column'><img src = 'category3/CS8.png' width = '70%;'></div><div class = 'column'><img src = 'usneg/9220.bmp' width = '100%;'></div></div>","null","neg","CS","CS","3","category3/CS8.png","","","","",""
"","html-keyboard-response","79","652226","0.0-6.0-6.0-0.10","gy7bbd1bvj","one_one","1","direct_first","1","KL07ER23","0","25","1","1","3","1","","0","1","0","null","","","<div class = 'row'><div class = 'column'><img src = 'usneg/6838.bmp' width = '100%;'></div><div class = 'column'><img src = 'category4/CS9.png' width = '70%;'></div></div>","null","neg","CS","CS","4","category4/CS9.png","","","","",""
"","html-keyboard-response","80","654766","0.0-6.0-6.0-0.11","gy7bbd1bvj","one_one","1","direct_first","1","KL07ER23","0","25","1","1","3","1","","0","1","0","null","","","<div class = 'row'><div class = 'column'><img src = 'category3/CS8.png' width = '70%;'></div><div class = 'column'><img src = 'usneg/9220.bmp' width = '100%;'></div></div>","null","neg","CS","CS","3","category3/CS8.png","","","","",""
"","html-keyboard-response","81","657306","0.0-6.0-6.0-0.12","gy7bbd1bvj","one_one","1","direct_first","1","KL07ER23","0","25","1","1","3","1","","0","1","0","null","","","<div class = 'row'><div class = 'column'><img src = 'category2/CS7.png' width = '70%;'></div><div class = 'column'><img src = 'uspos/8350.bmp' width = '100%;'></div></div>","null","pos","CS","CS","2","category2/CS7.png","","","","",""
"","html-keyboard-response","82","659846","0.0-6.0-6.0-0.13","gy7bbd1bvj","one_one","1","direct_first","1","KL07ER23","0","25","1","1","3","1","","0","1","0","null","","","<div class = 'row'><div class = 'column'><img src = 'category1/CS1.png' width = '70%;'></div><div class = 'column'><img src = 'uspos/4625.bmp' width = '100%;'></div></div>","null","pos","CS","CS","1","category1/CS1.png","","","","",""
"","html-keyboard-response","83","662387","0.0-6.0-6.0-0.14","gy7bbd1bvj","one_one","1","direct_first","1","KL07ER23","0","25","1","1","3","1","","0","1","0","null","","","<div class = 'row'><div class = 'column'><img src = 'category4/CS9.png' width = '70%;'></div><div class = 'column'><img src = 'usneg/6838.bmp' width = '100%;'></div></div>","null","neg","CS","CS","4","category4/CS9.png","","","","",""
"","html-keyboard-response","84","664927","0.0-6.0-6.0-0.15","gy7bbd1bvj","one_one","1","direct_first","1","KL07ER23","0","25","1","1","3","1","","0","1","0","null","","","<div class = 'row'><div class = 'column'><img src = 'category2/CS7.png' width = '70%;'></div><div class = 'column'><img src = 'uspos/8350.bmp' width = '100%;'></div></div>","null","pos","CS","CS","2","category2/CS7.png","","","","",""
"","html-keyboard-response","85","667467","0.0-6.0-6.0-0.16","gy7bbd1bvj","one_one","1","direct_first","1","KL07ER23","0","25","1","1","3","1","","0","1","0","null","","","<div class = 'row'><div class = 'column'><img src = 'uspos/4625.bmp' width = '100%;'></div><div class = 'column'><img src = 'category1/CS1.png' width = '70%;'></div></div>","null","pos","CS","CS","1","category1/CS1.png","","","","",""
"","html-keyboard-response","86","669996","0.0-6.0-6.0-0.17","gy7bbd1bvj","one_one","1","direct_first","1","KL07ER23","0","25","1","1","3","1","","0","1","0","null","","","<div class = 'row'><div class = 'column'><img src = 'category4/CS9.png' width = '70%;'></div><div class = 'column'><img src = 'usneg/6838.bmp' width = '100%;'></div></div>","null","neg","CS","CS","4","category4/CS9.png","","","","",""
"","html-keyboard-response","87","672536","0.0-6.0-6.0-0.18","gy7bbd1bvj","one_one","1","direct_first","1","KL07ER23","0","25","1","1","3","1","","0","1","0","null","","","<div class = 'row'><div class = 'column'><img src = 'category2/CS7.png' width = '70%;'></div><div class = 'column'><img src = 'uspos/8350.bmp' width = '100%;'></div></div>","null","pos","CS","CS","2","category2/CS7.png","","","","",""
"","html-keyboard-response","88","675077","0.0-6.0-6.0-0.19","gy7bbd1bvj","one_one","1","direct_first","1","KL07ER23","0","25","1","1","3","1","","0","1","0","null","","","<div class = 'row'><div class = 'column'><img src = 'category1/CS1.png' width = '70%;'></div><div class = 'column'><img src = 'uspos/4625.bmp' width = '100%;'></div></div>","null","pos","CS","CS","1","category1/CS1.png","","","","",""
"","survey-html-form","89","683412","0.0-7.0","gy7bbd1bvj","one_one","1","direct_first","1","KL07ER23","0","25","1","1","3","1","","0","1","0","7815","","{}","","","","","","","","","","","",""
"","image-slider-response","90","691598","0.0-8.0-0.0","gy7bbd1bvj","one_one","1","direct_first","1","KL07ER23","0","25","1","1","3","1","","0","1","0","6153","","","","","neg","GS","GSnew","4","category4/GS2.png","27","targets/7.png","direct","",""
"","image-slider-response","91","696232","0.0-8.0-0.1","gy7bbd1bvj","one_one","1","direct_first","1","KL07ER23","0","25","1","1","3","1","","0","1","0","4627","","","","","neg","GS","GSold","4","category4/CS1.png","37","targets/44.png","direct","",""
"","image-slider-response","92","699156","0.0-8.0-0.2","gy7bbd1bvj","one_one","1","direct_first","1","KL07ER23","0","25","1","1","3","1","","0","1","0","2913","","","","","pos","GS","abstract","1","category1/ma.png","-70","targets/46.png","direct","",""
"","image-slider-response","93","702381","0.0-8.0-0.3","gy7bbd1bvj","one_one","1","direct_first","1","KL07ER23","0","25","1","1","3","1","","0","1","0","3216","","","","","pos","GS","GSnew","1","category1/GS1.png","-46","targets/37.png","direct","",""
"","image-slider-response","94","705223","0.0-8.0-0.4","gy7bbd1bvj","one_one","1","direct_first","1","KL07ER23","0","25","1","1","3","1","","0","1","0","2834","","","","","pos","GS","abstract","2","category2/men.png","32","targets/15.png","direct","",""
"","image-slider-response","95","707845","0.0-8.0-0.5","gy7bbd1bvj","one_one","1","direct_first","1","KL07ER23","0","25","1","1","3","1","","0","1","0","2611","","","","","neg","GS","GSnew","3","category3/GS2.png","34","targets/11.png","direct","",""
"","image-slider-response","96","710748","0.0-8.0-0.6","gy7bbd1bvj","one_one","1","direct_first","1","KL07ER23","0","25","1","1","3","1","","0","1","0","2894","","","","","neg","GS","GSnew","4","category4/GS1.png","54","targets/39.png","direct","",""
"","image-slider-response","97","713552","0.0-8.0-0.7","gy7bbd1bvj","one_one","1","direct_first","1","KL07ER23","0","25","1","1","3","1","","0","1","0","2795","","","","","pos","GS","GSold","2","category2/CS8.png","-28","targets/12.png","direct","",""
"","image-slider-response","98","716059","0.0-8.0-0.8","gy7bbd1bvj","one_one","1","direct_first","1","KL07ER23","0","25","1","1","3","1","","0","1","0","2497","","","","","neg","GS","GSnew","3","category3/GS3.png","70","targets/43.png","direct","",""
"","image-slider-response","99","718790","0.0-8.0-0.9","gy7bbd1bvj","one_one","1","direct_first","1","KL07ER23","0","25","1","1","3","1","","0","1","0","2721","","","","","neg","GS","GSold","4","category4/CS7.png","99","targets/26.png","direct","",""
"","image-slider-response","100","721058","0.0-8.0-0.10","gy7bbd1bvj","one_one","1","direct_first","1","KL07ER23","0","25","1","1","3","1","","0","1","0","2256","","","","","neg","GS","GSold","3","category3/CS4.png","-33","targets/32.png","direct","",""
"","image-slider-response","101","723346","0.0-8.0-0.11","gy7bbd1bvj","one_one","1","direct_first","1","KL07ER23","0","25","1","1","3","1","","0","1","0","2277","","","","","neg","GS","GSold","3","category3/CS6.png","42","targets/24.png","direct","",""
"","image-slider-response","102","726147","0.0-8.0-0.12","gy7bbd1bvj","one_one","1","direct_first","1","KL07ER23","0","25","1","1","3","1","","0","1","0","2792","","","","","pos","GS","GSnew","2","category2/GS1.png","84","targets/27.png","direct","",""
"","image-slider-response","103","728696","0.0-8.0-0.13","gy7bbd1bvj","one_one","1","direct_first","1","KL07ER23","0","25","1","1","3","1","","0","1","0","2539","","","","","pos","GS","GSold","2","category2/CS10.png","57","targets/19.png","direct","",""
"","image-slider-response","104","733821","0.0-8.0-0.14","gy7bbd1bvj","one_one","1","direct_first","1","KL07ER23","0","25","1","1","3","1","","0","1","0","5116","","","","","neg","CS","CS","4","category4/CS9.png","53","targets/20.png","direct","",""
"","image-slider-response","105","736472","0.0-8.0-0.15","gy7bbd1bvj","one_one","1","direct_first","1","KL07ER23","0","25","1","1","3","1","","0","1","0","2640","","","","","pos","GS","GSold","2","category2/CS3.png","-60","targets/4.png","direct","",""
"","image-slider-response","106","739273","0.0-8.0-0.16","gy7bbd1bvj","one_one","1","direct_first","1","KL07ER23","0","25","1","1","3","1","","0","1","0","2791","","","","","pos","CS","CS","1","category1/CS1.png","-27","targets/14.png","direct","",""
"","image-slider-response","107","741350","0.0-8.0-0.17","gy7bbd1bvj","one_one","1","direct_first","1","KL07ER23","0","25","1","1","3","1","","0","1","0","2065","","","","","pos","GS","GSold","1","category1/CS6.png","-32","targets/17.png","direct","",""
"","image-slider-response","108","744070","0.0-8.0-0.18","gy7bbd1bvj","one_one","1","direct_first","1","KL07ER23","0","25","1","1","3","1","","0","1","0","2712","","","","","neg","GS","GSold","3","category3/CS3.png","42","targets/31.png","direct","",""
"","image-slider-response","109","746700","0.0-8.0-0.19","gy7bbd1bvj","one_one","1","direct_first","1","KL07ER23","0","25","1","1","3","1","","0","1","0","2618","","","","","neg","CS","CS","3","category3/CS8.png","27","targets/38.png","direct","",""
"","image-slider-response","110","749320","0.0-8.0-0.20","gy7bbd1bvj","one_one","1","direct_first","1","KL07ER23","0","25","1","1","3","1","","0","1","0","2611","","","","","pos","GS","GSnew","1","category1/GS3.png","-24","targets/3.png","direct","",""
"","image-slider-response","111","751730","0.0-8.0-0.21","gy7bbd1bvj","one_one","1","direct_first","1","KL07ER23","0","25","1","1","3","1","","0","1","0","2400","","","","","pos","GS","GSnew","1","category1/GS2.png","-23","targets/18.png","direct","",""
"","image-slider-response","112","754209","0.0-8.0-0.22","gy7bbd1bvj","one_one","1","direct_first","1","KL07ER23","0","25","1","1","3","1","","0","1","0","2469","","","","","pos","GS","GSold","1","category1/CS7.png","-51","targets/28.png","direct","",""
"","image-slider-response","113","756841","0.0-8.0-0.23","gy7bbd1bvj","one_one","1","direct_first","1","KL07ER23","0","25","1","1","3","1","","0","1","0","2621","","","","","neg","GS","abstract","3","category3/wang.png","36","targets/8.png","direct","",""
"","image-slider-response","114","759468","0.0-8.0-0.24","gy7bbd1bvj","one_one","1","direct_first","1","KL07ER23","0","25","1","1","3","1","","0","1","0","2615","","","","","neg","GS","GSold","4","category4/CS5.png","38","targets/41.png","direct","",""
"","image-slider-response","115","762420","0.0-8.0-0.25","gy7bbd1bvj","one_one","1","direct_first","1","KL07ER23","0","25","1","1","3","1","","0","1","0","2945","","","","","pos","CS","CS","2","category2/CS7.png","45","targets/6.png","direct","",""
"","image-slider-response","116","765675","0.0-8.0-0.26","gy7bbd1bvj","one_one","1","direct_first","1","KL07ER23","0","25","1","1","3","1","","0","1","0","3243","","","","","neg","GS","abstract","4","category4/lin.png","12","targets/35.png","direct","",""
"","image-slider-response","117","768468","0.0-8.0-0.27","gy7bbd1bvj","one_one","1","direct_first","1","KL07ER23","0","25","1","1","3","1","","0","1","0","2782","","","","","pos","GS","GSnew","2","category2/GS2.png","-39","targets/10.png","direct","",""
"","image-slider-response","118","771571","0.0-8.0-0.28","gy7bbd1bvj","one_one","1","direct_first","1","KL07ER23","0","25","1","1","3","1","","0","1","0","3094","","","","","pos","GS","GSnew","2","category2/GS3.png","-45","targets/23.png","direct","",""
"","image-slider-response","119","774150","0.0-8.0-0.29","gy7bbd1bvj","one_one","1","direct_first","1","KL07ER23","0","25","1","1","3","1","","0","1","0","2570","","","","","pos","GS","GSold","1","category1/CS10.png","41","targets/30.png","direct","",""
"","image-slider-response","120","776559","0.0-8.0-0.30","gy7bbd1bvj","one_one","1","direct_first","1","KL07ER23","0","25","1","1","3","1","","0","1","0","2401","","","","","neg","GS","GSnew","3","category3/GS1.png","-53","targets/1.png","direct","",""
"","image-slider-response","121","778866","0.0-8.0-0.31","gy7bbd1bvj","one_one","1","direct_first","1","KL07ER23","0","25","1","1","3","1","","0","1","0","2297","","","","","neg","GS","GSnew","4","category4/GS3.png","-33","targets/22.png","direct","",""
"","html-keyboard-response","122","799962","0.0-9.0","gy7bbd1bvj","one_one","1","direct_first","1","KL07ER23","0","25","1","1","3","1","","0","1","0","21090","","","<p>Sie sehen nun die chinesischen Zeichen nur ganz kurz. Danach sehen Sie die jeweilige Aussprache der Zeichen als Silbe auf dem Bildschrim. Ihre Aufgabe ist es, für jede Silbe anzugeben, ob diese etwas angenehmes, oder unangenehmes bedeuten könnte. Verlassen Sie sich hier vor allem auf Ihre Intuition.<br><br>Die Zeichen werden nur zur Orientierung dargestellt, beachten Sie sie deshalb nicht. Konzentrieren Sie sich vor allem auf die Silben. <br>Reagieren Sie mit folgenden zwei Tasten: <br><br><b>'D' </b> wenn die Silbe etwas <b>unangenehmes</b> bedeuten könnte. <br><b>'K'</b> wenn die Silbe etwas <b>angenehmes</b> bedeuten könnte. <br><br>Bitte legen Sie nun den Zeigefinger der linken Hand auf die Taste 'D' und den Zeigefinger der rechten Hand auf die Taste 'K'. <br>Reagieren Sie auf jede Silbe so schnell wie möglich. Uns interessiert Ihre spontane Reaktion. <br> <br> <br>Drücken Sie 'D' oder 'K', um die nächste Aufgabe zu starten. </p>","75","","","","","","","","","",""
"","html-keyboard-response","123","802996","0.0-10.0-0.0","gy7bbd1bvj","one_one","1","direct_first","1","KL07ER23","0","25","1","1","3","1","","0","1","0","null","","","<div style=""font-size:60px;"">+</div>","null","","","","","","","","","",""
"","html-keyboard-response","124","803105","0.0-10.0-1.0","gy7bbd1bvj","one_one","1","direct_first","1","KL07ER23","0","25","1","1","3","1","","0","1","0","null","","","<img src = 'category3/CS8.png' width = '100%;'>","null","","","","","","","","","",""
"","html-keyboard-response","125","803385","0.0-10.0-2.0","gy7bbd1bvj","one_one","1","direct_first","1","KL07ER23","0","25","1","1","3","1","","0","1","0","null","","","<img src = 'targets/38.png' width = '100%;'>","null","","","","","","","","","",""
"","html-keyboard-response","126","805927","0.0-10.0-3.0","gy7bbd1bvj","one_one","1","direct_first","1","KL07ER23","0","25","1","1","3","1","","0","1","0","2536","","","<img src = 'targets/mask.png' width = '100%;'>","75","neg","CS","CS","3","category3/CS8.png","","targets/38.png","indirect","1","0"
"","html-keyboard-response","127","807466","0.0-10.0-0.1","gy7bbd1bvj","one_one","1","direct_first","1","KL07ER23","0","25","1","1","3","1","","0","1","0","null","","","<div style=""font-size:60px;"">+</div>","null","","","","","","","","","",""
"","html-keyboard-response","128","807565","0.0-10.0-1.1","gy7bbd1bvj","one_one","1","direct_first","1","KL07ER23","0","25","1","1","3","1","","0","1","0","null","","","<img src = 'category2/CS7.png' width = '100%;'>","null","","","","","","","","","",""
"","html-keyboard-response","129","807846","0.0-10.0-2.1","gy7bbd1bvj","one_one","1","direct_first","1","KL07ER23","0","25","1","1","3","1","","0","1","0","null","","","<img src = 'targets/6.png' width = '100%;'>","null","","","","","","","","","",""
"","html-keyboard-response","130","808594","0.0-10.0-3.1","gy7bbd1bvj","one_one","1","direct_first","1","KL07ER23","0","25","1","1","3","1","","0","1","0","747","","","<img src = 'targets/mask.png' width = '100%;'>","75","pos","CS","CS","2","category2/CS7.png","","targets/6.png","indirect","1","1"
"","html-keyboard-response","131","810116","0.0-10.0-0.2","gy7bbd1bvj","one_one","1","direct_first","1","KL07ER23","0","25","1","1","3","1","","0","1","0","null","","","<div style=""font-size:60px;"">+</div>","null","","","","","","","","","",""
"","html-keyboard-response","132","810215","0.0-10.0-1.2","gy7bbd1bvj","one_one","1","direct_first","1","KL07ER23","0","25","1","1","3","1","","0","1","0","null","","","<img src = 'category4/CS9.png' width = '100%;'>","null","","","","","","","","","",""
"","html-keyboard-response","133","810497","0.0-10.0-2.2","gy7bbd1bvj","one_one","1","direct_first","1","KL07ER23","0","25","1","1","3","1","","0","1","0","null","","","<img src = 'targets/20.png' width = '100%;'>","null","","","","","","","","","",""
"","html-keyboard-response","134","811365","0.0-10.0-3.2","gy7bbd1bvj","one_one","1","direct_first","1","KL07ER23","0","25","1","1","3","1","","0","1","0","867","","","<img src = 'targets/mask.png' width = '100%;'>","68","neg","CS","CS","4","category4/CS9.png","","targets/20.png","indirect","0","2"
"","html-keyboard-response","135","812896","0.0-10.0-0.3","gy7bbd1bvj","one_one","1","direct_first","1","KL07ER23","0","25","1","1","3","1","","0","1","0","null","","","<div style=""font-size:60px;"">+</div>","null","","","","","","","","","",""
"","html-keyboard-response","136","812997","0.0-10.0-1.3","gy7bbd1bvj","one_one","1","direct_first","1","KL07ER23","0","25","1","1","3","1","","0","1","0","null","","","<img src = 'category4/CS1.png' width = '100%;'>","null","","","","","","","","","",""
"","html-keyboard-response","137","813276","0.0-10.0-2.3","gy7bbd1bvj","one_one","1","direct_first","1","KL07ER23","0","25","1","1","3","1","","0","1","0","null","","","<img src = 'targets/44.png' width = '100%;'>","null","","","","","","","","","",""
"","html-keyboard-response","138","814297","0.0-10.0-3.3","gy7bbd1bvj","one_one","1","direct_first","1","KL07ER23","0","25","1","1","3","1","","0","1","0","1019","","","<img src = 'targets/mask.png' width = '100%;'>","75","neg","GS","GSold","4","category4/CS1.png","","targets/44.png","indirect","1","3"
"","html-keyboard-response","139","815835","0.0-10.0-0.4","gy7bbd1bvj","one_one","1","direct_first","1","KL07ER23","0","25","1","1","3","1","","0","1","0","null","","","<div style=""font-size:60px;"">+</div>","null","","","","","","","","","",""
"","html-keyboard-response","140","815936","0.0-10.0-1.4","gy7bbd1bvj","one_one","1","direct_first","1","KL07ER23","0","25","1","1","3","1","","0","1","0","null","","","<img src = 'category4/CS7.png' width = '100%;'>","null","","","","","","","","","",""
"","html-keyboard-response","141","816206","0.0-10.0-2.4","gy7bbd1bvj","one_one","1","direct_first","1","KL07ER23","0","25","1","1","3","1","","0","1","0","null","","","<img src = 'targets/26.png' width = '100%;'>","null","","","","","","","","","",""
"","html-keyboard-response","142","817524","0.0-10.0-3.4","gy7bbd1bvj","one_one","1","direct_first","1","KL07ER23","0","25","1","1","3","1","","0","1","0","1315","","","<img src = 'targets/mask.png' width = '100%;'>","75","neg","GS","GSold","4","category4/CS7.png","","targets/26.png","indirect","1","4"
"","html-keyboard-response","143","819046","0.0-10.0-0.5","gy7bbd1bvj","one_one","1","direct_first","1","KL07ER23","0","25","1","1","3","1","","0","1","0","null","","","<div style=""font-size:60px;"">+</div>","null","","","","","","","","","",""
"","html-keyboard-response","144","819145","0.0-10.0-1.5","gy7bbd1bvj","one_one","1","direct_first","1","KL07ER23","0","25","1","1","3","1","","0","1","0","null","","","<img src = 'category3/CS4.png' width = '100%;'>","null","","","","","","","","","",""
"","html-keyboard-response","145","819425","0.0-10.0-2.5","gy7bbd1bvj","one_one","1","direct_first","1","KL07ER23","0","25","1","1","3","1","","0","1","0","null","","","<img src = 'targets/32.png' width = '100%;'>","null","","","","","","","","","",""
"","html-keyboard-response","146","820081","0.0-10.0-3.5","gy7bbd1bvj","one_one","1","direct_first","1","KL07ER23","0","25","1","1","3","1","","0","1","0","653","","","<img src = 'targets/mask.png' width = '100%;'>","68","neg","GS","GSold","3","category3/CS4.png","","targets/32.png","indirect","0","5"
"","html-keyboard-response","147","821606","0.0-10.0-0.6","gy7bbd1bvj","one_one","1","direct_first","1","KL07ER23","0","25","1","1","3","1","","0","1","0","null","","","<div style=""font-size:60px;"">+</div>","null","","","","","","","","","",""
"","html-keyboard-response","148","821705","0.0-10.0-1.6","gy7bbd1bvj","one_one","1","direct_first","1","KL07ER23","0","25","1","1","3","1","","0","1","0","null","","","<img src = 'category1/CS1.png' width = '100%;'>","null","","","","","","","","","",""
"","html-keyboard-response","149","821985","0.0-10.0-2.6","gy7bbd1bvj","one_one","1","direct_first","1","KL07ER23","0","25","1","1","3","1","","0","1","0","null","","","<img src = 'targets/14.png' width = '100%;'>","null","","","","","","","","","",""
"","html-keyboard-response","150","822951","0.0-10.0-3.6","gy7bbd1bvj","one_one","1","direct_first","1","KL07ER23","0","25","1","1","3","1","","0","1","0","964","","","<img src = 'targets/mask.png' width = '100%;'>","75","pos","CS","CS","1","category1/CS1.png","","targets/14.png","indirect","1","6"
"","html-keyboard-response","151","824475","0.0-10.0-0.7","gy7bbd1bvj","one_one","1","direct_first","1","KL07ER23","0","25","1","1","3","1","","0","1","0","null","","","<div style=""font-size:60px;"">+</div>","null","","","","","","","","","",""
"","html-keyboard-response","152","824575","0.0-10.0-1.7","gy7bbd1bvj","one_one","1","direct_first","1","KL07ER23","0","25","1","1","3","1","","0","1","0","null","","","<img src = 'category3/CS3.png' width = '100%;'>","null","","","","","","","","","",""
"","html-keyboard-response","153","824856","0.0-10.0-2.7","gy7bbd1bvj","one_one","1","direct_first","1","KL07ER23","0","25","1","1","3","1","","0","1","0","null","","","<img src = 'targets/31.png' width = '100%;'>","null","","","","","","","","","",""
"","html-keyboard-response","154","825581","0.0-10.0-3.7","gy7bbd1bvj","one_one","1","direct_first","1","KL07ER23","0","25","1","1","3","1","","0","1","0","722","","","<img src = 'targets/mask.png' width = '100%;'>","68","neg","GS","GSold","3","category3/CS3.png","","targets/31.png","indirect","0","7"
"","html-keyboard-response","155","827115","0.0-10.0-0.8","gy7bbd1bvj","one_one","1","direct_first","1","KL07ER23","0","25","1","1","3","1","","0","1","0","null","","","<div style=""font-size:60px;"">+</div>","null","","","","","","","","","",""
"","html-keyboard-response","156","827216","0.0-10.0-1.8","gy7bbd1bvj","one_one","1","direct_first","1","KL07ER23","0","25","1","1","3","1","","0","1","0","null","","","<img src = 'category2/CS8.png' width = '100%;'>","null","","","","","","","","","",""
"","html-keyboard-response","157","827496","0.0-10.0-2.8","gy7bbd1bvj","one_one","1","direct_first","1","KL07ER23","0","25","1","1","3","1","","0","1","0","null","","","<img src = 'targets/12.png' width = '100%;'>","null","","","","","","","","","",""
"","html-keyboard-response","158","828340","0.0-10.0-3.8","gy7bbd1bvj","one_one","1","direct_first","1","KL07ER23","0","25","1","1","3","1","","0","1","0","841","","","<img src = 'targets/mask.png' width = '100%;'>","68","pos","GS","GSold","2","category2/CS8.png","","targets/12.png","indirect","0","8"
"","html-keyboard-response","159","829876","0.0-10.0-0.9","gy7bbd1bvj","one_one","1","direct_first","1","KL07ER23","0","25","1","1","3","1","","0","1","0","null","","","<div style=""font-size:60px;"">+</div>","null","","","","","","","","","",""
"","html-keyboard-response","160","829975","0.0-10.0-1.9","gy7bbd1bvj","one_one","1","direct_first","1","KL07ER23","0","25","1","1","3","1","","0","1","0","null","","","<img src = 'category3/CS6.png' width = '100%;'>","null","","","","","","","","","",""
"","html-keyboard-response","161","830255","0.0-10.0-2.9","gy7bbd1bvj","one_one","1","direct_first","1","KL07ER23","0","25","1","1","3","1","","0","1","0","null","","","<img src = 'targets/24.png' width = '100%;'>","null","","","","","","","","","",""
"","html-keyboard-response","162","830998","0.0-10.0-3.9","gy7bbd1bvj","one_one","1","direct_first","1","KL07ER23","0","25","1","1","3","1","","0","1","0","741","","","<img src = 'targets/mask.png' width = '100%;'>","68","neg","GS","GSold","3","category3/CS6.png","","targets/24.png","indirect","0","9"
"","html-keyboard-response","163","832513","0.0-10.0-0.10","gy7bbd1bvj","one_one","1","direct_first","1","KL07ER23","0","25","1","1","3","1","","0","1","0","null","","","<div style=""font-size:60px;"">+</div>","null","","","","","","","","","",""
"","html-keyboard-response","164","832610","0.0-10.0-1.10","gy7bbd1bvj","one_one","1","direct_first","1","KL07ER23","0","25","1","1","3","1","","0","1","0","null","","","<img src = 'category4/CS5.png' width = '100%;'>","null","","","","","","","","","",""
"","html-keyboard-response","165","832896","0.0-10.0-2.10","gy7bbd1bvj","one_one","1","direct_first","1","KL07ER23","0","25","1","1","3","1","","0","1","0","null","","","<img src = 'targets/41.png' width = '100%;'>","null","","","","","","","","","",""
"","html-keyboard-response","166","833516","0.0-10.0-3.10","gy7bbd1bvj","one_one","1","direct_first","1","KL07ER23","0","25","1","1","3","1","","0","1","0","617","","","<img src = 'targets/mask.png' width = '100%;'>","75","neg","GS","GSold","4","category4/CS5.png","","targets/41.png","indirect","1","10"
"","html-keyboard-response","167","835055","0.0-10.0-0.11","gy7bbd1bvj","one_one","1","direct_first","1","KL07ER23","0","25","1","1","3","1","","0","1","0","null","","","<div style=""font-size:60px;"">+</div>","null","","","","","","","","","",""
"","html-keyboard-response","168","835155","0.0-10.0-1.11","gy7bbd1bvj","one_one","1","direct_first","1","KL07ER23","0","25","1","1","3","1","","0","1","0","null","","","<img src = 'category2/CS10.png' width = '100%;'>","null","","","","","","","","","",""
"","html-keyboard-response","169","835436","0.0-10.0-2.11","gy7bbd1bvj","one_one","1","direct_first","1","KL07ER23","0","25","1","1","3","1","","0","1","0","null","","","<img src = 'targets/19.png' width = '100%;'>","null","","","","","","","","","",""
"","html-keyboard-response","170","836216","0.0-10.0-3.11","gy7bbd1bvj","one_one","1","direct_first","1","KL07ER23","0","25","1","1","3","1","","0","1","0","780","","","<img src = 'targets/mask.png' width = '100%;'>","75","pos","GS","GSold","2","category2/CS10.png","","targets/19.png","indirect","1","11"
"","html-keyboard-response","171","837755","0.0-10.0-0.12","gy7bbd1bvj","one_one","1","direct_first","1","KL07ER23","0","25","1","1","3","1","","0","1","0","null","","","<div style=""font-size:60px;"">+</div>","null","","","","","","","","","",""
"","html-keyboard-response","172","837855","0.0-10.0-1.12","gy7bbd1bvj","one_one","1","direct_first","1","KL07ER23","0","25","1","1","3","1","","0","1","0","null","","","<img src = 'category1/CS10.png' width = '100%;'>","null","","","","","","","","","",""
"","html-keyboard-response","173","838135","0.0-10.0-2.12","gy7bbd1bvj","one_one","1","direct_first","1","KL07ER23","0","25","1","1","3","1","","0","1","0","null","","","<img src = 'targets/30.png' width = '100%;'>","null","","","","","","","","","",""
"","html-keyboard-response","174","839332","0.0-10.0-3.12","gy7bbd1bvj","one_one","1","direct_first","1","KL07ER23","0","25","1","1","3","1","","0","1","0","1195","","","<img src = 'targets/mask.png' width = '100%;'>","68","pos","GS","GSold","1","category1/CS10.png","","targets/30.png","indirect","0","12"
"","html-keyboard-response","175","840856","0.0-10.0-0.13","gy7bbd1bvj","one_one","1","direct_first","1","KL07ER23","0","25","1","1","3","1","","0","1","0","null","","","<div style=""font-size:60px;"">+</div>","null","","","","","","","","","",""
"","html-keyboard-response","176","840955","0.0-10.0-1.13","gy7bbd1bvj","one_one","1","direct_first","1","KL07ER23","0","25","1","1","3","1","","0","1","0","null","","","<img src = 'category1/CS6.png' width = '100%;'>","null","","","","","","","","","",""
"","html-keyboard-response","177","841236","0.0-10.0-2.13","gy7bbd1bvj","one_one","1","direct_first","1","KL07ER23","0","25","1","1","3","1","","0","1","0","null","","","<img src = 'targets/17.png' width = '100%;'>","null","","","","","","","","","",""
"","html-keyboard-response","178","842152","0.0-10.0-3.13","gy7bbd1bvj","one_one","1","direct_first","1","KL07ER23","0","25","1","1","3","1","","0","1","0","915","","","<img src = 'targets/mask.png' width = '100%;'>","68","pos","GS","GSold","1","category1/CS6.png","","targets/17.png","indirect","0","13"
"","html-keyboard-response","179","843675","0.0-10.0-0.14","gy7bbd1bvj","one_one","1","direct_first","1","KL07ER23","0","25","1","1","3","1","","0","1","0","null","","","<div style=""font-size:60px;"">+</div>","null","","","","","","","","","",""
"","html-keyboard-response","180","843776","0.0-10.0-1.14","gy7bbd1bvj","one_one","1","direct_first","1","KL07ER23","0","25","1","1","3","1","","0","1","0","null","","","<img src = 'category2/CS3.png' width = '100%;'>","null","","","","","","","","","",""
"","html-keyboard-response","181","844054","0.0-10.0-2.14","gy7bbd1bvj","one_one","1","direct_first","1","KL07ER23","0","25","1","1","3","1","","0","1","0","null","","","<img src = 'targets/4.png' width = '100%;'>","null","","","","","","","","","",""
"","html-keyboard-response","182","844488","0.0-10.0-3.14","gy7bbd1bvj","one_one","1","direct_first","1","KL07ER23","0","25","1","1","3","1","","0","1","0","431","","","<img src = 'targets/mask.png' width = '100%;'>","75","pos","GS","GSold","2","category2/CS3.png","","targets/4.png","indirect","1","14"
"","html-keyboard-response","183","846015","0.0-10.0-0.15","gy7bbd1bvj","one_one","1","direct_first","1","KL07ER23","0","25","1","1","3","1","","0","1","0","null","","","<div style=""font-size:60px;"">+</div>","null","","","","","","","","","",""
"","html-keyboard-response","184","846116","0.0-10.0-1.15","gy7bbd1bvj","one_one","1","direct_first","1","KL07ER23","0","25","1","1","3","1","","0","1","0","null","","","<img src = 'category1/CS7.png' width = '100%;'>","null","","","","","","","","","",""
"","html-keyboard-response","185","846396","0.0-10.0-2.15","gy7bbd1bvj","one_one","1","direct_first","1","KL07ER23","0","25","1","1","3","1","","0","1","0","null","","","<img src = 'targets/28.png' width = '100%;'>","null","","","","","","","","","",""
"","html-keyboard-response","186","847419","0.0-10.0-3.15","gy7bbd1bvj","one_one","1","direct_first","1","KL07ER23","0","25","1","1","3","1","","0","1","0","1022","","","<img src = 'targets/mask.png' width = '100%;'>","68","pos","GS","GSold","1","category1/CS7.png","","targets/28.png","indirect","0","15"
"","survey-html-form","187","850703","0.0-11.0","gy7bbd1bvj","one_one","1","direct_first","1","KL07ER23","0","25","1","1","3","1","","0","1","0","2769","","{}","","","","","","","","","","","",""
"","html-keyboard-response","188","853725","0.0-12.0-0.0","gy7bbd1bvj","one_one","1","direct_first","1","KL07ER23","0","25","1","1","3","1","","0","1","0","null","","","<div style=""font-size:60px;"">+</div>","null","","","","","","","","","",""
"","html-keyboard-response","189","853835","0.0-12.0-1.0","gy7bbd1bvj","one_one","1","direct_first","1","KL07ER23","0","25","1","1","3","1","","0","1","0","null","","","<img src = 'category4/lin.png' width = '100%;'>","null","","","","","","","","","",""
"","html-keyboard-response","190","854115","0.0-12.0-2.0","gy7bbd1bvj","one_one","1","direct_first","1","KL07ER23","0","25","1","1","3","1","","0","1","0","null","","","<img src = 'targets/35.png' width = '100%;'>","null","","","","","","","","","",""
"","html-keyboard-response","191","854736","0.0-12.0-3.0","gy7bbd1bvj","one_one","1","direct_first","1","KL07ER23","0","25","1","1","3","1","","0","1","0","619","","","<img src = 'targets/mask.png' width = '100%;'>","75","neg","GS","abstract","4","category4/lin.png","","targets/35.png","indirect","1","16"
"","html-keyboard-response","192","856275","0.0-12.0-0.1","gy7bbd1bvj","one_one","1","direct_first","1","KL07ER23","0","25","1","1","3","1","","0","1","0","null","","","<div style=""font-size:60px;"">+</div>","null","","","","","","","","","",""
"","html-keyboard-response","193","856375","0.0-12.0-1.1","gy7bbd1bvj","one_one","1","direct_first","1","KL07ER23","0","25","1","1","3","1","","0","1","0","null","","","<img src = 'category1/GS3.png' width = '100%;'>","null","","","","","","","","","",""
"","html-keyboard-response","194","856655","0.0-12.0-2.1","gy7bbd1bvj","one_one","1","direct_first","1","KL07ER23","0","25","1","1","3","1","","0","1","0","null","","","<img src = 'targets/3.png' width = '100%;'>","null","","","","","","","","","",""
"","html-keyboard-response","195","857172","0.0-12.0-3.1","gy7bbd1bvj","one_one","1","direct_first","1","KL07ER23","0","25","1","1","3","1","","0","1","0","515","","","<img src = 'targets/mask.png' width = '100%;'>","68","pos","GS","GSnew","1","category1/GS3.png","","targets/3.png","indirect","0","17"
"","html-keyboard-response","196","858696","0.0-12.0-0.2","gy7bbd1bvj","one_one","1","direct_first","1","KL07ER23","0","25","1","1","3","1","","0","1","0","null","","","<div style=""font-size:60px;"">+</div>","null","","","","","","","","","",""
"","html-keyboard-response","197","858795","0.0-12.0-1.2","gy7bbd1bvj","one_one","1","direct_first","1","KL07ER23","0","25","1","1","3","1","","0","1","0","null","","","<img src = 'category3/GS1.png' width = '100%;'>","null","","","","","","","","","",""
"","html-keyboard-response","198","859075","0.0-12.0-2.2","gy7bbd1bvj","one_one","1","direct_first","1","KL07ER23","0","25","1","1","3","1","","0","1","0","null","","","<img src = 'targets/1.png' width = '100%;'>","null","","","","","","","","","",""
"","html-keyboard-response","199","859567","0.0-12.0-3.2","gy7bbd1bvj","one_one","1","direct_first","1","KL07ER23","0","25","1","1","3","1","","0","1","0","489","","","<img src = 'targets/mask.png' width = '100%;'>","75","neg","GS","GSnew","3","category3/GS1.png","","targets/1.png","indirect","1","18"
"","html-keyboard-response","200","861085","0.0-12.0-0.3","gy7bbd1bvj","one_one","1","direct_first","1","KL07ER23","0","25","1","1","3","1","","0","1","0","null","","","<div style=""font-size:60px;"">+</div>","null","","","","","","","","","",""
"","html-keyboard-response","201","861185","0.0-12.0-1.3","gy7bbd1bvj","one_one","1","direct_first","1","KL07ER23","0","25","1","1","3","1","","0","1","0","null","","","<img src = 'category3/GS3.png' width = '100%;'>","null","","","","","","","","","",""
"","html-keyboard-response","202","861465","0.0-12.0-2.3","gy7bbd1bvj","one_one","1","direct_first","1","KL07ER23","0","25","1","1","3","1","","0","1","0","null","","","<img src = 'targets/43.png' width = '100%;'>","null","","","","","","","","","",""
"","html-keyboard-response","203","862022","0.0-12.0-3.3","gy7bbd1bvj","one_one","1","direct_first","1","KL07ER23","0","25","1","1","3","1","","0","1","0","555","","","<img src = 'targets/mask.png' width = '100%;'>","68","neg","GS","GSnew","3","category3/GS3.png","","targets/43.png","indirect","0","19"
"","html-keyboard-response","204","863546","0.0-12.0-0.4","gy7bbd1bvj","one_one","1","direct_first","1","KL07ER23","0","25","1","1","3","1","","0","1","0","null","","","<div style=""font-size:60px;"">+</div>","null","","","","","","","","","",""
"","html-keyboard-response","205","863646","0.0-12.0-1.4","gy7bbd1bvj","one_one","1","direct_first","1","KL07ER23","0","25","1","1","3","1","","0","1","0","null","","","<img src = 'category4/GS2.png' width = '100%;'>","null","","","","","","","","","",""
"","html-keyboard-response","206","863926","0.0-12.0-2.4","gy7bbd1bvj","one_one","1","direct_first","1","KL07ER23","0","25","1","1","3","1","","0","1","0","null","","","<img src = 'targets/7.png' width = '100%;'>","null","","","","","","","","","",""
"","html-keyboard-response","207","864347","0.0-12.0-3.4","gy7bbd1bvj","one_one","1","direct_first","1","KL07ER23","0","25","1","1","3","1","","0","1","0","420","","","<img src = 'targets/mask.png' width = '100%;'>","75","neg","GS","GSnew","4","category4/GS2.png","","targets/7.png","indirect","1","20"
"","html-keyboard-response","208","865855","0.0-12.0-0.5","gy7bbd1bvj","one_one","1","direct_first","1","KL07ER23","0","25","1","1","3","1","","0","1","0","null","","","<div style=""font-size:60px;"">+</div>","null","","","","","","","","","",""
"","html-keyboard-response","209","865955","0.0-12.0-1.5","gy7bbd1bvj","one_one","1","direct_first","1","KL07ER23","0","25","1","1","3","1","","0","1","0","null","","","<img src = 'category3/GS2.png' width = '100%;'>","null","","","","","","","","","",""
"","html-keyboard-response","210","866236","0.0-12.0-2.5","gy7bbd1bvj","one_one","1","direct_first","1","KL07ER23","0","25","1","1","3","1","","0","1","0","null","","","<img src = 'targets/11.png' width = '100%;'>","null","","","","","","","","","",""
"","html-keyboard-response","211","866764","0.0-12.0-3.5","gy7bbd1bvj","one_one","1","direct_first","1","KL07ER23","0","25","1","1","3","1","","0","1","0","525","","","<img src = 'targets/mask.png' width = '100%;'>","75","neg","GS","GSnew","3","category3/GS2.png","","targets/11.png","indirect","1","21"
"","html-keyboard-response","212","868295","0.0-12.0-0.6","gy7bbd1bvj","one_one","1","direct_first","1","KL07ER23","0","25","1","1","3","1","","0","1","0","null","","","<div style=""font-size:60px;"">+</div>","null","","","","","","","","","",""
"","html-keyboard-response","213","868395","0.0-12.0-1.6","gy7bbd1bvj","one_one","1","direct_first","1","KL07ER23","0","25","1","1","3","1","","0","1","0","null","","","<img src = 'category1/ma.png' width = '100%;'>","null","","","","","","","","","",""
"","html-keyboard-response","214","868675","0.0-12.0-2.6","gy7bbd1bvj","one_one","1","direct_first","1","KL07ER23","0","25","1","1","3","1","","0","1","0","null","","","<img src = 'targets/46.png' width = '100%;'>","null","","","","","","","","","",""
"","html-keyboard-response","215","869431","0.0-12.0-3.6","gy7bbd1bvj","one_one","1","direct_first","1","KL07ER23","0","25","1","1","3","1","","0","1","0","754","","","<img src = 'targets/mask.png' width = '100%;'>","75","pos","GS","abstract","1","category1/ma.png","","targets/46.png","indirect","1","22"
"","html-keyboard-response","216","870954","0.0-12.0-0.7","gy7bbd1bvj","one_one","1","direct_first","1","KL07ER23","0","25","1","1","3","1","","0","1","0","null","","","<div style=""font-size:60px;"">+</div>","null","","","","","","","","","",""
"","html-keyboard-response","217","871055","0.0-12.0-1.7","gy7bbd1bvj","one_one","1","direct_first","1","KL07ER23","0","25","1","1","3","1","","0","1","0","null","","","<img src = 'category1/GS1.png' width = '100%;'>","null","","","","","","","","","",""
"","html-keyboard-response","218","871335","0.0-12.0-2.7","gy7bbd1bvj","one_one","1","direct_first","1","KL07ER23","0","25","1","1","3","1","","0","1","0","null","","","<img src = 'targets/37.png' width = '100%;'>","null","","","","","","","","","",""
"","html-keyboard-response","219","871839","0.0-12.0-3.7","gy7bbd1bvj","one_one","1","direct_first","1","KL07ER23","0","25","1","1","3","1","","0","1","0","500","","","<img src = 'targets/mask.png' width = '100%;'>","75","pos","GS","GSnew","1","category1/GS1.png","","targets/37.png","indirect","1","23"
"","html-keyboard-response","220","873365","0.0-12.0-0.8","gy7bbd1bvj","one_one","1","direct_first","1","KL07ER23","0","25","1","1","3","1","","0","1","0","null","","","<div style=""font-size:60px;"">+</div>","null","","","","","","","","","",""
"","html-keyboard-response","221","873465","0.0-12.0-1.8","gy7bbd1bvj","one_one","1","direct_first","1","KL07ER23","0","25","1","1","3","1","","0","1","0","null","","","<img src = 'category2/GS1.png' width = '100%;'>","null","","","","","","","","","",""
"","html-keyboard-response","222","873746","0.0-12.0-2.8","gy7bbd1bvj","one_one","1","direct_first","1","KL07ER23","0","25","1","1","3","1","","0","1","0","null","","","<img src = 'targets/27.png' width = '100%;'>","null","","","","","","","","","",""
"","html-keyboard-response","223","874120","0.0-12.0-3.8","gy7bbd1bvj","one_one","1","direct_first","1","KL07ER23","0","25","1","1","3","1","","0","1","0","372","","","<img src = 'targets/mask.png' width = '100%;'>","68","pos","GS","GSnew","2","category2/GS1.png","","targets/27.png","indirect","0","24"
"","html-keyboard-response","224","875645","0.0-12.0-0.9","gy7bbd1bvj","one_one","1","direct_first","1","KL07ER23","0","25","1","1","3","1","","0","1","0","null","","","<div style=""font-size:60px;"">+</div>","null","","","","","","","","","",""
"","html-keyboard-response","225","875746","0.0-12.0-1.9","gy7bbd1bvj","one_one","1","direct_first","1","KL07ER23","0","25","1","1","3","1","","0","1","0","null","","","<img src = 'category2/GS3.png' width = '100%;'>","null","","","","","","","","","",""
"","html-keyboard-response","226","876025","0.0-12.0-2.9","gy7bbd1bvj","one_one","1","direct_first","1","KL07ER23","0","25","1","1","3","1","","0","1","0","null","","","<img src = 'targets/23.png' width = '100%;'>","null","","","","","","","","","",""
"","html-keyboard-response","227","876689","0.0-12.0-3.9","gy7bbd1bvj","one_one","1","direct_first","1","KL07ER23","0","25","1","1","3","1","","0","1","0","661","","","<img src = 'targets/mask.png' width = '100%;'>","75","pos","GS","GSnew","2","category2/GS3.png","","targets/23.png","indirect","1","25"
"","html-keyboard-response","228","878225","0.0-12.0-0.10","gy7bbd1bvj","one_one","1","direct_first","1","KL07ER23","0","25","1","1","3","1","","0","1","0","null","","","<div style=""font-size:60px;"">+</div>","null","","","","","","","","","",""
"","html-keyboard-response","229","878353","0.0-12.0-1.10","gy7bbd1bvj","one_one","1","direct_first","1","KL07ER23","0","25","1","1","3","1","","0","1","0","null","","","<img src = 'category3/wang.png' width = '100%;'>","null","","","","","","","","","",""
"","html-keyboard-response","230","878635","0.0-12.0-2.10","gy7bbd1bvj","one_one","1","direct_first","1","KL07ER23","0","25","1","1","3","1","","0","1","0","null","","","<img src = 'targets/8.png' width = '100%;'>","null","","","","","","","","","",""
"","html-keyboard-response","231","879164","0.0-12.0-3.10","gy7bbd1bvj","one_one","1","direct_first","1","KL07ER23","0","25","1","1","3","1","","0","1","0","526","","","<img src = 'targets/mask.png' width = '100%;'>","68","neg","GS","abstract","3","category3/wang.png","","targets/8.png","indirect","0","26"
"","html-keyboard-response","232","880695","0.0-12.0-0.11","gy7bbd1bvj","one_one","1","direct_first","1","KL07ER23","0","25","1","1","3","1","","0","1","0","null","","","<div style=""font-size:60px;"">+</div>","null","","","","","","","","","",""
"","html-keyboard-response","233","880796","0.0-12.0-1.11","gy7bbd1bvj","one_one","1","direct_first","1","KL07ER23","0","25","1","1","3","1","","0","1","0","null","","","<img src = 'category4/GS1.png' width = '100%;'>","null","","","","","","","","","",""
"","html-keyboard-response","234","881074","0.0-12.0-2.11","gy7bbd1bvj","one_one","1","direct_first","1","KL07ER23","0","25","1","1","3","1","","0","1","0","null","","","<img src = 'targets/39.png' width = '100%;'>","null","","","","","","","","","",""
"","html-keyboard-response","235","881722","0.0-12.0-3.11","gy7bbd1bvj","one_one","1","direct_first","1","KL07ER23","0","25","1","1","3","1","","0","1","0","647","","","<img src = 'targets/mask.png' width = '100%;'>","75","neg","GS","GSnew","4","category4/GS1.png","","targets/39.png","indirect","1","27"
"","html-keyboard-response","236","883255","0.0-12.0-0.12","gy7bbd1bvj","one_one","1","direct_first","1","KL07ER23","0","25","1","1","3","1","","0","1","0","null","","","<div style=""font-size:60px;"">+</div>","null","","","","","","","","","",""
"","html-keyboard-response","237","883356","0.0-12.0-1.12","gy7bbd1bvj","one_one","1","direct_first","1","KL07ER23","0","25","1","1","3","1","","0","1","0","null","","","<img src = 'category2/GS2.png' width = '100%;'>","null","","","","","","","","","",""
"","html-keyboard-response","238","883635","0.0-12.0-2.12","gy7bbd1bvj","one_one","1","direct_first","1","KL07ER23","0","25","1","1","3","1","","0","1","0","null","","","<img src = 'targets/10.png' width = '100%;'>","null","","","","","","","","","",""
"","html-keyboard-response","239","884778","0.0-12.0-3.12","gy7bbd1bvj","one_one","1","direct_first","1","KL07ER23","0","25","1","1","3","1","","0","1","0","1141","","","<img src = 'targets/mask.png' width = '100%;'>","75","pos","GS","GSnew","2","category2/GS2.png","","targets/10.png","indirect","1","28"
"","html-keyboard-response","240","886315","0.0-12.0-0.13","gy7bbd1bvj","one_one","1","direct_first","1","KL07ER23","0","25","1","1","3","1","","0","1","0","null","","","<div style=""font-size:60px;"">+</div>","null","","","","","","","","","",""
"","html-keyboard-response","241","886416","0.0-12.0-1.13","gy7bbd1bvj","one_one","1","direct_first","1","KL07ER23","0","25","1","1","3","1","","0","1","0","null","","","<img src = 'category4/GS3.png' width = '100%;'>","null","","","","","","","","","",""
"","html-keyboard-response","242","886695","0.0-12.0-2.13","gy7bbd1bvj","one_one","1","direct_first","1","KL07ER23","0","25","1","1","3","1","","0","1","0","null","","","<img src = 'targets/22.png' width = '100%;'>","null","","","","","","","","","",""
"","html-keyboard-response","243","887446","0.0-12.0-3.13","gy7bbd1bvj","one_one","1","direct_first","1","KL07ER23","0","25","1","1","3","1","","0","1","0","748","","","<img src = 'targets/mask.png' width = '100%;'>","68","neg","GS","GSnew","4","category4/GS3.png","","targets/22.png","indirect","0","29"
"","html-keyboard-response","244","888976","0.0-12.0-0.14","gy7bbd1bvj","one_one","1","direct_first","1","KL07ER23","0","25","1","1","3","1","","0","1","0","null","","","<div style=""font-size:60px;"">+</div>","null","","","","","","","","","",""
"","html-keyboard-response","245","889076","0.0-12.0-1.14","gy7bbd1bvj","one_one","1","direct_first","1","KL07ER23","0","25","1","1","3","1","","0","1","0","null","","","<img src = 'category2/men.png' width = '100%;'>","null","","","","","","","","","",""
"","html-keyboard-response","246","889355","0.0-12.0-2.14","gy7bbd1bvj","one_one","1","direct_first","1","KL07ER23","0","25","1","1","3","1","","0","1","0","null","","","<img src = 'targets/15.png' width = '100%;'>","null","","","","","","","","","",""
"","html-keyboard-response","247","890135","0.0-12.0-3.14","gy7bbd1bvj","one_one","1","direct_first","1","KL07ER23","0","25","1","1","3","1","","0","1","0","778","","","<img src = 'targets/mask.png' width = '100%;'>","68","pos","GS","abstract","2","category2/men.png","","targets/15.png","indirect","0","30"
"","html-keyboard-response","248","891674","0.0-12.0-0.15","gy7bbd1bvj","one_one","1","direct_first","1","KL07ER23","0","25","1","1","3","1","","0","1","0","null","","","<div style=""font-size:60px;"">+</div>","null","","","","","","","","","",""
"","html-keyboard-response","249","891775","0.0-12.0-1.15","gy7bbd1bvj","one_one","1","direct_first","1","KL07ER23","0","25","1","1","3","1","","0","1","0","null","","","<img src = 'category1/GS2.png' width = '100%;'>","null","","","","","","","","","",""
"","html-keyboard-response","250","892055","0.0-12.0-2.15","gy7bbd1bvj","one_one","1","direct_first","1","KL07ER23","0","25","1","1","3","1","","0","1","0","null","","","<img src = 'targets/18.png' width = '100%;'>","null","","","","","","","","","",""
"","html-keyboard-response","251","892641","0.0-12.0-3.15","gy7bbd1bvj","one_one","1","direct_first","1","KL07ER23","0","25","1","1","3","1","","0","1","0","584","","","<img src = 'targets/mask.png' width = '100%;'>","68","pos","GS","GSnew","1","category1/GS2.png","","targets/18.png","indirect","0","31"
"","survey-html-form","252","897823","0.0-13.0","gy7bbd1bvj","one_one","1","direct_first","1","KL07ER23","0","25","1","1","3","1","","0","1","0","4667","","{}","","","","","","","","","","","",""
"","image-slider-response","253","902869","0.0-14.0-0.0","gy7bbd1bvj","one_one","1","direct_first","1","KL07ER23","0","25","1","1","3","1","","0","1","0","4037","","","","","neg","All","all","4","category4/lin_all.png","-23","","all","",""
"","image-slider-response","254","905904","0.0-14.0-0.1","gy7bbd1bvj","one_one","1","direct_first","1","KL07ER23","0","25","1","1","3","1","","0","1","0","3026","","","","","neg","All","all","3","category3/wang_all.png","-54","","all","",""
"","image-slider-response","255","908513","0.0-14.0-0.2","gy7bbd1bvj","one_one","1","direct_first","1","KL07ER23","0","25","1","1","3","1","","0","1","0","2600","","","","","pos","All","all","1","category1/ma_all.png","47","","all","",""
"","image-slider-response","256","911286","0.0-14.0-0.3","gy7bbd1bvj","one_one","1","direct_first","1","KL07ER23","0","25","1","1","3","1","","0","1","0","2759","","","","","pos","All","all","2","category2/men_all.png","52","","all","",""
"","survey-text","257","913668","0.0-15.0","gy7bbd1bvj","one_one","1","direct_first","1","KL07ER23","0","25","1","1","3","1","","0","1","0","2363","","{""comment"":""""}","","","","","","","","","","","",""
"","survey-html-form","258","929849","0.0-16.0","gy7bbd1bvj","one_one","1","direct_first","1","KL07ER23","0","25","1","1","3","1","","0","1","0","16173","","{""hinschauen"":""0"",""ablenkung"":""1"",""gewissenhaft"":""0""}","","","","","","","","","","","",""
