"success","trial_type","trial_index","time_elapsed","internal_node_id","subject","condition","condition_code","measure","measure_code","codeword","gender","age","education","chinese","fach","handedness","comment","hinschauen","ablenkung","gewissenhaft","rt","url","responses","stimulus","key_press","val","type","type_specific","category","cs_selected","target","indirect","task","nr_pres","response"
"true","fullscreen","0","52811","0.0-0.0","2zrj3x0l29","many_one","0","indirect_first","0","ht04lf29","0","20","1","1","3","1","","0","1","0","","","","","","","","","","","","","","",""
"","external-html","1","76685","0.0-1.0","2zrj3x0l29","many_one","0","indirect_first","0","ht04lf29","0","20","1","1","3","1","","0","1","0","23621.77500000689","text/information.html","","","","","","","","","","","","",""
"","external-html","2","92020","0.0-2.0","2zrj3x0l29","many_one","0","indirect_first","0","ht04lf29","0","20","1","1","3","1","","0","1","0","15194.630000041798","text/consent.html","","","","","","","","","","","","",""
"","survey-html-form","3","129236","0.0-3.0","2zrj3x0l29","many_one","0","indirect_first","0","ht04lf29","0","20","1","1","3","1","","0","1","0","37201.26999996137","","{""codeword_enter"":""ht04lf29""}","","","","","","","","","","","",""
"","survey-html-form","4","144446","0.0-4.0","2zrj3x0l29","many_one","0","indirect_first","0","ht04lf29","0","20","1","1","3","1","","0","1","0","15196.09500002116","","{""age"":""20"",""education"":""1"",""subject"":""3"",""gender"":""0"",""handedness"":""1"",""chinese"":""1""}","","","","","","","","","","","",""
"","survey-html-form","5","148722","0.0-5.0","2zrj3x0l29","many_one","0","indirect_first","0","ht04lf29","0","20","1","1","3","1","","0","1","0","4262.789999949746","","{}","","","","","","","","","","","",""
"","html-keyboard-response","6","152778","0.0-6.0-0.0-0.0","2zrj3x0l29","many_one","0","indirect_first","0","ht04lf29","0","20","1","1","3","1","","0","1","0","null","","","<div class = 'row'><div class = 'column'><img src = 'category2/CS8.png' width = '70%;'></div><div class = 'column'><img src = 'usneg/1280.bmp' width = '100%;'></div></div>","null","neg","CS","CS","2","category2/CS8.png","","","","",""
"","html-keyboard-response","7","155298","0.0-6.0-0.0-0.1","2zrj3x0l29","many_one","0","indirect_first","0","ht04lf29","0","20","1","1","3","1","","0","1","0","null","","","<div class = 'row'><div class = 'column'><img src = 'category4/CS5.png' width = '70%;'></div><div class = 'column'><img src = 'usneg/9050.bmp' width = '100%;'></div></div>","null","neg","CS","CS","4","category4/CS5.png","","","","",""
"","html-keyboard-response","8","157840","0.0-6.0-0.0-0.2","2zrj3x0l29","many_one","0","indirect_first","0","ht04lf29","0","20","1","1","3","1","","0","1","0","null","","","<div class = 'row'><div class = 'column'><img src = 'category4/CS3.png' width = '70%;'></div><div class = 'column'><img src = 'usneg/9435.bmp' width = '100%;'></div></div>","null","neg","CS","CS","4","category4/CS3.png","","","","",""
"","html-keyboard-response","9","160360","0.0-6.0-0.0-0.3","2zrj3x0l29","many_one","0","indirect_first","0","ht04lf29","0","20","1","1","3","1","","0","1","0","null","","","<div class = 'row'><div class = 'column'><img src = 'category3/CS2.png' width = '70%;'></div><div class = 'column'><img src = 'uspos/2340.bmp' width = '100%;'></div></div>","null","pos","CS","CS","3","category3/CS2.png","","","","",""
"","html-keyboard-response","10","162899","0.0-6.0-0.0-0.4","2zrj3x0l29","many_one","0","indirect_first","0","ht04lf29","0","20","1","1","3","1","","0","1","0","null","","","<div class = 'row'><div class = 'column'><img src = 'category2/CS9.png' width = '70%;'></div><div class = 'column'><img src = 'usneg/9415.bmp' width = '100%;'></div></div>","null","neg","CS","CS","2","category2/CS9.png","","","","",""
"","html-keyboard-response","11","165427","0.0-6.0-0.0-0.5","2zrj3x0l29","many_one","0","indirect_first","0","ht04lf29","0","20","1","1","3","1","","0","1","0","null","","","<div class = 'row'><div class = 'column'><img src = 'uspos/5470.bmp' width = '100%;'></div><div class = 'column'><img src = 'category3/CS9.png' width = '70%;'></div></div>","null","pos","CS","CS","3","category3/CS9.png","","","","",""
"","html-keyboard-response","12","167964","0.0-6.0-0.0-0.6","2zrj3x0l29","many_one","0","indirect_first","0","ht04lf29","0","20","1","1","3","1","","0","1","0","null","","","<div class = 'row'><div class = 'column'><img src = 'usneg/6570.1.bmp' width = '100%;'></div><div class = 'column'><img src = 'category2/CS1.png' width = '70%;'></div></div>","null","neg","CS","CS","2","category2/CS1.png","","","","",""
"","html-keyboard-response","13","170489","0.0-6.0-0.0-0.7","2zrj3x0l29","many_one","0","indirect_first","0","ht04lf29","0","20","1","1","3","1","","0","1","0","null","","","<div class = 'row'><div class = 'column'><img src = 'category2/CS7.png' width = '70%;'></div><div class = 'column'><img src = 'usneg/6838.bmp' width = '100%;'></div></div>","null","neg","CS","CS","2","category2/CS7.png","","","","",""
"","html-keyboard-response","14","173038","0.0-6.0-0.0-0.8","2zrj3x0l29","many_one","0","indirect_first","0","ht04lf29","0","20","1","1","3","1","","0","1","0","null","","","<div class = 'row'><div class = 'column'><img src = 'usneg/9920.bmp' width = '100%;'></div><div class = 'column'><img src = 'category4/CS1.png' width = '70%;'></div></div>","null","neg","CS","CS","4","category4/CS1.png","","","","",""
"","html-keyboard-response","15","175558","0.0-6.0-0.0-0.9","2zrj3x0l29","many_one","0","indirect_first","0","ht04lf29","0","20","1","1","3","1","","0","1","0","null","","","<div class = 'row'><div class = 'column'><img src = 'category1/CS9.png' width = '70%;'></div><div class = 'column'><img src = 'uspos/2900.2.bmp' width = '100%;'></div></div>","null","pos","CS","CS","1","category1/CS9.png","","","","",""
"","html-keyboard-response","16","178089","0.0-6.0-0.0-0.10","2zrj3x0l29","many_one","0","indirect_first","0","ht04lf29","0","20","1","1","3","1","","0","1","0","null","","","<div class = 'row'><div class = 'column'><img src = 'category3/CS5.png' width = '70%;'></div><div class = 'column'><img src = 'uspos/5700.bmp' width = '100%;'></div></div>","null","pos","CS","CS","3","category3/CS5.png","","","","",""
"","html-keyboard-response","17","180611","0.0-6.0-0.0-0.11","2zrj3x0l29","many_one","0","indirect_first","0","ht04lf29","0","20","1","1","3","1","","0","1","0","null","","","<div class = 'row'><div class = 'column'><img src = 'uspos/8350.bmp' width = '100%;'></div><div class = 'column'><img src = 'category3/CS10.png' width = '70%;'></div></div>","null","pos","CS","CS","3","category3/CS10.png","","","","",""
"","html-keyboard-response","18","183127","0.0-6.0-0.0-0.12","2zrj3x0l29","many_one","0","indirect_first","0","ht04lf29","0","20","1","1","3","1","","0","1","0","null","","","<div class = 'row'><div class = 'column'><img src = 'category3/CS1.png' width = '70%;'></div><div class = 'column'><img src = 'uspos/8540.bmp' width = '100%;'></div></div>","null","pos","CS","CS","3","category3/CS1.png","","","","",""
"","html-keyboard-response","19","185646","0.0-6.0-0.0-0.13","2zrj3x0l29","many_one","0","indirect_first","0","ht04lf29","0","20","1","1","3","1","","0","1","0","null","","","<div class = 'row'><div class = 'column'><img src = 'uspos/5760.bmp' width = '100%;'></div><div class = 'column'><img src = 'category1/CS6.png' width = '70%;'></div></div>","null","pos","CS","CS","1","category1/CS6.png","","","","",""
"","html-keyboard-response","20","188188","0.0-6.0-0.0-0.14","2zrj3x0l29","many_one","0","indirect_first","0","ht04lf29","0","20","1","1","3","1","","0","1","0","null","","","<div class = 'row'><div class = 'column'><img src = 'uspos/1340.bmp' width = '100%;'></div><div class = 'column'><img src = 'category1/CS3.png' width = '70%;'></div></div>","null","pos","CS","CS","1","category1/CS3.png","","","","",""
"","html-keyboard-response","21","190717","0.0-6.0-0.0-0.15","2zrj3x0l29","many_one","0","indirect_first","0","ht04lf29","0","20","1","1","3","1","","0","1","0","null","","","<div class = 'row'><div class = 'column'><img src = 'category4/CS7.png' width = '70%;'></div><div class = 'column'><img src = 'usneg/6212.bmp' width = '100%;'></div></div>","null","neg","CS","CS","4","category4/CS7.png","","","","",""
"","html-keyboard-response","22","193241","0.0-6.0-0.0-0.16","2zrj3x0l29","many_one","0","indirect_first","0","ht04lf29","0","20","1","1","3","1","","0","1","0","null","","","<div class = 'row'><div class = 'column'><img src = 'usneg/2205.bmp' width = '100%;'></div><div class = 'column'><img src = 'category4/CS4.png' width = '70%;'></div></div>","null","neg","CS","CS","4","category4/CS4.png","","","","",""
"","html-keyboard-response","23","195776","0.0-6.0-0.0-0.17","2zrj3x0l29","many_one","0","indirect_first","0","ht04lf29","0","20","1","1","3","1","","0","1","0","null","","","<div class = 'row'><div class = 'column'><img src = 'category1/CS2.png' width = '70%;'></div><div class = 'column'><img src = 'uspos/5830.bmp' width = '100%;'></div></div>","null","pos","CS","CS","1","category1/CS2.png","","","","",""
"","html-keyboard-response","24","198299","0.0-6.0-0.0-0.18","2zrj3x0l29","many_one","0","indirect_first","0","ht04lf29","0","20","1","1","3","1","","0","1","0","null","","","<div class = 'row'><div class = 'column'><img src = 'category1/CS4.png' width = '70%;'></div><div class = 'column'><img src = 'uspos/2030.bmp' width = '100%;'></div></div>","null","pos","CS","CS","1","category1/CS4.png","","","","",""
"","html-keyboard-response","25","200827","0.0-6.0-0.0-0.19","2zrj3x0l29","many_one","0","indirect_first","0","ht04lf29","0","20","1","1","3","1","","0","1","0","null","","","<div class = 'row'><div class = 'column'><img src = 'usneg/9290.bmp' width = '100%;'></div><div class = 'column'><img src = 'category2/CS10.png' width = '70%;'></div></div>","null","neg","CS","CS","2","category2/CS10.png","","","","",""
"","survey-html-form","26","205105","0.0-6.0-1.0","2zrj3x0l29","many_one","0","indirect_first","0","ht04lf29","0","20","1","1","3","1","","0","1","0","3760.4349999455735","","{}","","","","","","","","","","","",""
"","html-keyboard-response","27","209129","0.0-6.0-2.0-0.0","2zrj3x0l29","many_one","0","indirect_first","0","ht04lf29","0","20","1","1","3","1","","0","1","0","null","","","<div class = 'row'><div class = 'column'><img src = 'usneg/1280.bmp' width = '100%;'></div><div class = 'column'><img src = 'category2/CS8.png' width = '70%;'></div></div>","null","neg","CS","CS","2","category2/CS8.png","","","","",""
"","html-keyboard-response","28","211663","0.0-6.0-2.0-0.1","2zrj3x0l29","many_one","0","indirect_first","0","ht04lf29","0","20","1","1","3","1","","0","1","0","null","","","<div class = 'row'><div class = 'column'><img src = 'category2/CS9.png' width = '70%;'></div><div class = 'column'><img src = 'usneg/9415.bmp' width = '100%;'></div></div>","null","neg","CS","CS","2","category2/CS9.png","","","","",""
"","html-keyboard-response","29","214207","0.0-6.0-2.0-0.2","2zrj3x0l29","many_one","0","indirect_first","0","ht04lf29","0","20","1","1","3","1","","0","1","0","null","","","<div class = 'row'><div class = 'column'><img src = 'usneg/6212.bmp' width = '100%;'></div><div class = 'column'><img src = 'category4/CS7.png' width = '70%;'></div></div>","null","neg","CS","CS","4","category4/CS7.png","","","","",""
"","html-keyboard-response","30","216746","0.0-6.0-2.0-0.3","2zrj3x0l29","many_one","0","indirect_first","0","ht04lf29","0","20","1","1","3","1","","0","1","0","null","","","<div class = 'row'><div class = 'column'><img src = 'usneg/2205.bmp' width = '100%;'></div><div class = 'column'><img src = 'category4/CS4.png' width = '70%;'></div></div>","null","neg","CS","CS","4","category4/CS4.png","","","","",""
"","html-keyboard-response","31","219267","0.0-6.0-2.0-0.4","2zrj3x0l29","many_one","0","indirect_first","0","ht04lf29","0","20","1","1","3","1","","0","1","0","null","","","<div class = 'row'><div class = 'column'><img src = 'category3/CS9.png' width = '70%;'></div><div class = 'column'><img src = 'uspos/5470.bmp' width = '100%;'></div></div>","null","pos","CS","CS","3","category3/CS9.png","","","","",""
"","html-keyboard-response","32","221788","0.0-6.0-2.0-0.5","2zrj3x0l29","many_one","0","indirect_first","0","ht04lf29","0","20","1","1","3","1","","0","1","0","null","","","<div class = 'row'><div class = 'column'><img src = 'category2/CS1.png' width = '70%;'></div><div class = 'column'><img src = 'usneg/6570.1.bmp' width = '100%;'></div></div>","null","neg","CS","CS","2","category2/CS1.png","","","","",""
"","html-keyboard-response","33","224330","0.0-6.0-2.0-0.6","2zrj3x0l29","many_one","0","indirect_first","0","ht04lf29","0","20","1","1","3","1","","0","1","0","null","","","<div class = 'row'><div class = 'column'><img src = 'usneg/9920.bmp' width = '100%;'></div><div class = 'column'><img src = 'category4/CS1.png' width = '70%;'></div></div>","null","neg","CS","CS","4","category4/CS1.png","","","","",""
"","html-keyboard-response","34","226852","0.0-6.0-2.0-0.7","2zrj3x0l29","many_one","0","indirect_first","0","ht04lf29","0","20","1","1","3","1","","0","1","0","null","","","<div class = 'row'><div class = 'column'><img src = 'uspos/8540.bmp' width = '100%;'></div><div class = 'column'><img src = 'category3/CS1.png' width = '70%;'></div></div>","null","pos","CS","CS","3","category3/CS1.png","","","","",""
"","html-keyboard-response","35","229367","0.0-6.0-2.0-0.8","2zrj3x0l29","many_one","0","indirect_first","0","ht04lf29","0","20","1","1","3","1","","0","1","0","null","","","<div class = 'row'><div class = 'column'><img src = 'usneg/9050.bmp' width = '100%;'></div><div class = 'column'><img src = 'category4/CS5.png' width = '70%;'></div></div>","null","neg","CS","CS","4","category4/CS5.png","","","","",""
"","html-keyboard-response","36","231904","0.0-6.0-2.0-0.9","2zrj3x0l29","many_one","0","indirect_first","0","ht04lf29","0","20","1","1","3","1","","0","1","0","null","","","<div class = 'row'><div class = 'column'><img src = 'category3/CS5.png' width = '70%;'></div><div class = 'column'><img src = 'uspos/5700.bmp' width = '100%;'></div></div>","null","pos","CS","CS","3","category3/CS5.png","","","","",""
"","html-keyboard-response","37","234429","0.0-6.0-2.0-0.10","2zrj3x0l29","many_one","0","indirect_first","0","ht04lf29","0","20","1","1","3","1","","0","1","0","null","","","<div class = 'row'><div class = 'column'><img src = 'category1/CS2.png' width = '70%;'></div><div class = 'column'><img src = 'uspos/5830.bmp' width = '100%;'></div></div>","null","pos","CS","CS","1","category1/CS2.png","","","","",""
"","html-keyboard-response","38","236960","0.0-6.0-2.0-0.11","2zrj3x0l29","many_one","0","indirect_first","0","ht04lf29","0","20","1","1","3","1","","0","1","0","null","","","<div class = 'row'><div class = 'column'><img src = 'usneg/9290.bmp' width = '100%;'></div><div class = 'column'><img src = 'category2/CS10.png' width = '70%;'></div></div>","null","neg","CS","CS","2","category2/CS10.png","","","","",""
"","html-keyboard-response","39","239489","0.0-6.0-2.0-0.12","2zrj3x0l29","many_one","0","indirect_first","0","ht04lf29","0","20","1","1","3","1","","0","1","0","null","","","<div class = 'row'><div class = 'column'><img src = 'uspos/2900.2.bmp' width = '100%;'></div><div class = 'column'><img src = 'category1/CS9.png' width = '70%;'></div></div>","null","pos","CS","CS","1","category1/CS9.png","","","","",""
"","html-keyboard-response","40","242037","0.0-6.0-2.0-0.13","2zrj3x0l29","many_one","0","indirect_first","0","ht04lf29","0","20","1","1","3","1","","0","1","0","null","","","<div class = 'row'><div class = 'column'><img src = 'uspos/2030.bmp' width = '100%;'></div><div class = 'column'><img src = 'category1/CS4.png' width = '70%;'></div></div>","null","pos","CS","CS","1","category1/CS4.png","","","","",""
"","html-keyboard-response","41","244567","0.0-6.0-2.0-0.14","2zrj3x0l29","many_one","0","indirect_first","0","ht04lf29","0","20","1","1","3","1","","0","1","0","null","","","<div class = 'row'><div class = 'column'><img src = 'uspos/1340.bmp' width = '100%;'></div><div class = 'column'><img src = 'category1/CS3.png' width = '70%;'></div></div>","null","pos","CS","CS","1","category1/CS3.png","","","","",""
"","html-keyboard-response","42","247104","0.0-6.0-2.0-0.15","2zrj3x0l29","many_one","0","indirect_first","0","ht04lf29","0","20","1","1","3","1","","0","1","0","null","","","<div class = 'row'><div class = 'column'><img src = 'usneg/9435.bmp' width = '100%;'></div><div class = 'column'><img src = 'category4/CS3.png' width = '70%;'></div></div>","null","neg","CS","CS","4","category4/CS3.png","","","","",""
"","html-keyboard-response","43","249624","0.0-6.0-2.0-0.16","2zrj3x0l29","many_one","0","indirect_first","0","ht04lf29","0","20","1","1","3","1","","0","1","0","null","","","<div class = 'row'><div class = 'column'><img src = 'uspos/2340.bmp' width = '100%;'></div><div class = 'column'><img src = 'category3/CS2.png' width = '70%;'></div></div>","null","pos","CS","CS","3","category3/CS2.png","","","","",""
"","html-keyboard-response","44","252158","0.0-6.0-2.0-0.17","2zrj3x0l29","many_one","0","indirect_first","0","ht04lf29","0","20","1","1","3","1","","0","1","0","null","","","<div class = 'row'><div class = 'column'><img src = 'category3/CS10.png' width = '70%;'></div><div class = 'column'><img src = 'uspos/8350.bmp' width = '100%;'></div></div>","null","pos","CS","CS","3","category3/CS10.png","","","","",""
"","html-keyboard-response","45","254677","0.0-6.0-2.0-0.18","2zrj3x0l29","many_one","0","indirect_first","0","ht04lf29","0","20","1","1","3","1","","0","1","0","null","","","<div class = 'row'><div class = 'column'><img src = 'category2/CS7.png' width = '70%;'></div><div class = 'column'><img src = 'usneg/6838.bmp' width = '100%;'></div></div>","null","neg","CS","CS","2","category2/CS7.png","","","","",""
"","html-keyboard-response","46","257196","0.0-6.0-2.0-0.19","2zrj3x0l29","many_one","0","indirect_first","0","ht04lf29","0","20","1","1","3","1","","0","1","0","null","","","<div class = 'row'><div class = 'column'><img src = 'uspos/5760.bmp' width = '100%;'></div><div class = 'column'><img src = 'category1/CS6.png' width = '70%;'></div></div>","null","pos","CS","CS","1","category1/CS6.png","","","","",""
"","survey-html-form","47","259047","0.0-6.0-3.0","2zrj3x0l29","many_one","0","indirect_first","0","ht04lf29","0","20","1","1","3","1","","0","1","0","1348.0749999871477","","{}","","","","","","","","","","","",""
"","html-keyboard-response","48","263092","0.0-6.0-4.0-0.0","2zrj3x0l29","many_one","0","indirect_first","0","ht04lf29","0","20","1","1","3","1","","0","1","0","null","","","<div class = 'row'><div class = 'column'><img src = 'category3/CS10.png' width = '70%;'></div><div class = 'column'><img src = 'uspos/8350.bmp' width = '100%;'></div></div>","null","pos","CS","CS","3","category3/CS10.png","","","","",""
"","html-keyboard-response","49","265627","0.0-6.0-4.0-0.1","2zrj3x0l29","many_one","0","indirect_first","0","ht04lf29","0","20","1","1","3","1","","0","1","0","null","","","<div class = 'row'><div class = 'column'><img src = 'category1/CS3.png' width = '70%;'></div><div class = 'column'><img src = 'uspos/1340.bmp' width = '100%;'></div></div>","null","pos","CS","CS","1","category1/CS3.png","","","","",""
"","html-keyboard-response","50","268146","0.0-6.0-4.0-0.2","2zrj3x0l29","many_one","0","indirect_first","0","ht04lf29","0","20","1","1","3","1","","0","1","0","null","","","<div class = 'row'><div class = 'column'><img src = 'uspos/5760.bmp' width = '100%;'></div><div class = 'column'><img src = 'category1/CS6.png' width = '70%;'></div></div>","null","pos","CS","CS","1","category1/CS6.png","","","","",""
"","html-keyboard-response","51","270684","0.0-6.0-4.0-0.3","2zrj3x0l29","many_one","0","indirect_first","0","ht04lf29","0","20","1","1","3","1","","0","1","0","null","","","<div class = 'row'><div class = 'column'><img src = 'category2/CS7.png' width = '70%;'></div><div class = 'column'><img src = 'usneg/6838.bmp' width = '100%;'></div></div>","null","neg","CS","CS","2","category2/CS7.png","","","","",""
"","html-keyboard-response","52","273196","0.0-6.0-4.0-0.4","2zrj3x0l29","many_one","0","indirect_first","0","ht04lf29","0","20","1","1","3","1","","0","1","0","null","","","<div class = 'row'><div class = 'column'><img src = 'category4/CS1.png' width = '70%;'></div><div class = 'column'><img src = 'usneg/9920.bmp' width = '100%;'></div></div>","null","neg","CS","CS","4","category4/CS1.png","","","","",""
"","html-keyboard-response","53","275731","0.0-6.0-4.0-0.5","2zrj3x0l29","many_one","0","indirect_first","0","ht04lf29","0","20","1","1","3","1","","0","1","0","null","","","<div class = 'row'><div class = 'column'><img src = 'category3/CS5.png' width = '70%;'></div><div class = 'column'><img src = 'uspos/5700.bmp' width = '100%;'></div></div>","null","pos","CS","CS","3","category3/CS5.png","","","","",""
"","html-keyboard-response","54","278268","0.0-6.0-4.0-0.6","2zrj3x0l29","many_one","0","indirect_first","0","ht04lf29","0","20","1","1","3","1","","0","1","0","null","","","<div class = 'row'><div class = 'column'><img src = 'uspos/5830.bmp' width = '100%;'></div><div class = 'column'><img src = 'category1/CS2.png' width = '70%;'></div></div>","null","pos","CS","CS","1","category1/CS2.png","","","","",""
"","html-keyboard-response","55","280794","0.0-6.0-4.0-0.7","2zrj3x0l29","many_one","0","indirect_first","0","ht04lf29","0","20","1","1","3","1","","0","1","0","null","","","<div class = 'row'><div class = 'column'><img src = 'category3/CS2.png' width = '70%;'></div><div class = 'column'><img src = 'uspos/2340.bmp' width = '100%;'></div></div>","null","pos","CS","CS","3","category3/CS2.png","","","","",""
"","html-keyboard-response","56","283315","0.0-6.0-4.0-0.8","2zrj3x0l29","many_one","0","indirect_first","0","ht04lf29","0","20","1","1","3","1","","0","1","0","null","","","<div class = 'row'><div class = 'column'><img src = 'uspos/2030.bmp' width = '100%;'></div><div class = 'column'><img src = 'category1/CS4.png' width = '70%;'></div></div>","null","pos","CS","CS","1","category1/CS4.png","","","","",""
"","html-keyboard-response","57","285849","0.0-6.0-4.0-0.9","2zrj3x0l29","many_one","0","indirect_first","0","ht04lf29","0","20","1","1","3","1","","0","1","0","null","","","<div class = 'row'><div class = 'column'><img src = 'uspos/5470.bmp' width = '100%;'></div><div class = 'column'><img src = 'category3/CS9.png' width = '70%;'></div></div>","null","pos","CS","CS","3","category3/CS9.png","","","","",""
"","html-keyboard-response","58","288378","0.0-6.0-4.0-0.10","2zrj3x0l29","many_one","0","indirect_first","0","ht04lf29","0","20","1","1","3","1","","0","1","0","null","","","<div class = 'row'><div class = 'column'><img src = 'uspos/2900.2.bmp' width = '100%;'></div><div class = 'column'><img src = 'category1/CS9.png' width = '70%;'></div></div>","null","pos","CS","CS","1","category1/CS9.png","","","","",""
"","html-keyboard-response","59","290909","0.0-6.0-4.0-0.11","2zrj3x0l29","many_one","0","indirect_first","0","ht04lf29","0","20","1","1","3","1","","0","1","0","null","","","<div class = 'row'><div class = 'column'><img src = 'category4/CS4.png' width = '70%;'></div><div class = 'column'><img src = 'usneg/2205.bmp' width = '100%;'></div></div>","null","neg","CS","CS","4","category4/CS4.png","","","","",""
"","html-keyboard-response","60","293441","0.0-6.0-4.0-0.12","2zrj3x0l29","many_one","0","indirect_first","0","ht04lf29","0","20","1","1","3","1","","0","1","0","null","","","<div class = 'row'><div class = 'column'><img src = 'usneg/1280.bmp' width = '100%;'></div><div class = 'column'><img src = 'category2/CS8.png' width = '70%;'></div></div>","null","neg","CS","CS","2","category2/CS8.png","","","","",""
"","html-keyboard-response","61","295974","0.0-6.0-4.0-0.13","2zrj3x0l29","many_one","0","indirect_first","0","ht04lf29","0","20","1","1","3","1","","0","1","0","null","","","<div class = 'row'><div class = 'column'><img src = 'usneg/9290.bmp' width = '100%;'></div><div class = 'column'><img src = 'category2/CS10.png' width = '70%;'></div></div>","null","neg","CS","CS","2","category2/CS10.png","","","","",""
"","html-keyboard-response","62","298498","0.0-6.0-4.0-0.14","2zrj3x0l29","many_one","0","indirect_first","0","ht04lf29","0","20","1","1","3","1","","0","1","0","null","","","<div class = 'row'><div class = 'column'><img src = 'usneg/6212.bmp' width = '100%;'></div><div class = 'column'><img src = 'category4/CS7.png' width = '70%;'></div></div>","null","neg","CS","CS","4","category4/CS7.png","","","","",""
"","html-keyboard-response","63","301039","0.0-6.0-4.0-0.15","2zrj3x0l29","many_one","0","indirect_first","0","ht04lf29","0","20","1","1","3","1","","0","1","0","null","","","<div class = 'row'><div class = 'column'><img src = 'usneg/9050.bmp' width = '100%;'></div><div class = 'column'><img src = 'category4/CS5.png' width = '70%;'></div></div>","null","neg","CS","CS","4","category4/CS5.png","","","","",""
"","html-keyboard-response","64","303572","0.0-6.0-4.0-0.16","2zrj3x0l29","many_one","0","indirect_first","0","ht04lf29","0","20","1","1","3","1","","0","1","0","null","","","<div class = 'row'><div class = 'column'><img src = 'category4/CS3.png' width = '70%;'></div><div class = 'column'><img src = 'usneg/9435.bmp' width = '100%;'></div></div>","null","neg","CS","CS","4","category4/CS3.png","","","","",""
"","html-keyboard-response","65","306107","0.0-6.0-4.0-0.17","2zrj3x0l29","many_one","0","indirect_first","0","ht04lf29","0","20","1","1","3","1","","0","1","0","null","","","<div class = 'row'><div class = 'column'><img src = 'category2/CS9.png' width = '70%;'></div><div class = 'column'><img src = 'usneg/9415.bmp' width = '100%;'></div></div>","null","neg","CS","CS","2","category2/CS9.png","","","","",""
"","html-keyboard-response","66","308631","0.0-6.0-4.0-0.18","2zrj3x0l29","many_one","0","indirect_first","0","ht04lf29","0","20","1","1","3","1","","0","1","0","null","","","<div class = 'row'><div class = 'column'><img src = 'uspos/8540.bmp' width = '100%;'></div><div class = 'column'><img src = 'category3/CS1.png' width = '70%;'></div></div>","null","pos","CS","CS","3","category3/CS1.png","","","","",""
"","html-keyboard-response","67","311143","0.0-6.0-4.0-0.19","2zrj3x0l29","many_one","0","indirect_first","0","ht04lf29","0","20","1","1","3","1","","0","1","0","null","","","<div class = 'row'><div class = 'column'><img src = 'category2/CS1.png' width = '70%;'></div><div class = 'column'><img src = 'usneg/6570.1.bmp' width = '100%;'></div></div>","null","neg","CS","CS","2","category2/CS1.png","","","","",""
"","survey-html-form","68","327956","0.0-6.0-5.0","2zrj3x0l29","many_one","0","indirect_first","0","ht04lf29","0","20","1","1","3","1","","0","1","0","16302.30500001926","","{}","","","","","","","","","","","",""
"","html-keyboard-response","69","331977","0.0-6.0-6.0-0.0","2zrj3x0l29","many_one","0","indirect_first","0","ht04lf29","0","20","1","1","3","1","","0","1","0","null","","","<div class = 'row'><div class = 'column'><img src = 'uspos/8350.bmp' width = '100%;'></div><div class = 'column'><img src = 'category3/CS10.png' width = '70%;'></div></div>","null","pos","CS","CS","3","category3/CS10.png","","","","",""
"","html-keyboard-response","70","334506","0.0-6.0-6.0-0.1","2zrj3x0l29","many_one","0","indirect_first","0","ht04lf29","0","20","1","1","3","1","","0","1","0","null","","","<div class = 'row'><div class = 'column'><img src = 'category3/CS2.png' width = '70%;'></div><div class = 'column'><img src = 'uspos/2340.bmp' width = '100%;'></div></div>","null","pos","CS","CS","3","category3/CS2.png","","","","",""
"","html-keyboard-response","71","337020","0.0-6.0-6.0-0.2","2zrj3x0l29","many_one","0","indirect_first","0","ht04lf29","0","20","1","1","3","1","","0","1","0","null","","","<div class = 'row'><div class = 'column'><img src = 'category1/CS9.png' width = '70%;'></div><div class = 'column'><img src = 'uspos/2900.2.bmp' width = '100%;'></div></div>","null","pos","CS","CS","1","category1/CS9.png","","","","",""
"","html-keyboard-response","72","339566","0.0-6.0-6.0-0.3","2zrj3x0l29","many_one","0","indirect_first","0","ht04lf29","0","20","1","1","3","1","","0","1","0","null","","","<div class = 'row'><div class = 'column'><img src = 'usneg/9435.bmp' width = '100%;'></div><div class = 'column'><img src = 'category4/CS3.png' width = '70%;'></div></div>","null","neg","CS","CS","4","category4/CS3.png","","","","",""
"","html-keyboard-response","73","342092","0.0-6.0-6.0-0.4","2zrj3x0l29","many_one","0","indirect_first","0","ht04lf29","0","20","1","1","3","1","","0","1","0","null","","","<div class = 'row'><div class = 'column'><img src = 'category3/CS5.png' width = '70%;'></div><div class = 'column'><img src = 'uspos/5700.bmp' width = '100%;'></div></div>","null","pos","CS","CS","3","category3/CS5.png","","","","",""
"","html-keyboard-response","74","344624","0.0-6.0-6.0-0.5","2zrj3x0l29","many_one","0","indirect_first","0","ht04lf29","0","20","1","1","3","1","","0","1","0","null","","","<div class = 'row'><div class = 'column'><img src = 'usneg/9920.bmp' width = '100%;'></div><div class = 'column'><img src = 'category4/CS1.png' width = '70%;'></div></div>","null","neg","CS","CS","4","category4/CS1.png","","","","",""
"","html-keyboard-response","75","347143","0.0-6.0-6.0-0.6","2zrj3x0l29","many_one","0","indirect_first","0","ht04lf29","0","20","1","1","3","1","","0","1","0","null","","","<div class = 'row'><div class = 'column'><img src = 'category4/CS4.png' width = '70%;'></div><div class = 'column'><img src = 'usneg/2205.bmp' width = '100%;'></div></div>","null","neg","CS","CS","4","category4/CS4.png","","","","",""
"","html-keyboard-response","76","349660","0.0-6.0-6.0-0.7","2zrj3x0l29","many_one","0","indirect_first","0","ht04lf29","0","20","1","1","3","1","","0","1","0","null","","","<div class = 'row'><div class = 'column'><img src = 'category1/CS2.png' width = '70%;'></div><div class = 'column'><img src = 'uspos/5830.bmp' width = '100%;'></div></div>","null","pos","CS","CS","1","category1/CS2.png","","","","",""
"","html-keyboard-response","77","352181","0.0-6.0-6.0-0.8","2zrj3x0l29","many_one","0","indirect_first","0","ht04lf29","0","20","1","1","3","1","","0","1","0","null","","","<div class = 'row'><div class = 'column'><img src = 'category2/CS9.png' width = '70%;'></div><div class = 'column'><img src = 'usneg/9415.bmp' width = '100%;'></div></div>","null","neg","CS","CS","2","category2/CS9.png","","","","",""
"","html-keyboard-response","78","354708","0.0-6.0-6.0-0.9","2zrj3x0l29","many_one","0","indirect_first","0","ht04lf29","0","20","1","1","3","1","","0","1","0","null","","","<div class = 'row'><div class = 'column'><img src = 'category1/CS4.png' width = '70%;'></div><div class = 'column'><img src = 'uspos/2030.bmp' width = '100%;'></div></div>","null","pos","CS","CS","1","category1/CS4.png","","","","",""
"","html-keyboard-response","79","357239","0.0-6.0-6.0-0.10","2zrj3x0l29","many_one","0","indirect_first","0","ht04lf29","0","20","1","1","3","1","","0","1","0","null","","","<div class = 'row'><div class = 'column'><img src = 'usneg/9290.bmp' width = '100%;'></div><div class = 'column'><img src = 'category2/CS10.png' width = '70%;'></div></div>","null","neg","CS","CS","2","category2/CS10.png","","","","",""
"","html-keyboard-response","80","359767","0.0-6.0-6.0-0.11","2zrj3x0l29","many_one","0","indirect_first","0","ht04lf29","0","20","1","1","3","1","","0","1","0","null","","","<div class = 'row'><div class = 'column'><img src = 'category1/CS3.png' width = '70%;'></div><div class = 'column'><img src = 'uspos/1340.bmp' width = '100%;'></div></div>","null","pos","CS","CS","1","category1/CS3.png","","","","",""
"","html-keyboard-response","81","362299","0.0-6.0-6.0-0.12","2zrj3x0l29","many_one","0","indirect_first","0","ht04lf29","0","20","1","1","3","1","","0","1","0","null","","","<div class = 'row'><div class = 'column'><img src = 'uspos/5760.bmp' width = '100%;'></div><div class = 'column'><img src = 'category1/CS6.png' width = '70%;'></div></div>","null","pos","CS","CS","1","category1/CS6.png","","","","",""
"","html-keyboard-response","82","364830","0.0-6.0-6.0-0.13","2zrj3x0l29","many_one","0","indirect_first","0","ht04lf29","0","20","1","1","3","1","","0","1","0","null","","","<div class = 'row'><div class = 'column'><img src = 'category3/CS9.png' width = '70%;'></div><div class = 'column'><img src = 'uspos/5470.bmp' width = '100%;'></div></div>","null","pos","CS","CS","3","category3/CS9.png","","","","",""
"","html-keyboard-response","83","367357","0.0-6.0-6.0-0.14","2zrj3x0l29","many_one","0","indirect_first","0","ht04lf29","0","20","1","1","3","1","","0","1","0","null","","","<div class = 'row'><div class = 'column'><img src = 'usneg/6570.1.bmp' width = '100%;'></div><div class = 'column'><img src = 'category2/CS1.png' width = '70%;'></div></div>","null","neg","CS","CS","2","category2/CS1.png","","","","",""
"","html-keyboard-response","84","369885","0.0-6.0-6.0-0.15","2zrj3x0l29","many_one","0","indirect_first","0","ht04lf29","0","20","1","1","3","1","","0","1","0","null","","","<div class = 'row'><div class = 'column'><img src = 'category4/CS5.png' width = '70%;'></div><div class = 'column'><img src = 'usneg/9050.bmp' width = '100%;'></div></div>","null","neg","CS","CS","4","category4/CS5.png","","","","",""
"","html-keyboard-response","85","372416","0.0-6.0-6.0-0.16","2zrj3x0l29","many_one","0","indirect_first","0","ht04lf29","0","20","1","1","3","1","","0","1","0","null","","","<div class = 'row'><div class = 'column'><img src = 'usneg/6838.bmp' width = '100%;'></div><div class = 'column'><img src = 'category2/CS7.png' width = '70%;'></div></div>","null","neg","CS","CS","2","category2/CS7.png","","","","",""
"","html-keyboard-response","86","374941","0.0-6.0-6.0-0.17","2zrj3x0l29","many_one","0","indirect_first","0","ht04lf29","0","20","1","1","3","1","","0","1","0","null","","","<div class = 'row'><div class = 'column'><img src = 'category4/CS7.png' width = '70%;'></div><div class = 'column'><img src = 'usneg/6212.bmp' width = '100%;'></div></div>","null","neg","CS","CS","4","category4/CS7.png","","","","",""
"","html-keyboard-response","87","377481","0.0-6.0-6.0-0.18","2zrj3x0l29","many_one","0","indirect_first","0","ht04lf29","0","20","1","1","3","1","","0","1","0","null","","","<div class = 'row'><div class = 'column'><img src = 'usneg/1280.bmp' width = '100%;'></div><div class = 'column'><img src = 'category2/CS8.png' width = '70%;'></div></div>","null","neg","CS","CS","2","category2/CS8.png","","","","",""
"","html-keyboard-response","88","380002","0.0-6.0-6.0-0.19","2zrj3x0l29","many_one","0","indirect_first","0","ht04lf29","0","20","1","1","3","1","","0","1","0","null","","","<div class = 'row'><div class = 'column'><img src = 'category3/CS1.png' width = '70%;'></div><div class = 'column'><img src = 'uspos/8540.bmp' width = '100%;'></div></div>","null","pos","CS","CS","3","category3/CS1.png","","","","",""
"","html-keyboard-response","89","403271","0.0-7.0","2zrj3x0l29","many_one","0","indirect_first","0","ht04lf29","0","20","1","1","3","1","","0","1","0","22744.665000005625","","","<p>Sie sehen nun die chinesischen Zeichen nur ganz kurz. Danach sehen Sie die jeweilige Aussprache der Zeichen als Silbe auf dem Bildschrim. Ihre Aufgabe ist es, für jede Silbe anzugeben, ob diese etwas angenehmes, oder unangenehmes bedeuten könnte. Verlassen Sie sich hier vor allem auf Ihre Intuition.<br><br>Die Zeichen werden nur zur Orientierung dargestellt, beachten Sie sie deshalb nicht. Konzentrieren Sie sich vor allem auf die Silben. <br>Reagieren Sie mit folgenden zwei Tasten: <br><br><b>'D' </b> wenn die Silbe etwas <b>unangenehmes</b> bedeuten könnte. <br><b>'K'</b> wenn die Silbe etwas <b>angenehmes</b> bedeuten könnte. <br><br>Bitte legen Sie nun den Zeigefinger der linken Hand auf die Taste 'D' und den Zeigefinger der rechten Hand auf die Taste 'K'. <br>Reagieren Sie auf jede Silbe so schnell wie möglich. Uns interessiert Ihre spontane Reaktion. <br> <br> <br>Drücken Sie 'D' oder 'K', um die nächste Aufgabe zu starten. </p>","68","","","","","","","","","",""
"","html-keyboard-response","90","406286","0.0-8.0-0.0","2zrj3x0l29","many_one","0","indirect_first","0","ht04lf29","0","20","1","1","3","1","","0","1","0","null","","","<div style=""font-size:60px;"">+</div>","null","","","","","","","","","",""
"","html-keyboard-response","91","406396","0.0-8.0-1.0","2zrj3x0l29","many_one","0","indirect_first","0","ht04lf29","0","20","1","1","3","1","","0","1","0","null","","","<img src = 'category2/CS5.png' width = '100%;'>","null","","","","","","","","","",""
"","html-keyboard-response","92","406673","0.0-8.0-2.0","2zrj3x0l29","many_one","0","indirect_first","0","ht04lf29","0","20","1","1","3","1","","0","1","0","null","","","<img src = 'targets/9.png' width = '100%;'>","null","","","","","","","","","",""
"","html-keyboard-response","93","410954","0.0-8.0-3.0","2zrj3x0l29","many_one","0","indirect_first","0","ht04lf29","0","20","1","1","3","1","","0","1","0","4276.36999997776","","","<img src = 'targets/mask.png' width = '100%;'>","75","neg","GS","GSold","2","category2/CS5.png","targets/9.png","1","indirect","0",""
"","html-keyboard-response","94","412485","0.0-8.0-0.1","2zrj3x0l29","many_one","0","indirect_first","0","ht04lf29","0","20","1","1","3","1","","0","1","0","null","","","<div style=""font-size:60px;"">+</div>","null","","","","","","","","","",""
"","html-keyboard-response","95","412594","0.0-8.0-1.1","2zrj3x0l29","many_one","0","indirect_first","0","ht04lf29","0","20","1","1","3","1","","0","1","0","null","","","<img src = 'category3/CS9.png' width = '100%;'>","null","","","","","","","","","",""
"","html-keyboard-response","96","412861","0.0-8.0-2.1","2zrj3x0l29","many_one","0","indirect_first","0","ht04lf29","0","20","1","1","3","1","","0","1","0","null","","","<img src = 'targets/38.png' width = '100%;'>","null","","","","","","","","","",""
"","html-keyboard-response","97","416219","0.0-8.0-3.1","2zrj3x0l29","many_one","0","indirect_first","0","ht04lf29","0","20","1","1","3","1","","0","1","0","3355.714999954216","","","<img src = 'targets/mask.png' width = '100%;'>","75","pos","CS","CS","3","category3/CS9.png","targets/38.png","1","indirect","1",""
"","html-keyboard-response","98","417724","0.0-8.0-0.2","2zrj3x0l29","many_one","0","indirect_first","0","ht04lf29","0","20","1","1","3","1","","0","1","0","null","","","<div style=""font-size:60px;"">+</div>","null","","","","","","","","","",""
"","html-keyboard-response","99","417834","0.0-8.0-1.2","2zrj3x0l29","many_one","0","indirect_first","0","ht04lf29","0","20","1","1","3","1","","0","1","0","null","","","<img src = 'category1/CS10.png' width = '100%;'>","null","","","","","","","","","",""
"","html-keyboard-response","100","418101","0.0-8.0-2.2","2zrj3x0l29","many_one","0","indirect_first","0","ht04lf29","0","20","1","1","3","1","","0","1","0","null","","","<img src = 'targets/43.png' width = '100%;'>","null","","","","","","","","","",""
"","html-keyboard-response","101","419326","0.0-8.0-3.2","2zrj3x0l29","many_one","0","indirect_first","0","ht04lf29","0","20","1","1","3","1","","0","1","0","1216.9299999950454","","","<img src = 'targets/mask.png' width = '100%;'>","68","pos","GS","GSold","1","category1/CS10.png","targets/43.png","0","indirect","2",""
"","html-keyboard-response","102","420850","0.0-8.0-0.3","2zrj3x0l29","many_one","0","indirect_first","0","ht04lf29","0","20","1","1","3","1","","0","1","0","null","","","<div style=""font-size:60px;"">+</div>","null","","","","","","","","","",""
"","html-keyboard-response","103","420945","0.0-8.0-1.3","2zrj3x0l29","many_one","0","indirect_first","0","ht04lf29","0","20","1","1","3","1","","0","1","0","null","","","<img src = 'category2/CS4.png' width = '100%;'>","null","","","","","","","","","",""
"","html-keyboard-response","104","421208","0.0-8.0-2.3","2zrj3x0l29","many_one","0","indirect_first","0","ht04lf29","0","20","1","1","3","1","","0","1","0","null","","","<img src = 'targets/45.png' width = '100%;'>","null","","","","","","","","","",""
"","html-keyboard-response","105","424273","0.0-8.0-3.3","2zrj3x0l29","many_one","0","indirect_first","0","ht04lf29","0","20","1","1","3","1","","0","1","0","3060.9699999913573","","","<img src = 'targets/mask.png' width = '100%;'>","75","neg","GS","GSold","2","category2/CS4.png","targets/45.png","1","indirect","3",""
"","html-keyboard-response","106","425799","0.0-8.0-0.4","2zrj3x0l29","many_one","0","indirect_first","0","ht04lf29","0","20","1","1","3","1","","0","1","0","null","","","<div style=""font-size:60px;"">+</div>","null","","","","","","","","","",""
"","html-keyboard-response","107","425909","0.0-8.0-1.4","2zrj3x0l29","many_one","0","indirect_first","0","ht04lf29","0","20","1","1","3","1","","0","1","0","null","","","<img src = 'category4/CS5.png' width = '100%;'>","null","","","","","","","","","",""
"","html-keyboard-response","108","426169","0.0-8.0-2.4","2zrj3x0l29","many_one","0","indirect_first","0","ht04lf29","0","20","1","1","3","1","","0","1","0","null","","","<img src = 'targets/12.png' width = '100%;'>","null","","","","","","","","","",""
"","html-keyboard-response","109","428877","0.0-8.0-3.4","2zrj3x0l29","many_one","0","indirect_first","0","ht04lf29","0","20","1","1","3","1","","0","1","0","2699.9950000317767","","","<img src = 'targets/mask.png' width = '100%;'>","68","neg","CS","CS","4","category4/CS5.png","targets/12.png","0","indirect","4",""
"","html-keyboard-response","110","430389","0.0-8.0-0.5","2zrj3x0l29","many_one","0","indirect_first","0","ht04lf29","0","20","1","1","3","1","","0","1","0","null","","","<div style=""font-size:60px;"">+</div>","null","","","","","","","","","",""
"","html-keyboard-response","111","430499","0.0-8.0-1.5","2zrj3x0l29","many_one","0","indirect_first","0","ht04lf29","0","20","1","1","3","1","","0","1","0","null","","","<img src = 'category3/CS2.png' width = '100%;'>","null","","","","","","","","","",""
"","html-keyboard-response","112","430764","0.0-8.0-2.5","2zrj3x0l29","many_one","0","indirect_first","0","ht04lf29","0","20","1","1","3","1","","0","1","0","null","","","<img src = 'targets/14.png' width = '100%;'>","null","","","","","","","","","",""
"","html-keyboard-response","113","432741","0.0-8.0-3.5","2zrj3x0l29","many_one","0","indirect_first","0","ht04lf29","0","20","1","1","3","1","","0","1","0","1969.2550000036135","","","<img src = 'targets/mask.png' width = '100%;'>","75","pos","CS","CS","3","category3/CS2.png","targets/14.png","1","indirect","5",""
"","html-keyboard-response","114","434266","0.0-8.0-0.6","2zrj3x0l29","many_one","0","indirect_first","0","ht04lf29","0","20","1","1","3","1","","0","1","0","null","","","<div style=""font-size:60px;"">+</div>","null","","","","","","","","","",""
"","html-keyboard-response","115","434360","0.0-8.0-1.6","2zrj3x0l29","many_one","0","indirect_first","0","ht04lf29","0","20","1","1","3","1","","0","1","0","null","","","<img src = 'category1/CS4.png' width = '100%;'>","null","","","","","","","","","",""
"","html-keyboard-response","116","434626","0.0-8.0-2.6","2zrj3x0l29","many_one","0","indirect_first","0","ht04lf29","0","20","1","1","3","1","","0","1","0","null","","","<img src = 'targets/24.png' width = '100%;'>","null","","","","","","","","","",""
"","html-keyboard-response","117","440094","0.0-8.0-3.6","2zrj3x0l29","many_one","0","indirect_first","0","ht04lf29","0","20","1","1","3","1","","0","1","0","5460.764999967068","","","<img src = 'targets/mask.png' width = '100%;'>","68","pos","CS","CS","1","category1/CS4.png","targets/24.png","0","indirect","6",""
"","html-keyboard-response","118","441620","0.0-8.0-0.7","2zrj3x0l29","many_one","0","indirect_first","0","ht04lf29","0","20","1","1","3","1","","0","1","0","null","","","<div style=""font-size:60px;"">+</div>","null","","","","","","","","","",""
"","html-keyboard-response","119","441714","0.0-8.0-1.7","2zrj3x0l29","many_one","0","indirect_first","0","ht04lf29","0","20","1","1","3","1","","0","1","0","null","","","<img src = 'category4/CS4.png' width = '100%;'>","null","","","","","","","","","",""
"","html-keyboard-response","120","441993","0.0-8.0-2.7","2zrj3x0l29","many_one","0","indirect_first","0","ht04lf29","0","20","1","1","3","1","","0","1","0","null","","","<img src = 'targets/35.png' width = '100%;'>","null","","","","","","","","","",""
"","html-keyboard-response","121","444007","0.0-8.0-3.7","2zrj3x0l29","many_one","0","indirect_first","0","ht04lf29","0","20","1","1","3","1","","0","1","0","2005.4500000551343","","","<img src = 'targets/mask.png' width = '100%;'>","68","neg","CS","CS","4","category4/CS4.png","targets/35.png","0","indirect","7",""
"","html-keyboard-response","122","445526","0.0-8.0-0.8","2zrj3x0l29","many_one","0","indirect_first","0","ht04lf29","0","20","1","1","3","1","","0","1","0","null","","","<div style=""font-size:60px;"">+</div>","null","","","","","","","","","",""
"","html-keyboard-response","123","445621","0.0-8.0-1.8","2zrj3x0l29","many_one","0","indirect_first","0","ht04lf29","0","20","1","1","3","1","","0","1","0","null","","","<img src = 'category2/CS9.png' width = '100%;'>","null","","","","","","","","","",""
"","html-keyboard-response","124","445902","0.0-8.0-2.8","2zrj3x0l29","many_one","0","indirect_first","0","ht04lf29","0","20","1","1","3","1","","0","1","0","null","","","<img src = 'targets/41.png' width = '100%;'>","null","","","","","","","","","",""
"","html-keyboard-response","125","448361","0.0-8.0-3.8","2zrj3x0l29","many_one","0","indirect_first","0","ht04lf29","0","20","1","1","3","1","","0","1","0","2449.5500000193715","","","<img src = 'targets/mask.png' width = '100%;'>","68","neg","CS","CS","2","category2/CS9.png","targets/41.png","0","indirect","8",""
"","html-keyboard-response","126","449877","0.0-8.0-0.9","2zrj3x0l29","many_one","0","indirect_first","0","ht04lf29","0","20","1","1","3","1","","0","1","0","null","","","<div style=""font-size:60px;"">+</div>","null","","","","","","","","","",""
"","html-keyboard-response","127","449986","0.0-8.0-1.9","2zrj3x0l29","many_one","0","indirect_first","0","ht04lf29","0","20","1","1","3","1","","0","1","0","null","","","<img src = 'category1/CS3.png' width = '100%;'>","null","","","","","","","","","",""
"","html-keyboard-response","128","450258","0.0-8.0-2.9","2zrj3x0l29","many_one","0","indirect_first","0","ht04lf29","0","20","1","1","3","1","","0","1","0","null","","","<img src = 'targets/34.png' width = '100%;'>","null","","","","","","","","","",""
"","html-keyboard-response","129","451631","0.0-8.0-3.9","2zrj3x0l29","many_one","0","indirect_first","0","ht04lf29","0","20","1","1","3","1","","0","1","0","1370.435000048019","","","<img src = 'targets/mask.png' width = '100%;'>","75","pos","CS","CS","1","category1/CS3.png","targets/34.png","1","indirect","9",""
"","html-keyboard-response","130","453149","0.0-8.0-0.10","2zrj3x0l29","many_one","0","indirect_first","0","ht04lf29","0","20","1","1","3","1","","0","1","0","null","","","<div style=""font-size:60px;"">+</div>","null","","","","","","","","","",""
"","html-keyboard-response","131","453259","0.0-8.0-1.10","2zrj3x0l29","many_one","0","indirect_first","0","ht04lf29","0","20","1","1","3","1","","0","1","0","null","","","<img src = 'category2/CS10.png' width = '100%;'>","null","","","","","","","","","",""
"","html-keyboard-response","132","453540","0.0-8.0-2.10","2zrj3x0l29","many_one","0","indirect_first","0","ht04lf29","0","20","1","1","3","1","","0","1","0","null","","","<img src = 'targets/30.png' width = '100%;'>","null","","","","","","","","","",""
"","html-keyboard-response","133","458044","0.0-8.0-3.10","2zrj3x0l29","many_one","0","indirect_first","0","ht04lf29","0","20","1","1","3","1","","0","1","0","4496.554999961518","","","<img src = 'targets/mask.png' width = '100%;'>","68","neg","CS","CS","2","category2/CS10.png","targets/30.png","0","indirect","10",""
"","html-keyboard-response","134","459564","0.0-8.0-0.11","2zrj3x0l29","many_one","0","indirect_first","0","ht04lf29","0","20","1","1","3","1","","0","1","0","null","","","<div style=""font-size:60px;"">+</div>","null","","","","","","","","","",""
"","html-keyboard-response","135","459665","0.0-8.0-1.11","2zrj3x0l29","many_one","0","indirect_first","0","ht04lf29","0","20","1","1","3","1","","0","1","0","null","","","<img src = 'category4/CS1.png' width = '100%;'>","null","","","","","","","","","",""
"","html-keyboard-response","136","459935","0.0-8.0-2.11","2zrj3x0l29","many_one","0","indirect_first","0","ht04lf29","0","20","1","1","3","1","","0","1","0","null","","","<img src = 'targets/18.png' width = '100%;'>","null","","","","","","","","","",""
"","html-keyboard-response","137","461528","0.0-8.0-3.11","2zrj3x0l29","many_one","0","indirect_first","0","ht04lf29","0","20","1","1","3","1","","0","1","0","1582.6549999183044","","","<img src = 'targets/mask.png' width = '100%;'>","68","neg","CS","CS","4","category4/CS1.png","targets/18.png","0","indirect","11",""
"","html-keyboard-response","138","463051","0.0-8.0-0.12","2zrj3x0l29","many_one","0","indirect_first","0","ht04lf29","0","20","1","1","3","1","","0","1","0","null","","","<div style=""font-size:60px;"">+</div>","null","","","","","","","","","",""
"","html-keyboard-response","139","463159","0.0-8.0-1.12","2zrj3x0l29","many_one","0","indirect_first","0","ht04lf29","0","20","1","1","3","1","","0","1","0","null","","","<img src = 'category4/CS3.png' width = '100%;'>","null","","","","","","","","","",""
"","html-keyboard-response","140","463425","0.0-8.0-2.12","2zrj3x0l29","many_one","0","indirect_first","0","ht04lf29","0","20","1","1","3","1","","0","1","0","null","","","<img src = 'targets/33.png' width = '100%;'>","null","","","","","","","","","",""
"","html-keyboard-response","141","464335","0.0-8.0-3.12","2zrj3x0l29","many_one","0","indirect_first","0","ht04lf29","0","20","1","1","3","1","","0","1","0","906.3150000292808","","","<img src = 'targets/mask.png' width = '100%;'>","75","neg","CS","CS","4","category4/CS3.png","targets/33.png","1","indirect","12",""
"","html-keyboard-response","142","465847","0.0-8.0-0.13","2zrj3x0l29","many_one","0","indirect_first","0","ht04lf29","0","20","1","1","3","1","","0","1","0","null","","","<div style=""font-size:60px;"">+</div>","null","","","","","","","","","",""
"","html-keyboard-response","143","465953","0.0-8.0-1.13","2zrj3x0l29","many_one","0","indirect_first","0","ht04lf29","0","20","1","1","3","1","","0","1","0","null","","","<img src = 'category4/CS7.png' width = '100%;'>","null","","","","","","","","","",""
"","html-keyboard-response","144","466217","0.0-8.0-2.13","2zrj3x0l29","many_one","0","indirect_first","0","ht04lf29","0","20","1","1","3","1","","0","1","0","null","","","<img src = 'targets/39.png' width = '100%;'>","null","","","","","","","","","",""
"","html-keyboard-response","145","468755","0.0-8.0-3.13","2zrj3x0l29","many_one","0","indirect_first","0","ht04lf29","0","20","1","1","3","1","","0","1","0","2529.4499999145046","","","<img src = 'targets/mask.png' width = '100%;'>","75","neg","CS","CS","4","category4/CS7.png","targets/39.png","1","indirect","13",""
"","html-keyboard-response","146","470284","0.0-8.0-0.14","2zrj3x0l29","many_one","0","indirect_first","0","ht04lf29","0","20","1","1","3","1","","0","1","0","null","","","<div style=""font-size:60px;"">+</div>","null","","","","","","","","","",""
"","html-keyboard-response","147","470380","0.0-8.0-1.14","2zrj3x0l29","many_one","0","indirect_first","0","ht04lf29","0","20","1","1","3","1","","0","1","0","null","","","<img src = 'category1/CS2.png' width = '100%;'>","null","","","","","","","","","",""
"","html-keyboard-response","148","470652","0.0-8.0-2.14","2zrj3x0l29","many_one","0","indirect_first","0","ht04lf29","0","20","1","1","3","1","","0","1","0","null","","","<img src = 'targets/20.png' width = '100%;'>","null","","","","","","","","","",""
"","html-keyboard-response","149","472379","0.0-8.0-3.14","2zrj3x0l29","many_one","0","indirect_first","0","ht04lf29","0","20","1","1","3","1","","0","1","0","1719.5599999977276","","","<img src = 'targets/mask.png' width = '100%;'>","68","pos","CS","CS","1","category1/CS2.png","targets/20.png","0","indirect","14",""
"","html-keyboard-response","150","473916","0.0-8.0-0.15","2zrj3x0l29","many_one","0","indirect_first","0","ht04lf29","0","20","1","1","3","1","","0","1","0","null","","","<div style=""font-size:60px;"">+</div>","null","","","","","","","","","",""
"","html-keyboard-response","151","474017","0.0-8.0-1.15","2zrj3x0l29","many_one","0","indirect_first","0","ht04lf29","0","20","1","1","3","1","","0","1","0","null","","","<img src = 'category3/CS10.png' width = '100%;'>","null","","","","","","","","","",""
"","html-keyboard-response","152","474277","0.0-8.0-2.15","2zrj3x0l29","many_one","0","indirect_first","0","ht04lf29","0","20","1","1","3","1","","0","1","0","null","","","<img src = 'targets/25.png' width = '100%;'>","null","","","","","","","","","",""
"","html-keyboard-response","153","475299","0.0-8.0-3.15","2zrj3x0l29","many_one","0","indirect_first","0","ht04lf29","0","20","1","1","3","1","","0","1","0","1014.435000019148","","","<img src = 'targets/mask.png' width = '100%;'>","75","pos","CS","CS","3","category3/CS10.png","targets/25.png","1","indirect","15",""
"","html-keyboard-response","154","476819","0.0-8.0-0.16","2zrj3x0l29","many_one","0","indirect_first","0","ht04lf29","0","20","1","1","3","1","","0","1","0","null","","","<div style=""font-size:60px;"">+</div>","null","","","","","","","","","",""
"","html-keyboard-response","155","476913","0.0-8.0-1.16","2zrj3x0l29","many_one","0","indirect_first","0","ht04lf29","0","20","1","1","3","1","","0","1","0","null","","","<img src = 'category1/CS6.png' width = '100%;'>","null","","","","","","","","","",""
"","html-keyboard-response","156","477193","0.0-8.0-2.16","2zrj3x0l29","many_one","0","indirect_first","0","ht04lf29","0","20","1","1","3","1","","0","1","0","null","","","<img src = 'targets/15.png' width = '100%;'>","null","","","","","","","","","",""
"","html-keyboard-response","157","478285","0.0-8.0-3.16","2zrj3x0l29","many_one","0","indirect_first","0","ht04lf29","0","20","1","1","3","1","","0","1","0","1086.8250000057742","","","<img src = 'targets/mask.png' width = '100%;'>","75","pos","CS","CS","1","category1/CS6.png","targets/15.png","1","indirect","16",""
"","html-keyboard-response","158","479804","0.0-8.0-0.17","2zrj3x0l29","many_one","0","indirect_first","0","ht04lf29","0","20","1","1","3","1","","0","1","0","null","","","<div style=""font-size:60px;"">+</div>","null","","","","","","","","","",""
"","html-keyboard-response","159","479901","0.0-8.0-1.17","2zrj3x0l29","many_one","0","indirect_first","0","ht04lf29","0","20","1","1","3","1","","0","1","0","null","","","<img src = 'category3/CS5.png' width = '100%;'>","null","","","","","","","","","",""
"","html-keyboard-response","160","480175","0.0-8.0-2.17","2zrj3x0l29","many_one","0","indirect_first","0","ht04lf29","0","20","1","1","3","1","","0","1","0","null","","","<img src = 'targets/46.png' width = '100%;'>","null","","","","","","","","","",""
"","html-keyboard-response","161","480902","0.0-8.0-3.17","2zrj3x0l29","many_one","0","indirect_first","0","ht04lf29","0","20","1","1","3","1","","0","1","0","720.3799999551848","","","<img src = 'targets/mask.png' width = '100%;'>","75","pos","CS","CS","3","category3/CS5.png","targets/46.png","1","indirect","17",""
"","html-keyboard-response","162","482417","0.0-8.0-0.18","2zrj3x0l29","many_one","0","indirect_first","0","ht04lf29","0","20","1","1","3","1","","0","1","0","null","","","<div style=""font-size:60px;"">+</div>","null","","","","","","","","","",""
"","html-keyboard-response","163","482527","0.0-8.0-1.18","2zrj3x0l29","many_one","0","indirect_first","0","ht04lf29","0","20","1","1","3","1","","0","1","0","null","","","<img src = 'category2/CS8.png' width = '100%;'>","null","","","","","","","","","",""
"","html-keyboard-response","164","482809","0.0-8.0-2.18","2zrj3x0l29","many_one","0","indirect_first","0","ht04lf29","0","20","1","1","3","1","","0","1","0","null","","","<img src = 'targets/27.png' width = '100%;'>","null","","","","","","","","","",""
"","html-keyboard-response","165","483489","0.0-8.0-3.18","2zrj3x0l29","many_one","0","indirect_first","0","ht04lf29","0","20","1","1","3","1","","0","1","0","674.1949999704957","","","<img src = 'targets/mask.png' width = '100%;'>","68","neg","CS","CS","2","category2/CS8.png","targets/27.png","0","indirect","18",""
"","html-keyboard-response","166","485011","0.0-8.0-0.19","2zrj3x0l29","many_one","0","indirect_first","0","ht04lf29","0","20","1","1","3","1","","0","1","0","null","","","<div style=""font-size:60px;"">+</div>","null","","","","","","","","","",""
"","html-keyboard-response","167","485118","0.0-8.0-1.19","2zrj3x0l29","many_one","0","indirect_first","0","ht04lf29","0","20","1","1","3","1","","0","1","0","null","","","<img src = 'category2/CS7.png' width = '100%;'>","null","","","","","","","","","",""
"","html-keyboard-response","168","485390","0.0-8.0-2.19","2zrj3x0l29","many_one","0","indirect_first","0","ht04lf29","0","20","1","1","3","1","","0","1","0","null","","","<img src = 'targets/48.png' width = '100%;'>","null","","","","","","","","","",""
"","html-keyboard-response","169","486254","0.0-8.0-3.19","2zrj3x0l29","many_one","0","indirect_first","0","ht04lf29","0","20","1","1","3","1","","0","1","0","858.2850000821054","","","<img src = 'targets/mask.png' width = '100%;'>","68","neg","CS","CS","2","category2/CS7.png","targets/48.png","0","indirect","19",""
"","html-keyboard-response","170","487785","0.0-8.0-0.20","2zrj3x0l29","many_one","0","indirect_first","0","ht04lf29","0","20","1","1","3","1","","0","1","0","null","","","<div style=""font-size:60px;"">+</div>","null","","","","","","","","","",""
"","html-keyboard-response","171","487880","0.0-8.0-1.20","2zrj3x0l29","many_one","0","indirect_first","0","ht04lf29","0","20","1","1","3","1","","0","1","0","null","","","<img src = 'category3/CS1.png' width = '100%;'>","null","","","","","","","","","",""
"","html-keyboard-response","172","488150","0.0-8.0-2.20","2zrj3x0l29","many_one","0","indirect_first","0","ht04lf29","0","20","1","1","3","1","","0","1","0","null","","","<img src = 'targets/31.png' width = '100%;'>","null","","","","","","","","","",""
"","html-keyboard-response","173","489160","0.0-8.0-3.20","2zrj3x0l29","many_one","0","indirect_first","0","ht04lf29","0","20","1","1","3","1","","0","1","0","1001.8350000027567","","","<img src = 'targets/mask.png' width = '100%;'>","75","pos","CS","CS","3","category3/CS1.png","targets/31.png","1","indirect","20",""
"","html-keyboard-response","174","490688","0.0-8.0-0.21","2zrj3x0l29","many_one","0","indirect_first","0","ht04lf29","0","20","1","1","3","1","","0","1","0","null","","","<div style=""font-size:60px;"">+</div>","null","","","","","","","","","",""
"","html-keyboard-response","175","490782","0.0-8.0-1.21","2zrj3x0l29","many_one","0","indirect_first","0","ht04lf29","0","20","1","1","3","1","","0","1","0","null","","","<img src = 'category2/CS3.png' width = '100%;'>","null","","","","","","","","","",""
"","html-keyboard-response","176","491064","0.0-8.0-2.21","2zrj3x0l29","many_one","0","indirect_first","0","ht04lf29","0","20","1","1","3","1","","0","1","0","null","","","<img src = 'targets/19.png' width = '100%;'>","null","","","","","","","","","",""
"","html-keyboard-response","177","492489","0.0-8.0-3.21","2zrj3x0l29","many_one","0","indirect_first","0","ht04lf29","0","20","1","1","3","1","","0","1","0","1419.5600000675768","","","<img src = 'targets/mask.png' width = '100%;'>","68","neg","GS","GSold","2","category2/CS3.png","targets/19.png","0","indirect","21",""
"","html-keyboard-response","178","494002","0.0-8.0-0.22","2zrj3x0l29","many_one","0","indirect_first","0","ht04lf29","0","20","1","1","3","1","","0","1","0","null","","","<div style=""font-size:60px;"">+</div>","null","","","","","","","","","",""
"","html-keyboard-response","179","494102","0.0-8.0-1.22","2zrj3x0l29","many_one","0","indirect_first","0","ht04lf29","0","20","1","1","3","1","","0","1","0","null","","","<img src = 'category2/CS1.png' width = '100%;'>","null","","","","","","","","","",""
"","html-keyboard-response","180","494360","0.0-8.0-2.22","2zrj3x0l29","many_one","0","indirect_first","0","ht04lf29","0","20","1","1","3","1","","0","1","0","null","","","<img src = 'targets/28.png' width = '100%;'>","null","","","","","","","","","",""
"","html-keyboard-response","181","496635","0.0-8.0-3.22","2zrj3x0l29","many_one","0","indirect_first","0","ht04lf29","0","20","1","1","3","1","","0","1","0","2267.920000012964","","","<img src = 'targets/mask.png' width = '100%;'>","68","neg","CS","CS","2","category2/CS1.png","targets/28.png","0","indirect","22",""
"","html-keyboard-response","182","498162","0.0-8.0-0.23","2zrj3x0l29","many_one","0","indirect_first","0","ht04lf29","0","20","1","1","3","1","","0","1","0","null","","","<div style=""font-size:60px;"">+</div>","null","","","","","","","","","",""
"","html-keyboard-response","183","498257","0.0-8.0-1.23","2zrj3x0l29","many_one","0","indirect_first","0","ht04lf29","0","20","1","1","3","1","","0","1","0","null","","","<img src = 'category1/CS9.png' width = '100%;'>","null","","","","","","","","","",""
"","html-keyboard-response","184","498533","0.0-8.0-2.23","2zrj3x0l29","many_one","0","indirect_first","0","ht04lf29","0","20","1","1","3","1","","0","1","0","null","","","<img src = 'targets/7.png' width = '100%;'>","null","","","","","","","","","",""
"","html-keyboard-response","185","498949","0.0-8.0-3.23","2zrj3x0l29","many_one","0","indirect_first","0","ht04lf29","0","20","1","1","3","1","","0","1","0","408.6699999170378","","","<img src = 'targets/mask.png' width = '100%;'>","75","pos","CS","CS","1","category1/CS9.png","targets/7.png","1","indirect","23",""
"","survey-html-form","186","501848","0.0-9.0","2zrj3x0l29","many_one","0","indirect_first","0","ht04lf29","0","20","1","1","3","1","","0","1","0","2378.275000024587","","{}","","","","","","","","","","","",""
"","html-keyboard-response","187","504872","0.0-10.0-0.0","2zrj3x0l29","many_one","0","indirect_first","0","ht04lf29","0","20","1","1","3","1","","0","1","0","null","","","<div style=""font-size:60px;"">+</div>","null","","","","","","","","","",""
"","html-keyboard-response","188","504967","0.0-10.0-1.0","2zrj3x0l29","many_one","0","indirect_first","0","ht04lf29","0","20","1","1","3","1","","0","1","0","null","","","<img src = 'category3/GS2.png' width = '100%;'>","null","","","","","","","","","",""
"","html-keyboard-response","189","505235","0.0-10.0-2.0","2zrj3x0l29","many_one","0","indirect_first","0","ht04lf29","0","20","1","1","3","1","","0","1","0","null","","","<img src = 'targets/1.png' width = '100%;'>","null","","","","","","","","","",""
"","html-keyboard-response","190","506531","0.0-10.0-3.0","2zrj3x0l29","many_one","0","indirect_first","0","ht04lf29","0","20","1","1","3","1","","0","1","0","1287.3100000433624","","","<img src = 'targets/mask.png' width = '100%;'>","75","pos","GS","GSnew","3","category3/GS2.png","targets/1.png","1","indirect","24",""
"","html-keyboard-response","191","508049","0.0-10.0-0.1","2zrj3x0l29","many_one","0","indirect_first","0","ht04lf29","0","20","1","1","3","1","","0","1","0","null","","","<div style=""font-size:60px;"">+</div>","null","","","","","","","","","",""
"","html-keyboard-response","192","508150","0.0-10.0-1.1","2zrj3x0l29","many_one","0","indirect_first","0","ht04lf29","0","20","1","1","3","1","","0","1","0","null","","","<img src = 'category3/CS3.png' width = '100%;'>","null","","","","","","","","","",""
"","html-keyboard-response","193","508432","0.0-10.0-2.1","2zrj3x0l29","many_one","0","indirect_first","0","ht04lf29","0","20","1","1","3","1","","0","1","0","null","","","<img src = 'targets/37.png' width = '100%;'>","null","","","","","","","","","",""
"","html-keyboard-response","194","508987","0.0-10.0-3.1","2zrj3x0l29","many_one","0","indirect_first","0","ht04lf29","0","20","1","1","3","1","","0","1","0","547.2349999472499","","","<img src = 'targets/mask.png' width = '100%;'>","75","pos","GS","GSold","3","category3/CS3.png","targets/37.png","1","indirect","25",""
"","html-keyboard-response","195","510514","0.0-10.0-0.2","2zrj3x0l29","many_one","0","indirect_first","0","ht04lf29","0","20","1","1","3","1","","0","1","0","null","","","<div style=""font-size:60px;"">+</div>","null","","","","","","","","","",""
"","html-keyboard-response","196","510623","0.0-10.0-1.2","2zrj3x0l29","many_one","0","indirect_first","0","ht04lf29","0","20","1","1","3","1","","0","1","0","null","","","<img src = 'category1/GS1.png' width = '100%;'>","null","","","","","","","","","",""
"","html-keyboard-response","197","510903","0.0-10.0-2.2","2zrj3x0l29","many_one","0","indirect_first","0","ht04lf29","0","20","1","1","3","1","","0","1","0","null","","","<img src = 'targets/5.png' width = '100%;'>","null","","","","","","","","","",""
"","html-keyboard-response","198","511820","0.0-10.0-3.2","2zrj3x0l29","many_one","0","indirect_first","0","ht04lf29","0","20","1","1","3","1","","0","1","0","913.6550000403076","","","<img src = 'targets/mask.png' width = '100%;'>","68","pos","GS","GSnew","1","category1/GS1.png","targets/5.png","0","indirect","26",""
"","html-keyboard-response","199","513343","0.0-10.0-0.3","2zrj3x0l29","many_one","0","indirect_first","0","ht04lf29","0","20","1","1","3","1","","0","1","0","null","","","<div style=""font-size:60px;"">+</div>","null","","","","","","","","","",""
"","html-keyboard-response","200","513445","0.0-10.0-1.3","2zrj3x0l29","many_one","0","indirect_first","0","ht04lf29","0","20","1","1","3","1","","0","1","0","null","","","<img src = 'category3/GS3.png' width = '100%;'>","null","","","","","","","","","",""
"","html-keyboard-response","201","513713","0.0-10.0-2.3","2zrj3x0l29","many_one","0","indirect_first","0","ht04lf29","0","20","1","1","3","1","","0","1","0","null","","","<img src = 'targets/23.png' width = '100%;'>","null","","","","","","","","","",""
"","html-keyboard-response","202","514267","0.0-10.0-3.3","2zrj3x0l29","many_one","0","indirect_first","0","ht04lf29","0","20","1","1","3","1","","0","1","0","548.5999999800697","","","<img src = 'targets/mask.png' width = '100%;'>","75","pos","GS","GSnew","3","category3/GS3.png","targets/23.png","1","indirect","27",""
"","html-keyboard-response","203","515789","0.0-10.0-0.4","2zrj3x0l29","many_one","0","indirect_first","0","ht04lf29","0","20","1","1","3","1","","0","1","0","null","","","<div style=""font-size:60px;"">+</div>","null","","","","","","","","","",""
"","html-keyboard-response","204","515883","0.0-10.0-1.4","2zrj3x0l29","many_one","0","indirect_first","0","ht04lf29","0","20","1","1","3","1","","0","1","0","null","","","<img src = 'category4/lin.png' width = '100%;'>","null","","","","","","","","","",""
"","html-keyboard-response","205","516166","0.0-10.0-2.4","2zrj3x0l29","many_one","0","indirect_first","0","ht04lf29","0","20","1","1","3","1","","0","1","0","null","","","<img src = 'targets/22.png' width = '100%;'>","null","","","","","","","","","",""
"","html-keyboard-response","206","517955","0.0-10.0-3.4","2zrj3x0l29","many_one","0","indirect_first","0","ht04lf29","0","20","1","1","3","1","","0","1","0","1777.2649999242276","","","<img src = 'targets/mask.png' width = '100%;'>","75","neg","GS","abstract","4","category4/lin.png","targets/22.png","1","indirect","28",""
"","html-keyboard-response","207","519472","0.0-10.0-0.5","2zrj3x0l29","many_one","0","indirect_first","0","ht04lf29","0","20","1","1","3","1","","0","1","0","null","","","<div style=""font-size:60px;"">+</div>","null","","","","","","","","","",""
"","html-keyboard-response","208","519582","0.0-10.0-1.5","2zrj3x0l29","many_one","0","indirect_first","0","ht04lf29","0","20","1","1","3","1","","0","1","0","null","","","<img src = 'category1/GS2.png' width = '100%;'>","null","","","","","","","","","",""
"","html-keyboard-response","209","519848","0.0-10.0-2.5","2zrj3x0l29","many_one","0","indirect_first","0","ht04lf29","0","20","1","1","3","1","","0","1","0","null","","","<img src = 'targets/29.png' width = '100%;'>","null","","","","","","","","","",""
"","html-keyboard-response","210","520671","0.0-10.0-3.5","2zrj3x0l29","many_one","0","indirect_first","0","ht04lf29","0","20","1","1","3","1","","0","1","0","815.874999971129","","","<img src = 'targets/mask.png' width = '100%;'>","68","pos","GS","GSnew","1","category1/GS2.png","targets/29.png","0","indirect","29",""
"","html-keyboard-response","211","522191","0.0-10.0-0.6","2zrj3x0l29","many_one","0","indirect_first","0","ht04lf29","0","20","1","1","3","1","","0","1","0","null","","","<div style=""font-size:60px;"">+</div>","null","","","","","","","","","",""
"","html-keyboard-response","212","522285","0.0-10.0-1.6","2zrj3x0l29","many_one","0","indirect_first","0","ht04lf29","0","20","1","1","3","1","","0","1","0","null","","","<img src = 'category2/men.png' width = '100%;'>","null","","","","","","","","","",""
"","html-keyboard-response","213","522550","0.0-10.0-2.6","2zrj3x0l29","many_one","0","indirect_first","0","ht04lf29","0","20","1","1","3","1","","0","1","0","null","","","<img src = 'targets/11.png' width = '100%;'>","null","","","","","","","","","",""
"","html-keyboard-response","214","523467","0.0-10.0-3.6","2zrj3x0l29","many_one","0","indirect_first","0","ht04lf29","0","20","1","1","3","1","","0","1","0","910.2150000398979","","","<img src = 'targets/mask.png' width = '100%;'>","68","neg","GS","abstract","2","category2/men.png","targets/11.png","0","indirect","30",""
"","html-keyboard-response","215","524994","0.0-10.0-0.7","2zrj3x0l29","many_one","0","indirect_first","0","ht04lf29","0","20","1","1","3","1","","0","1","0","null","","","<div style=""font-size:60px;"">+</div>","null","","","","","","","","","",""
"","html-keyboard-response","216","525087","0.0-10.0-1.7","2zrj3x0l29","many_one","0","indirect_first","0","ht04lf29","0","20","1","1","3","1","","0","1","0","null","","","<img src = 'category3/wang.png' width = '100%;'>","null","","","","","","","","","",""
"","html-keyboard-response","217","525360","0.0-10.0-2.7","2zrj3x0l29","many_one","0","indirect_first","0","ht04lf29","0","20","1","1","3","1","","0","1","0","null","","","<img src = 'targets/4.png' width = '100%;'>","null","","","","","","","","","",""
"","html-keyboard-response","218","525968","0.0-10.0-3.7","2zrj3x0l29","many_one","0","indirect_first","0","ht04lf29","0","20","1","1","3","1","","0","1","0","602.7099998900667","","","<img src = 'targets/mask.png' width = '100%;'>","75","pos","GS","abstract","3","category3/wang.png","targets/4.png","1","indirect","31",""
"","html-keyboard-response","219","527487","0.0-10.0-0.8","2zrj3x0l29","many_one","0","indirect_first","0","ht04lf29","0","20","1","1","3","1","","0","1","0","null","","","<div style=""font-size:60px;"">+</div>","null","","","","","","","","","",""
"","html-keyboard-response","220","527592","0.0-10.0-1.8","2zrj3x0l29","many_one","0","indirect_first","0","ht04lf29","0","20","1","1","3","1","","0","1","0","null","","","<img src = 'category3/CS8.png' width = '100%;'>","null","","","","","","","","","",""
"","html-keyboard-response","221","527857","0.0-10.0-2.8","2zrj3x0l29","many_one","0","indirect_first","0","ht04lf29","0","20","1","1","3","1","","0","1","0","null","","","<img src = 'targets/6.png' width = '100%;'>","null","","","","","","","","","",""
"","html-keyboard-response","222","528295","0.0-10.0-3.8","2zrj3x0l29","many_one","0","indirect_first","0","ht04lf29","0","20","1","1","3","1","","0","1","0","428.07499994523823","","","<img src = 'targets/mask.png' width = '100%;'>","75","pos","GS","GSold","3","category3/CS8.png","targets/6.png","1","indirect","32",""
"","html-keyboard-response","223","529821","0.0-10.0-0.9","2zrj3x0l29","many_one","0","indirect_first","0","ht04lf29","0","20","1","1","3","1","","0","1","0","null","","","<div style=""font-size:60px;"">+</div>","null","","","","","","","","","",""
"","html-keyboard-response","224","529915","0.0-10.0-1.9","2zrj3x0l29","many_one","0","indirect_first","0","ht04lf29","0","20","1","1","3","1","","0","1","0","null","","","<img src = 'category1/ma.png' width = '100%;'>","null","","","","","","","","","",""
"","html-keyboard-response","225","530189","0.0-10.0-2.9","2zrj3x0l29","many_one","0","indirect_first","0","ht04lf29","0","20","1","1","3","1","","0","1","0","null","","","<img src = 'targets/16.png' width = '100%;'>","null","","","","","","","","","",""
"","html-keyboard-response","226","530502","0.0-10.0-3.9","2zrj3x0l29","many_one","0","indirect_first","0","ht04lf29","0","20","1","1","3","1","","0","1","0","307.0399999851361","","","<img src = 'targets/mask.png' width = '100%;'>","68","pos","GS","abstract","1","category1/ma.png","targets/16.png","0","indirect","33",""
"","html-keyboard-response","227","532031","0.0-10.0-0.10","2zrj3x0l29","many_one","0","indirect_first","0","ht04lf29","0","20","1","1","3","1","","0","1","0","null","","","<div style=""font-size:60px;"">+</div>","null","","","","","","","","","",""
"","html-keyboard-response","228","532132","0.0-10.0-1.10","2zrj3x0l29","many_one","0","indirect_first","0","ht04lf29","0","20","1","1","3","1","","0","1","0","null","","","<img src = 'category4/GS2.png' width = '100%;'>","null","","","","","","","","","",""
"","html-keyboard-response","229","532413","0.0-10.0-2.10","2zrj3x0l29","many_one","0","indirect_first","0","ht04lf29","0","20","1","1","3","1","","0","1","0","null","","","<img src = 'targets/40.png' width = '100%;'>","null","","","","","","","","","",""
"","html-keyboard-response","230","533013","0.0-10.0-3.10","2zrj3x0l29","many_one","0","indirect_first","0","ht04lf29","0","20","1","1","3","1","","0","1","0","594.5300000021234","","","<img src = 'targets/mask.png' width = '100%;'>","75","neg","GS","GSnew","4","category4/GS2.png","targets/40.png","1","indirect","34",""
"","html-keyboard-response","231","534533","0.0-10.0-0.11","2zrj3x0l29","many_one","0","indirect_first","0","ht04lf29","0","20","1","1","3","1","","0","1","0","null","","","<div style=""font-size:60px;"">+</div>","null","","","","","","","","","",""
"","html-keyboard-response","232","534641","0.0-10.0-1.11","2zrj3x0l29","many_one","0","indirect_first","0","ht04lf29","0","20","1","1","3","1","","0","1","0","null","","","<img src = 'category1/GS3.png' width = '100%;'>","null","","","","","","","","","",""
"","html-keyboard-response","233","534910","0.0-10.0-2.11","2zrj3x0l29","many_one","0","indirect_first","0","ht04lf29","0","20","1","1","3","1","","0","1","0","null","","","<img src = 'targets/36.png' width = '100%;'>","null","","","","","","","","","",""
"","html-keyboard-response","234","535461","0.0-10.0-3.11","2zrj3x0l29","many_one","0","indirect_first","0","ht04lf29","0","20","1","1","3","1","","0","1","0","546.1649999488145","","","<img src = 'targets/mask.png' width = '100%;'>","75","pos","GS","GSnew","1","category1/GS3.png","targets/36.png","1","indirect","35",""
"","html-keyboard-response","235","536981","0.0-10.0-0.12","2zrj3x0l29","many_one","0","indirect_first","0","ht04lf29","0","20","1","1","3","1","","0","1","0","null","","","<div style=""font-size:60px;"">+</div>","null","","","","","","","","","",""
"","html-keyboard-response","236","537091","0.0-10.0-1.12","2zrj3x0l29","many_one","0","indirect_first","0","ht04lf29","0","20","1","1","3","1","","0","1","0","null","","","<img src = 'category2/GS1.png' width = '100%;'>","null","","","","","","","","","",""
"","html-keyboard-response","237","537367","0.0-10.0-2.12","2zrj3x0l29","many_one","0","indirect_first","0","ht04lf29","0","20","1","1","3","1","","0","1","0","null","","","<img src = 'targets/17.png' width = '100%;'>","null","","","","","","","","","",""
"","html-keyboard-response","238","537647","0.0-10.0-3.12","2zrj3x0l29","many_one","0","indirect_first","0","ht04lf29","0","20","1","1","3","1","","0","1","0","273.9549999823794","","","<img src = 'targets/mask.png' width = '100%;'>","68","neg","GS","GSnew","2","category2/GS1.png","targets/17.png","0","indirect","36",""
"","html-keyboard-response","239","539169","0.0-10.0-0.13","2zrj3x0l29","many_one","0","indirect_first","0","ht04lf29","0","20","1","1","3","1","","0","1","0","null","","","<div style=""font-size:60px;"">+</div>","null","","","","","","","","","",""
"","html-keyboard-response","240","539275","0.0-10.0-1.13","2zrj3x0l29","many_one","0","indirect_first","0","ht04lf29","0","20","1","1","3","1","","0","1","0","null","","","<img src = 'category4/GS1.png' width = '100%;'>","null","","","","","","","","","",""
"","html-keyboard-response","241","539540","0.0-10.0-2.13","2zrj3x0l29","many_one","0","indirect_first","0","ht04lf29","0","20","1","1","3","1","","0","1","0","null","","","<img src = 'targets/2.png' width = '100%;'>","null","","","","","","","","","",""
"","html-keyboard-response","242","540523","0.0-10.0-3.13","2zrj3x0l29","many_one","0","indirect_first","0","ht04lf29","0","20","1","1","3","1","","0","1","0","977.6400000555441","","","<img src = 'targets/mask.png' width = '100%;'>","75","neg","GS","GSnew","4","category4/GS1.png","targets/2.png","1","indirect","37",""
"","html-keyboard-response","243","542031","0.0-10.0-0.14","2zrj3x0l29","many_one","0","indirect_first","0","ht04lf29","0","20","1","1","3","1","","0","1","0","null","","","<div style=""font-size:60px;"">+</div>","null","","","","","","","","","",""
"","html-keyboard-response","244","542141","0.0-10.0-1.14","2zrj3x0l29","many_one","0","indirect_first","0","ht04lf29","0","20","1","1","3","1","","0","1","0","null","","","<img src = 'category3/GS1.png' width = '100%;'>","null","","","","","","","","","",""
"","html-keyboard-response","245","542407","0.0-10.0-2.14","2zrj3x0l29","many_one","0","indirect_first","0","ht04lf29","0","20","1","1","3","1","","0","1","0","null","","","<img src = 'targets/21.png' width = '100%;'>","null","","","","","","","","","",""
"","html-keyboard-response","246","543287","0.0-10.0-3.14","2zrj3x0l29","many_one","0","indirect_first","0","ht04lf29","0","20","1","1","3","1","","0","1","0","866.770000080578","","","<img src = 'targets/mask.png' width = '100%;'>","75","pos","GS","GSnew","3","category3/GS1.png","targets/21.png","1","indirect","38",""
"","html-keyboard-response","247","544814","0.0-10.0-0.15","2zrj3x0l29","many_one","0","indirect_first","0","ht04lf29","0","20","1","1","3","1","","0","1","0","null","","","<div style=""font-size:60px;"">+</div>","null","","","","","","","","","",""
"","html-keyboard-response","248","544908","0.0-10.0-1.15","2zrj3x0l29","many_one","0","indirect_first","0","ht04lf29","0","20","1","1","3","1","","0","1","0","null","","","<img src = 'category2/GS3.png' width = '100%;'>","null","","","","","","","","","",""
"","html-keyboard-response","249","545187","0.0-10.0-2.15","2zrj3x0l29","many_one","0","indirect_first","0","ht04lf29","0","20","1","1","3","1","","0","1","0","null","","","<img src = 'targets/44.png' width = '100%;'>","null","","","","","","","","","",""
"","html-keyboard-response","250","545518","0.0-10.0-3.15","2zrj3x0l29","many_one","0","indirect_first","0","ht04lf29","0","20","1","1","3","1","","0","1","0","325.6149999797344","","","<img src = 'targets/mask.png' width = '100%;'>","68","neg","GS","GSnew","2","category2/GS3.png","targets/44.png","0","indirect","39",""
"","html-keyboard-response","251","547033","0.0-10.0-0.16","2zrj3x0l29","many_one","0","indirect_first","0","ht04lf29","0","20","1","1","3","1","","0","1","0","null","","","<div style=""font-size:60px;"">+</div>","null","","","","","","","","","",""
"","html-keyboard-response","252","547138","0.0-10.0-1.16","2zrj3x0l29","many_one","0","indirect_first","0","ht04lf29","0","20","1","1","3","1","","0","1","0","null","","","<img src = 'category1/CS7.png' width = '100%;'>","null","","","","","","","","","",""
"","html-keyboard-response","253","547398","0.0-10.0-2.16","2zrj3x0l29","many_one","0","indirect_first","0","ht04lf29","0","20","1","1","3","1","","0","1","0","null","","","<img src = 'targets/3.png' width = '100%;'>","null","","","","","","","","","",""
"","html-keyboard-response","254","547910","0.0-10.0-3.16","2zrj3x0l29","many_one","0","indirect_first","0","ht04lf29","0","20","1","1","3","1","","0","1","0","506.24499993864447","","","<img src = 'targets/mask.png' width = '100%;'>","75","pos","GS","GSold","1","category1/CS7.png","targets/3.png","1","indirect","40",""
"","html-keyboard-response","255","549440","0.0-10.0-0.17","2zrj3x0l29","many_one","0","indirect_first","0","ht04lf29","0","20","1","1","3","1","","0","1","0","null","","","<div style=""font-size:60px;"">+</div>","null","","","","","","","","","",""
"","html-keyboard-response","256","549549","0.0-10.0-1.17","2zrj3x0l29","many_one","0","indirect_first","0","ht04lf29","0","20","1","1","3","1","","0","1","0","null","","","<img src = 'category3/CS6.png' width = '100%;'>","null","","","","","","","","","",""
"","html-keyboard-response","257","549828","0.0-10.0-2.17","2zrj3x0l29","many_one","0","indirect_first","0","ht04lf29","0","20","1","1","3","1","","0","1","0","null","","","<img src = 'targets/42.png' width = '100%;'>","null","","","","","","","","","",""
"","html-keyboard-response","258","550566","0.0-10.0-3.17","2zrj3x0l29","many_one","0","indirect_first","0","ht04lf29","0","20","1","1","3","1","","0","1","0","732.1450000163168","","","<img src = 'targets/mask.png' width = '100%;'>","75","pos","GS","GSold","3","category3/CS6.png","targets/42.png","1","indirect","41",""
"","html-keyboard-response","259","552090","0.0-10.0-0.18","2zrj3x0l29","many_one","0","indirect_first","0","ht04lf29","0","20","1","1","3","1","","0","1","0","null","","","<div style=""font-size:60px;"">+</div>","null","","","","","","","","","",""
"","html-keyboard-response","260","552191","0.0-10.0-1.18","2zrj3x0l29","many_one","0","indirect_first","0","ht04lf29","0","20","1","1","3","1","","0","1","0","null","","","<img src = 'category4/CS10.png' width = '100%;'>","null","","","","","","","","","",""
"","html-keyboard-response","261","552469","0.0-10.0-2.18","2zrj3x0l29","many_one","0","indirect_first","0","ht04lf29","0","20","1","1","3","1","","0","1","0","null","","","<img src = 'targets/13.png' width = '100%;'>","null","","","","","","","","","",""
"","html-keyboard-response","262","552981","0.0-10.0-3.18","2zrj3x0l29","many_one","0","indirect_first","0","ht04lf29","0","20","1","1","3","1","","0","1","0","501.73000001814216","","","<img src = 'targets/mask.png' width = '100%;'>","75","neg","GS","GSold","4","category4/CS10.png","targets/13.png","1","indirect","42",""
"","html-keyboard-response","263","554498","0.0-10.0-0.19","2zrj3x0l29","many_one","0","indirect_first","0","ht04lf29","0","20","1","1","3","1","","0","1","0","null","","","<div style=""font-size:60px;"">+</div>","null","","","","","","","","","",""
"","html-keyboard-response","264","554608","0.0-10.0-1.19","2zrj3x0l29","many_one","0","indirect_first","0","ht04lf29","0","20","1","1","3","1","","0","1","0","null","","","<img src = 'category4/CS8.png' width = '100%;'>","null","","","","","","","","","",""
"","html-keyboard-response","265","554876","0.0-10.0-2.19","2zrj3x0l29","many_one","0","indirect_first","0","ht04lf29","0","20","1","1","3","1","","0","1","0","null","","","<img src = 'targets/26.png' width = '100%;'>","null","","","","","","","","","",""
"","html-keyboard-response","266","555499","0.0-10.0-3.19","2zrj3x0l29","many_one","0","indirect_first","0","ht04lf29","0","20","1","1","3","1","","0","1","0","617.5249998923391","","","<img src = 'targets/mask.png' width = '100%;'>","68","neg","GS","GSold","4","category4/CS8.png","targets/26.png","0","indirect","43",""
"","html-keyboard-response","267","557030","0.0-10.0-0.20","2zrj3x0l29","many_one","0","indirect_first","0","ht04lf29","0","20","1","1","3","1","","0","1","0","null","","","<div style=""font-size:60px;"">+</div>","null","","","","","","","","","",""
"","html-keyboard-response","268","557130","0.0-10.0-1.20","2zrj3x0l29","many_one","0","indirect_first","0","ht04lf29","0","20","1","1","3","1","","0","1","0","null","","","<img src = 'category4/CS2.png' width = '100%;'>","null","","","","","","","","","",""
"","html-keyboard-response","269","557402","0.0-10.0-2.20","2zrj3x0l29","many_one","0","indirect_first","0","ht04lf29","0","20","1","1","3","1","","0","1","0","null","","","<img src = 'targets/8.png' width = '100%;'>","null","","","","","","","","","",""
"","html-keyboard-response","270","558103","0.0-10.0-3.20","2zrj3x0l29","many_one","0","indirect_first","0","ht04lf29","0","20","1","1","3","1","","0","1","0","694.7849999414757","","","<img src = 'targets/mask.png' width = '100%;'>","68","neg","GS","GSold","4","category4/CS2.png","targets/8.png","0","indirect","44",""
"","html-keyboard-response","271","559632","0.0-10.0-0.21","2zrj3x0l29","many_one","0","indirect_first","0","ht04lf29","0","20","1","1","3","1","","0","1","0","null","","","<div style=""font-size:60px;"">+</div>","null","","","","","","","","","",""
"","html-keyboard-response","272","559741","0.0-10.0-1.21","2zrj3x0l29","many_one","0","indirect_first","0","ht04lf29","0","20","1","1","3","1","","0","1","0","null","","","<img src = 'category2/GS2.png' width = '100%;'>","null","","","","","","","","","",""
"","html-keyboard-response","273","560005","0.0-10.0-2.21","2zrj3x0l29","many_one","0","indirect_first","0","ht04lf29","0","20","1","1","3","1","","0","1","0","null","","","<img src = 'targets/47.png' width = '100%;'>","null","","","","","","","","","",""
"","html-keyboard-response","274","560565","0.0-10.0-3.21","2zrj3x0l29","many_one","0","indirect_first","0","ht04lf29","0","20","1","1","3","1","","0","1","0","551.4800000237301","","","<img src = 'targets/mask.png' width = '100%;'>","68","neg","GS","GSnew","2","category2/GS2.png","targets/47.png","0","indirect","45",""
"","html-keyboard-response","275","562083","0.0-10.0-0.22","2zrj3x0l29","many_one","0","indirect_first","0","ht04lf29","0","20","1","1","3","1","","0","1","0","null","","","<div style=""font-size:60px;"">+</div>","null","","","","","","","","","",""
"","html-keyboard-response","276","562190","0.0-10.0-1.22","2zrj3x0l29","many_one","0","indirect_first","0","ht04lf29","0","20","1","1","3","1","","0","1","0","null","","","<img src = 'category4/GS3.png' width = '100%;'>","null","","","","","","","","","",""
"","html-keyboard-response","277","562460","0.0-10.0-2.22","2zrj3x0l29","many_one","0","indirect_first","0","ht04lf29","0","20","1","1","3","1","","0","1","0","null","","","<img src = 'targets/10.png' width = '100%;'>","null","","","","","","","","","",""
"","html-keyboard-response","278","563527","0.0-10.0-3.22","2zrj3x0l29","many_one","0","indirect_first","0","ht04lf29","0","20","1","1","3","1","","0","1","0","1061.3600000506267","","","<img src = 'targets/mask.png' width = '100%;'>","68","neg","GS","GSnew","4","category4/GS3.png","targets/10.png","0","indirect","46",""
"","html-keyboard-response","279","565037","0.0-10.0-0.23","2zrj3x0l29","many_one","0","indirect_first","0","ht04lf29","0","20","1","1","3","1","","0","1","0","null","","","<div style=""font-size:60px;"">+</div>","null","","","","","","","","","",""
"","html-keyboard-response","280","565138","0.0-10.0-1.23","2zrj3x0l29","many_one","0","indirect_first","0","ht04lf29","0","20","1","1","3","1","","0","1","0","null","","","<img src = 'category1/CS8.png' width = '100%;'>","null","","","","","","","","","",""
"","html-keyboard-response","281","565407","0.0-10.0-2.23","2zrj3x0l29","many_one","0","indirect_first","0","ht04lf29","0","20","1","1","3","1","","0","1","0","null","","","<img src = 'targets/32.png' width = '100%;'>","null","","","","","","","","","",""
"","html-keyboard-response","282","566034","0.0-10.0-3.23","2zrj3x0l29","many_one","0","indirect_first","0","ht04lf29","0","20","1","1","3","1","","0","1","0","621.9249999849126","","","<img src = 'targets/mask.png' width = '100%;'>","75","pos","GS","GSold","1","category1/CS8.png","targets/32.png","1","indirect","47",""
"","survey-html-form","283","578174","0.0-11.0","2zrj3x0l29","many_one","0","indirect_first","0","ht04lf29","0","20","1","1","3","1","","0","1","0","11629.609999945387","","{}","","","","","","","","","","","",""
"","image-slider-response","284","589169","0.0-12.0-0.0","2zrj3x0l29","many_one","0","indirect_first","0","ht04lf29","0","20","1","1","3","1","","0","1","0","8964.240000001155","","","","","pos","GS","GSold","3","category3/CS8.png","targets/6.png","","direct","","21"
"","image-slider-response","285","593655","0.0-12.0-0.1","2zrj3x0l29","many_one","0","indirect_first","0","ht04lf29","0","20","1","1","3","1","","0","1","0","4482.139999978244","","","","","neg","GS","GSnew","2","category2/GS1.png","targets/17.png","","direct","","-31"
"","image-slider-response","286","596123","0.0-12.0-0.2","2zrj3x0l29","many_one","0","indirect_first","0","ht04lf29","0","20","1","1","3","1","","0","1","0","2464.5950000267476","","","","","pos","GS","GSold","3","category3/CS6.png","targets/42.png","","direct","","48"
"","image-slider-response","287","598197","0.0-12.0-0.3","2zrj3x0l29","many_one","0","indirect_first","0","ht04lf29","0","20","1","1","3","1","","0","1","0","2069.770000060089","","","","","pos","GS","GSold","3","category3/CS3.png","targets/37.png","","direct","","37"
"","image-slider-response","288","600602","0.0-12.0-0.4","2zrj3x0l29","many_one","0","indirect_first","0","ht04lf29","0","20","1","1","3","1","","0","1","0","2401.0199999902397","","","","","neg","GS","GSnew","4","category4/GS1.png","targets/2.png","","direct","","-43"
"","image-slider-response","289","602735","0.0-12.0-0.5","2zrj3x0l29","many_one","0","indirect_first","0","ht04lf29","0","20","1","1","3","1","","0","1","0","2129.840000066906","","","","","neg","GS","GSold","2","category2/CS3.png","targets/19.png","","direct","","-31"
"","image-slider-response","290","611043","0.0-12.0-0.6","2zrj3x0l29","many_one","0","indirect_first","0","ht04lf29","0","20","1","1","3","1","","0","1","0","8304.345000069588","","","","","pos","GS","GSnew","1","category1/GS2.png","targets/29.png","","direct","","44"
"","image-slider-response","291","613247","0.0-12.0-0.7","2zrj3x0l29","many_one","0","indirect_first","0","ht04lf29","0","20","1","1","3","1","","0","1","0","2198.8700000802055","","","","","pos","GS","GSnew","3","category3/GS1.png","targets/21.png","","direct","","18"
"","image-slider-response","292","616130","0.0-12.0-0.8","2zrj3x0l29","many_one","0","indirect_first","0","ht04lf29","0","20","1","1","3","1","","0","1","0","2880.4000000236556","","","","","neg","GS","abstract","4","category4/lin.png","targets/22.png","","direct","","-41"
"","image-slider-response","293","618083","0.0-12.0-0.9","2zrj3x0l29","many_one","0","indirect_first","0","ht04lf29","0","20","1","1","3","1","","0","1","0","1949.224999989383","","","","","pos","GS","GSnew","1","category1/GS1.png","targets/5.png","","direct","","14"
"","image-slider-response","294","620538","0.0-12.0-0.10","2zrj3x0l29","many_one","0","indirect_first","0","ht04lf29","0","20","1","1","3","1","","0","1","0","2451.234999927692","","","","","pos","CS","CS","3","category3/CS5.png","targets/46.png","","direct","","64"
"","image-slider-response","295","623091","0.0-12.0-0.11","2zrj3x0l29","many_one","0","indirect_first","0","ht04lf29","0","20","1","1","3","1","","0","1","0","2549.239999963902","","","","","neg","CS","CS","4","category4/CS7.png","targets/39.png","","direct","","-48"
"","image-slider-response","296","625771","0.0-12.0-0.12","2zrj3x0l29","many_one","0","indirect_first","0","ht04lf29","0","20","1","1","3","1","","0","1","0","2674.9099999433383","","","","","pos","CS","CS","1","category1/CS3.png","targets/34.png","","direct","","-42"
"","image-slider-response","297","628713","0.0-12.0-0.13","2zrj3x0l29","many_one","0","indirect_first","0","ht04lf29","0","20","1","1","3","1","","0","1","0","2939.189999946393","","","","","pos","CS","CS","1","category1/CS2.png","targets/20.png","","direct","","-9"
"","image-slider-response","298","631081","0.0-12.0-0.14","2zrj3x0l29","many_one","0","indirect_first","0","ht04lf29","0","20","1","1","3","1","","0","1","0","2364.489999949001","","","","","neg","CS","CS","4","category4/CS1.png","targets/18.png","","direct","","-28"
"","image-slider-response","299","633097","0.0-12.0-0.15","2zrj3x0l29","many_one","0","indirect_first","0","ht04lf29","0","20","1","1","3","1","","0","1","0","2012.2950000222772","","","","","neg","CS","CS","2","category2/CS8.png","targets/27.png","","direct","","-68"
"","image-slider-response","300","635262","0.0-12.0-0.16","2zrj3x0l29","many_one","0","indirect_first","0","ht04lf29","0","20","1","1","3","1","","0","1","0","2161.655000061728","","","","","pos","GS","GSnew","3","category3/GS2.png","targets/1.png","","direct","","-5"
"","image-slider-response","301","637379","0.0-12.0-0.17","2zrj3x0l29","many_one","0","indirect_first","0","ht04lf29","0","20","1","1","3","1","","0","1","0","2114.4150000764057","","","","","neg","GS","GSold","4","category4/CS10.png","targets/13.png","","direct","","-34"
"","image-slider-response","302","639841","0.0-12.0-0.18","2zrj3x0l29","many_one","0","indirect_first","0","ht04lf29","0","20","1","1","3","1","","0","1","0","2458.7850000243634","","","","","neg","CS","CS","2","category2/CS1.png","targets/28.png","","direct","","-32"
"","image-slider-response","303","641741","0.0-12.0-0.19","2zrj3x0l29","many_one","0","indirect_first","0","ht04lf29","0","20","1","1","3","1","","0","1","0","1896.6650000074878","","","","","neg","CS","CS","4","category4/CS5.png","targets/12.png","","direct","","-19"
"","image-slider-response","304","644085","0.0-12.0-0.20","2zrj3x0l29","many_one","0","indirect_first","0","ht04lf29","0","20","1","1","3","1","","0","1","0","2341.7500000214204","","","","","pos","GS","abstract","1","category1/ma.png","targets/16.png","","direct","","29"
"","image-slider-response","305","646678","0.0-12.0-0.21","2zrj3x0l29","many_one","0","indirect_first","0","ht04lf29","0","20","1","1","3","1","","0","1","0","2589.049999951385","","","","","pos","GS","GSold","1","category1/CS8.png","targets/32.png","","direct","","64"
"","image-slider-response","306","648631","0.0-12.0-0.22","2zrj3x0l29","many_one","0","indirect_first","0","ht04lf29","0","20","1","1","3","1","","0","1","0","1949.9800000339746","","","","","pos","CS","CS","1","category1/CS6.png","targets/15.png","","direct","","21"
"","image-slider-response","307","650719","0.0-12.0-0.23","2zrj3x0l29","many_one","0","indirect_first","0","ht04lf29","0","20","1","1","3","1","","0","1","0","2084.99500004109","","","","","neg","GS","GSold","4","category4/CS2.png","targets/8.png","","direct","","-28"
"","image-slider-response","308","652496","0.0-12.0-0.24","2zrj3x0l29","many_one","0","indirect_first","0","ht04lf29","0","20","1","1","3","1","","0","1","0","1773.369999951683","","","","","neg","CS","CS","4","category4/CS3.png","targets/33.png","","direct","","-28"
"","image-slider-response","309","654799","0.0-12.0-0.25","2zrj3x0l29","many_one","0","indirect_first","0","ht04lf29","0","20","1","1","3","1","","0","1","0","2299.819999956526","","","","","pos","CS","CS","3","category3/CS9.png","targets/38.png","","direct","","88"
"","image-slider-response","310","657511","0.0-12.0-0.26","2zrj3x0l29","many_one","0","indirect_first","0","ht04lf29","0","20","1","1","3","1","","0","1","0","2707.769999979064","","","","","neg","GS","GSnew","4","category4/GS3.png","targets/10.png","","direct","","-46"
"","image-slider-response","311","660017","0.0-12.0-0.27","2zrj3x0l29","many_one","0","indirect_first","0","ht04lf29","0","20","1","1","3","1","","0","1","0","2503.499999991618","","","","","neg","GS","GSold","2","category2/CS4.png","targets/45.png","","direct","","-14"
"","image-slider-response","312","661886","0.0-12.0-0.28","2zrj3x0l29","many_one","0","indirect_first","0","ht04lf29","0","20","1","1","3","1","","0","1","0","1865.2099999599159","","","","","neg","GS","GSold","4","category4/CS8.png","targets/26.png","","direct","","24"
"","image-slider-response","313","663967","0.0-12.0-0.29","2zrj3x0l29","many_one","0","indirect_first","0","ht04lf29","0","20","1","1","3","1","","0","1","0","2077.5650000432506","","","","","neg","CS","CS","2","category2/CS9.png","targets/41.png","","direct","","15"
"","image-slider-response","314","666965","0.0-12.0-0.30","2zrj3x0l29","many_one","0","indirect_first","0","ht04lf29","0","20","1","1","3","1","","0","1","0","2993.735000025481","","","","","pos","CS","CS","3","category3/CS10.png","targets/25.png","","direct","","40"
"","image-slider-response","315","668795","0.0-12.0-0.31","2zrj3x0l29","many_one","0","indirect_first","0","ht04lf29","0","20","1","1","3","1","","0","1","0","1825.734999962151","","","","","neg","GS","abstract","2","category2/men.png","targets/11.png","","direct","","13"
"","image-slider-response","316","670919","0.0-12.0-0.32","2zrj3x0l29","many_one","0","indirect_first","0","ht04lf29","0","20","1","1","3","1","","0","1","0","2121.4399999007583","","","","","pos","CS","CS","1","category1/CS4.png","targets/24.png","","direct","","-19"
"","image-slider-response","317","672656","0.0-12.0-0.33","2zrj3x0l29","many_one","0","indirect_first","0","ht04lf29","0","20","1","1","3","1","","0","1","0","1733.5400000447407","","","","","pos","CS","CS","3","category3/CS2.png","targets/14.png","","direct","","18"
"","image-slider-response","318","674758","0.0-12.0-0.34","2zrj3x0l29","many_one","0","indirect_first","0","ht04lf29","0","20","1","1","3","1","","0","1","0","2098.4000000171363","","","","","neg","CS","CS","2","category2/CS7.png","targets/48.png","","direct","","-37"
"","image-slider-response","319","676620","0.0-12.0-0.35","2zrj3x0l29","many_one","0","indirect_first","0","ht04lf29","0","20","1","1","3","1","","0","1","0","1858.5500000044703","","","","","pos","GS","GSold","1","category1/CS7.png","targets/3.png","","direct","","-16"
"","image-slider-response","320","678434","0.0-12.0-0.36","2zrj3x0l29","many_one","0","indirect_first","0","ht04lf29","0","20","1","1","3","1","","0","1","0","1811.2050000345334","","","","","neg","GS","GSold","2","category2/CS5.png","targets/9.png","","direct","","-19"
"","image-slider-response","321","680154","0.0-12.0-0.37","2zrj3x0l29","many_one","0","indirect_first","0","ht04lf29","0","20","1","1","3","1","","0","1","0","1716.1949999863282","","","","","neg","GS","GSnew","4","category4/GS2.png","targets/40.png","","direct","","-20"
"","image-slider-response","322","684459","0.0-12.0-0.38","2zrj3x0l29","many_one","0","indirect_first","0","ht04lf29","0","20","1","1","3","1","","0","1","0","4302.675000042655","","","","","pos","GS","GSnew","1","category1/GS3.png","targets/36.png","","direct","","48"
"","image-slider-response","323","686376","0.0-12.0-0.39","2zrj3x0l29","many_one","0","indirect_first","0","ht04lf29","0","20","1","1","3","1","","0","1","0","1913.0800000857562","","","","","neg","CS","CS","2","category2/CS10.png","targets/30.png","","direct","","14"
"","image-slider-response","324","688308","0.0-12.0-0.40","2zrj3x0l29","many_one","0","indirect_first","0","ht04lf29","0","20","1","1","3","1","","0","1","0","1927.8000000631437","","","","","pos","CS","CS","3","category3/CS1.png","targets/31.png","","direct","","50"
