"success","trial_type","trial_index","time_elapsed","internal_node_id","subject","condition","condition_code","measure","measure_code","codeword","gender","age","education","chinese","fach","handedness","comment","hinschauen","ablenkung","gewissenhaft","rt","url","responses","stimulus","key_press","val","type","type_specific","category","cs_selected","response","target","task","indirect","nr_pres"
"true","fullscreen","0","5359","0.0-0.0","30ff3wxhcw","one_one","1","direct_first","1","Ll06rt20","0","23","1","1","3","1","","0","1","0","","","","","","","","","","","","","","",""
"","external-html","1","59678","0.0-1.0","30ff3wxhcw","one_one","1","direct_first","1","Ll06rt20","0","23","1","1","3","1","","0","1","0","54287","text/information.html","","","","","","","","","","","","",""
"","external-html","2","95025","0.0-2.0","30ff3wxhcw","one_one","1","direct_first","1","Ll06rt20","0","23","1","1","3","1","","0","1","0","35288","text/consent.html","","","","","","","","","","","","",""
"","survey-html-form","3","165723","0.0-3.0","30ff3wxhcw","one_one","1","direct_first","1","Ll06rt20","0","23","1","1","3","1","","0","1","0","70696","","{""codeword_enter"":""Ll06rt20""}","","","","","","","","","","","",""
"","survey-html-form","4","185095","0.0-4.0","30ff3wxhcw","one_one","1","direct_first","1","Ll06rt20","0","23","1","1","3","1","","0","1","0","19370","","{""age"":""23"",""education"":""1"",""subject"":""3"",""gender"":""0"",""handedness"":""1"",""chinese"":""1""}","","","","","","","","","","","",""
"","survey-html-form","5","198661","0.0-5.0","30ff3wxhcw","one_one","1","direct_first","1","Ll06rt20","0","23","1","1","3","1","","0","1","0","13566","","{}","","","","","","","","","","","",""
"","html-keyboard-response","6","202686","0.0-6.0-0.0-0.0","30ff3wxhcw","one_one","1","direct_first","1","Ll06rt20","0","23","1","1","3","1","","0","1","0","null","","","<div class = 'row'><div class = 'column'><img src = 'category3/CS6.png' width = '70%;'></div><div class = 'column'><img src = 'uspos/2550.bmp' width = '100%;'></div></div>","null","pos","CS","CS","3","category3/CS6.png","","","","",""
"","html-keyboard-response","7","205201","0.0-6.0-0.0-0.1","30ff3wxhcw","one_one","1","direct_first","1","Ll06rt20","0","23","1","1","3","1","","0","1","0","null","","","<div class = 'row'><div class = 'column'><img src = 'category4/CS10.png' width = '70%;'></div><div class = 'column'><img src = 'uspos/1440.bmp' width = '100%;'></div></div>","null","pos","CS","CS","4","category4/CS10.png","","","","",""
"","html-keyboard-response","8","207725","0.0-6.0-0.0-0.2","30ff3wxhcw","one_one","1","direct_first","1","Ll06rt20","0","23","1","1","3","1","","0","1","0","null","","","<div class = 'row'><div class = 'column'><img src = 'usneg/6020.bmp' width = '100%;'></div><div class = 'column'><img src = 'category1/CS3.png' width = '70%;'></div></div>","null","neg","CS","CS","1","category1/CS3.png","","","","",""
"","html-keyboard-response","9","210245","0.0-6.0-0.0-0.3","30ff3wxhcw","one_one","1","direct_first","1","Ll06rt20","0","23","1","1","3","1","","0","1","0","null","","","<div class = 'row'><div class = 'column'><img src = 'usneg/2205.bmp' width = '100%;'></div><div class = 'column'><img src = 'category2/CS9.png' width = '70%;'></div></div>","null","neg","CS","CS","2","category2/CS9.png","","","","",""
"","html-keyboard-response","10","212772","0.0-6.0-0.0-0.4","30ff3wxhcw","one_one","1","direct_first","1","Ll06rt20","0","23","1","1","3","1","","0","1","0","null","","","<div class = 'row'><div class = 'column'><img src = 'category4/CS10.png' width = '70%;'></div><div class = 'column'><img src = 'uspos/1440.bmp' width = '100%;'></div></div>","null","pos","CS","CS","4","category4/CS10.png","","","","",""
"","html-keyboard-response","11","215297","0.0-6.0-0.0-0.5","30ff3wxhcw","one_one","1","direct_first","1","Ll06rt20","0","23","1","1","3","1","","0","1","0","null","","","<div class = 'row'><div class = 'column'><img src = 'category1/CS3.png' width = '70%;'></div><div class = 'column'><img src = 'usneg/6020.bmp' width = '100%;'></div></div>","null","neg","CS","CS","1","category1/CS3.png","","","","",""
"","html-keyboard-response","12","217811","0.0-6.0-0.0-0.6","30ff3wxhcw","one_one","1","direct_first","1","Ll06rt20","0","23","1","1","3","1","","0","1","0","null","","","<div class = 'row'><div class = 'column'><img src = 'category3/CS6.png' width = '70%;'></div><div class = 'column'><img src = 'uspos/2550.bmp' width = '100%;'></div></div>","null","pos","CS","CS","3","category3/CS6.png","","","","",""
"","html-keyboard-response","13","220325","0.0-6.0-0.0-0.7","30ff3wxhcw","one_one","1","direct_first","1","Ll06rt20","0","23","1","1","3","1","","0","1","0","null","","","<div class = 'row'><div class = 'column'><img src = 'usneg/2205.bmp' width = '100%;'></div><div class = 'column'><img src = 'category2/CS9.png' width = '70%;'></div></div>","null","neg","CS","CS","2","category2/CS9.png","","","","",""
"","html-keyboard-response","14","222842","0.0-6.0-0.0-0.8","30ff3wxhcw","one_one","1","direct_first","1","Ll06rt20","0","23","1","1","3","1","","0","1","0","null","","","<div class = 'row'><div class = 'column'><img src = 'category4/CS10.png' width = '70%;'></div><div class = 'column'><img src = 'uspos/1440.bmp' width = '100%;'></div></div>","null","pos","CS","CS","4","category4/CS10.png","","","","",""
"","html-keyboard-response","15","225364","0.0-6.0-0.0-0.9","30ff3wxhcw","one_one","1","direct_first","1","Ll06rt20","0","23","1","1","3","1","","0","1","0","null","","","<div class = 'row'><div class = 'column'><img src = 'category1/CS3.png' width = '70%;'></div><div class = 'column'><img src = 'usneg/6020.bmp' width = '100%;'></div></div>","null","neg","CS","CS","1","category1/CS3.png","","","","",""
"","html-keyboard-response","16","227890","0.0-6.0-0.0-0.10","30ff3wxhcw","one_one","1","direct_first","1","Ll06rt20","0","23","1","1","3","1","","0","1","0","null","","","<div class = 'row'><div class = 'column'><img src = 'usneg/2205.bmp' width = '100%;'></div><div class = 'column'><img src = 'category2/CS9.png' width = '70%;'></div></div>","null","neg","CS","CS","2","category2/CS9.png","","","","",""
"","html-keyboard-response","17","230419","0.0-6.0-0.0-0.11","30ff3wxhcw","one_one","1","direct_first","1","Ll06rt20","0","23","1","1","3","1","","0","1","0","null","","","<div class = 'row'><div class = 'column'><img src = 'category3/CS6.png' width = '70%;'></div><div class = 'column'><img src = 'uspos/2550.bmp' width = '100%;'></div></div>","null","pos","CS","CS","3","category3/CS6.png","","","","",""
"","html-keyboard-response","18","232947","0.0-6.0-0.0-0.12","30ff3wxhcw","one_one","1","direct_first","1","Ll06rt20","0","23","1","1","3","1","","0","1","0","null","","","<div class = 'row'><div class = 'column'><img src = 'category1/CS3.png' width = '70%;'></div><div class = 'column'><img src = 'usneg/6020.bmp' width = '100%;'></div></div>","null","neg","CS","CS","1","category1/CS3.png","","","","",""
"","html-keyboard-response","19","235475","0.0-6.0-0.0-0.13","30ff3wxhcw","one_one","1","direct_first","1","Ll06rt20","0","23","1","1","3","1","","0","1","0","null","","","<div class = 'row'><div class = 'column'><img src = 'uspos/1440.bmp' width = '100%;'></div><div class = 'column'><img src = 'category4/CS10.png' width = '70%;'></div></div>","null","pos","CS","CS","4","category4/CS10.png","","","","",""
"","html-keyboard-response","20","237999","0.0-6.0-0.0-0.14","30ff3wxhcw","one_one","1","direct_first","1","Ll06rt20","0","23","1","1","3","1","","0","1","0","null","","","<div class = 'row'><div class = 'column'><img src = 'category1/CS3.png' width = '70%;'></div><div class = 'column'><img src = 'usneg/6020.bmp' width = '100%;'></div></div>","null","neg","CS","CS","1","category1/CS3.png","","","","",""
"","html-keyboard-response","21","240522","0.0-6.0-0.0-0.15","30ff3wxhcw","one_one","1","direct_first","1","Ll06rt20","0","23","1","1","3","1","","0","1","0","null","","","<div class = 'row'><div class = 'column'><img src = 'category2/CS9.png' width = '70%;'></div><div class = 'column'><img src = 'usneg/2205.bmp' width = '100%;'></div></div>","null","neg","CS","CS","2","category2/CS9.png","","","","",""
"","html-keyboard-response","22","243043","0.0-6.0-0.0-0.16","30ff3wxhcw","one_one","1","direct_first","1","Ll06rt20","0","23","1","1","3","1","","0","1","0","null","","","<div class = 'row'><div class = 'column'><img src = 'category3/CS6.png' width = '70%;'></div><div class = 'column'><img src = 'uspos/2550.bmp' width = '100%;'></div></div>","null","pos","CS","CS","3","category3/CS6.png","","","","",""
"","html-keyboard-response","23","245568","0.0-6.0-0.0-0.17","30ff3wxhcw","one_one","1","direct_first","1","Ll06rt20","0","23","1","1","3","1","","0","1","0","null","","","<div class = 'row'><div class = 'column'><img src = 'category4/CS10.png' width = '70%;'></div><div class = 'column'><img src = 'uspos/1440.bmp' width = '100%;'></div></div>","null","pos","CS","CS","4","category4/CS10.png","","","","",""
"","html-keyboard-response","24","248086","0.0-6.0-0.0-0.18","30ff3wxhcw","one_one","1","direct_first","1","Ll06rt20","0","23","1","1","3","1","","0","1","0","null","","","<div class = 'row'><div class = 'column'><img src = 'category3/CS6.png' width = '70%;'></div><div class = 'column'><img src = 'uspos/2550.bmp' width = '100%;'></div></div>","null","pos","CS","CS","3","category3/CS6.png","","","","",""
"","html-keyboard-response","25","250603","0.0-6.0-0.0-0.19","30ff3wxhcw","one_one","1","direct_first","1","Ll06rt20","0","23","1","1","3","1","","0","1","0","null","","","<div class = 'row'><div class = 'column'><img src = 'category2/CS9.png' width = '70%;'></div><div class = 'column'><img src = 'usneg/2205.bmp' width = '100%;'></div></div>","null","neg","CS","CS","2","category2/CS9.png","","","","",""
"","survey-html-form","26","258406","0.0-6.0-1.0","30ff3wxhcw","one_one","1","direct_first","1","Ll06rt20","0","23","1","1","3","1","","0","1","0","7294","","{}","","","","","","","","","","","",""
"","html-keyboard-response","27","262419","0.0-6.0-2.0-0.0","30ff3wxhcw","one_one","1","direct_first","1","Ll06rt20","0","23","1","1","3","1","","0","1","0","null","","","<div class = 'row'><div class = 'column'><img src = 'uspos/2550.bmp' width = '100%;'></div><div class = 'column'><img src = 'category3/CS6.png' width = '70%;'></div></div>","null","pos","CS","CS","3","category3/CS6.png","","","","",""
"","html-keyboard-response","28","264946","0.0-6.0-2.0-0.1","30ff3wxhcw","one_one","1","direct_first","1","Ll06rt20","0","23","1","1","3","1","","0","1","0","null","","","<div class = 'row'><div class = 'column'><img src = 'usneg/2205.bmp' width = '100%;'></div><div class = 'column'><img src = 'category2/CS9.png' width = '70%;'></div></div>","null","neg","CS","CS","2","category2/CS9.png","","","","",""
"","html-keyboard-response","29","267460","0.0-6.0-2.0-0.2","30ff3wxhcw","one_one","1","direct_first","1","Ll06rt20","0","23","1","1","3","1","","0","1","0","null","","","<div class = 'row'><div class = 'column'><img src = 'category1/CS3.png' width = '70%;'></div><div class = 'column'><img src = 'usneg/6020.bmp' width = '100%;'></div></div>","null","neg","CS","CS","1","category1/CS3.png","","","","",""
"","html-keyboard-response","30","269988","0.0-6.0-2.0-0.3","30ff3wxhcw","one_one","1","direct_first","1","Ll06rt20","0","23","1","1","3","1","","0","1","0","null","","","<div class = 'row'><div class = 'column'><img src = 'category3/CS6.png' width = '70%;'></div><div class = 'column'><img src = 'uspos/2550.bmp' width = '100%;'></div></div>","null","pos","CS","CS","3","category3/CS6.png","","","","",""
"","html-keyboard-response","31","272499","0.0-6.0-2.0-0.4","30ff3wxhcw","one_one","1","direct_first","1","Ll06rt20","0","23","1","1","3","1","","0","1","0","null","","","<div class = 'row'><div class = 'column'><img src = 'usneg/2205.bmp' width = '100%;'></div><div class = 'column'><img src = 'category2/CS9.png' width = '70%;'></div></div>","null","neg","CS","CS","2","category2/CS9.png","","","","",""
"","html-keyboard-response","32","275023","0.0-6.0-2.0-0.5","30ff3wxhcw","one_one","1","direct_first","1","Ll06rt20","0","23","1","1","3","1","","0","1","0","null","","","<div class = 'row'><div class = 'column'><img src = 'category4/CS10.png' width = '70%;'></div><div class = 'column'><img src = 'uspos/1440.bmp' width = '100%;'></div></div>","null","pos","CS","CS","4","category4/CS10.png","","","","",""
"","html-keyboard-response","33","277550","0.0-6.0-2.0-0.6","30ff3wxhcw","one_one","1","direct_first","1","Ll06rt20","0","23","1","1","3","1","","0","1","0","null","","","<div class = 'row'><div class = 'column'><img src = 'usneg/2205.bmp' width = '100%;'></div><div class = 'column'><img src = 'category2/CS9.png' width = '70%;'></div></div>","null","neg","CS","CS","2","category2/CS9.png","","","","",""
"","html-keyboard-response","34","280065","0.0-6.0-2.0-0.7","30ff3wxhcw","one_one","1","direct_first","1","Ll06rt20","0","23","1","1","3","1","","0","1","0","null","","","<div class = 'row'><div class = 'column'><img src = 'category1/CS3.png' width = '70%;'></div><div class = 'column'><img src = 'usneg/6020.bmp' width = '100%;'></div></div>","null","neg","CS","CS","1","category1/CS3.png","","","","",""
"","html-keyboard-response","35","282591","0.0-6.0-2.0-0.8","30ff3wxhcw","one_one","1","direct_first","1","Ll06rt20","0","23","1","1","3","1","","0","1","0","null","","","<div class = 'row'><div class = 'column'><img src = 'category3/CS6.png' width = '70%;'></div><div class = 'column'><img src = 'uspos/2550.bmp' width = '100%;'></div></div>","null","pos","CS","CS","3","category3/CS6.png","","","","",""
"","html-keyboard-response","36","285113","0.0-6.0-2.0-0.9","30ff3wxhcw","one_one","1","direct_first","1","Ll06rt20","0","23","1","1","3","1","","0","1","0","null","","","<div class = 'row'><div class = 'column'><img src = 'category2/CS9.png' width = '70%;'></div><div class = 'column'><img src = 'usneg/2205.bmp' width = '100%;'></div></div>","null","neg","CS","CS","2","category2/CS9.png","","","","",""
"","html-keyboard-response","37","287631","0.0-6.0-2.0-0.10","30ff3wxhcw","one_one","1","direct_first","1","Ll06rt20","0","23","1","1","3","1","","0","1","0","null","","","<div class = 'row'><div class = 'column'><img src = 'uspos/1440.bmp' width = '100%;'></div><div class = 'column'><img src = 'category4/CS10.png' width = '70%;'></div></div>","null","pos","CS","CS","4","category4/CS10.png","","","","",""
"","html-keyboard-response","38","290138","0.0-6.0-2.0-0.11","30ff3wxhcw","one_one","1","direct_first","1","Ll06rt20","0","23","1","1","3","1","","0","1","0","null","","","<div class = 'row'><div class = 'column'><img src = 'category1/CS3.png' width = '70%;'></div><div class = 'column'><img src = 'usneg/6020.bmp' width = '100%;'></div></div>","null","neg","CS","CS","1","category1/CS3.png","","","","",""
"","html-keyboard-response","39","292653","0.0-6.0-2.0-0.12","30ff3wxhcw","one_one","1","direct_first","1","Ll06rt20","0","23","1","1","3","1","","0","1","0","null","","","<div class = 'row'><div class = 'column'><img src = 'category3/CS6.png' width = '70%;'></div><div class = 'column'><img src = 'uspos/2550.bmp' width = '100%;'></div></div>","null","pos","CS","CS","3","category3/CS6.png","","","","",""
"","html-keyboard-response","40","295176","0.0-6.0-2.0-0.13","30ff3wxhcw","one_one","1","direct_first","1","Ll06rt20","0","23","1","1","3","1","","0","1","0","null","","","<div class = 'row'><div class = 'column'><img src = 'usneg/6020.bmp' width = '100%;'></div><div class = 'column'><img src = 'category1/CS3.png' width = '70%;'></div></div>","null","neg","CS","CS","1","category1/CS3.png","","","","",""
"","html-keyboard-response","41","297700","0.0-6.0-2.0-0.14","30ff3wxhcw","one_one","1","direct_first","1","Ll06rt20","0","23","1","1","3","1","","0","1","0","null","","","<div class = 'row'><div class = 'column'><img src = 'uspos/1440.bmp' width = '100%;'></div><div class = 'column'><img src = 'category4/CS10.png' width = '70%;'></div></div>","null","pos","CS","CS","4","category4/CS10.png","","","","",""
"","html-keyboard-response","42","300228","0.0-6.0-2.0-0.15","30ff3wxhcw","one_one","1","direct_first","1","Ll06rt20","0","23","1","1","3","1","","0","1","0","null","","","<div class = 'row'><div class = 'column'><img src = 'category2/CS9.png' width = '70%;'></div><div class = 'column'><img src = 'usneg/2205.bmp' width = '100%;'></div></div>","null","neg","CS","CS","2","category2/CS9.png","","","","",""
"","html-keyboard-response","43","302754","0.0-6.0-2.0-0.16","30ff3wxhcw","one_one","1","direct_first","1","Ll06rt20","0","23","1","1","3","1","","0","1","0","null","","","<div class = 'row'><div class = 'column'><img src = 'category4/CS10.png' width = '70%;'></div><div class = 'column'><img src = 'uspos/1440.bmp' width = '100%;'></div></div>","null","pos","CS","CS","4","category4/CS10.png","","","","",""
"","html-keyboard-response","44","305275","0.0-6.0-2.0-0.17","30ff3wxhcw","one_one","1","direct_first","1","Ll06rt20","0","23","1","1","3","1","","0","1","0","null","","","<div class = 'row'><div class = 'column'><img src = 'usneg/6020.bmp' width = '100%;'></div><div class = 'column'><img src = 'category1/CS3.png' width = '70%;'></div></div>","null","neg","CS","CS","1","category1/CS3.png","","","","",""
"","html-keyboard-response","45","307794","0.0-6.0-2.0-0.18","30ff3wxhcw","one_one","1","direct_first","1","Ll06rt20","0","23","1","1","3","1","","0","1","0","null","","","<div class = 'row'><div class = 'column'><img src = 'category4/CS10.png' width = '70%;'></div><div class = 'column'><img src = 'uspos/1440.bmp' width = '100%;'></div></div>","null","pos","CS","CS","4","category4/CS10.png","","","","",""
"","html-keyboard-response","46","310307","0.0-6.0-2.0-0.19","30ff3wxhcw","one_one","1","direct_first","1","Ll06rt20","0","23","1","1","3","1","","0","1","0","null","","","<div class = 'row'><div class = 'column'><img src = 'uspos/2550.bmp' width = '100%;'></div><div class = 'column'><img src = 'category3/CS6.png' width = '70%;'></div></div>","null","pos","CS","CS","3","category3/CS6.png","","","","",""
"","survey-html-form","47","313809","0.0-6.0-3.0","30ff3wxhcw","one_one","1","direct_first","1","Ll06rt20","0","23","1","1","3","1","","0","1","0","2991","","{}","","","","","","","","","","","",""
"","html-keyboard-response","48","317832","0.0-6.0-4.0-0.0","30ff3wxhcw","one_one","1","direct_first","1","Ll06rt20","0","23","1","1","3","1","","0","1","0","null","","","<div class = 'row'><div class = 'column'><img src = 'category4/CS10.png' width = '70%;'></div><div class = 'column'><img src = 'uspos/1440.bmp' width = '100%;'></div></div>","null","pos","CS","CS","4","category4/CS10.png","","","","",""
"","html-keyboard-response","49","320347","0.0-6.0-4.0-0.1","30ff3wxhcw","one_one","1","direct_first","1","Ll06rt20","0","23","1","1","3","1","","0","1","0","null","","","<div class = 'row'><div class = 'column'><img src = 'usneg/2205.bmp' width = '100%;'></div><div class = 'column'><img src = 'category2/CS9.png' width = '70%;'></div></div>","null","neg","CS","CS","2","category2/CS9.png","","","","",""
"","html-keyboard-response","50","322864","0.0-6.0-4.0-0.2","30ff3wxhcw","one_one","1","direct_first","1","Ll06rt20","0","23","1","1","3","1","","0","1","0","null","","","<div class = 'row'><div class = 'column'><img src = 'uspos/2550.bmp' width = '100%;'></div><div class = 'column'><img src = 'category3/CS6.png' width = '70%;'></div></div>","null","pos","CS","CS","3","category3/CS6.png","","","","",""
"","html-keyboard-response","51","325386","0.0-6.0-4.0-0.3","30ff3wxhcw","one_one","1","direct_first","1","Ll06rt20","0","23","1","1","3","1","","0","1","0","null","","","<div class = 'row'><div class = 'column'><img src = 'category1/CS3.png' width = '70%;'></div><div class = 'column'><img src = 'usneg/6020.bmp' width = '100%;'></div></div>","null","neg","CS","CS","1","category1/CS3.png","","","","",""
"","html-keyboard-response","52","327900","0.0-6.0-4.0-0.4","30ff3wxhcw","one_one","1","direct_first","1","Ll06rt20","0","23","1","1","3","1","","0","1","0","null","","","<div class = 'row'><div class = 'column'><img src = 'usneg/2205.bmp' width = '100%;'></div><div class = 'column'><img src = 'category2/CS9.png' width = '70%;'></div></div>","null","neg","CS","CS","2","category2/CS9.png","","","","",""
"","html-keyboard-response","53","330415","0.0-6.0-4.0-0.5","30ff3wxhcw","one_one","1","direct_first","1","Ll06rt20","0","23","1","1","3","1","","0","1","0","null","","","<div class = 'row'><div class = 'column'><img src = 'uspos/1440.bmp' width = '100%;'></div><div class = 'column'><img src = 'category4/CS10.png' width = '70%;'></div></div>","null","pos","CS","CS","4","category4/CS10.png","","","","",""
"","html-keyboard-response","54","332938","0.0-6.0-4.0-0.6","30ff3wxhcw","one_one","1","direct_first","1","Ll06rt20","0","23","1","1","3","1","","0","1","0","null","","","<div class = 'row'><div class = 'column'><img src = 'category1/CS3.png' width = '70%;'></div><div class = 'column'><img src = 'usneg/6020.bmp' width = '100%;'></div></div>","null","neg","CS","CS","1","category1/CS3.png","","","","",""
"","html-keyboard-response","55","335453","0.0-6.0-4.0-0.7","30ff3wxhcw","one_one","1","direct_first","1","Ll06rt20","0","23","1","1","3","1","","0","1","0","null","","","<div class = 'row'><div class = 'column'><img src = 'category4/CS10.png' width = '70%;'></div><div class = 'column'><img src = 'uspos/1440.bmp' width = '100%;'></div></div>","null","pos","CS","CS","4","category4/CS10.png","","","","",""
"","html-keyboard-response","56","337976","0.0-6.0-4.0-0.8","30ff3wxhcw","one_one","1","direct_first","1","Ll06rt20","0","23","1","1","3","1","","0","1","0","null","","","<div class = 'row'><div class = 'column'><img src = 'category2/CS9.png' width = '70%;'></div><div class = 'column'><img src = 'usneg/2205.bmp' width = '100%;'></div></div>","null","neg","CS","CS","2","category2/CS9.png","","","","",""
"","html-keyboard-response","57","340487","0.0-6.0-4.0-0.9","30ff3wxhcw","one_one","1","direct_first","1","Ll06rt20","0","23","1","1","3","1","","0","1","0","null","","","<div class = 'row'><div class = 'column'><img src = 'category4/CS10.png' width = '70%;'></div><div class = 'column'><img src = 'uspos/1440.bmp' width = '100%;'></div></div>","null","pos","CS","CS","4","category4/CS10.png","","","","",""
"","html-keyboard-response","58","343001","0.0-6.0-4.0-0.10","30ff3wxhcw","one_one","1","direct_first","1","Ll06rt20","0","23","1","1","3","1","","0","1","0","null","","","<div class = 'row'><div class = 'column'><img src = 'category3/CS6.png' width = '70%;'></div><div class = 'column'><img src = 'uspos/2550.bmp' width = '100%;'></div></div>","null","pos","CS","CS","3","category3/CS6.png","","","","",""
"","html-keyboard-response","59","345525","0.0-6.0-4.0-0.11","30ff3wxhcw","one_one","1","direct_first","1","Ll06rt20","0","23","1","1","3","1","","0","1","0","null","","","<div class = 'row'><div class = 'column'><img src = 'usneg/6020.bmp' width = '100%;'></div><div class = 'column'><img src = 'category1/CS3.png' width = '70%;'></div></div>","null","neg","CS","CS","1","category1/CS3.png","","","","",""
"","html-keyboard-response","60","348047","0.0-6.0-4.0-0.12","30ff3wxhcw","one_one","1","direct_first","1","Ll06rt20","0","23","1","1","3","1","","0","1","0","null","","","<div class = 'row'><div class = 'column'><img src = 'usneg/2205.bmp' width = '100%;'></div><div class = 'column'><img src = 'category2/CS9.png' width = '70%;'></div></div>","null","neg","CS","CS","2","category2/CS9.png","","","","",""
"","html-keyboard-response","61","350568","0.0-6.0-4.0-0.13","30ff3wxhcw","one_one","1","direct_first","1","Ll06rt20","0","23","1","1","3","1","","0","1","0","null","","","<div class = 'row'><div class = 'column'><img src = 'uspos/2550.bmp' width = '100%;'></div><div class = 'column'><img src = 'category3/CS6.png' width = '70%;'></div></div>","null","pos","CS","CS","3","category3/CS6.png","","","","",""
"","html-keyboard-response","62","353090","0.0-6.0-4.0-0.14","30ff3wxhcw","one_one","1","direct_first","1","Ll06rt20","0","23","1","1","3","1","","0","1","0","null","","","<div class = 'row'><div class = 'column'><img src = 'category1/CS3.png' width = '70%;'></div><div class = 'column'><img src = 'usneg/6020.bmp' width = '100%;'></div></div>","null","neg","CS","CS","1","category1/CS3.png","","","","",""
"","html-keyboard-response","63","355609","0.0-6.0-4.0-0.15","30ff3wxhcw","one_one","1","direct_first","1","Ll06rt20","0","23","1","1","3","1","","0","1","0","null","","","<div class = 'row'><div class = 'column'><img src = 'category4/CS10.png' width = '70%;'></div><div class = 'column'><img src = 'uspos/1440.bmp' width = '100%;'></div></div>","null","pos","CS","CS","4","category4/CS10.png","","","","",""
"","html-keyboard-response","64","358125","0.0-6.0-4.0-0.16","30ff3wxhcw","one_one","1","direct_first","1","Ll06rt20","0","23","1","1","3","1","","0","1","0","null","","","<div class = 'row'><div class = 'column'><img src = 'category2/CS9.png' width = '70%;'></div><div class = 'column'><img src = 'usneg/2205.bmp' width = '100%;'></div></div>","null","neg","CS","CS","2","category2/CS9.png","","","","",""
"","html-keyboard-response","65","360639","0.0-6.0-4.0-0.17","30ff3wxhcw","one_one","1","direct_first","1","Ll06rt20","0","23","1","1","3","1","","0","1","0","null","","","<div class = 'row'><div class = 'column'><img src = 'category3/CS6.png' width = '70%;'></div><div class = 'column'><img src = 'uspos/2550.bmp' width = '100%;'></div></div>","null","pos","CS","CS","3","category3/CS6.png","","","","",""
"","html-keyboard-response","66","363157","0.0-6.0-4.0-0.18","30ff3wxhcw","one_one","1","direct_first","1","Ll06rt20","0","23","1","1","3","1","","0","1","0","null","","","<div class = 'row'><div class = 'column'><img src = 'usneg/6020.bmp' width = '100%;'></div><div class = 'column'><img src = 'category1/CS3.png' width = '70%;'></div></div>","null","neg","CS","CS","1","category1/CS3.png","","","","",""
"","html-keyboard-response","67","365677","0.0-6.0-4.0-0.19","30ff3wxhcw","one_one","1","direct_first","1","Ll06rt20","0","23","1","1","3","1","","0","1","0","null","","","<div class = 'row'><div class = 'column'><img src = 'uspos/2550.bmp' width = '100%;'></div><div class = 'column'><img src = 'category3/CS6.png' width = '70%;'></div></div>","null","pos","CS","CS","3","category3/CS6.png","","","","",""
"","survey-html-form","68","374755","0.0-6.0-5.0","30ff3wxhcw","one_one","1","direct_first","1","Ll06rt20","0","23","1","1","3","1","","0","1","0","8566","","{}","","","","","","","","","","","",""
"","html-keyboard-response","69","378763","0.0-6.0-6.0-0.0","30ff3wxhcw","one_one","1","direct_first","1","Ll06rt20","0","23","1","1","3","1","","0","1","0","null","","","<div class = 'row'><div class = 'column'><img src = 'usneg/6020.bmp' width = '100%;'></div><div class = 'column'><img src = 'category1/CS3.png' width = '70%;'></div></div>","null","neg","CS","CS","1","category1/CS3.png","","","","",""
"","html-keyboard-response","70","381286","0.0-6.0-6.0-0.1","30ff3wxhcw","one_one","1","direct_first","1","Ll06rt20","0","23","1","1","3","1","","0","1","0","null","","","<div class = 'row'><div class = 'column'><img src = 'category3/CS6.png' width = '70%;'></div><div class = 'column'><img src = 'uspos/2550.bmp' width = '100%;'></div></div>","null","pos","CS","CS","3","category3/CS6.png","","","","",""
"","html-keyboard-response","71","383807","0.0-6.0-6.0-0.2","30ff3wxhcw","one_one","1","direct_first","1","Ll06rt20","0","23","1","1","3","1","","0","1","0","null","","","<div class = 'row'><div class = 'column'><img src = 'usneg/2205.bmp' width = '100%;'></div><div class = 'column'><img src = 'category2/CS9.png' width = '70%;'></div></div>","null","neg","CS","CS","2","category2/CS9.png","","","","",""
"","html-keyboard-response","72","386327","0.0-6.0-6.0-0.3","30ff3wxhcw","one_one","1","direct_first","1","Ll06rt20","0","23","1","1","3","1","","0","1","0","null","","","<div class = 'row'><div class = 'column'><img src = 'category1/CS3.png' width = '70%;'></div><div class = 'column'><img src = 'usneg/6020.bmp' width = '100%;'></div></div>","null","neg","CS","CS","1","category1/CS3.png","","","","",""
"","html-keyboard-response","73","388856","0.0-6.0-6.0-0.4","30ff3wxhcw","one_one","1","direct_first","1","Ll06rt20","0","23","1","1","3","1","","0","1","0","null","","","<div class = 'row'><div class = 'column'><img src = 'uspos/2550.bmp' width = '100%;'></div><div class = 'column'><img src = 'category3/CS6.png' width = '70%;'></div></div>","null","pos","CS","CS","3","category3/CS6.png","","","","",""
"","html-keyboard-response","74","391378","0.0-6.0-6.0-0.5","30ff3wxhcw","one_one","1","direct_first","1","Ll06rt20","0","23","1","1","3","1","","0","1","0","null","","","<div class = 'row'><div class = 'column'><img src = 'category4/CS10.png' width = '70%;'></div><div class = 'column'><img src = 'uspos/1440.bmp' width = '100%;'></div></div>","null","pos","CS","CS","4","category4/CS10.png","","","","",""
"","html-keyboard-response","75","393887","0.0-6.0-6.0-0.6","30ff3wxhcw","one_one","1","direct_first","1","Ll06rt20","0","23","1","1","3","1","","0","1","0","null","","","<div class = 'row'><div class = 'column'><img src = 'uspos/2550.bmp' width = '100%;'></div><div class = 'column'><img src = 'category3/CS6.png' width = '70%;'></div></div>","null","pos","CS","CS","3","category3/CS6.png","","","","",""
"","html-keyboard-response","76","396408","0.0-6.0-6.0-0.7","30ff3wxhcw","one_one","1","direct_first","1","Ll06rt20","0","23","1","1","3","1","","0","1","0","null","","","<div class = 'row'><div class = 'column'><img src = 'usneg/6020.bmp' width = '100%;'></div><div class = 'column'><img src = 'category1/CS3.png' width = '70%;'></div></div>","null","neg","CS","CS","1","category1/CS3.png","","","","",""
"","html-keyboard-response","77","398930","0.0-6.0-6.0-0.8","30ff3wxhcw","one_one","1","direct_first","1","Ll06rt20","0","23","1","1","3","1","","0","1","0","null","","","<div class = 'row'><div class = 'column'><img src = 'category4/CS10.png' width = '70%;'></div><div class = 'column'><img src = 'uspos/1440.bmp' width = '100%;'></div></div>","null","pos","CS","CS","4","category4/CS10.png","","","","",""
"","html-keyboard-response","78","401448","0.0-6.0-6.0-0.9","30ff3wxhcw","one_one","1","direct_first","1","Ll06rt20","0","23","1","1","3","1","","0","1","0","null","","","<div class = 'row'><div class = 'column'><img src = 'usneg/6020.bmp' width = '100%;'></div><div class = 'column'><img src = 'category1/CS3.png' width = '70%;'></div></div>","null","neg","CS","CS","1","category1/CS3.png","","","","",""
"","html-keyboard-response","79","403964","0.0-6.0-6.0-0.10","30ff3wxhcw","one_one","1","direct_first","1","Ll06rt20","0","23","1","1","3","1","","0","1","0","null","","","<div class = 'row'><div class = 'column'><img src = 'uspos/1440.bmp' width = '100%;'></div><div class = 'column'><img src = 'category4/CS10.png' width = '70%;'></div></div>","null","pos","CS","CS","4","category4/CS10.png","","","","",""
"","html-keyboard-response","80","406485","0.0-6.0-6.0-0.11","30ff3wxhcw","one_one","1","direct_first","1","Ll06rt20","0","23","1","1","3","1","","0","1","0","null","","","<div class = 'row'><div class = 'column'><img src = 'usneg/2205.bmp' width = '100%;'></div><div class = 'column'><img src = 'category2/CS9.png' width = '70%;'></div></div>","null","neg","CS","CS","2","category2/CS9.png","","","","",""
"","html-keyboard-response","81","408999","0.0-6.0-6.0-0.12","30ff3wxhcw","one_one","1","direct_first","1","Ll06rt20","0","23","1","1","3","1","","0","1","0","null","","","<div class = 'row'><div class = 'column'><img src = 'usneg/6020.bmp' width = '100%;'></div><div class = 'column'><img src = 'category1/CS3.png' width = '70%;'></div></div>","null","neg","CS","CS","1","category1/CS3.png","","","","",""
"","html-keyboard-response","82","411522","0.0-6.0-6.0-0.13","30ff3wxhcw","one_one","1","direct_first","1","Ll06rt20","0","23","1","1","3","1","","0","1","0","null","","","<div class = 'row'><div class = 'column'><img src = 'category3/CS6.png' width = '70%;'></div><div class = 'column'><img src = 'uspos/2550.bmp' width = '100%;'></div></div>","null","pos","CS","CS","3","category3/CS6.png","","","","",""
"","html-keyboard-response","83","414045","0.0-6.0-6.0-0.14","30ff3wxhcw","one_one","1","direct_first","1","Ll06rt20","0","23","1","1","3","1","","0","1","0","null","","","<div class = 'row'><div class = 'column'><img src = 'uspos/1440.bmp' width = '100%;'></div><div class = 'column'><img src = 'category4/CS10.png' width = '70%;'></div></div>","null","pos","CS","CS","4","category4/CS10.png","","","","",""
"","html-keyboard-response","84","416568","0.0-6.0-6.0-0.15","30ff3wxhcw","one_one","1","direct_first","1","Ll06rt20","0","23","1","1","3","1","","0","1","0","null","","","<div class = 'row'><div class = 'column'><img src = 'category2/CS9.png' width = '70%;'></div><div class = 'column'><img src = 'usneg/2205.bmp' width = '100%;'></div></div>","null","neg","CS","CS","2","category2/CS9.png","","","","",""
"","html-keyboard-response","85","419095","0.0-6.0-6.0-0.16","30ff3wxhcw","one_one","1","direct_first","1","Ll06rt20","0","23","1","1","3","1","","0","1","0","null","","","<div class = 'row'><div class = 'column'><img src = 'category3/CS6.png' width = '70%;'></div><div class = 'column'><img src = 'uspos/2550.bmp' width = '100%;'></div></div>","null","pos","CS","CS","3","category3/CS6.png","","","","",""
"","html-keyboard-response","86","421618","0.0-6.0-6.0-0.17","30ff3wxhcw","one_one","1","direct_first","1","Ll06rt20","0","23","1","1","3","1","","0","1","0","null","","","<div class = 'row'><div class = 'column'><img src = 'usneg/2205.bmp' width = '100%;'></div><div class = 'column'><img src = 'category2/CS9.png' width = '70%;'></div></div>","null","neg","CS","CS","2","category2/CS9.png","","","","",""
"","html-keyboard-response","87","424139","0.0-6.0-6.0-0.18","30ff3wxhcw","one_one","1","direct_first","1","Ll06rt20","0","23","1","1","3","1","","0","1","0","null","","","<div class = 'row'><div class = 'column'><img src = 'uspos/1440.bmp' width = '100%;'></div><div class = 'column'><img src = 'category4/CS10.png' width = '70%;'></div></div>","null","pos","CS","CS","4","category4/CS10.png","","","","",""
"","html-keyboard-response","88","426663","0.0-6.0-6.0-0.19","30ff3wxhcw","one_one","1","direct_first","1","Ll06rt20","0","23","1","1","3","1","","0","1","0","null","","","<div class = 'row'><div class = 'column'><img src = 'usneg/2205.bmp' width = '100%;'></div><div class = 'column'><img src = 'category2/CS9.png' width = '70%;'></div></div>","null","neg","CS","CS","2","category2/CS9.png","","","","",""
"","survey-html-form","89","440807","0.0-7.0","30ff3wxhcw","one_one","1","direct_first","1","Ll06rt20","0","23","1","1","3","1","","0","1","0","13636","","{}","","","","","","","","","","","",""
"","image-slider-response","90","455169","0.0-8.0-0.0","30ff3wxhcw","one_one","1","direct_first","1","Ll06rt20","0","23","1","1","3","1","","0","1","0","12354","","","","","neg","GS","GSold","2","category2/CS5.png","50","targets/21.png","direct","",""
"","image-slider-response","91","465385","0.0-8.0-0.1","30ff3wxhcw","one_one","1","direct_first","1","Ll06rt20","0","23","1","1","3","1","","0","1","0","10213","","","","","pos","GS","GSold","3","category3/CS8.png","14","targets/15.png","direct","",""
"","image-slider-response","92","472067","0.0-8.0-0.2","30ff3wxhcw","one_one","1","direct_first","1","Ll06rt20","0","23","1","1","3","1","","0","1","0","6680","","","","","pos","GS","GSnew","3","category3/GS2.png","14","targets/32.png","direct","",""
"","image-slider-response","93","478426","0.0-8.0-0.3","30ff3wxhcw","one_one","1","direct_first","1","Ll06rt20","0","23","1","1","3","1","","0","1","0","6358","","","","","neg","GS","GSnew","2","category2/GS3.png","40","targets/40.png","direct","",""
"","image-slider-response","94","482597","0.0-8.0-0.4","30ff3wxhcw","one_one","1","direct_first","1","Ll06rt20","0","23","1","1","3","1","","0","1","0","4169","","","","","pos","CS","CS","3","category3/CS6.png","88","targets/9.png","direct","",""
"","image-slider-response","95","486347","0.0-8.0-0.5","30ff3wxhcw","one_one","1","direct_first","1","Ll06rt20","0","23","1","1","3","1","","0","1","0","3748","","","","","neg","GS","GSold","1","category1/CS2.png","-18","targets/45.png","direct","",""
"","image-slider-response","96","491462","0.0-8.0-0.6","30ff3wxhcw","one_one","1","direct_first","1","Ll06rt20","0","23","1","1","3","1","","0","1","0","5115","","","","","neg","GS","GSold","1","category1/CS4.png","-26","targets/26.png","direct","",""
"","image-slider-response","97","495309","0.0-8.0-0.7","30ff3wxhcw","one_one","1","direct_first","1","Ll06rt20","0","23","1","1","3","1","","0","1","0","3846","","","","","neg","GS","GSnew","2","category2/GS1.png","31","targets/23.png","direct","",""
"","image-slider-response","98","499307","0.0-8.0-0.8","30ff3wxhcw","one_one","1","direct_first","1","Ll06rt20","0","23","1","1","3","1","","0","1","0","3996","","","","","pos","GS","abstract","3","category3/wang.png","15","targets/18.png","direct","",""
"","image-slider-response","99","504235","0.0-8.0-0.9","30ff3wxhcw","one_one","1","direct_first","1","Ll06rt20","0","23","1","1","3","1","","0","1","0","4927","","","","","neg","CS","CS","1","category1/CS3.png","25","targets/5.png","direct","",""
"","image-slider-response","100","507872","0.0-8.0-0.10","30ff3wxhcw","one_one","1","direct_first","1","Ll06rt20","0","23","1","1","3","1","","0","1","0","3636","","","","","pos","GS","GSold","3","category3/CS1.png","-10","targets/47.png","direct","",""
"","image-slider-response","101","511097","0.0-8.0-0.11","30ff3wxhcw","one_one","1","direct_first","1","Ll06rt20","0","23","1","1","3","1","","0","1","0","3223","","","","","pos","GS","abstract","4","category4/lin.png","25","targets/3.png","direct","",""
"","image-slider-response","102","514997","0.0-8.0-0.12","30ff3wxhcw","one_one","1","direct_first","1","Ll06rt20","0","23","1","1","3","1","","0","1","0","3898","","","","","pos","GS","GSnew","3","category3/GS1.png","-11","targets/42.png","direct","",""
"","image-slider-response","103","519309","0.0-8.0-0.13","30ff3wxhcw","one_one","1","direct_first","1","Ll06rt20","0","23","1","1","3","1","","0","1","0","4311","","","","","pos","GS","GSold","4","category4/CS8.png","-4","targets/19.png","direct","",""
"","image-slider-response","104","522092","0.0-8.0-0.14","30ff3wxhcw","one_one","1","direct_first","1","Ll06rt20","0","23","1","1","3","1","","0","1","0","2781","","","","","pos","GS","GSold","4","category4/CS6.png","59","targets/29.png","direct","",""
"","image-slider-response","105","525204","0.0-8.0-0.15","30ff3wxhcw","one_one","1","direct_first","1","Ll06rt20","0","23","1","1","3","1","","0","1","0","3112","","","","","pos","GS","GSnew","4","category4/GS2.png","-24","targets/27.png","direct","",""
"","image-slider-response","106","528497","0.0-8.0-0.16","30ff3wxhcw","one_one","1","direct_first","1","Ll06rt20","0","23","1","1","3","1","","0","1","0","3292","","","","","neg","GS","GSold","1","category1/CS5.png","25","targets/11.png","direct","",""
"","image-slider-response","107","530852","0.0-8.0-0.17","30ff3wxhcw","one_one","1","direct_first","1","Ll06rt20","0","23","1","1","3","1","","0","1","0","2354","","","","","pos","GS","GSnew","4","category4/GS3.png","-24","targets/12.png","direct","",""
"","image-slider-response","108","533515","0.0-8.0-0.18","30ff3wxhcw","one_one","1","direct_first","1","Ll06rt20","0","23","1","1","3","1","","0","1","0","2661","","","","","neg","GS","GSnew","2","category2/GS2.png","38","targets/13.png","direct","",""
"","image-slider-response","109","536305","0.0-8.0-0.19","30ff3wxhcw","one_one","1","direct_first","1","Ll06rt20","0","23","1","1","3","1","","0","1","0","2788","","","","","pos","GS","GSnew","3","category3/GS3.png","-7","targets/6.png","direct","",""
"","image-slider-response","110","539289","0.0-8.0-0.20","30ff3wxhcw","one_one","1","direct_first","1","Ll06rt20","0","23","1","1","3","1","","0","1","0","2984","","","","","neg","GS","GSnew","1","category1/GS1.png","49","targets/4.png","direct","",""
"","image-slider-response","111","541660","0.0-8.0-0.21","30ff3wxhcw","one_one","1","direct_first","1","Ll06rt20","0","23","1","1","3","1","","0","1","0","2368","","","","","neg","GS","abstract","1","category1/ma.png","42","targets/20.png","direct","",""
"","image-slider-response","112","544622","0.0-8.0-0.22","30ff3wxhcw","one_one","1","direct_first","1","Ll06rt20","0","23","1","1","3","1","","0","1","0","2962","","","","","neg","CS","CS","2","category2/CS9.png","-32","targets/39.png","direct","",""
"","image-slider-response","113","547427","0.0-8.0-0.23","30ff3wxhcw","one_one","1","direct_first","1","Ll06rt20","0","23","1","1","3","1","","0","1","0","2804","","","","","neg","GS","GSnew","1","category1/GS3.png","-47","targets/36.png","direct","",""
"","image-slider-response","114","550713","0.0-8.0-0.24","30ff3wxhcw","one_one","1","direct_first","1","Ll06rt20","0","23","1","1","3","1","","0","1","0","3284","","","","","neg","GS","GSold","2","category2/CS3.png","-19","targets/30.png","direct","",""
"","image-slider-response","115","553090","0.0-8.0-0.25","30ff3wxhcw","one_one","1","direct_first","1","Ll06rt20","0","23","1","1","3","1","","0","1","0","2376","","","","","neg","GS","abstract","2","category2/men.png","15","targets/48.png","direct","",""
"","image-slider-response","116","556089","0.0-8.0-0.26","30ff3wxhcw","one_one","1","direct_first","1","Ll06rt20","0","23","1","1","3","1","","0","1","0","3000","","","","","pos","GS","GSnew","4","category4/GS1.png","28","targets/46.png","direct","",""
"","image-slider-response","117","560230","0.0-8.0-0.27","30ff3wxhcw","one_one","1","direct_first","1","Ll06rt20","0","23","1","1","3","1","","0","1","0","4138","","","","","pos","CS","CS","4","category4/CS10.png","81","targets/28.png","direct","",""
"","image-slider-response","118","563274","0.0-8.0-0.28","30ff3wxhcw","one_one","1","direct_first","1","Ll06rt20","0","23","1","1","3","1","","0","1","0","3044","","","","","neg","GS","GSold","2","category2/CS6.png","-10","targets/2.png","direct","",""
"","image-slider-response","119","565532","0.0-8.0-0.29","30ff3wxhcw","one_one","1","direct_first","1","Ll06rt20","0","23","1","1","3","1","","0","1","0","2256","","","","","pos","GS","GSold","4","category4/CS5.png","38","targets/24.png","direct","",""
"","image-slider-response","120","567910","0.0-8.0-0.30","30ff3wxhcw","one_one","1","direct_first","1","Ll06rt20","0","23","1","1","3","1","","0","1","0","2376","","","","","pos","GS","GSold","3","category3/CS3.png","-13","targets/25.png","direct","",""
"","image-slider-response","121","570745","0.0-8.0-0.31","30ff3wxhcw","one_one","1","direct_first","1","Ll06rt20","0","23","1","1","3","1","","0","1","0","2833","","","","","neg","GS","GSnew","1","category1/GS2.png","-7","targets/16.png","direct","",""
"","html-keyboard-response","122","597187","0.0-9.0","30ff3wxhcw","one_one","1","direct_first","1","Ll06rt20","0","23","1","1","3","1","","0","1","0","26441","","","<p>Sie sehen nun die chinesischen Zeichen nur ganz kurz. Danach sehen Sie die jeweilige Aussprache der Zeichen als Silbe auf dem Bildschrim. Ihre Aufgabe ist es, für jede Silbe anzugeben, ob diese etwas angenehmes, oder unangenehmes bedeuten könnte. Verlassen Sie sich hier vor allem auf Ihre Intuition.<br><br>Die Zeichen werden nur zur Orientierung dargestellt, beachten Sie sie deshalb nicht. Konzentrieren Sie sich vor allem auf die Silben. <br>Reagieren Sie mit folgenden zwei Tasten: <br><br><b>'D' </b> wenn die Silbe etwas <b>unangenehmes</b> bedeuten könnte. <br><b>'K'</b> wenn die Silbe etwas <b>angenehmes</b> bedeuten könnte. <br><br>Bitte legen Sie nun den Zeigefinger der linken Hand auf die Taste 'D' und den Zeigefinger der rechten Hand auf die Taste 'K'. <br>Reagieren Sie auf jede Silbe so schnell wie möglich. Uns interessiert Ihre spontane Reaktion. <br> <br> <br>Drücken Sie 'D' oder 'K', um die nächste Aufgabe zu starten. </p>","68","","","","","","","","","",""
"","html-keyboard-response","123","600199","0.0-10.0-0.0","30ff3wxhcw","one_one","1","direct_first","1","Ll06rt20","0","23","1","1","3","1","","0","1","0","null","","","<div style=""font-size:60px;"">+</div>","null","","","","","","","","","",""
"","html-keyboard-response","124","600291","0.0-10.0-1.0","30ff3wxhcw","one_one","1","direct_first","1","Ll06rt20","0","23","1","1","3","1","","0","1","0","null","","","<img src = 'category2/CS3.png' width = '100%;'>","null","","","","","","","","","",""
"","html-keyboard-response","125","600570","0.0-10.0-2.0","30ff3wxhcw","one_one","1","direct_first","1","Ll06rt20","0","23","1","1","3","1","","0","1","0","null","","","<img src = 'targets/30.png' width = '100%;'>","null","","","","","","","","","",""
"","html-keyboard-response","126","602777","0.0-10.0-3.0","30ff3wxhcw","one_one","1","direct_first","1","Ll06rt20","0","23","1","1","3","1","","0","1","0","2206","","","<img src = 'targets/mask.png' width = '100%;'>","68","neg","GS","GSold","2","category2/CS3.png","","targets/30.png","indirect","0","0"
"","html-keyboard-response","127","604295","0.0-10.0-0.1","30ff3wxhcw","one_one","1","direct_first","1","Ll06rt20","0","23","1","1","3","1","","0","1","0","null","","","<div style=""font-size:60px;"">+</div>","null","","","","","","","","","",""
"","html-keyboard-response","128","604388","0.0-10.0-1.1","30ff3wxhcw","one_one","1","direct_first","1","Ll06rt20","0","23","1","1","3","1","","0","1","0","null","","","<img src = 'category2/CS5.png' width = '100%;'>","null","","","","","","","","","",""
"","html-keyboard-response","129","604666","0.0-10.0-2.1","30ff3wxhcw","one_one","1","direct_first","1","Ll06rt20","0","23","1","1","3","1","","0","1","0","null","","","<img src = 'targets/21.png' width = '100%;'>","null","","","","","","","","","",""
"","html-keyboard-response","130","606597","0.0-10.0-3.1","30ff3wxhcw","one_one","1","direct_first","1","Ll06rt20","0","23","1","1","3","1","","0","1","0","1930","","","<img src = 'targets/mask.png' width = '100%;'>","75","neg","GS","GSold","2","category2/CS5.png","","targets/21.png","indirect","1","1"
"","html-keyboard-response","131","608117","0.0-10.0-0.2","30ff3wxhcw","one_one","1","direct_first","1","Ll06rt20","0","23","1","1","3","1","","0","1","0","null","","","<div style=""font-size:60px;"">+</div>","null","","","","","","","","","",""
"","html-keyboard-response","132","608209","0.0-10.0-1.2","30ff3wxhcw","one_one","1","direct_first","1","Ll06rt20","0","23","1","1","3","1","","0","1","0","null","","","<img src = 'category3/CS8.png' width = '100%;'>","null","","","","","","","","","",""
"","html-keyboard-response","133","608487","0.0-10.0-2.2","30ff3wxhcw","one_one","1","direct_first","1","Ll06rt20","0","23","1","1","3","1","","0","1","0","null","","","<img src = 'targets/15.png' width = '100%;'>","null","","","","","","","","","",""
"","html-keyboard-response","134","610124","0.0-10.0-3.2","30ff3wxhcw","one_one","1","direct_first","1","Ll06rt20","0","23","1","1","3","1","","0","1","0","1636","","","<img src = 'targets/mask.png' width = '100%;'>","68","pos","GS","GSold","3","category3/CS8.png","","targets/15.png","indirect","0","2"
"","html-keyboard-response","135","611640","0.0-10.0-0.3","30ff3wxhcw","one_one","1","direct_first","1","Ll06rt20","0","23","1","1","3","1","","0","1","0","null","","","<div style=""font-size:60px;"">+</div>","null","","","","","","","","","",""
"","html-keyboard-response","136","611733","0.0-10.0-1.3","30ff3wxhcw","one_one","1","direct_first","1","Ll06rt20","0","23","1","1","3","1","","0","1","0","null","","","<img src = 'category1/CS3.png' width = '100%;'>","null","","","","","","","","","",""
"","html-keyboard-response","137","612010","0.0-10.0-2.3","30ff3wxhcw","one_one","1","direct_first","1","Ll06rt20","0","23","1","1","3","1","","0","1","0","null","","","<img src = 'targets/5.png' width = '100%;'>","null","","","","","","","","","",""
"","html-keyboard-response","138","613214","0.0-10.0-3.3","30ff3wxhcw","one_one","1","direct_first","1","Ll06rt20","0","23","1","1","3","1","","0","1","0","1204","","","<img src = 'targets/mask.png' width = '100%;'>","68","neg","CS","CS","1","category1/CS3.png","","targets/5.png","indirect","0","3"
"","html-keyboard-response","139","614733","0.0-10.0-0.4","30ff3wxhcw","one_one","1","direct_first","1","Ll06rt20","0","23","1","1","3","1","","0","1","0","null","","","<div style=""font-size:60px;"">+</div>","null","","","","","","","","","",""
"","html-keyboard-response","140","614824","0.0-10.0-1.4","30ff3wxhcw","one_one","1","direct_first","1","Ll06rt20","0","23","1","1","3","1","","0","1","0","null","","","<img src = 'category1/CS2.png' width = '100%;'>","null","","","","","","","","","",""
"","html-keyboard-response","141","615102","0.0-10.0-2.4","30ff3wxhcw","one_one","1","direct_first","1","Ll06rt20","0","23","1","1","3","1","","0","1","0","null","","","<img src = 'targets/45.png' width = '100%;'>","null","","","","","","","","","",""
"","html-keyboard-response","142","615857","0.0-10.0-3.4","30ff3wxhcw","one_one","1","direct_first","1","Ll06rt20","0","23","1","1","3","1","","0","1","0","754","","","<img src = 'targets/mask.png' width = '100%;'>","75","neg","GS","GSold","1","category1/CS2.png","","targets/45.png","indirect","1","4"
"","html-keyboard-response","143","617377","0.0-10.0-0.5","30ff3wxhcw","one_one","1","direct_first","1","Ll06rt20","0","23","1","1","3","1","","0","1","0","null","","","<div style=""font-size:60px;"">+</div>","null","","","","","","","","","",""
"","html-keyboard-response","144","617471","0.0-10.0-1.5","30ff3wxhcw","one_one","1","direct_first","1","Ll06rt20","0","23","1","1","3","1","","0","1","0","null","","","<img src = 'category2/CS6.png' width = '100%;'>","null","","","","","","","","","",""
"","html-keyboard-response","145","617748","0.0-10.0-2.5","30ff3wxhcw","one_one","1","direct_first","1","Ll06rt20","0","23","1","1","3","1","","0","1","0","null","","","<img src = 'targets/2.png' width = '100%;'>","null","","","","","","","","","",""
"","html-keyboard-response","146","618898","0.0-10.0-3.5","30ff3wxhcw","one_one","1","direct_first","1","Ll06rt20","0","23","1","1","3","1","","0","1","0","1149","","","<img src = 'targets/mask.png' width = '100%;'>","75","neg","GS","GSold","2","category2/CS6.png","","targets/2.png","indirect","1","5"
"","html-keyboard-response","147","620409","0.0-10.0-0.6","30ff3wxhcw","one_one","1","direct_first","1","Ll06rt20","0","23","1","1","3","1","","0","1","0","null","","","<div style=""font-size:60px;"">+</div>","null","","","","","","","","","",""
"","html-keyboard-response","148","620502","0.0-10.0-1.6","30ff3wxhcw","one_one","1","direct_first","1","Ll06rt20","0","23","1","1","3","1","","0","1","0","null","","","<img src = 'category3/CS1.png' width = '100%;'>","null","","","","","","","","","",""
"","html-keyboard-response","149","620780","0.0-10.0-2.6","30ff3wxhcw","one_one","1","direct_first","1","Ll06rt20","0","23","1","1","3","1","","0","1","0","null","","","<img src = 'targets/47.png' width = '100%;'>","null","","","","","","","","","",""
"","html-keyboard-response","150","622178","0.0-10.0-3.6","30ff3wxhcw","one_one","1","direct_first","1","Ll06rt20","0","23","1","1","3","1","","0","1","0","1398","","","<img src = 'targets/mask.png' width = '100%;'>","75","pos","GS","GSold","3","category3/CS1.png","","targets/47.png","indirect","1","6"
"","html-keyboard-response","151","623688","0.0-10.0-0.7","30ff3wxhcw","one_one","1","direct_first","1","Ll06rt20","0","23","1","1","3","1","","0","1","0","null","","","<div style=""font-size:60px;"">+</div>","null","","","","","","","","","",""
"","html-keyboard-response","152","623781","0.0-10.0-1.7","30ff3wxhcw","one_one","1","direct_first","1","Ll06rt20","0","23","1","1","3","1","","0","1","0","null","","","<img src = 'category1/CS5.png' width = '100%;'>","null","","","","","","","","","",""
"","html-keyboard-response","153","624045","0.0-10.0-2.7","30ff3wxhcw","one_one","1","direct_first","1","Ll06rt20","0","23","1","1","3","1","","0","1","0","null","","","<img src = 'targets/11.png' width = '100%;'>","null","","","","","","","","","",""
"","html-keyboard-response","154","624730","0.0-10.0-3.7","30ff3wxhcw","one_one","1","direct_first","1","Ll06rt20","0","23","1","1","3","1","","0","1","0","684","","","<img src = 'targets/mask.png' width = '100%;'>","75","neg","GS","GSold","1","category1/CS5.png","","targets/11.png","indirect","1","7"
"","html-keyboard-response","155","626239","0.0-10.0-0.8","30ff3wxhcw","one_one","1","direct_first","1","Ll06rt20","0","23","1","1","3","1","","0","1","0","null","","","<div style=""font-size:60px;"">+</div>","null","","","","","","","","","",""
"","html-keyboard-response","156","626331","0.0-10.0-1.8","30ff3wxhcw","one_one","1","direct_first","1","Ll06rt20","0","23","1","1","3","1","","0","1","0","null","","","<img src = 'category2/CS9.png' width = '100%;'>","null","","","","","","","","","",""
"","html-keyboard-response","157","626610","0.0-10.0-2.8","30ff3wxhcw","one_one","1","direct_first","1","Ll06rt20","0","23","1","1","3","1","","0","1","0","null","","","<img src = 'targets/39.png' width = '100%;'>","null","","","","","","","","","",""
"","html-keyboard-response","158","627075","0.0-10.0-3.8","30ff3wxhcw","one_one","1","direct_first","1","Ll06rt20","0","23","1","1","3","1","","0","1","0","465","","","<img src = 'targets/mask.png' width = '100%;'>","68","neg","CS","CS","2","category2/CS9.png","","targets/39.png","indirect","0","8"
"","html-keyboard-response","159","628592","0.0-10.0-0.9","30ff3wxhcw","one_one","1","direct_first","1","Ll06rt20","0","23","1","1","3","1","","0","1","0","null","","","<div style=""font-size:60px;"">+</div>","null","","","","","","","","","",""
"","html-keyboard-response","160","628683","0.0-10.0-1.9","30ff3wxhcw","one_one","1","direct_first","1","Ll06rt20","0","23","1","1","3","1","","0","1","0","null","","","<img src = 'category4/CS5.png' width = '100%;'>","null","","","","","","","","","",""
"","html-keyboard-response","161","628960","0.0-10.0-2.9","30ff3wxhcw","one_one","1","direct_first","1","Ll06rt20","0","23","1","1","3","1","","0","1","0","null","","","<img src = 'targets/24.png' width = '100%;'>","null","","","","","","","","","",""
"","html-keyboard-response","162","629455","0.0-10.0-3.9","30ff3wxhcw","one_one","1","direct_first","1","Ll06rt20","0","23","1","1","3","1","","0","1","0","493","","","<img src = 'targets/mask.png' width = '100%;'>","68","pos","GS","GSold","4","category4/CS5.png","","targets/24.png","indirect","0","9"
"","html-keyboard-response","163","630977","0.0-10.0-0.10","30ff3wxhcw","one_one","1","direct_first","1","Ll06rt20","0","23","1","1","3","1","","0","1","0","null","","","<div style=""font-size:60px;"">+</div>","null","","","","","","","","","",""
"","html-keyboard-response","164","631071","0.0-10.0-1.10","30ff3wxhcw","one_one","1","direct_first","1","Ll06rt20","0","23","1","1","3","1","","0","1","0","null","","","<img src = 'category4/CS10.png' width = '100%;'>","null","","","","","","","","","",""
"","html-keyboard-response","165","631348","0.0-10.0-2.10","30ff3wxhcw","one_one","1","direct_first","1","Ll06rt20","0","23","1","1","3","1","","0","1","0","null","","","<img src = 'targets/28.png' width = '100%;'>","null","","","","","","","","","",""
"","html-keyboard-response","166","631726","0.0-10.0-3.10","30ff3wxhcw","one_one","1","direct_first","1","Ll06rt20","0","23","1","1","3","1","","0","1","0","376","","","<img src = 'targets/mask.png' width = '100%;'>","68","pos","CS","CS","4","category4/CS10.png","","targets/28.png","indirect","0","10"
"","html-keyboard-response","167","633231","0.0-10.0-0.11","30ff3wxhcw","one_one","1","direct_first","1","Ll06rt20","0","23","1","1","3","1","","0","1","0","null","","","<div style=""font-size:60px;"">+</div>","null","","","","","","","","","",""
"","html-keyboard-response","168","633323","0.0-10.0-1.11","30ff3wxhcw","one_one","1","direct_first","1","Ll06rt20","0","23","1","1","3","1","","0","1","0","null","","","<img src = 'category4/CS6.png' width = '100%;'>","null","","","","","","","","","",""
"","html-keyboard-response","169","633588","0.0-10.0-2.11","30ff3wxhcw","one_one","1","direct_first","1","Ll06rt20","0","23","1","1","3","1","","0","1","0","null","","","<img src = 'targets/29.png' width = '100%;'>","null","","","","","","","","","",""
"","html-keyboard-response","170","634467","0.0-10.0-3.11","30ff3wxhcw","one_one","1","direct_first","1","Ll06rt20","0","23","1","1","3","1","","0","1","0","878","","","<img src = 'targets/mask.png' width = '100%;'>","75","pos","GS","GSold","4","category4/CS6.png","","targets/29.png","indirect","1","11"
"","html-keyboard-response","171","635987","0.0-10.0-0.12","30ff3wxhcw","one_one","1","direct_first","1","Ll06rt20","0","23","1","1","3","1","","0","1","0","null","","","<div style=""font-size:60px;"">+</div>","null","","","","","","","","","",""
"","html-keyboard-response","172","636081","0.0-10.0-1.12","30ff3wxhcw","one_one","1","direct_first","1","Ll06rt20","0","23","1","1","3","1","","0","1","0","null","","","<img src = 'category3/CS3.png' width = '100%;'>","null","","","","","","","","","",""
"","html-keyboard-response","173","636357","0.0-10.0-2.12","30ff3wxhcw","one_one","1","direct_first","1","Ll06rt20","0","23","1","1","3","1","","0","1","0","null","","","<img src = 'targets/25.png' width = '100%;'>","null","","","","","","","","","",""
"","html-keyboard-response","174","637079","0.0-10.0-3.12","30ff3wxhcw","one_one","1","direct_first","1","Ll06rt20","0","23","1","1","3","1","","0","1","0","721","","","<img src = 'targets/mask.png' width = '100%;'>","75","pos","GS","GSold","3","category3/CS3.png","","targets/25.png","indirect","1","12"
"","html-keyboard-response","175","638590","0.0-10.0-0.13","30ff3wxhcw","one_one","1","direct_first","1","Ll06rt20","0","23","1","1","3","1","","0","1","0","null","","","<div style=""font-size:60px;"">+</div>","null","","","","","","","","","",""
"","html-keyboard-response","176","638685","0.0-10.0-1.13","30ff3wxhcw","one_one","1","direct_first","1","Ll06rt20","0","23","1","1","3","1","","0","1","0","null","","","<img src = 'category1/CS4.png' width = '100%;'>","null","","","","","","","","","",""
"","html-keyboard-response","177","638964","0.0-10.0-2.13","30ff3wxhcw","one_one","1","direct_first","1","Ll06rt20","0","23","1","1","3","1","","0","1","0","null","","","<img src = 'targets/26.png' width = '100%;'>","null","","","","","","","","","",""
"","html-keyboard-response","178","639484","0.0-10.0-3.13","30ff3wxhcw","one_one","1","direct_first","1","Ll06rt20","0","23","1","1","3","1","","0","1","0","520","","","<img src = 'targets/mask.png' width = '100%;'>","68","neg","GS","GSold","1","category1/CS4.png","","targets/26.png","indirect","0","13"
"","html-keyboard-response","179","640992","0.0-10.0-0.14","30ff3wxhcw","one_one","1","direct_first","1","Ll06rt20","0","23","1","1","3","1","","0","1","0","null","","","<div style=""font-size:60px;"">+</div>","null","","","","","","","","","",""
"","html-keyboard-response","180","641085","0.0-10.0-1.14","30ff3wxhcw","one_one","1","direct_first","1","Ll06rt20","0","23","1","1","3","1","","0","1","0","null","","","<img src = 'category4/CS8.png' width = '100%;'>","null","","","","","","","","","",""
"","html-keyboard-response","181","641352","0.0-10.0-2.14","30ff3wxhcw","one_one","1","direct_first","1","Ll06rt20","0","23","1","1","3","1","","0","1","0","null","","","<img src = 'targets/19.png' width = '100%;'>","null","","","","","","","","","",""
"","html-keyboard-response","182","642051","0.0-10.0-3.14","30ff3wxhcw","one_one","1","direct_first","1","Ll06rt20","0","23","1","1","3","1","","0","1","0","699","","","<img src = 'targets/mask.png' width = '100%;'>","68","pos","GS","GSold","4","category4/CS8.png","","targets/19.png","indirect","0","14"
"","html-keyboard-response","183","643562","0.0-10.0-0.15","30ff3wxhcw","one_one","1","direct_first","1","Ll06rt20","0","23","1","1","3","1","","0","1","0","null","","","<div style=""font-size:60px;"">+</div>","null","","","","","","","","","",""
"","html-keyboard-response","184","643655","0.0-10.0-1.15","30ff3wxhcw","one_one","1","direct_first","1","Ll06rt20","0","23","1","1","3","1","","0","1","0","null","","","<img src = 'category3/CS6.png' width = '100%;'>","null","","","","","","","","","",""
"","html-keyboard-response","185","643932","0.0-10.0-2.15","30ff3wxhcw","one_one","1","direct_first","1","Ll06rt20","0","23","1","1","3","1","","0","1","0","null","","","<img src = 'targets/9.png' width = '100%;'>","null","","","","","","","","","",""
"","html-keyboard-response","186","644662","0.0-10.0-3.15","30ff3wxhcw","one_one","1","direct_first","1","Ll06rt20","0","23","1","1","3","1","","0","1","0","730","","","<img src = 'targets/mask.png' width = '100%;'>","75","pos","CS","CS","3","category3/CS6.png","","targets/9.png","indirect","1","15"
"","survey-html-form","187","648656","0.0-11.0","30ff3wxhcw","one_one","1","direct_first","1","Ll06rt20","0","23","1","1","3","1","","0","1","0","3484","","{}","","","","","","","","","","","",""
"","html-keyboard-response","188","651672","0.0-12.0-0.0","30ff3wxhcw","one_one","1","direct_first","1","Ll06rt20","0","23","1","1","3","1","","0","1","0","null","","","<div style=""font-size:60px;"">+</div>","null","","","","","","","","","",""
"","html-keyboard-response","189","651764","0.0-12.0-1.0","30ff3wxhcw","one_one","1","direct_first","1","Ll06rt20","0","23","1","1","3","1","","0","1","0","null","","","<img src = 'category3/wang.png' width = '100%;'>","null","","","","","","","","","",""
"","html-keyboard-response","190","652042","0.0-12.0-2.0","30ff3wxhcw","one_one","1","direct_first","1","Ll06rt20","0","23","1","1","3","1","","0","1","0","null","","","<img src = 'targets/18.png' width = '100%;'>","null","","","","","","","","","",""
"","html-keyboard-response","191","652720","0.0-12.0-3.0","30ff3wxhcw","one_one","1","direct_first","1","Ll06rt20","0","23","1","1","3","1","","0","1","0","678","","","<img src = 'targets/mask.png' width = '100%;'>","68","pos","GS","abstract","3","category3/wang.png","","targets/18.png","indirect","0","16"
"","html-keyboard-response","192","654229","0.0-12.0-0.1","30ff3wxhcw","one_one","1","direct_first","1","Ll06rt20","0","23","1","1","3","1","","0","1","0","null","","","<div style=""font-size:60px;"">+</div>","null","","","","","","","","","",""
"","html-keyboard-response","193","654321","0.0-12.0-1.1","30ff3wxhcw","one_one","1","direct_first","1","Ll06rt20","0","23","1","1","3","1","","0","1","0","null","","","<img src = 'category3/GS1.png' width = '100%;'>","null","","","","","","","","","",""
"","html-keyboard-response","194","654598","0.0-12.0-2.1","30ff3wxhcw","one_one","1","direct_first","1","Ll06rt20","0","23","1","1","3","1","","0","1","0","null","","","<img src = 'targets/42.png' width = '100%;'>","null","","","","","","","","","",""
"","html-keyboard-response","195","655001","0.0-12.0-3.1","30ff3wxhcw","one_one","1","direct_first","1","Ll06rt20","0","23","1","1","3","1","","0","1","0","404","","","<img src = 'targets/mask.png' width = '100%;'>","75","pos","GS","GSnew","3","category3/GS1.png","","targets/42.png","indirect","1","17"
"","html-keyboard-response","196","656515","0.0-12.0-0.2","30ff3wxhcw","one_one","1","direct_first","1","Ll06rt20","0","23","1","1","3","1","","0","1","0","null","","","<div style=""font-size:60px;"">+</div>","null","","","","","","","","","",""
"","html-keyboard-response","197","656610","0.0-12.0-1.2","30ff3wxhcw","one_one","1","direct_first","1","Ll06rt20","0","23","1","1","3","1","","0","1","0","null","","","<img src = 'category2/GS2.png' width = '100%;'>","null","","","","","","","","","",""
"","html-keyboard-response","198","656889","0.0-12.0-2.2","30ff3wxhcw","one_one","1","direct_first","1","Ll06rt20","0","23","1","1","3","1","","0","1","0","null","","","<img src = 'targets/13.png' width = '100%;'>","null","","","","","","","","","",""
"","html-keyboard-response","199","657338","0.0-12.0-3.2","30ff3wxhcw","one_one","1","direct_first","1","Ll06rt20","0","23","1","1","3","1","","0","1","0","449","","","<img src = 'targets/mask.png' width = '100%;'>","68","neg","GS","GSnew","2","category2/GS2.png","","targets/13.png","indirect","0","18"
"","html-keyboard-response","200","658856","0.0-12.0-0.3","30ff3wxhcw","one_one","1","direct_first","1","Ll06rt20","0","23","1","1","3","1","","0","1","0","null","","","<div style=""font-size:60px;"">+</div>","null","","","","","","","","","",""
"","html-keyboard-response","201","658949","0.0-12.0-1.3","30ff3wxhcw","one_one","1","direct_first","1","Ll06rt20","0","23","1","1","3","1","","0","1","0","null","","","<img src = 'category1/ma.png' width = '100%;'>","null","","","","","","","","","",""
"","html-keyboard-response","202","659225","0.0-12.0-2.3","30ff3wxhcw","one_one","1","direct_first","1","Ll06rt20","0","23","1","1","3","1","","0","1","0","null","","","<img src = 'targets/20.png' width = '100%;'>","null","","","","","","","","","",""
"","html-keyboard-response","203","660340","0.0-12.0-3.3","30ff3wxhcw","one_one","1","direct_first","1","Ll06rt20","0","23","1","1","3","1","","0","1","0","1115","","","<img src = 'targets/mask.png' width = '100%;'>","75","neg","GS","abstract","1","category1/ma.png","","targets/20.png","indirect","1","19"
"","html-keyboard-response","204","661847","0.0-12.0-0.4","30ff3wxhcw","one_one","1","direct_first","1","Ll06rt20","0","23","1","1","3","1","","0","1","0","null","","","<div style=""font-size:60px;"">+</div>","null","","","","","","","","","",""
"","html-keyboard-response","205","661941","0.0-12.0-1.4","30ff3wxhcw","one_one","1","direct_first","1","Ll06rt20","0","23","1","1","3","1","","0","1","0","null","","","<img src = 'category3/GS2.png' width = '100%;'>","null","","","","","","","","","",""
"","html-keyboard-response","206","662218","0.0-12.0-2.4","30ff3wxhcw","one_one","1","direct_first","1","Ll06rt20","0","23","1","1","3","1","","0","1","0","null","","","<img src = 'targets/32.png' width = '100%;'>","null","","","","","","","","","",""
"","html-keyboard-response","207","662766","0.0-12.0-3.4","30ff3wxhcw","one_one","1","direct_first","1","Ll06rt20","0","23","1","1","3","1","","0","1","0","549","","","<img src = 'targets/mask.png' width = '100%;'>","68","pos","GS","GSnew","3","category3/GS2.png","","targets/32.png","indirect","0","20"
"","html-keyboard-response","208","664279","0.0-12.0-0.5","30ff3wxhcw","one_one","1","direct_first","1","Ll06rt20","0","23","1","1","3","1","","0","1","0","null","","","<div style=""font-size:60px;"">+</div>","null","","","","","","","","","",""
"","html-keyboard-response","209","664372","0.0-12.0-1.5","30ff3wxhcw","one_one","1","direct_first","1","Ll06rt20","0","23","1","1","3","1","","0","1","0","null","","","<img src = 'category3/GS3.png' width = '100%;'>","null","","","","","","","","","",""
"","html-keyboard-response","210","664651","0.0-12.0-2.5","30ff3wxhcw","one_one","1","direct_first","1","Ll06rt20","0","23","1","1","3","1","","0","1","0","null","","","<img src = 'targets/6.png' width = '100%;'>","null","","","","","","","","","",""
"","html-keyboard-response","211","665324","0.0-12.0-3.5","30ff3wxhcw","one_one","1","direct_first","1","Ll06rt20","0","23","1","1","3","1","","0","1","0","674","","","<img src = 'targets/mask.png' width = '100%;'>","75","pos","GS","GSnew","3","category3/GS3.png","","targets/6.png","indirect","1","21"
"","html-keyboard-response","212","666838","0.0-12.0-0.6","30ff3wxhcw","one_one","1","direct_first","1","Ll06rt20","0","23","1","1","3","1","","0","1","0","null","","","<div style=""font-size:60px;"">+</div>","null","","","","","","","","","",""
"","html-keyboard-response","213","666930","0.0-12.0-1.6","30ff3wxhcw","one_one","1","direct_first","1","Ll06rt20","0","23","1","1","3","1","","0","1","0","null","","","<img src = 'category1/GS2.png' width = '100%;'>","null","","","","","","","","","",""
"","html-keyboard-response","214","667209","0.0-12.0-2.6","30ff3wxhcw","one_one","1","direct_first","1","Ll06rt20","0","23","1","1","3","1","","0","1","0","null","","","<img src = 'targets/16.png' width = '100%;'>","null","","","","","","","","","",""
"","html-keyboard-response","215","667832","0.0-12.0-3.6","30ff3wxhcw","one_one","1","direct_first","1","Ll06rt20","0","23","1","1","3","1","","0","1","0","622","","","<img src = 'targets/mask.png' width = '100%;'>","68","neg","GS","GSnew","1","category1/GS2.png","","targets/16.png","indirect","0","22"
"","html-keyboard-response","216","669339","0.0-12.0-0.7","30ff3wxhcw","one_one","1","direct_first","1","Ll06rt20","0","23","1","1","3","1","","0","1","0","null","","","<div style=""font-size:60px;"">+</div>","null","","","","","","","","","",""
"","html-keyboard-response","217","669431","0.0-12.0-1.7","30ff3wxhcw","one_one","1","direct_first","1","Ll06rt20","0","23","1","1","3","1","","0","1","0","null","","","<img src = 'category4/GS3.png' width = '100%;'>","null","","","","","","","","","",""
"","html-keyboard-response","218","669710","0.0-12.0-2.7","30ff3wxhcw","one_one","1","direct_first","1","Ll06rt20","0","23","1","1","3","1","","0","1","0","null","","","<img src = 'targets/12.png' width = '100%;'>","null","","","","","","","","","",""
"","html-keyboard-response","219","670442","0.0-12.0-3.7","30ff3wxhcw","one_one","1","direct_first","1","Ll06rt20","0","23","1","1","3","1","","0","1","0","731","","","<img src = 'targets/mask.png' width = '100%;'>","75","pos","GS","GSnew","4","category4/GS3.png","","targets/12.png","indirect","1","23"
"","html-keyboard-response","220","671955","0.0-12.0-0.8","30ff3wxhcw","one_one","1","direct_first","1","Ll06rt20","0","23","1","1","3","1","","0","1","0","null","","","<div style=""font-size:60px;"">+</div>","null","","","","","","","","","",""
"","html-keyboard-response","221","672047","0.0-12.0-1.8","30ff3wxhcw","one_one","1","direct_first","1","Ll06rt20","0","23","1","1","3","1","","0","1","0","null","","","<img src = 'category4/GS2.png' width = '100%;'>","null","","","","","","","","","",""
"","html-keyboard-response","222","672327","0.0-12.0-2.8","30ff3wxhcw","one_one","1","direct_first","1","Ll06rt20","0","23","1","1","3","1","","0","1","0","null","","","<img src = 'targets/27.png' width = '100%;'>","null","","","","","","","","","",""
"","html-keyboard-response","223","672833","0.0-12.0-3.8","30ff3wxhcw","one_one","1","direct_first","1","Ll06rt20","0","23","1","1","3","1","","0","1","0","505","","","<img src = 'targets/mask.png' width = '100%;'>","75","pos","GS","GSnew","4","category4/GS2.png","","targets/27.png","indirect","1","24"
"","html-keyboard-response","224","674345","0.0-12.0-0.9","30ff3wxhcw","one_one","1","direct_first","1","Ll06rt20","0","23","1","1","3","1","","0","1","0","null","","","<div style=""font-size:60px;"">+</div>","null","","","","","","","","","",""
"","html-keyboard-response","225","674437","0.0-12.0-1.9","30ff3wxhcw","one_one","1","direct_first","1","Ll06rt20","0","23","1","1","3","1","","0","1","0","null","","","<img src = 'category4/GS1.png' width = '100%;'>","null","","","","","","","","","",""
"","html-keyboard-response","226","674714","0.0-12.0-2.9","30ff3wxhcw","one_one","1","direct_first","1","Ll06rt20","0","23","1","1","3","1","","0","1","0","null","","","<img src = 'targets/46.png' width = '100%;'>","null","","","","","","","","","",""
"","html-keyboard-response","227","675134","0.0-12.0-3.9","30ff3wxhcw","one_one","1","direct_first","1","Ll06rt20","0","23","1","1","3","1","","0","1","0","420","","","<img src = 'targets/mask.png' width = '100%;'>","75","pos","GS","GSnew","4","category4/GS1.png","","targets/46.png","indirect","1","25"
"","html-keyboard-response","228","676649","0.0-12.0-0.10","30ff3wxhcw","one_one","1","direct_first","1","Ll06rt20","0","23","1","1","3","1","","0","1","0","null","","","<div style=""font-size:60px;"">+</div>","null","","","","","","","","","",""
"","html-keyboard-response","229","676742","0.0-12.0-1.10","30ff3wxhcw","one_one","1","direct_first","1","Ll06rt20","0","23","1","1","3","1","","0","1","0","null","","","<img src = 'category2/GS3.png' width = '100%;'>","null","","","","","","","","","",""
"","html-keyboard-response","230","677019","0.0-12.0-2.10","30ff3wxhcw","one_one","1","direct_first","1","Ll06rt20","0","23","1","1","3","1","","0","1","0","null","","","<img src = 'targets/40.png' width = '100%;'>","null","","","","","","","","","",""
"","html-keyboard-response","231","677438","0.0-12.0-3.10","30ff3wxhcw","one_one","1","direct_first","1","Ll06rt20","0","23","1","1","3","1","","0","1","0","417","","","<img src = 'targets/mask.png' width = '100%;'>","75","neg","GS","GSnew","2","category2/GS3.png","","targets/40.png","indirect","1","26"
"","html-keyboard-response","232","678954","0.0-12.0-0.11","30ff3wxhcw","one_one","1","direct_first","1","Ll06rt20","0","23","1","1","3","1","","0","1","0","null","","","<div style=""font-size:60px;"">+</div>","null","","","","","","","","","",""
"","html-keyboard-response","233","679047","0.0-12.0-1.11","30ff3wxhcw","one_one","1","direct_first","1","Ll06rt20","0","23","1","1","3","1","","0","1","0","null","","","<img src = 'category2/GS1.png' width = '100%;'>","null","","","","","","","","","",""
"","html-keyboard-response","234","679325","0.0-12.0-2.11","30ff3wxhcw","one_one","1","direct_first","1","Ll06rt20","0","23","1","1","3","1","","0","1","0","null","","","<img src = 'targets/23.png' width = '100%;'>","null","","","","","","","","","",""
"","html-keyboard-response","235","679928","0.0-12.0-3.11","30ff3wxhcw","one_one","1","direct_first","1","Ll06rt20","0","23","1","1","3","1","","0","1","0","603","","","<img src = 'targets/mask.png' width = '100%;'>","75","neg","GS","GSnew","2","category2/GS1.png","","targets/23.png","indirect","1","27"
"","html-keyboard-response","236","681448","0.0-12.0-0.12","30ff3wxhcw","one_one","1","direct_first","1","Ll06rt20","0","23","1","1","3","1","","0","1","0","null","","","<div style=""font-size:60px;"">+</div>","null","","","","","","","","","",""
"","html-keyboard-response","237","681541","0.0-12.0-1.12","30ff3wxhcw","one_one","1","direct_first","1","Ll06rt20","0","23","1","1","3","1","","0","1","0","null","","","<img src = 'category2/men.png' width = '100%;'>","null","","","","","","","","","",""
"","html-keyboard-response","238","681817","0.0-12.0-2.12","30ff3wxhcw","one_one","1","direct_first","1","Ll06rt20","0","23","1","1","3","1","","0","1","0","null","","","<img src = 'targets/48.png' width = '100%;'>","null","","","","","","","","","",""
"","html-keyboard-response","239","682380","0.0-12.0-3.12","30ff3wxhcw","one_one","1","direct_first","1","Ll06rt20","0","23","1","1","3","1","","0","1","0","563","","","<img src = 'targets/mask.png' width = '100%;'>","75","neg","GS","abstract","2","category2/men.png","","targets/48.png","indirect","1","28"
"","html-keyboard-response","240","683891","0.0-12.0-0.13","30ff3wxhcw","one_one","1","direct_first","1","Ll06rt20","0","23","1","1","3","1","","0","1","0","null","","","<div style=""font-size:60px;"">+</div>","null","","","","","","","","","",""
"","html-keyboard-response","241","683984","0.0-12.0-1.13","30ff3wxhcw","one_one","1","direct_first","1","Ll06rt20","0","23","1","1","3","1","","0","1","0","null","","","<img src = 'category4/lin.png' width = '100%;'>","null","","","","","","","","","",""
"","html-keyboard-response","242","684250","0.0-12.0-2.13","30ff3wxhcw","one_one","1","direct_first","1","Ll06rt20","0","23","1","1","3","1","","0","1","0","null","","","<img src = 'targets/3.png' width = '100%;'>","null","","","","","","","","","",""
"","html-keyboard-response","243","684616","0.0-12.0-3.13","30ff3wxhcw","one_one","1","direct_first","1","Ll06rt20","0","23","1","1","3","1","","0","1","0","366","","","<img src = 'targets/mask.png' width = '100%;'>","68","pos","GS","abstract","4","category4/lin.png","","targets/3.png","indirect","0","29"
"","html-keyboard-response","244","686131","0.0-12.0-0.14","30ff3wxhcw","one_one","1","direct_first","1","Ll06rt20","0","23","1","1","3","1","","0","1","0","null","","","<div style=""font-size:60px;"">+</div>","null","","","","","","","","","",""
"","html-keyboard-response","245","686224","0.0-12.0-1.14","30ff3wxhcw","one_one","1","direct_first","1","Ll06rt20","0","23","1","1","3","1","","0","1","0","null","","","<img src = 'category1/GS1.png' width = '100%;'>","null","","","","","","","","","",""
"","html-keyboard-response","246","686503","0.0-12.0-2.14","30ff3wxhcw","one_one","1","direct_first","1","Ll06rt20","0","23","1","1","3","1","","0","1","0","null","","","<img src = 'targets/4.png' width = '100%;'>","null","","","","","","","","","",""
"","html-keyboard-response","247","687006","0.0-12.0-3.14","30ff3wxhcw","one_one","1","direct_first","1","Ll06rt20","0","23","1","1","3","1","","0","1","0","501","","","<img src = 'targets/mask.png' width = '100%;'>","68","neg","GS","GSnew","1","category1/GS1.png","","targets/4.png","indirect","0","30"
"","html-keyboard-response","248","688508","0.0-12.0-0.15","30ff3wxhcw","one_one","1","direct_first","1","Ll06rt20","0","23","1","1","3","1","","0","1","0","null","","","<div style=""font-size:60px;"">+</div>","null","","","","","","","","","",""
"","html-keyboard-response","249","688601","0.0-12.0-1.15","30ff3wxhcw","one_one","1","direct_first","1","Ll06rt20","0","23","1","1","3","1","","0","1","0","null","","","<img src = 'category1/GS3.png' width = '100%;'>","null","","","","","","","","","",""
"","html-keyboard-response","250","688877","0.0-12.0-2.15","30ff3wxhcw","one_one","1","direct_first","1","Ll06rt20","0","23","1","1","3","1","","0","1","0","null","","","<img src = 'targets/36.png' width = '100%;'>","null","","","","","","","","","",""
"","html-keyboard-response","251","689445","0.0-12.0-3.15","30ff3wxhcw","one_one","1","direct_first","1","Ll06rt20","0","23","1","1","3","1","","0","1","0","567","","","<img src = 'targets/mask.png' width = '100%;'>","68","neg","GS","GSnew","1","category1/GS3.png","","targets/36.png","indirect","0","31"
"","survey-html-form","252","696649","0.0-13.0","30ff3wxhcw","one_one","1","direct_first","1","Ll06rt20","0","23","1","1","3","1","","0","1","0","6691","","{}","","","","","","","","","","","",""
"","image-slider-response","253","702371","0.0-14.0-0.0","30ff3wxhcw","one_one","1","direct_first","1","Ll06rt20","0","23","1","1","3","1","","0","1","0","4716","","","","","pos","All","all","4","category4/lin_all.png","-11","","all","",""
"","image-slider-response","254","706489","0.0-14.0-0.1","30ff3wxhcw","one_one","1","direct_first","1","Ll06rt20","0","23","1","1","3","1","","0","1","0","4116","","","","","neg","All","all","1","category1/ma_all.png","12","","all","",""
"","image-slider-response","255","712211","0.0-14.0-0.2","30ff3wxhcw","one_one","1","direct_first","1","Ll06rt20","0","23","1","1","3","1","","0","1","0","5720","","","","","pos","All","all","3","category3/wang_all.png","9","","all","",""
"","image-slider-response","256","715098","0.0-14.0-0.3","30ff3wxhcw","one_one","1","direct_first","1","Ll06rt20","0","23","1","1","3","1","","0","1","0","2887","","","","","neg","All","all","2","category2/men_all.png","50","","all","",""
"","survey-text","257","720042","0.0-15.0","30ff3wxhcw","one_one","1","direct_first","1","Ll06rt20","0","23","1","1","3","1","","0","1","0","4940","","{""comment"":""""}","","","","","","","","","","","",""
"","survey-html-form","258","735290","0.0-16.0","30ff3wxhcw","one_one","1","direct_first","1","Ll06rt20","0","23","1","1","3","1","","0","1","0","15247","","{""hinschauen"":""0"",""ablenkung"":""1"",""gewissenhaft"":""0""}","","","","","","","","","","","",""
