"success","trial_type","trial_index","time_elapsed","internal_node_id","subject","condition","condition_code","measure","measure_code","codeword","gender","age","education","chinese","fach","handedness","comment","hinschauen","ablenkung","gewissenhaft","rt","url","responses","stimulus","key_press","val","type","type_specific","category","cs_selected","target","indirect","task","nr_pres","response"
"true","fullscreen","0","47800","0.0-0.0","0l6bvae9bs","one_one","1","indirect_first","0","TZ05ER25","1","28","1","1","1","1","Ich bin zwar nicht ausreichend qualifiziert für eine Einschätzung, jedoch habe ich den Eindruck, dass das ""Priming"" durch etwaige Zeichenelemente sehr opulent war. ","0","1","0","","","","","","","","","","","","","","",""
"","external-html","1","59025","0.0-1.0","0l6bvae9bs","one_one","1","indirect_first","0","TZ05ER25","1","28","1","1","1","1","Ich bin zwar nicht ausreichend qualifiziert für eine Einschätzung, jedoch habe ich den Eindruck, dass das ""Priming"" durch etwaige Zeichenelemente sehr opulent war. ","0","1","0","11131","text/information.html","","","","","","","","","","","","",""
"","external-html","2","70077","0.0-2.0","0l6bvae9bs","one_one","1","indirect_first","0","TZ05ER25","1","28","1","1","1","1","Ich bin zwar nicht ausreichend qualifiziert für eine Einschätzung, jedoch habe ich den Eindruck, dass das ""Priming"" durch etwaige Zeichenelemente sehr opulent war. ","0","1","0","10769","text/consent.html","","","","","","","","","","","","",""
"","survey-html-form","3","122580","0.0-3.0","0l6bvae9bs","one_one","1","indirect_first","0","TZ05ER25","1","28","1","1","1","1","Ich bin zwar nicht ausreichend qualifiziert für eine Einschätzung, jedoch habe ich den Eindruck, dass das ""Priming"" durch etwaige Zeichenelemente sehr opulent war. ","0","1","0","52498","","{""codeword_enter"":""TZ05ER25""}","","","","","","","","","","","",""
"","survey-html-form","4","137552","0.0-4.0","0l6bvae9bs","one_one","1","indirect_first","0","TZ05ER25","1","28","1","1","1","1","Ich bin zwar nicht ausreichend qualifiziert für eine Einschätzung, jedoch habe ich den Eindruck, dass das ""Priming"" durch etwaige Zeichenelemente sehr opulent war. ","0","1","0","14965","","{""age"":""28"",""education"":""1"",""subject"":""1"",""gender"":""1"",""handedness"":""1"",""chinese"":""1""}","","","","","","","","","","","",""
"","survey-html-form","5","150145","0.0-5.0","0l6bvae9bs","one_one","1","indirect_first","0","TZ05ER25","1","28","1","1","1","1","Ich bin zwar nicht ausreichend qualifiziert für eine Einschätzung, jedoch habe ich den Eindruck, dass das ""Priming"" durch etwaige Zeichenelemente sehr opulent war. ","0","1","0","12589","","{}","","","","","","","","","","","",""
"","html-keyboard-response","6","154172","0.0-6.0-0.0-0.0","0l6bvae9bs","one_one","1","indirect_first","0","TZ05ER25","1","28","1","1","1","1","Ich bin zwar nicht ausreichend qualifiziert für eine Einschätzung, jedoch habe ich den Eindruck, dass das ""Priming"" durch etwaige Zeichenelemente sehr opulent war. ","0","1","0","null","","","<div class = 'row'><div class = 'column'><img src = 'usneg/9340.bmp' width = '100%;'></div><div class = 'column'><img src = 'category2/CS1.png' width = '70%;'></div></div>","null","neg","CS","CS","2","category2/CS1.png","","","","",""
"","html-keyboard-response","7","156711","0.0-6.0-0.0-0.1","0l6bvae9bs","one_one","1","indirect_first","0","TZ05ER25","1","28","1","1","1","1","Ich bin zwar nicht ausreichend qualifiziert für eine Einschätzung, jedoch habe ich den Eindruck, dass das ""Priming"" durch etwaige Zeichenelemente sehr opulent war. ","0","1","0","null","","","<div class = 'row'><div class = 'column'><img src = 'uspos/5700.bmp' width = '100%;'></div><div class = 'column'><img src = 'category4/CS4.png' width = '70%;'></div></div>","null","pos","CS","CS","4","category4/CS4.png","","","","",""
"","html-keyboard-response","8","159251","0.0-6.0-0.0-0.2","0l6bvae9bs","one_one","1","indirect_first","0","TZ05ER25","1","28","1","1","1","1","Ich bin zwar nicht ausreichend qualifiziert für eine Einschätzung, jedoch habe ich den Eindruck, dass das ""Priming"" durch etwaige Zeichenelemente sehr opulent war. ","0","1","0","null","","","<div class = 'row'><div class = 'column'><img src = 'category1/CS6.png' width = '70%;'></div><div class = 'column'><img src = 'uspos/2550.bmp' width = '100%;'></div></div>","null","pos","CS","CS","1","category1/CS6.png","","","","",""
"","html-keyboard-response","9","161782","0.0-6.0-0.0-0.3","0l6bvae9bs","one_one","1","indirect_first","0","TZ05ER25","1","28","1","1","1","1","Ich bin zwar nicht ausreichend qualifiziert für eine Einschätzung, jedoch habe ich den Eindruck, dass das ""Priming"" durch etwaige Zeichenelemente sehr opulent war. ","0","1","0","null","","","<div class = 'row'><div class = 'column'><img src = 'uspos/5700.bmp' width = '100%;'></div><div class = 'column'><img src = 'category4/CS4.png' width = '70%;'></div></div>","null","pos","CS","CS","4","category4/CS4.png","","","","",""
"","html-keyboard-response","10","164313","0.0-6.0-0.0-0.4","0l6bvae9bs","one_one","1","indirect_first","0","TZ05ER25","1","28","1","1","1","1","Ich bin zwar nicht ausreichend qualifiziert für eine Einschätzung, jedoch habe ich den Eindruck, dass das ""Priming"" durch etwaige Zeichenelemente sehr opulent war. ","0","1","0","null","","","<div class = 'row'><div class = 'column'><img src = 'category1/CS6.png' width = '70%;'></div><div class = 'column'><img src = 'uspos/2550.bmp' width = '100%;'></div></div>","null","pos","CS","CS","1","category1/CS6.png","","","","",""
"","html-keyboard-response","11","166851","0.0-6.0-0.0-0.5","0l6bvae9bs","one_one","1","indirect_first","0","TZ05ER25","1","28","1","1","1","1","Ich bin zwar nicht ausreichend qualifiziert für eine Einschätzung, jedoch habe ich den Eindruck, dass das ""Priming"" durch etwaige Zeichenelemente sehr opulent war. ","0","1","0","null","","","<div class = 'row'><div class = 'column'><img src = 'category3/CS5.png' width = '70%;'></div><div class = 'column'><img src = 'usneg/2900.bmp' width = '100%;'></div></div>","null","neg","CS","CS","3","category3/CS5.png","","","","",""
"","html-keyboard-response","12","169382","0.0-6.0-0.0-0.6","0l6bvae9bs","one_one","1","indirect_first","0","TZ05ER25","1","28","1","1","1","1","Ich bin zwar nicht ausreichend qualifiziert für eine Einschätzung, jedoch habe ich den Eindruck, dass das ""Priming"" durch etwaige Zeichenelemente sehr opulent war. ","0","1","0","null","","","<div class = 'row'><div class = 'column'><img src = 'uspos/5700.bmp' width = '100%;'></div><div class = 'column'><img src = 'category4/CS4.png' width = '70%;'></div></div>","null","pos","CS","CS","4","category4/CS4.png","","","","",""
"","html-keyboard-response","13","171921","0.0-6.0-0.0-0.7","0l6bvae9bs","one_one","1","indirect_first","0","TZ05ER25","1","28","1","1","1","1","Ich bin zwar nicht ausreichend qualifiziert für eine Einschätzung, jedoch habe ich den Eindruck, dass das ""Priming"" durch etwaige Zeichenelemente sehr opulent war. ","0","1","0","null","","","<div class = 'row'><div class = 'column'><img src = 'category3/CS5.png' width = '70%;'></div><div class = 'column'><img src = 'usneg/2900.bmp' width = '100%;'></div></div>","null","neg","CS","CS","3","category3/CS5.png","","","","",""
"","html-keyboard-response","14","174462","0.0-6.0-0.0-0.8","0l6bvae9bs","one_one","1","indirect_first","0","TZ05ER25","1","28","1","1","1","1","Ich bin zwar nicht ausreichend qualifiziert für eine Einschätzung, jedoch habe ich den Eindruck, dass das ""Priming"" durch etwaige Zeichenelemente sehr opulent war. ","0","1","0","null","","","<div class = 'row'><div class = 'column'><img src = 'usneg/9340.bmp' width = '100%;'></div><div class = 'column'><img src = 'category2/CS1.png' width = '70%;'></div></div>","null","neg","CS","CS","2","category2/CS1.png","","","","",""
"","html-keyboard-response","15","177002","0.0-6.0-0.0-0.9","0l6bvae9bs","one_one","1","indirect_first","0","TZ05ER25","1","28","1","1","1","1","Ich bin zwar nicht ausreichend qualifiziert für eine Einschätzung, jedoch habe ich den Eindruck, dass das ""Priming"" durch etwaige Zeichenelemente sehr opulent war. ","0","1","0","null","","","<div class = 'row'><div class = 'column'><img src = 'uspos/2550.bmp' width = '100%;'></div><div class = 'column'><img src = 'category1/CS6.png' width = '70%;'></div></div>","null","pos","CS","CS","1","category1/CS6.png","","","","",""
"","html-keyboard-response","16","179532","0.0-6.0-0.0-0.10","0l6bvae9bs","one_one","1","indirect_first","0","TZ05ER25","1","28","1","1","1","1","Ich bin zwar nicht ausreichend qualifiziert für eine Einschätzung, jedoch habe ich den Eindruck, dass das ""Priming"" durch etwaige Zeichenelemente sehr opulent war. ","0","1","0","null","","","<div class = 'row'><div class = 'column'><img src = 'usneg/2900.bmp' width = '100%;'></div><div class = 'column'><img src = 'category3/CS5.png' width = '70%;'></div></div>","null","neg","CS","CS","3","category3/CS5.png","","","","",""
"","html-keyboard-response","17","182072","0.0-6.0-0.0-0.11","0l6bvae9bs","one_one","1","indirect_first","0","TZ05ER25","1","28","1","1","1","1","Ich bin zwar nicht ausreichend qualifiziert für eine Einschätzung, jedoch habe ich den Eindruck, dass das ""Priming"" durch etwaige Zeichenelemente sehr opulent war. ","0","1","0","null","","","<div class = 'row'><div class = 'column'><img src = 'usneg/9340.bmp' width = '100%;'></div><div class = 'column'><img src = 'category2/CS1.png' width = '70%;'></div></div>","null","neg","CS","CS","2","category2/CS1.png","","","","",""
"","html-keyboard-response","18","184612","0.0-6.0-0.0-0.12","0l6bvae9bs","one_one","1","indirect_first","0","TZ05ER25","1","28","1","1","1","1","Ich bin zwar nicht ausreichend qualifiziert für eine Einschätzung, jedoch habe ich den Eindruck, dass das ""Priming"" durch etwaige Zeichenelemente sehr opulent war. ","0","1","0","null","","","<div class = 'row'><div class = 'column'><img src = 'category1/CS6.png' width = '70%;'></div><div class = 'column'><img src = 'uspos/2550.bmp' width = '100%;'></div></div>","null","pos","CS","CS","1","category1/CS6.png","","","","",""
"","html-keyboard-response","19","187151","0.0-6.0-0.0-0.13","0l6bvae9bs","one_one","1","indirect_first","0","TZ05ER25","1","28","1","1","1","1","Ich bin zwar nicht ausreichend qualifiziert für eine Einschätzung, jedoch habe ich den Eindruck, dass das ""Priming"" durch etwaige Zeichenelemente sehr opulent war. ","0","1","0","null","","","<div class = 'row'><div class = 'column'><img src = 'uspos/5700.bmp' width = '100%;'></div><div class = 'column'><img src = 'category4/CS4.png' width = '70%;'></div></div>","null","pos","CS","CS","4","category4/CS4.png","","","","",""
"","html-keyboard-response","20","189691","0.0-6.0-0.0-0.14","0l6bvae9bs","one_one","1","indirect_first","0","TZ05ER25","1","28","1","1","1","1","Ich bin zwar nicht ausreichend qualifiziert für eine Einschätzung, jedoch habe ich den Eindruck, dass das ""Priming"" durch etwaige Zeichenelemente sehr opulent war. ","0","1","0","null","","","<div class = 'row'><div class = 'column'><img src = 'category2/CS1.png' width = '70%;'></div><div class = 'column'><img src = 'usneg/9340.bmp' width = '100%;'></div></div>","null","neg","CS","CS","2","category2/CS1.png","","","","",""
"","html-keyboard-response","21","192232","0.0-6.0-0.0-0.15","0l6bvae9bs","one_one","1","indirect_first","0","TZ05ER25","1","28","1","1","1","1","Ich bin zwar nicht ausreichend qualifiziert für eine Einschätzung, jedoch habe ich den Eindruck, dass das ""Priming"" durch etwaige Zeichenelemente sehr opulent war. ","0","1","0","null","","","<div class = 'row'><div class = 'column'><img src = 'usneg/2900.bmp' width = '100%;'></div><div class = 'column'><img src = 'category3/CS5.png' width = '70%;'></div></div>","null","neg","CS","CS","3","category3/CS5.png","","","","",""
"","html-keyboard-response","22","194762","0.0-6.0-0.0-0.16","0l6bvae9bs","one_one","1","indirect_first","0","TZ05ER25","1","28","1","1","1","1","Ich bin zwar nicht ausreichend qualifiziert für eine Einschätzung, jedoch habe ich den Eindruck, dass das ""Priming"" durch etwaige Zeichenelemente sehr opulent war. ","0","1","0","null","","","<div class = 'row'><div class = 'column'><img src = 'category4/CS4.png' width = '70%;'></div><div class = 'column'><img src = 'uspos/5700.bmp' width = '100%;'></div></div>","null","pos","CS","CS","4","category4/CS4.png","","","","",""
"","html-keyboard-response","23","197302","0.0-6.0-0.0-0.17","0l6bvae9bs","one_one","1","indirect_first","0","TZ05ER25","1","28","1","1","1","1","Ich bin zwar nicht ausreichend qualifiziert für eine Einschätzung, jedoch habe ich den Eindruck, dass das ""Priming"" durch etwaige Zeichenelemente sehr opulent war. ","0","1","0","null","","","<div class = 'row'><div class = 'column'><img src = 'category1/CS6.png' width = '70%;'></div><div class = 'column'><img src = 'uspos/2550.bmp' width = '100%;'></div></div>","null","pos","CS","CS","1","category1/CS6.png","","","","",""
"","html-keyboard-response","24","199822","0.0-6.0-0.0-0.18","0l6bvae9bs","one_one","1","indirect_first","0","TZ05ER25","1","28","1","1","1","1","Ich bin zwar nicht ausreichend qualifiziert für eine Einschätzung, jedoch habe ich den Eindruck, dass das ""Priming"" durch etwaige Zeichenelemente sehr opulent war. ","0","1","0","null","","","<div class = 'row'><div class = 'column'><img src = 'category2/CS1.png' width = '70%;'></div><div class = 'column'><img src = 'usneg/9340.bmp' width = '100%;'></div></div>","null","neg","CS","CS","2","category2/CS1.png","","","","",""
"","html-keyboard-response","25","202361","0.0-6.0-0.0-0.19","0l6bvae9bs","one_one","1","indirect_first","0","TZ05ER25","1","28","1","1","1","1","Ich bin zwar nicht ausreichend qualifiziert für eine Einschätzung, jedoch habe ich den Eindruck, dass das ""Priming"" durch etwaige Zeichenelemente sehr opulent war. ","0","1","0","null","","","<div class = 'row'><div class = 'column'><img src = 'usneg/2900.bmp' width = '100%;'></div><div class = 'column'><img src = 'category3/CS5.png' width = '70%;'></div></div>","null","neg","CS","CS","3","category3/CS5.png","","","","",""
"","survey-html-form","26","206586","0.0-6.0-1.0","0l6bvae9bs","one_one","1","indirect_first","0","TZ05ER25","1","28","1","1","1","1","Ich bin zwar nicht ausreichend qualifiziert für eine Einschätzung, jedoch habe ich den Eindruck, dass das ""Priming"" durch etwaige Zeichenelemente sehr opulent war. ","0","1","0","3703","","{}","","","","","","","","","","","",""
"","html-keyboard-response","27","210622","0.0-6.0-2.0-0.0","0l6bvae9bs","one_one","1","indirect_first","0","TZ05ER25","1","28","1","1","1","1","Ich bin zwar nicht ausreichend qualifiziert für eine Einschätzung, jedoch habe ich den Eindruck, dass das ""Priming"" durch etwaige Zeichenelemente sehr opulent war. ","0","1","0","null","","","<div class = 'row'><div class = 'column'><img src = 'category2/CS1.png' width = '70%;'></div><div class = 'column'><img src = 'usneg/9340.bmp' width = '100%;'></div></div>","null","neg","CS","CS","2","category2/CS1.png","","","","",""
"","html-keyboard-response","28","213152","0.0-6.0-2.0-0.1","0l6bvae9bs","one_one","1","indirect_first","0","TZ05ER25","1","28","1","1","1","1","Ich bin zwar nicht ausreichend qualifiziert für eine Einschätzung, jedoch habe ich den Eindruck, dass das ""Priming"" durch etwaige Zeichenelemente sehr opulent war. ","0","1","0","null","","","<div class = 'row'><div class = 'column'><img src = 'category3/CS5.png' width = '70%;'></div><div class = 'column'><img src = 'usneg/2900.bmp' width = '100%;'></div></div>","null","neg","CS","CS","3","category3/CS5.png","","","","",""
"","html-keyboard-response","29","215677","0.0-6.0-2.0-0.2","0l6bvae9bs","one_one","1","indirect_first","0","TZ05ER25","1","28","1","1","1","1","Ich bin zwar nicht ausreichend qualifiziert für eine Einschätzung, jedoch habe ich den Eindruck, dass das ""Priming"" durch etwaige Zeichenelemente sehr opulent war. ","0","1","0","null","","","<div class = 'row'><div class = 'column'><img src = 'uspos/2550.bmp' width = '100%;'></div><div class = 'column'><img src = 'category1/CS6.png' width = '70%;'></div></div>","null","pos","CS","CS","1","category1/CS6.png","","","","",""
"","html-keyboard-response","30","218202","0.0-6.0-2.0-0.3","0l6bvae9bs","one_one","1","indirect_first","0","TZ05ER25","1","28","1","1","1","1","Ich bin zwar nicht ausreichend qualifiziert für eine Einschätzung, jedoch habe ich den Eindruck, dass das ""Priming"" durch etwaige Zeichenelemente sehr opulent war. ","0","1","0","null","","","<div class = 'row'><div class = 'column'><img src = 'category2/CS1.png' width = '70%;'></div><div class = 'column'><img src = 'usneg/9340.bmp' width = '100%;'></div></div>","null","neg","CS","CS","2","category2/CS1.png","","","","",""
"","html-keyboard-response","31","220741","0.0-6.0-2.0-0.4","0l6bvae9bs","one_one","1","indirect_first","0","TZ05ER25","1","28","1","1","1","1","Ich bin zwar nicht ausreichend qualifiziert für eine Einschätzung, jedoch habe ich den Eindruck, dass das ""Priming"" durch etwaige Zeichenelemente sehr opulent war. ","0","1","0","null","","","<div class = 'row'><div class = 'column'><img src = 'uspos/5700.bmp' width = '100%;'></div><div class = 'column'><img src = 'category4/CS4.png' width = '70%;'></div></div>","null","pos","CS","CS","4","category4/CS4.png","","","","",""
"","html-keyboard-response","32","223282","0.0-6.0-2.0-0.5","0l6bvae9bs","one_one","1","indirect_first","0","TZ05ER25","1","28","1","1","1","1","Ich bin zwar nicht ausreichend qualifiziert für eine Einschätzung, jedoch habe ich den Eindruck, dass das ""Priming"" durch etwaige Zeichenelemente sehr opulent war. ","0","1","0","null","","","<div class = 'row'><div class = 'column'><img src = 'usneg/2900.bmp' width = '100%;'></div><div class = 'column'><img src = 'category3/CS5.png' width = '70%;'></div></div>","null","neg","CS","CS","3","category3/CS5.png","","","","",""
"","html-keyboard-response","33","225821","0.0-6.0-2.0-0.6","0l6bvae9bs","one_one","1","indirect_first","0","TZ05ER25","1","28","1","1","1","1","Ich bin zwar nicht ausreichend qualifiziert für eine Einschätzung, jedoch habe ich den Eindruck, dass das ""Priming"" durch etwaige Zeichenelemente sehr opulent war. ","0","1","0","null","","","<div class = 'row'><div class = 'column'><img src = 'usneg/9340.bmp' width = '100%;'></div><div class = 'column'><img src = 'category2/CS1.png' width = '70%;'></div></div>","null","neg","CS","CS","2","category2/CS1.png","","","","",""
"","html-keyboard-response","34","228362","0.0-6.0-2.0-0.7","0l6bvae9bs","one_one","1","indirect_first","0","TZ05ER25","1","28","1","1","1","1","Ich bin zwar nicht ausreichend qualifiziert für eine Einschätzung, jedoch habe ich den Eindruck, dass das ""Priming"" durch etwaige Zeichenelemente sehr opulent war. ","0","1","0","null","","","<div class = 'row'><div class = 'column'><img src = 'uspos/2550.bmp' width = '100%;'></div><div class = 'column'><img src = 'category1/CS6.png' width = '70%;'></div></div>","null","pos","CS","CS","1","category1/CS6.png","","","","",""
"","html-keyboard-response","35","230902","0.0-6.0-2.0-0.8","0l6bvae9bs","one_one","1","indirect_first","0","TZ05ER25","1","28","1","1","1","1","Ich bin zwar nicht ausreichend qualifiziert für eine Einschätzung, jedoch habe ich den Eindruck, dass das ""Priming"" durch etwaige Zeichenelemente sehr opulent war. ","0","1","0","null","","","<div class = 'row'><div class = 'column'><img src = 'usneg/2900.bmp' width = '100%;'></div><div class = 'column'><img src = 'category3/CS5.png' width = '70%;'></div></div>","null","neg","CS","CS","3","category3/CS5.png","","","","",""
"","html-keyboard-response","36","233442","0.0-6.0-2.0-0.9","0l6bvae9bs","one_one","1","indirect_first","0","TZ05ER25","1","28","1","1","1","1","Ich bin zwar nicht ausreichend qualifiziert für eine Einschätzung, jedoch habe ich den Eindruck, dass das ""Priming"" durch etwaige Zeichenelemente sehr opulent war. ","0","1","0","null","","","<div class = 'row'><div class = 'column'><img src = 'category2/CS1.png' width = '70%;'></div><div class = 'column'><img src = 'usneg/9340.bmp' width = '100%;'></div></div>","null","neg","CS","CS","2","category2/CS1.png","","","","",""
"","html-keyboard-response","37","235982","0.0-6.0-2.0-0.10","0l6bvae9bs","one_one","1","indirect_first","0","TZ05ER25","1","28","1","1","1","1","Ich bin zwar nicht ausreichend qualifiziert für eine Einschätzung, jedoch habe ich den Eindruck, dass das ""Priming"" durch etwaige Zeichenelemente sehr opulent war. ","0","1","0","null","","","<div class = 'row'><div class = 'column'><img src = 'category4/CS4.png' width = '70%;'></div><div class = 'column'><img src = 'uspos/5700.bmp' width = '100%;'></div></div>","null","pos","CS","CS","4","category4/CS4.png","","","","",""
"","html-keyboard-response","38","238522","0.0-6.0-2.0-0.11","0l6bvae9bs","one_one","1","indirect_first","0","TZ05ER25","1","28","1","1","1","1","Ich bin zwar nicht ausreichend qualifiziert für eine Einschätzung, jedoch habe ich den Eindruck, dass das ""Priming"" durch etwaige Zeichenelemente sehr opulent war. ","0","1","0","null","","","<div class = 'row'><div class = 'column'><img src = 'category3/CS5.png' width = '70%;'></div><div class = 'column'><img src = 'usneg/2900.bmp' width = '100%;'></div></div>","null","neg","CS","CS","3","category3/CS5.png","","","","",""
"","html-keyboard-response","39","241051","0.0-6.0-2.0-0.12","0l6bvae9bs","one_one","1","indirect_first","0","TZ05ER25","1","28","1","1","1","1","Ich bin zwar nicht ausreichend qualifiziert für eine Einschätzung, jedoch habe ich den Eindruck, dass das ""Priming"" durch etwaige Zeichenelemente sehr opulent war. ","0","1","0","null","","","<div class = 'row'><div class = 'column'><img src = 'category4/CS4.png' width = '70%;'></div><div class = 'column'><img src = 'uspos/5700.bmp' width = '100%;'></div></div>","null","pos","CS","CS","4","category4/CS4.png","","","","",""
"","html-keyboard-response","40","243592","0.0-6.0-2.0-0.13","0l6bvae9bs","one_one","1","indirect_first","0","TZ05ER25","1","28","1","1","1","1","Ich bin zwar nicht ausreichend qualifiziert für eine Einschätzung, jedoch habe ich den Eindruck, dass das ""Priming"" durch etwaige Zeichenelemente sehr opulent war. ","0","1","0","null","","","<div class = 'row'><div class = 'column'><img src = 'category1/CS6.png' width = '70%;'></div><div class = 'column'><img src = 'uspos/2550.bmp' width = '100%;'></div></div>","null","pos","CS","CS","1","category1/CS6.png","","","","",""
"","html-keyboard-response","41","246131","0.0-6.0-2.0-0.14","0l6bvae9bs","one_one","1","indirect_first","0","TZ05ER25","1","28","1","1","1","1","Ich bin zwar nicht ausreichend qualifiziert für eine Einschätzung, jedoch habe ich den Eindruck, dass das ""Priming"" durch etwaige Zeichenelemente sehr opulent war. ","0","1","0","null","","","<div class = 'row'><div class = 'column'><img src = 'category3/CS5.png' width = '70%;'></div><div class = 'column'><img src = 'usneg/2900.bmp' width = '100%;'></div></div>","null","neg","CS","CS","3","category3/CS5.png","","","","",""
"","html-keyboard-response","42","248671","0.0-6.0-2.0-0.15","0l6bvae9bs","one_one","1","indirect_first","0","TZ05ER25","1","28","1","1","1","1","Ich bin zwar nicht ausreichend qualifiziert für eine Einschätzung, jedoch habe ich den Eindruck, dass das ""Priming"" durch etwaige Zeichenelemente sehr opulent war. ","0","1","0","null","","","<div class = 'row'><div class = 'column'><img src = 'category2/CS1.png' width = '70%;'></div><div class = 'column'><img src = 'usneg/9340.bmp' width = '100%;'></div></div>","null","neg","CS","CS","2","category2/CS1.png","","","","",""
"","html-keyboard-response","43","251212","0.0-6.0-2.0-0.16","0l6bvae9bs","one_one","1","indirect_first","0","TZ05ER25","1","28","1","1","1","1","Ich bin zwar nicht ausreichend qualifiziert für eine Einschätzung, jedoch habe ich den Eindruck, dass das ""Priming"" durch etwaige Zeichenelemente sehr opulent war. ","0","1","0","null","","","<div class = 'row'><div class = 'column'><img src = 'uspos/5700.bmp' width = '100%;'></div><div class = 'column'><img src = 'category4/CS4.png' width = '70%;'></div></div>","null","pos","CS","CS","4","category4/CS4.png","","","","",""
"","html-keyboard-response","44","253735","0.0-6.0-2.0-0.17","0l6bvae9bs","one_one","1","indirect_first","0","TZ05ER25","1","28","1","1","1","1","Ich bin zwar nicht ausreichend qualifiziert für eine Einschätzung, jedoch habe ich den Eindruck, dass das ""Priming"" durch etwaige Zeichenelemente sehr opulent war. ","0","1","0","null","","","<div class = 'row'><div class = 'column'><img src = 'category1/CS6.png' width = '70%;'></div><div class = 'column'><img src = 'uspos/2550.bmp' width = '100%;'></div></div>","null","pos","CS","CS","1","category1/CS6.png","","","","",""
"","html-keyboard-response","45","256261","0.0-6.0-2.0-0.18","0l6bvae9bs","one_one","1","indirect_first","0","TZ05ER25","1","28","1","1","1","1","Ich bin zwar nicht ausreichend qualifiziert für eine Einschätzung, jedoch habe ich den Eindruck, dass das ""Priming"" durch etwaige Zeichenelemente sehr opulent war. ","0","1","0","null","","","<div class = 'row'><div class = 'column'><img src = 'uspos/5700.bmp' width = '100%;'></div><div class = 'column'><img src = 'category4/CS4.png' width = '70%;'></div></div>","null","pos","CS","CS","4","category4/CS4.png","","","","",""
"","html-keyboard-response","46","258801","0.0-6.0-2.0-0.19","0l6bvae9bs","one_one","1","indirect_first","0","TZ05ER25","1","28","1","1","1","1","Ich bin zwar nicht ausreichend qualifiziert für eine Einschätzung, jedoch habe ich den Eindruck, dass das ""Priming"" durch etwaige Zeichenelemente sehr opulent war. ","0","1","0","null","","","<div class = 'row'><div class = 'column'><img src = 'uspos/2550.bmp' width = '100%;'></div><div class = 'column'><img src = 'category1/CS6.png' width = '70%;'></div></div>","null","pos","CS","CS","1","category1/CS6.png","","","","",""
"","survey-html-form","47","262616","0.0-6.0-3.0","0l6bvae9bs","one_one","1","indirect_first","0","TZ05ER25","1","28","1","1","1","1","Ich bin zwar nicht ausreichend qualifiziert für eine Einschätzung, jedoch habe ich den Eindruck, dass das ""Priming"" durch etwaige Zeichenelemente sehr opulent war. ","0","1","0","3294","","{}","","","","","","","","","","","",""
"","html-keyboard-response","48","266642","0.0-6.0-4.0-0.0","0l6bvae9bs","one_one","1","indirect_first","0","TZ05ER25","1","28","1","1","1","1","Ich bin zwar nicht ausreichend qualifiziert für eine Einschätzung, jedoch habe ich den Eindruck, dass das ""Priming"" durch etwaige Zeichenelemente sehr opulent war. ","0","1","0","null","","","<div class = 'row'><div class = 'column'><img src = 'category4/CS4.png' width = '70%;'></div><div class = 'column'><img src = 'uspos/5700.bmp' width = '100%;'></div></div>","null","pos","CS","CS","4","category4/CS4.png","","","","",""
"","html-keyboard-response","49","269182","0.0-6.0-4.0-0.1","0l6bvae9bs","one_one","1","indirect_first","0","TZ05ER25","1","28","1","1","1","1","Ich bin zwar nicht ausreichend qualifiziert für eine Einschätzung, jedoch habe ich den Eindruck, dass das ""Priming"" durch etwaige Zeichenelemente sehr opulent war. ","0","1","0","null","","","<div class = 'row'><div class = 'column'><img src = 'category2/CS1.png' width = '70%;'></div><div class = 'column'><img src = 'usneg/9340.bmp' width = '100%;'></div></div>","null","neg","CS","CS","2","category2/CS1.png","","","","",""
"","html-keyboard-response","50","271722","0.0-6.0-4.0-0.2","0l6bvae9bs","one_one","1","indirect_first","0","TZ05ER25","1","28","1","1","1","1","Ich bin zwar nicht ausreichend qualifiziert für eine Einschätzung, jedoch habe ich den Eindruck, dass das ""Priming"" durch etwaige Zeichenelemente sehr opulent war. ","0","1","0","null","","","<div class = 'row'><div class = 'column'><img src = 'uspos/2550.bmp' width = '100%;'></div><div class = 'column'><img src = 'category1/CS6.png' width = '70%;'></div></div>","null","pos","CS","CS","1","category1/CS6.png","","","","",""
"","html-keyboard-response","51","274252","0.0-6.0-4.0-0.3","0l6bvae9bs","one_one","1","indirect_first","0","TZ05ER25","1","28","1","1","1","1","Ich bin zwar nicht ausreichend qualifiziert für eine Einschätzung, jedoch habe ich den Eindruck, dass das ""Priming"" durch etwaige Zeichenelemente sehr opulent war. ","0","1","0","null","","","<div class = 'row'><div class = 'column'><img src = 'category3/CS5.png' width = '70%;'></div><div class = 'column'><img src = 'usneg/2900.bmp' width = '100%;'></div></div>","null","neg","CS","CS","3","category3/CS5.png","","","","",""
"","html-keyboard-response","52","276782","0.0-6.0-4.0-0.4","0l6bvae9bs","one_one","1","indirect_first","0","TZ05ER25","1","28","1","1","1","1","Ich bin zwar nicht ausreichend qualifiziert für eine Einschätzung, jedoch habe ich den Eindruck, dass das ""Priming"" durch etwaige Zeichenelemente sehr opulent war. ","0","1","0","null","","","<div class = 'row'><div class = 'column'><img src = 'uspos/5700.bmp' width = '100%;'></div><div class = 'column'><img src = 'category4/CS4.png' width = '70%;'></div></div>","null","pos","CS","CS","4","category4/CS4.png","","","","",""
"","html-keyboard-response","53","279321","0.0-6.0-4.0-0.5","0l6bvae9bs","one_one","1","indirect_first","0","TZ05ER25","1","28","1","1","1","1","Ich bin zwar nicht ausreichend qualifiziert für eine Einschätzung, jedoch habe ich den Eindruck, dass das ""Priming"" durch etwaige Zeichenelemente sehr opulent war. ","0","1","0","null","","","<div class = 'row'><div class = 'column'><img src = 'usneg/9340.bmp' width = '100%;'></div><div class = 'column'><img src = 'category2/CS1.png' width = '70%;'></div></div>","null","neg","CS","CS","2","category2/CS1.png","","","","",""
"","html-keyboard-response","54","281852","0.0-6.0-4.0-0.6","0l6bvae9bs","one_one","1","indirect_first","0","TZ05ER25","1","28","1","1","1","1","Ich bin zwar nicht ausreichend qualifiziert für eine Einschätzung, jedoch habe ich den Eindruck, dass das ""Priming"" durch etwaige Zeichenelemente sehr opulent war. ","0","1","0","null","","","<div class = 'row'><div class = 'column'><img src = 'uspos/2550.bmp' width = '100%;'></div><div class = 'column'><img src = 'category1/CS6.png' width = '70%;'></div></div>","null","pos","CS","CS","1","category1/CS6.png","","","","",""
"","html-keyboard-response","55","284382","0.0-6.0-4.0-0.7","0l6bvae9bs","one_one","1","indirect_first","0","TZ05ER25","1","28","1","1","1","1","Ich bin zwar nicht ausreichend qualifiziert für eine Einschätzung, jedoch habe ich den Eindruck, dass das ""Priming"" durch etwaige Zeichenelemente sehr opulent war. ","0","1","0","null","","","<div class = 'row'><div class = 'column'><img src = 'category2/CS1.png' width = '70%;'></div><div class = 'column'><img src = 'usneg/9340.bmp' width = '100%;'></div></div>","null","neg","CS","CS","2","category2/CS1.png","","","","",""
"","html-keyboard-response","56","286922","0.0-6.0-4.0-0.8","0l6bvae9bs","one_one","1","indirect_first","0","TZ05ER25","1","28","1","1","1","1","Ich bin zwar nicht ausreichend qualifiziert für eine Einschätzung, jedoch habe ich den Eindruck, dass das ""Priming"" durch etwaige Zeichenelemente sehr opulent war. ","0","1","0","null","","","<div class = 'row'><div class = 'column'><img src = 'uspos/2550.bmp' width = '100%;'></div><div class = 'column'><img src = 'category1/CS6.png' width = '70%;'></div></div>","null","pos","CS","CS","1","category1/CS6.png","","","","",""
"","html-keyboard-response","57","289462","0.0-6.0-4.0-0.9","0l6bvae9bs","one_one","1","indirect_first","0","TZ05ER25","1","28","1","1","1","1","Ich bin zwar nicht ausreichend qualifiziert für eine Einschätzung, jedoch habe ich den Eindruck, dass das ""Priming"" durch etwaige Zeichenelemente sehr opulent war. ","0","1","0","null","","","<div class = 'row'><div class = 'column'><img src = 'category4/CS4.png' width = '70%;'></div><div class = 'column'><img src = 'uspos/5700.bmp' width = '100%;'></div></div>","null","pos","CS","CS","4","category4/CS4.png","","","","",""
"","html-keyboard-response","58","292002","0.0-6.0-4.0-0.10","0l6bvae9bs","one_one","1","indirect_first","0","TZ05ER25","1","28","1","1","1","1","Ich bin zwar nicht ausreichend qualifiziert für eine Einschätzung, jedoch habe ich den Eindruck, dass das ""Priming"" durch etwaige Zeichenelemente sehr opulent war. ","0","1","0","null","","","<div class = 'row'><div class = 'column'><img src = 'usneg/2900.bmp' width = '100%;'></div><div class = 'column'><img src = 'category3/CS5.png' width = '70%;'></div></div>","null","neg","CS","CS","3","category3/CS5.png","","","","",""
"","html-keyboard-response","59","294531","0.0-6.0-4.0-0.11","0l6bvae9bs","one_one","1","indirect_first","0","TZ05ER25","1","28","1","1","1","1","Ich bin zwar nicht ausreichend qualifiziert für eine Einschätzung, jedoch habe ich den Eindruck, dass das ""Priming"" durch etwaige Zeichenelemente sehr opulent war. ","0","1","0","null","","","<div class = 'row'><div class = 'column'><img src = 'uspos/2550.bmp' width = '100%;'></div><div class = 'column'><img src = 'category1/CS6.png' width = '70%;'></div></div>","null","pos","CS","CS","1","category1/CS6.png","","","","",""
"","html-keyboard-response","60","297071","0.0-6.0-4.0-0.12","0l6bvae9bs","one_one","1","indirect_first","0","TZ05ER25","1","28","1","1","1","1","Ich bin zwar nicht ausreichend qualifiziert für eine Einschätzung, jedoch habe ich den Eindruck, dass das ""Priming"" durch etwaige Zeichenelemente sehr opulent war. ","0","1","0","null","","","<div class = 'row'><div class = 'column'><img src = 'category3/CS5.png' width = '70%;'></div><div class = 'column'><img src = 'usneg/2900.bmp' width = '100%;'></div></div>","null","neg","CS","CS","3","category3/CS5.png","","","","",""
"","html-keyboard-response","61","299612","0.0-6.0-4.0-0.13","0l6bvae9bs","one_one","1","indirect_first","0","TZ05ER25","1","28","1","1","1","1","Ich bin zwar nicht ausreichend qualifiziert für eine Einschätzung, jedoch habe ich den Eindruck, dass das ""Priming"" durch etwaige Zeichenelemente sehr opulent war. ","0","1","0","null","","","<div class = 'row'><div class = 'column'><img src = 'usneg/9340.bmp' width = '100%;'></div><div class = 'column'><img src = 'category2/CS1.png' width = '70%;'></div></div>","null","neg","CS","CS","2","category2/CS1.png","","","","",""
"","html-keyboard-response","62","302152","0.0-6.0-4.0-0.14","0l6bvae9bs","one_one","1","indirect_first","0","TZ05ER25","1","28","1","1","1","1","Ich bin zwar nicht ausreichend qualifiziert für eine Einschätzung, jedoch habe ich den Eindruck, dass das ""Priming"" durch etwaige Zeichenelemente sehr opulent war. ","0","1","0","null","","","<div class = 'row'><div class = 'column'><img src = 'uspos/5700.bmp' width = '100%;'></div><div class = 'column'><img src = 'category4/CS4.png' width = '70%;'></div></div>","null","pos","CS","CS","4","category4/CS4.png","","","","",""
"","html-keyboard-response","63","304691","0.0-6.0-4.0-0.15","0l6bvae9bs","one_one","1","indirect_first","0","TZ05ER25","1","28","1","1","1","1","Ich bin zwar nicht ausreichend qualifiziert für eine Einschätzung, jedoch habe ich den Eindruck, dass das ""Priming"" durch etwaige Zeichenelemente sehr opulent war. ","0","1","0","null","","","<div class = 'row'><div class = 'column'><img src = 'usneg/2900.bmp' width = '100%;'></div><div class = 'column'><img src = 'category3/CS5.png' width = '70%;'></div></div>","null","neg","CS","CS","3","category3/CS5.png","","","","",""
"","html-keyboard-response","64","307232","0.0-6.0-4.0-0.16","0l6bvae9bs","one_one","1","indirect_first","0","TZ05ER25","1","28","1","1","1","1","Ich bin zwar nicht ausreichend qualifiziert für eine Einschätzung, jedoch habe ich den Eindruck, dass das ""Priming"" durch etwaige Zeichenelemente sehr opulent war. ","0","1","0","null","","","<div class = 'row'><div class = 'column'><img src = 'category2/CS1.png' width = '70%;'></div><div class = 'column'><img src = 'usneg/9340.bmp' width = '100%;'></div></div>","null","neg","CS","CS","2","category2/CS1.png","","","","",""
"","html-keyboard-response","65","309772","0.0-6.0-4.0-0.17","0l6bvae9bs","one_one","1","indirect_first","0","TZ05ER25","1","28","1","1","1","1","Ich bin zwar nicht ausreichend qualifiziert für eine Einschätzung, jedoch habe ich den Eindruck, dass das ""Priming"" durch etwaige Zeichenelemente sehr opulent war. ","0","1","0","null","","","<div class = 'row'><div class = 'column'><img src = 'category4/CS4.png' width = '70%;'></div><div class = 'column'><img src = 'uspos/5700.bmp' width = '100%;'></div></div>","null","pos","CS","CS","4","category4/CS4.png","","","","",""
"","html-keyboard-response","66","312311","0.0-6.0-4.0-0.18","0l6bvae9bs","one_one","1","indirect_first","0","TZ05ER25","1","28","1","1","1","1","Ich bin zwar nicht ausreichend qualifiziert für eine Einschätzung, jedoch habe ich den Eindruck, dass das ""Priming"" durch etwaige Zeichenelemente sehr opulent war. ","0","1","0","null","","","<div class = 'row'><div class = 'column'><img src = 'category3/CS5.png' width = '70%;'></div><div class = 'column'><img src = 'usneg/2900.bmp' width = '100%;'></div></div>","null","neg","CS","CS","3","category3/CS5.png","","","","",""
"","html-keyboard-response","67","314852","0.0-6.0-4.0-0.19","0l6bvae9bs","one_one","1","indirect_first","0","TZ05ER25","1","28","1","1","1","1","Ich bin zwar nicht ausreichend qualifiziert für eine Einschätzung, jedoch habe ich den Eindruck, dass das ""Priming"" durch etwaige Zeichenelemente sehr opulent war. ","0","1","0","null","","","<div class = 'row'><div class = 'column'><img src = 'uspos/2550.bmp' width = '100%;'></div><div class = 'column'><img src = 'category1/CS6.png' width = '70%;'></div></div>","null","pos","CS","CS","1","category1/CS6.png","","","","",""
"","survey-html-form","68","318306","0.0-6.0-5.0","0l6bvae9bs","one_one","1","indirect_first","0","TZ05ER25","1","28","1","1","1","1","Ich bin zwar nicht ausreichend qualifiziert für eine Einschätzung, jedoch habe ich den Eindruck, dass das ""Priming"" durch etwaige Zeichenelemente sehr opulent war. ","0","1","0","2934","","{}","","","","","","","","","","","",""
"","html-keyboard-response","69","322332","0.0-6.0-6.0-0.0","0l6bvae9bs","one_one","1","indirect_first","0","TZ05ER25","1","28","1","1","1","1","Ich bin zwar nicht ausreichend qualifiziert für eine Einschätzung, jedoch habe ich den Eindruck, dass das ""Priming"" durch etwaige Zeichenelemente sehr opulent war. ","0","1","0","null","","","<div class = 'row'><div class = 'column'><img src = 'category4/CS4.png' width = '70%;'></div><div class = 'column'><img src = 'uspos/5700.bmp' width = '100%;'></div></div>","null","pos","CS","CS","4","category4/CS4.png","","","","",""
"","html-keyboard-response","70","324872","0.0-6.0-6.0-0.1","0l6bvae9bs","one_one","1","indirect_first","0","TZ05ER25","1","28","1","1","1","1","Ich bin zwar nicht ausreichend qualifiziert für eine Einschätzung, jedoch habe ich den Eindruck, dass das ""Priming"" durch etwaige Zeichenelemente sehr opulent war. ","0","1","0","null","","","<div class = 'row'><div class = 'column'><img src = 'category3/CS5.png' width = '70%;'></div><div class = 'column'><img src = 'usneg/2900.bmp' width = '100%;'></div></div>","null","neg","CS","CS","3","category3/CS5.png","","","","",""
"","html-keyboard-response","71","327412","0.0-6.0-6.0-0.2","0l6bvae9bs","one_one","1","indirect_first","0","TZ05ER25","1","28","1","1","1","1","Ich bin zwar nicht ausreichend qualifiziert für eine Einschätzung, jedoch habe ich den Eindruck, dass das ""Priming"" durch etwaige Zeichenelemente sehr opulent war. ","0","1","0","null","","","<div class = 'row'><div class = 'column'><img src = 'uspos/2550.bmp' width = '100%;'></div><div class = 'column'><img src = 'category1/CS6.png' width = '70%;'></div></div>","null","pos","CS","CS","1","category1/CS6.png","","","","",""
"","html-keyboard-response","72","329952","0.0-6.0-6.0-0.3","0l6bvae9bs","one_one","1","indirect_first","0","TZ05ER25","1","28","1","1","1","1","Ich bin zwar nicht ausreichend qualifiziert für eine Einschätzung, jedoch habe ich den Eindruck, dass das ""Priming"" durch etwaige Zeichenelemente sehr opulent war. ","0","1","0","null","","","<div class = 'row'><div class = 'column'><img src = 'usneg/2900.bmp' width = '100%;'></div><div class = 'column'><img src = 'category3/CS5.png' width = '70%;'></div></div>","null","neg","CS","CS","3","category3/CS5.png","","","","",""
"","html-keyboard-response","73","332490","0.0-6.0-6.0-0.4","0l6bvae9bs","one_one","1","indirect_first","0","TZ05ER25","1","28","1","1","1","1","Ich bin zwar nicht ausreichend qualifiziert für eine Einschätzung, jedoch habe ich den Eindruck, dass das ""Priming"" durch etwaige Zeichenelemente sehr opulent war. ","0","1","0","null","","","<div class = 'row'><div class = 'column'><img src = 'category2/CS1.png' width = '70%;'></div><div class = 'column'><img src = 'usneg/9340.bmp' width = '100%;'></div></div>","null","neg","CS","CS","2","category2/CS1.png","","","","",""
"","html-keyboard-response","74","335001","0.0-6.0-6.0-0.5","0l6bvae9bs","one_one","1","indirect_first","0","TZ05ER25","1","28","1","1","1","1","Ich bin zwar nicht ausreichend qualifiziert für eine Einschätzung, jedoch habe ich den Eindruck, dass das ""Priming"" durch etwaige Zeichenelemente sehr opulent war. ","0","1","0","null","","","<div class = 'row'><div class = 'column'><img src = 'category1/CS6.png' width = '70%;'></div><div class = 'column'><img src = 'uspos/2550.bmp' width = '100%;'></div></div>","null","pos","CS","CS","1","category1/CS6.png","","","","",""
"","html-keyboard-response","75","337542","0.0-6.0-6.0-0.6","0l6bvae9bs","one_one","1","indirect_first","0","TZ05ER25","1","28","1","1","1","1","Ich bin zwar nicht ausreichend qualifiziert für eine Einschätzung, jedoch habe ich den Eindruck, dass das ""Priming"" durch etwaige Zeichenelemente sehr opulent war. ","0","1","0","null","","","<div class = 'row'><div class = 'column'><img src = 'uspos/5700.bmp' width = '100%;'></div><div class = 'column'><img src = 'category4/CS4.png' width = '70%;'></div></div>","null","pos","CS","CS","4","category4/CS4.png","","","","",""
"","html-keyboard-response","76","340081","0.0-6.0-6.0-0.7","0l6bvae9bs","one_one","1","indirect_first","0","TZ05ER25","1","28","1","1","1","1","Ich bin zwar nicht ausreichend qualifiziert für eine Einschätzung, jedoch habe ich den Eindruck, dass das ""Priming"" durch etwaige Zeichenelemente sehr opulent war. ","0","1","0","null","","","<div class = 'row'><div class = 'column'><img src = 'category1/CS6.png' width = '70%;'></div><div class = 'column'><img src = 'uspos/2550.bmp' width = '100%;'></div></div>","null","pos","CS","CS","1","category1/CS6.png","","","","",""
"","html-keyboard-response","77","342612","0.0-6.0-6.0-0.8","0l6bvae9bs","one_one","1","indirect_first","0","TZ05ER25","1","28","1","1","1","1","Ich bin zwar nicht ausreichend qualifiziert für eine Einschätzung, jedoch habe ich den Eindruck, dass das ""Priming"" durch etwaige Zeichenelemente sehr opulent war. ","0","1","0","null","","","<div class = 'row'><div class = 'column'><img src = 'usneg/9340.bmp' width = '100%;'></div><div class = 'column'><img src = 'category2/CS1.png' width = '70%;'></div></div>","null","neg","CS","CS","2","category2/CS1.png","","","","",""
"","html-keyboard-response","78","345151","0.0-6.0-6.0-0.9","0l6bvae9bs","one_one","1","indirect_first","0","TZ05ER25","1","28","1","1","1","1","Ich bin zwar nicht ausreichend qualifiziert für eine Einschätzung, jedoch habe ich den Eindruck, dass das ""Priming"" durch etwaige Zeichenelemente sehr opulent war. ","0","1","0","null","","","<div class = 'row'><div class = 'column'><img src = 'usneg/2900.bmp' width = '100%;'></div><div class = 'column'><img src = 'category3/CS5.png' width = '70%;'></div></div>","null","neg","CS","CS","3","category3/CS5.png","","","","",""
"","html-keyboard-response","79","347692","0.0-6.0-6.0-0.10","0l6bvae9bs","one_one","1","indirect_first","0","TZ05ER25","1","28","1","1","1","1","Ich bin zwar nicht ausreichend qualifiziert für eine Einschätzung, jedoch habe ich den Eindruck, dass das ""Priming"" durch etwaige Zeichenelemente sehr opulent war. ","0","1","0","null","","","<div class = 'row'><div class = 'column'><img src = 'category2/CS1.png' width = '70%;'></div><div class = 'column'><img src = 'usneg/9340.bmp' width = '100%;'></div></div>","null","neg","CS","CS","2","category2/CS1.png","","","","",""
"","html-keyboard-response","80","350228","0.0-6.0-6.0-0.11","0l6bvae9bs","one_one","1","indirect_first","0","TZ05ER25","1","28","1","1","1","1","Ich bin zwar nicht ausreichend qualifiziert für eine Einschätzung, jedoch habe ich den Eindruck, dass das ""Priming"" durch etwaige Zeichenelemente sehr opulent war. ","0","1","0","null","","","<div class = 'row'><div class = 'column'><img src = 'usneg/2900.bmp' width = '100%;'></div><div class = 'column'><img src = 'category3/CS5.png' width = '70%;'></div></div>","null","neg","CS","CS","3","category3/CS5.png","","","","",""
"","html-keyboard-response","81","352732","0.0-6.0-6.0-0.12","0l6bvae9bs","one_one","1","indirect_first","0","TZ05ER25","1","28","1","1","1","1","Ich bin zwar nicht ausreichend qualifiziert für eine Einschätzung, jedoch habe ich den Eindruck, dass das ""Priming"" durch etwaige Zeichenelemente sehr opulent war. ","0","1","0","null","","","<div class = 'row'><div class = 'column'><img src = 'uspos/2550.bmp' width = '100%;'></div><div class = 'column'><img src = 'category1/CS6.png' width = '70%;'></div></div>","null","pos","CS","CS","1","category1/CS6.png","","","","",""
"","html-keyboard-response","82","355271","0.0-6.0-6.0-0.13","0l6bvae9bs","one_one","1","indirect_first","0","TZ05ER25","1","28","1","1","1","1","Ich bin zwar nicht ausreichend qualifiziert für eine Einschätzung, jedoch habe ich den Eindruck, dass das ""Priming"" durch etwaige Zeichenelemente sehr opulent war. ","0","1","0","null","","","<div class = 'row'><div class = 'column'><img src = 'category2/CS1.png' width = '70%;'></div><div class = 'column'><img src = 'usneg/9340.bmp' width = '100%;'></div></div>","null","neg","CS","CS","2","category2/CS1.png","","","","",""
"","html-keyboard-response","83","357811","0.0-6.0-6.0-0.14","0l6bvae9bs","one_one","1","indirect_first","0","TZ05ER25","1","28","1","1","1","1","Ich bin zwar nicht ausreichend qualifiziert für eine Einschätzung, jedoch habe ich den Eindruck, dass das ""Priming"" durch etwaige Zeichenelemente sehr opulent war. ","0","1","0","null","","","<div class = 'row'><div class = 'column'><img src = 'category4/CS4.png' width = '70%;'></div><div class = 'column'><img src = 'uspos/5700.bmp' width = '100%;'></div></div>","null","pos","CS","CS","4","category4/CS4.png","","","","",""
"","html-keyboard-response","84","360352","0.0-6.0-6.0-0.15","0l6bvae9bs","one_one","1","indirect_first","0","TZ05ER25","1","28","1","1","1","1","Ich bin zwar nicht ausreichend qualifiziert für eine Einschätzung, jedoch habe ich den Eindruck, dass das ""Priming"" durch etwaige Zeichenelemente sehr opulent war. ","0","1","0","null","","","<div class = 'row'><div class = 'column'><img src = 'uspos/2550.bmp' width = '100%;'></div><div class = 'column'><img src = 'category1/CS6.png' width = '70%;'></div></div>","null","pos","CS","CS","1","category1/CS6.png","","","","",""
"","html-keyboard-response","85","362892","0.0-6.0-6.0-0.16","0l6bvae9bs","one_one","1","indirect_first","0","TZ05ER25","1","28","1","1","1","1","Ich bin zwar nicht ausreichend qualifiziert für eine Einschätzung, jedoch habe ich den Eindruck, dass das ""Priming"" durch etwaige Zeichenelemente sehr opulent war. ","0","1","0","null","","","<div class = 'row'><div class = 'column'><img src = 'uspos/5700.bmp' width = '100%;'></div><div class = 'column'><img src = 'category4/CS4.png' width = '70%;'></div></div>","null","pos","CS","CS","4","category4/CS4.png","","","","",""
"","html-keyboard-response","86","365432","0.0-6.0-6.0-0.17","0l6bvae9bs","one_one","1","indirect_first","0","TZ05ER25","1","28","1","1","1","1","Ich bin zwar nicht ausreichend qualifiziert für eine Einschätzung, jedoch habe ich den Eindruck, dass das ""Priming"" durch etwaige Zeichenelemente sehr opulent war. ","0","1","0","null","","","<div class = 'row'><div class = 'column'><img src = 'category3/CS5.png' width = '70%;'></div><div class = 'column'><img src = 'usneg/2900.bmp' width = '100%;'></div></div>","null","neg","CS","CS","3","category3/CS5.png","","","","",""
"","html-keyboard-response","87","367961","0.0-6.0-6.0-0.18","0l6bvae9bs","one_one","1","indirect_first","0","TZ05ER25","1","28","1","1","1","1","Ich bin zwar nicht ausreichend qualifiziert für eine Einschätzung, jedoch habe ich den Eindruck, dass das ""Priming"" durch etwaige Zeichenelemente sehr opulent war. ","0","1","0","null","","","<div class = 'row'><div class = 'column'><img src = 'category4/CS4.png' width = '70%;'></div><div class = 'column'><img src = 'uspos/5700.bmp' width = '100%;'></div></div>","null","pos","CS","CS","4","category4/CS4.png","","","","",""
"","html-keyboard-response","88","370501","0.0-6.0-6.0-0.19","0l6bvae9bs","one_one","1","indirect_first","0","TZ05ER25","1","28","1","1","1","1","Ich bin zwar nicht ausreichend qualifiziert für eine Einschätzung, jedoch habe ich den Eindruck, dass das ""Priming"" durch etwaige Zeichenelemente sehr opulent war. ","0","1","0","null","","","<div class = 'row'><div class = 'column'><img src = 'usneg/9340.bmp' width = '100%;'></div><div class = 'column'><img src = 'category2/CS1.png' width = '70%;'></div></div>","null","neg","CS","CS","2","category2/CS1.png","","","","",""
"","html-keyboard-response","89","403163","0.0-7.0","0l6bvae9bs","one_one","1","indirect_first","0","TZ05ER25","1","28","1","1","1","1","Ich bin zwar nicht ausreichend qualifiziert für eine Einschätzung, jedoch habe ich den Eindruck, dass das ""Priming"" durch etwaige Zeichenelemente sehr opulent war. ","0","1","0","32139","","","<p>Sie sehen nun die chinesischen Zeichen nur ganz kurz. Danach sehen Sie die jeweilige Aussprache der Zeichen als Silbe auf dem Bildschrim. Ihre Aufgabe ist es, für jede Silbe anzugeben, ob diese etwas angenehmes, oder unangenehmes bedeuten könnte. Verlassen Sie sich hier vor allem auf Ihre Intuition.<br><br>Die Zeichen werden nur zur Orientierung dargestellt, beachten Sie sie deshalb nicht. Konzentrieren Sie sich vor allem auf die Silben. <br>Reagieren Sie mit folgenden zwei Tasten: <br><br><b>'D' </b> wenn die Silbe etwas <b>unangenehmes</b> bedeuten könnte. <br><b>'K'</b> wenn die Silbe etwas <b>angenehmes</b> bedeuten könnte. <br><br>Bitte legen Sie nun den Zeigefinger der linken Hand auf die Taste 'D' und den Zeigefinger der rechten Hand auf die Taste 'K'. <br>Reagieren Sie auf jede Silbe so schnell wie möglich. Uns interessiert Ihre spontane Reaktion. <br> <br> <br>Drücken Sie 'D' oder 'K', um die nächste Aufgabe zu starten. </p>","68","","","","","","","","","",""
"","html-keyboard-response","90","406202","0.0-8.0-0.0","0l6bvae9bs","one_one","1","indirect_first","0","TZ05ER25","1","28","1","1","1","1","Ich bin zwar nicht ausreichend qualifiziert für eine Einschätzung, jedoch habe ich den Eindruck, dass das ""Priming"" durch etwaige Zeichenelemente sehr opulent war. ","0","1","0","null","","","<div style=""font-size:60px;"">+</div>","null","","","","","","","","","",""
"","html-keyboard-response","91","406302","0.0-8.0-1.0","0l6bvae9bs","one_one","1","indirect_first","0","TZ05ER25","1","28","1","1","1","1","Ich bin zwar nicht ausreichend qualifiziert für eine Einschätzung, jedoch habe ich den Eindruck, dass das ""Priming"" durch etwaige Zeichenelemente sehr opulent war. ","0","1","0","null","","","<img src = 'category3/CS7.png' width = '100%;'>","null","","","","","","","","","",""
"","html-keyboard-response","92","406582","0.0-8.0-2.0","0l6bvae9bs","one_one","1","indirect_first","0","TZ05ER25","1","28","1","1","1","1","Ich bin zwar nicht ausreichend qualifiziert für eine Einschätzung, jedoch habe ich den Eindruck, dass das ""Priming"" durch etwaige Zeichenelemente sehr opulent war. ","0","1","0","null","","","<img src = 'targets/17.png' width = '100%;'>","null","","","","","","","","","",""
"","html-keyboard-response","93","410979","0.0-8.0-3.0","0l6bvae9bs","one_one","1","indirect_first","0","TZ05ER25","1","28","1","1","1","1","Ich bin zwar nicht ausreichend qualifiziert für eine Einschätzung, jedoch habe ich den Eindruck, dass das ""Priming"" durch etwaige Zeichenelemente sehr opulent war. ","0","1","0","4395","","","<img src = 'targets/mask.png' width = '100%;'>","68","neg","GS","GSold","3","category3/CS7.png","targets/17.png","0","indirect","0",""
"","html-keyboard-response","94","412502","0.0-8.0-0.1","0l6bvae9bs","one_one","1","indirect_first","0","TZ05ER25","1","28","1","1","1","1","Ich bin zwar nicht ausreichend qualifiziert für eine Einschätzung, jedoch habe ich den Eindruck, dass das ""Priming"" durch etwaige Zeichenelemente sehr opulent war. ","0","1","0","null","","","<div style=""font-size:60px;"">+</div>","null","","","","","","","","","",""
"","html-keyboard-response","95","412601","0.0-8.0-1.1","0l6bvae9bs","one_one","1","indirect_first","0","TZ05ER25","1","28","1","1","1","1","Ich bin zwar nicht ausreichend qualifiziert für eine Einschätzung, jedoch habe ich den Eindruck, dass das ""Priming"" durch etwaige Zeichenelemente sehr opulent war. ","0","1","0","null","","","<img src = 'category4/CS8.png' width = '100%;'>","null","","","","","","","","","",""
"","html-keyboard-response","96","412882","0.0-8.0-2.1","0l6bvae9bs","one_one","1","indirect_first","0","TZ05ER25","1","28","1","1","1","1","Ich bin zwar nicht ausreichend qualifiziert für eine Einschätzung, jedoch habe ich den Eindruck, dass das ""Priming"" durch etwaige Zeichenelemente sehr opulent war. ","0","1","0","null","","","<img src = 'targets/2.png' width = '100%;'>","null","","","","","","","","","",""
"","html-keyboard-response","97","417517","0.0-8.0-3.1","0l6bvae9bs","one_one","1","indirect_first","0","TZ05ER25","1","28","1","1","1","1","Ich bin zwar nicht ausreichend qualifiziert für eine Einschätzung, jedoch habe ich den Eindruck, dass das ""Priming"" durch etwaige Zeichenelemente sehr opulent war. ","0","1","0","4634","","","<img src = 'targets/mask.png' width = '100%;'>","68","pos","GS","GSold","4","category4/CS8.png","targets/2.png","0","indirect","1",""
"","html-keyboard-response","98","419041","0.0-8.0-0.2","0l6bvae9bs","one_one","1","indirect_first","0","TZ05ER25","1","28","1","1","1","1","Ich bin zwar nicht ausreichend qualifiziert für eine Einschätzung, jedoch habe ich den Eindruck, dass das ""Priming"" durch etwaige Zeichenelemente sehr opulent war. ","0","1","0","null","","","<div style=""font-size:60px;"">+</div>","null","","","","","","","","","",""
"","html-keyboard-response","99","419142","0.0-8.0-1.2","0l6bvae9bs","one_one","1","indirect_first","0","TZ05ER25","1","28","1","1","1","1","Ich bin zwar nicht ausreichend qualifiziert für eine Einschätzung, jedoch habe ich den Eindruck, dass das ""Priming"" durch etwaige Zeichenelemente sehr opulent war. ","0","1","0","null","","","<img src = 'category4/CS4.png' width = '100%;'>","null","","","","","","","","","",""
"","html-keyboard-response","100","419421","0.0-8.0-2.2","0l6bvae9bs","one_one","1","indirect_first","0","TZ05ER25","1","28","1","1","1","1","Ich bin zwar nicht ausreichend qualifiziert für eine Einschätzung, jedoch habe ich den Eindruck, dass das ""Priming"" durch etwaige Zeichenelemente sehr opulent war. ","0","1","0","null","","","<img src = 'targets/29.png' width = '100%;'>","null","","","","","","","","","",""
"","html-keyboard-response","101","420365","0.0-8.0-3.2","0l6bvae9bs","one_one","1","indirect_first","0","TZ05ER25","1","28","1","1","1","1","Ich bin zwar nicht ausreichend qualifiziert für eine Einschätzung, jedoch habe ich den Eindruck, dass das ""Priming"" durch etwaige Zeichenelemente sehr opulent war. ","0","1","0","942","","","<img src = 'targets/mask.png' width = '100%;'>","75","pos","CS","CS","4","category4/CS4.png","targets/29.png","1","indirect","2",""
"","html-keyboard-response","102","421892","0.0-8.0-0.3","0l6bvae9bs","one_one","1","indirect_first","0","TZ05ER25","1","28","1","1","1","1","Ich bin zwar nicht ausreichend qualifiziert für eine Einschätzung, jedoch habe ich den Eindruck, dass das ""Priming"" durch etwaige Zeichenelemente sehr opulent war. ","0","1","0","null","","","<div style=""font-size:60px;"">+</div>","null","","","","","","","","","",""
"","html-keyboard-response","103","421991","0.0-8.0-1.3","0l6bvae9bs","one_one","1","indirect_first","0","TZ05ER25","1","28","1","1","1","1","Ich bin zwar nicht ausreichend qualifiziert für eine Einschätzung, jedoch habe ich den Eindruck, dass das ""Priming"" durch etwaige Zeichenelemente sehr opulent war. ","0","1","0","null","","","<img src = 'category4/CS2.png' width = '100%;'>","null","","","","","","","","","",""
"","html-keyboard-response","104","422271","0.0-8.0-2.3","0l6bvae9bs","one_one","1","indirect_first","0","TZ05ER25","1","28","1","1","1","1","Ich bin zwar nicht ausreichend qualifiziert für eine Einschätzung, jedoch habe ich den Eindruck, dass das ""Priming"" durch etwaige Zeichenelemente sehr opulent war. ","0","1","0","null","","","<img src = 'targets/26.png' width = '100%;'>","null","","","","","","","","","",""
"","html-keyboard-response","105","423805","0.0-8.0-3.3","0l6bvae9bs","one_one","1","indirect_first","0","TZ05ER25","1","28","1","1","1","1","Ich bin zwar nicht ausreichend qualifiziert für eine Einschätzung, jedoch habe ich den Eindruck, dass das ""Priming"" durch etwaige Zeichenelemente sehr opulent war. ","0","1","0","1531","","","<img src = 'targets/mask.png' width = '100%;'>","75","pos","GS","GSold","4","category4/CS2.png","targets/26.png","1","indirect","3",""
"","html-keyboard-response","106","425342","0.0-8.0-0.4","0l6bvae9bs","one_one","1","indirect_first","0","TZ05ER25","1","28","1","1","1","1","Ich bin zwar nicht ausreichend qualifiziert für eine Einschätzung, jedoch habe ich den Eindruck, dass das ""Priming"" durch etwaige Zeichenelemente sehr opulent war. ","0","1","0","null","","","<div style=""font-size:60px;"">+</div>","null","","","","","","","","","",""
"","html-keyboard-response","107","425442","0.0-8.0-1.4","0l6bvae9bs","one_one","1","indirect_first","0","TZ05ER25","1","28","1","1","1","1","Ich bin zwar nicht ausreichend qualifiziert für eine Einschätzung, jedoch habe ich den Eindruck, dass das ""Priming"" durch etwaige Zeichenelemente sehr opulent war. ","0","1","0","null","","","<img src = 'category3/CS3.png' width = '100%;'>","null","","","","","","","","","",""
"","html-keyboard-response","108","425722","0.0-8.0-2.4","0l6bvae9bs","one_one","1","indirect_first","0","TZ05ER25","1","28","1","1","1","1","Ich bin zwar nicht ausreichend qualifiziert für eine Einschätzung, jedoch habe ich den Eindruck, dass das ""Priming"" durch etwaige Zeichenelemente sehr opulent war. ","0","1","0","null","","","<img src = 'targets/7.png' width = '100%;'>","null","","","","","","","","","",""
"","html-keyboard-response","109","426745","0.0-8.0-3.4","0l6bvae9bs","one_one","1","indirect_first","0","TZ05ER25","1","28","1","1","1","1","Ich bin zwar nicht ausreichend qualifiziert für eine Einschätzung, jedoch habe ich den Eindruck, dass das ""Priming"" durch etwaige Zeichenelemente sehr opulent war. ","0","1","0","1021","","","<img src = 'targets/mask.png' width = '100%;'>","75","neg","GS","GSold","3","category3/CS3.png","targets/7.png","1","indirect","4",""
"","html-keyboard-response","110","428282","0.0-8.0-0.5","0l6bvae9bs","one_one","1","indirect_first","0","TZ05ER25","1","28","1","1","1","1","Ich bin zwar nicht ausreichend qualifiziert für eine Einschätzung, jedoch habe ich den Eindruck, dass das ""Priming"" durch etwaige Zeichenelemente sehr opulent war. ","0","1","0","null","","","<div style=""font-size:60px;"">+</div>","null","","","","","","","","","",""
"","html-keyboard-response","111","428381","0.0-8.0-1.5","0l6bvae9bs","one_one","1","indirect_first","0","TZ05ER25","1","28","1","1","1","1","Ich bin zwar nicht ausreichend qualifiziert für eine Einschätzung, jedoch habe ich den Eindruck, dass das ""Priming"" durch etwaige Zeichenelemente sehr opulent war. ","0","1","0","null","","","<img src = 'category3/CS2.png' width = '100%;'>","null","","","","","","","","","",""
"","html-keyboard-response","112","428662","0.0-8.0-2.5","0l6bvae9bs","one_one","1","indirect_first","0","TZ05ER25","1","28","1","1","1","1","Ich bin zwar nicht ausreichend qualifiziert für eine Einschätzung, jedoch habe ich den Eindruck, dass das ""Priming"" durch etwaige Zeichenelemente sehr opulent war. ","0","1","0","null","","","<img src = 'targets/19.png' width = '100%;'>","null","","","","","","","","","",""
"","html-keyboard-response","113","430037","0.0-8.0-3.5","0l6bvae9bs","one_one","1","indirect_first","0","TZ05ER25","1","28","1","1","1","1","Ich bin zwar nicht ausreichend qualifiziert für eine Einschätzung, jedoch habe ich den Eindruck, dass das ""Priming"" durch etwaige Zeichenelemente sehr opulent war. ","0","1","0","1374","","","<img src = 'targets/mask.png' width = '100%;'>","75","neg","GS","GSold","3","category3/CS2.png","targets/19.png","1","indirect","5",""
"","html-keyboard-response","114","431561","0.0-8.0-0.6","0l6bvae9bs","one_one","1","indirect_first","0","TZ05ER25","1","28","1","1","1","1","Ich bin zwar nicht ausreichend qualifiziert für eine Einschätzung, jedoch habe ich den Eindruck, dass das ""Priming"" durch etwaige Zeichenelemente sehr opulent war. ","0","1","0","null","","","<div style=""font-size:60px;"">+</div>","null","","","","","","","","","",""
"","html-keyboard-response","115","431662","0.0-8.0-1.6","0l6bvae9bs","one_one","1","indirect_first","0","TZ05ER25","1","28","1","1","1","1","Ich bin zwar nicht ausreichend qualifiziert für eine Einschätzung, jedoch habe ich den Eindruck, dass das ""Priming"" durch etwaige Zeichenelemente sehr opulent war. ","0","1","0","null","","","<img src = 'category3/CS5.png' width = '100%;'>","null","","","","","","","","","",""
"","html-keyboard-response","116","431941","0.0-8.0-2.6","0l6bvae9bs","one_one","1","indirect_first","0","TZ05ER25","1","28","1","1","1","1","Ich bin zwar nicht ausreichend qualifiziert für eine Einschätzung, jedoch habe ich den Eindruck, dass das ""Priming"" durch etwaige Zeichenelemente sehr opulent war. ","0","1","0","null","","","<img src = 'targets/6.png' width = '100%;'>","null","","","","","","","","","",""
"","html-keyboard-response","117","439014","0.0-8.0-3.6","0l6bvae9bs","one_one","1","indirect_first","0","TZ05ER25","1","28","1","1","1","1","Ich bin zwar nicht ausreichend qualifiziert für eine Einschätzung, jedoch habe ich den Eindruck, dass das ""Priming"" durch etwaige Zeichenelemente sehr opulent war. ","0","1","0","7071","","","<img src = 'targets/mask.png' width = '100%;'>","68","neg","CS","CS","3","category3/CS5.png","targets/6.png","0","indirect","6",""
"","html-keyboard-response","118","440541","0.0-8.0-0.7","0l6bvae9bs","one_one","1","indirect_first","0","TZ05ER25","1","28","1","1","1","1","Ich bin zwar nicht ausreichend qualifiziert für eine Einschätzung, jedoch habe ich den Eindruck, dass das ""Priming"" durch etwaige Zeichenelemente sehr opulent war. ","0","1","0","null","","","<div style=""font-size:60px;"">+</div>","null","","","","","","","","","",""
"","html-keyboard-response","119","440642","0.0-8.0-1.7","0l6bvae9bs","one_one","1","indirect_first","0","TZ05ER25","1","28","1","1","1","1","Ich bin zwar nicht ausreichend qualifiziert für eine Einschätzung, jedoch habe ich den Eindruck, dass das ""Priming"" durch etwaige Zeichenelemente sehr opulent war. ","0","1","0","null","","","<img src = 'category1/CS6.png' width = '100%;'>","null","","","","","","","","","",""
"","html-keyboard-response","120","440922","0.0-8.0-2.7","0l6bvae9bs","one_one","1","indirect_first","0","TZ05ER25","1","28","1","1","1","1","Ich bin zwar nicht ausreichend qualifiziert für eine Einschätzung, jedoch habe ich den Eindruck, dass das ""Priming"" durch etwaige Zeichenelemente sehr opulent war. ","0","1","0","null","","","<img src = 'targets/48.png' width = '100%;'>","null","","","","","","","","","",""
"","html-keyboard-response","121","443750","0.0-8.0-3.7","0l6bvae9bs","one_one","1","indirect_first","0","TZ05ER25","1","28","1","1","1","1","Ich bin zwar nicht ausreichend qualifiziert für eine Einschätzung, jedoch habe ich den Eindruck, dass das ""Priming"" durch etwaige Zeichenelemente sehr opulent war. ","0","1","0","2827","","","<img src = 'targets/mask.png' width = '100%;'>","75","pos","CS","CS","1","category1/CS6.png","targets/48.png","1","indirect","7",""
"","html-keyboard-response","122","445262","0.0-8.0-0.8","0l6bvae9bs","one_one","1","indirect_first","0","TZ05ER25","1","28","1","1","1","1","Ich bin zwar nicht ausreichend qualifiziert für eine Einschätzung, jedoch habe ich den Eindruck, dass das ""Priming"" durch etwaige Zeichenelemente sehr opulent war. ","0","1","0","null","","","<div style=""font-size:60px;"">+</div>","null","","","","","","","","","",""
"","html-keyboard-response","123","445361","0.0-8.0-1.8","0l6bvae9bs","one_one","1","indirect_first","0","TZ05ER25","1","28","1","1","1","1","Ich bin zwar nicht ausreichend qualifiziert für eine Einschätzung, jedoch habe ich den Eindruck, dass das ""Priming"" durch etwaige Zeichenelemente sehr opulent war. ","0","1","0","null","","","<img src = 'category2/CS6.png' width = '100%;'>","null","","","","","","","","","",""
"","html-keyboard-response","124","445641","0.0-8.0-2.8","0l6bvae9bs","one_one","1","indirect_first","0","TZ05ER25","1","28","1","1","1","1","Ich bin zwar nicht ausreichend qualifiziert für eine Einschätzung, jedoch habe ich den Eindruck, dass das ""Priming"" durch etwaige Zeichenelemente sehr opulent war. ","0","1","0","null","","","<img src = 'targets/3.png' width = '100%;'>","null","","","","","","","","","",""
"","html-keyboard-response","125","449191","0.0-8.0-3.8","0l6bvae9bs","one_one","1","indirect_first","0","TZ05ER25","1","28","1","1","1","1","Ich bin zwar nicht ausreichend qualifiziert für eine Einschätzung, jedoch habe ich den Eindruck, dass das ""Priming"" durch etwaige Zeichenelemente sehr opulent war. ","0","1","0","3548","","","<img src = 'targets/mask.png' width = '100%;'>","75","neg","GS","GSold","2","category2/CS6.png","targets/3.png","1","indirect","8",""
"","html-keyboard-response","126","450722","0.0-8.0-0.9","0l6bvae9bs","one_one","1","indirect_first","0","TZ05ER25","1","28","1","1","1","1","Ich bin zwar nicht ausreichend qualifiziert für eine Einschätzung, jedoch habe ich den Eindruck, dass das ""Priming"" durch etwaige Zeichenelemente sehr opulent war. ","0","1","0","null","","","<div style=""font-size:60px;"">+</div>","null","","","","","","","","","",""
"","html-keyboard-response","127","450821","0.0-8.0-1.9","0l6bvae9bs","one_one","1","indirect_first","0","TZ05ER25","1","28","1","1","1","1","Ich bin zwar nicht ausreichend qualifiziert für eine Einschätzung, jedoch habe ich den Eindruck, dass das ""Priming"" durch etwaige Zeichenelemente sehr opulent war. ","0","1","0","null","","","<img src = 'category2/CS1.png' width = '100%;'>","null","","","","","","","","","",""
"","html-keyboard-response","128","451101","0.0-8.0-2.9","0l6bvae9bs","one_one","1","indirect_first","0","TZ05ER25","1","28","1","1","1","1","Ich bin zwar nicht ausreichend qualifiziert für eine Einschätzung, jedoch habe ich den Eindruck, dass das ""Priming"" durch etwaige Zeichenelemente sehr opulent war. ","0","1","0","null","","","<img src = 'targets/44.png' width = '100%;'>","null","","","","","","","","","",""
"","html-keyboard-response","129","453844","0.0-8.0-3.9","0l6bvae9bs","one_one","1","indirect_first","0","TZ05ER25","1","28","1","1","1","1","Ich bin zwar nicht ausreichend qualifiziert für eine Einschätzung, jedoch habe ich den Eindruck, dass das ""Priming"" durch etwaige Zeichenelemente sehr opulent war. ","0","1","0","2741","","","<img src = 'targets/mask.png' width = '100%;'>","68","neg","CS","CS","2","category2/CS1.png","targets/44.png","0","indirect","9",""
"","html-keyboard-response","130","455372","0.0-8.0-0.10","0l6bvae9bs","one_one","1","indirect_first","0","TZ05ER25","1","28","1","1","1","1","Ich bin zwar nicht ausreichend qualifiziert für eine Einschätzung, jedoch habe ich den Eindruck, dass das ""Priming"" durch etwaige Zeichenelemente sehr opulent war. ","0","1","0","null","","","<div style=""font-size:60px;"">+</div>","null","","","","","","","","","",""
"","html-keyboard-response","131","455472","0.0-8.0-1.10","0l6bvae9bs","one_one","1","indirect_first","0","TZ05ER25","1","28","1","1","1","1","Ich bin zwar nicht ausreichend qualifiziert für eine Einschätzung, jedoch habe ich den Eindruck, dass das ""Priming"" durch etwaige Zeichenelemente sehr opulent war. ","0","1","0","null","","","<img src = 'category1/CS3.png' width = '100%;'>","null","","","","","","","","","",""
"","html-keyboard-response","132","455751","0.0-8.0-2.10","0l6bvae9bs","one_one","1","indirect_first","0","TZ05ER25","1","28","1","1","1","1","Ich bin zwar nicht ausreichend qualifiziert für eine Einschätzung, jedoch habe ich den Eindruck, dass das ""Priming"" durch etwaige Zeichenelemente sehr opulent war. ","0","1","0","null","","","<img src = 'targets/27.png' width = '100%;'>","null","","","","","","","","","",""
"","html-keyboard-response","133","459362","0.0-8.0-3.10","0l6bvae9bs","one_one","1","indirect_first","0","TZ05ER25","1","28","1","1","1","1","Ich bin zwar nicht ausreichend qualifiziert für eine Einschätzung, jedoch habe ich den Eindruck, dass das ""Priming"" durch etwaige Zeichenelemente sehr opulent war. ","0","1","0","3610","","","<img src = 'targets/mask.png' width = '100%;'>","68","pos","GS","GSold","1","category1/CS3.png","targets/27.png","0","indirect","10",""
"","html-keyboard-response","134","460892","0.0-8.0-0.11","0l6bvae9bs","one_one","1","indirect_first","0","TZ05ER25","1","28","1","1","1","1","Ich bin zwar nicht ausreichend qualifiziert für eine Einschätzung, jedoch habe ich den Eindruck, dass das ""Priming"" durch etwaige Zeichenelemente sehr opulent war. ","0","1","0","null","","","<div style=""font-size:60px;"">+</div>","null","","","","","","","","","",""
"","html-keyboard-response","135","460992","0.0-8.0-1.11","0l6bvae9bs","one_one","1","indirect_first","0","TZ05ER25","1","28","1","1","1","1","Ich bin zwar nicht ausreichend qualifiziert für eine Einschätzung, jedoch habe ich den Eindruck, dass das ""Priming"" durch etwaige Zeichenelemente sehr opulent war. ","0","1","0","null","","","<img src = 'category4/CS1.png' width = '100%;'>","null","","","","","","","","","",""
"","html-keyboard-response","136","461271","0.0-8.0-2.11","0l6bvae9bs","one_one","1","indirect_first","0","TZ05ER25","1","28","1","1","1","1","Ich bin zwar nicht ausreichend qualifiziert für eine Einschätzung, jedoch habe ich den Eindruck, dass das ""Priming"" durch etwaige Zeichenelemente sehr opulent war. ","0","1","0","null","","","<img src = 'targets/33.png' width = '100%;'>","null","","","","","","","","","",""
"","html-keyboard-response","137","464969","0.0-8.0-3.11","0l6bvae9bs","one_one","1","indirect_first","0","TZ05ER25","1","28","1","1","1","1","Ich bin zwar nicht ausreichend qualifiziert für eine Einschätzung, jedoch habe ich den Eindruck, dass das ""Priming"" durch etwaige Zeichenelemente sehr opulent war. ","0","1","0","3696","","","<img src = 'targets/mask.png' width = '100%;'>","68","pos","GS","GSold","4","category4/CS1.png","targets/33.png","0","indirect","11",""
"","html-keyboard-response","138","466491","0.0-8.0-0.12","0l6bvae9bs","one_one","1","indirect_first","0","TZ05ER25","1","28","1","1","1","1","Ich bin zwar nicht ausreichend qualifiziert für eine Einschätzung, jedoch habe ich den Eindruck, dass das ""Priming"" durch etwaige Zeichenelemente sehr opulent war. ","0","1","0","null","","","<div style=""font-size:60px;"">+</div>","null","","","","","","","","","",""
"","html-keyboard-response","139","466591","0.0-8.0-1.12","0l6bvae9bs","one_one","1","indirect_first","0","TZ05ER25","1","28","1","1","1","1","Ich bin zwar nicht ausreichend qualifiziert für eine Einschätzung, jedoch habe ich den Eindruck, dass das ""Priming"" durch etwaige Zeichenelemente sehr opulent war. ","0","1","0","null","","","<img src = 'category2/CS2.png' width = '100%;'>","null","","","","","","","","","",""
"","html-keyboard-response","140","466871","0.0-8.0-2.12","0l6bvae9bs","one_one","1","indirect_first","0","TZ05ER25","1","28","1","1","1","1","Ich bin zwar nicht ausreichend qualifiziert für eine Einschätzung, jedoch habe ich den Eindruck, dass das ""Priming"" durch etwaige Zeichenelemente sehr opulent war. ","0","1","0","null","","","<img src = 'targets/4.png' width = '100%;'>","null","","","","","","","","","",""
"","html-keyboard-response","141","471781","0.0-8.0-3.12","0l6bvae9bs","one_one","1","indirect_first","0","TZ05ER25","1","28","1","1","1","1","Ich bin zwar nicht ausreichend qualifiziert für eine Einschätzung, jedoch habe ich den Eindruck, dass das ""Priming"" durch etwaige Zeichenelemente sehr opulent war. ","0","1","0","4907","","","<img src = 'targets/mask.png' width = '100%;'>","75","neg","GS","GSold","2","category2/CS2.png","targets/4.png","1","indirect","12",""
"","html-keyboard-response","142","473311","0.0-8.0-0.13","0l6bvae9bs","one_one","1","indirect_first","0","TZ05ER25","1","28","1","1","1","1","Ich bin zwar nicht ausreichend qualifiziert für eine Einschätzung, jedoch habe ich den Eindruck, dass das ""Priming"" durch etwaige Zeichenelemente sehr opulent war. ","0","1","0","null","","","<div style=""font-size:60px;"">+</div>","null","","","","","","","","","",""
"","html-keyboard-response","143","473411","0.0-8.0-1.13","0l6bvae9bs","one_one","1","indirect_first","0","TZ05ER25","1","28","1","1","1","1","Ich bin zwar nicht ausreichend qualifiziert für eine Einschätzung, jedoch habe ich den Eindruck, dass das ""Priming"" durch etwaige Zeichenelemente sehr opulent war. ","0","1","0","null","","","<img src = 'category1/CS9.png' width = '100%;'>","null","","","","","","","","","",""
"","html-keyboard-response","144","473691","0.0-8.0-2.13","0l6bvae9bs","one_one","1","indirect_first","0","TZ05ER25","1","28","1","1","1","1","Ich bin zwar nicht ausreichend qualifiziert für eine Einschätzung, jedoch habe ich den Eindruck, dass das ""Priming"" durch etwaige Zeichenelemente sehr opulent war. ","0","1","0","null","","","<img src = 'targets/30.png' width = '100%;'>","null","","","","","","","","","",""
"","html-keyboard-response","145","474750","0.0-8.0-3.13","0l6bvae9bs","one_one","1","indirect_first","0","TZ05ER25","1","28","1","1","1","1","Ich bin zwar nicht ausreichend qualifiziert für eine Einschätzung, jedoch habe ich den Eindruck, dass das ""Priming"" durch etwaige Zeichenelemente sehr opulent war. ","0","1","0","1057","","","<img src = 'targets/mask.png' width = '100%;'>","75","pos","GS","GSold","1","category1/CS9.png","targets/30.png","1","indirect","13",""
"","html-keyboard-response","146","476271","0.0-8.0-0.14","0l6bvae9bs","one_one","1","indirect_first","0","TZ05ER25","1","28","1","1","1","1","Ich bin zwar nicht ausreichend qualifiziert für eine Einschätzung, jedoch habe ich den Eindruck, dass das ""Priming"" durch etwaige Zeichenelemente sehr opulent war. ","0","1","0","null","","","<div style=""font-size:60px;"">+</div>","null","","","","","","","","","",""
"","html-keyboard-response","147","476371","0.0-8.0-1.14","0l6bvae9bs","one_one","1","indirect_first","0","TZ05ER25","1","28","1","1","1","1","Ich bin zwar nicht ausreichend qualifiziert für eine Einschätzung, jedoch habe ich den Eindruck, dass das ""Priming"" durch etwaige Zeichenelemente sehr opulent war. ","0","1","0","null","","","<img src = 'category2/CS4.png' width = '100%;'>","null","","","","","","","","","",""
"","html-keyboard-response","148","476652","0.0-8.0-2.14","0l6bvae9bs","one_one","1","indirect_first","0","TZ05ER25","1","28","1","1","1","1","Ich bin zwar nicht ausreichend qualifiziert für eine Einschätzung, jedoch habe ich den Eindruck, dass das ""Priming"" durch etwaige Zeichenelemente sehr opulent war. ","0","1","0","null","","","<img src = 'targets/37.png' width = '100%;'>","null","","","","","","","","","",""
"","html-keyboard-response","149","477711","0.0-8.0-3.14","0l6bvae9bs","one_one","1","indirect_first","0","TZ05ER25","1","28","1","1","1","1","Ich bin zwar nicht ausreichend qualifiziert für eine Einschätzung, jedoch habe ich den Eindruck, dass das ""Priming"" durch etwaige Zeichenelemente sehr opulent war. ","0","1","0","1057","","","<img src = 'targets/mask.png' width = '100%;'>","75","neg","GS","GSold","2","category2/CS4.png","targets/37.png","1","indirect","14",""
"","html-keyboard-response","150","479252","0.0-8.0-0.15","0l6bvae9bs","one_one","1","indirect_first","0","TZ05ER25","1","28","1","1","1","1","Ich bin zwar nicht ausreichend qualifiziert für eine Einschätzung, jedoch habe ich den Eindruck, dass das ""Priming"" durch etwaige Zeichenelemente sehr opulent war. ","0","1","0","null","","","<div style=""font-size:60px;"">+</div>","null","","","","","","","","","",""
"","html-keyboard-response","151","479352","0.0-8.0-1.15","0l6bvae9bs","one_one","1","indirect_first","0","TZ05ER25","1","28","1","1","1","1","Ich bin zwar nicht ausreichend qualifiziert für eine Einschätzung, jedoch habe ich den Eindruck, dass das ""Priming"" durch etwaige Zeichenelemente sehr opulent war. ","0","1","0","null","","","<img src = 'category1/CS5.png' width = '100%;'>","null","","","","","","","","","",""
"","html-keyboard-response","152","479631","0.0-8.0-2.15","0l6bvae9bs","one_one","1","indirect_first","0","TZ05ER25","1","28","1","1","1","1","Ich bin zwar nicht ausreichend qualifiziert für eine Einschätzung, jedoch habe ich den Eindruck, dass das ""Priming"" durch etwaige Zeichenelemente sehr opulent war. ","0","1","0","null","","","<img src = 'targets/5.png' width = '100%;'>","null","","","","","","","","","",""
"","html-keyboard-response","153","481000","0.0-8.0-3.15","0l6bvae9bs","one_one","1","indirect_first","0","TZ05ER25","1","28","1","1","1","1","Ich bin zwar nicht ausreichend qualifiziert für eine Einschätzung, jedoch habe ich den Eindruck, dass das ""Priming"" durch etwaige Zeichenelemente sehr opulent war. ","0","1","0","1368","","","<img src = 'targets/mask.png' width = '100%;'>","75","pos","GS","GSold","1","category1/CS5.png","targets/5.png","1","indirect","15",""
"","survey-html-form","154","486815","0.0-9.0","0l6bvae9bs","one_one","1","indirect_first","0","TZ05ER25","1","28","1","1","1","1","Ich bin zwar nicht ausreichend qualifiziert für eine Einschätzung, jedoch habe ich den Eindruck, dass das ""Priming"" durch etwaige Zeichenelemente sehr opulent war. ","0","1","0","5302","","{}","","","","","","","","","","","",""
"","html-keyboard-response","155","489841","0.0-10.0-0.0","0l6bvae9bs","one_one","1","indirect_first","0","TZ05ER25","1","28","1","1","1","1","Ich bin zwar nicht ausreichend qualifiziert für eine Einschätzung, jedoch habe ich den Eindruck, dass das ""Priming"" durch etwaige Zeichenelemente sehr opulent war. ","0","1","0","null","","","<div style=""font-size:60px;"">+</div>","null","","","","","","","","","",""
"","html-keyboard-response","156","489942","0.0-10.0-1.0","0l6bvae9bs","one_one","1","indirect_first","0","TZ05ER25","1","28","1","1","1","1","Ich bin zwar nicht ausreichend qualifiziert für eine Einschätzung, jedoch habe ich den Eindruck, dass das ""Priming"" durch etwaige Zeichenelemente sehr opulent war. ","0","1","0","null","","","<img src = 'category3/GS3.png' width = '100%;'>","null","","","","","","","","","",""
"","html-keyboard-response","157","490222","0.0-10.0-2.0","0l6bvae9bs","one_one","1","indirect_first","0","TZ05ER25","1","28","1","1","1","1","Ich bin zwar nicht ausreichend qualifiziert für eine Einschätzung, jedoch habe ich den Eindruck, dass das ""Priming"" durch etwaige Zeichenelemente sehr opulent war. ","0","1","0","null","","","<img src = 'targets/8.png' width = '100%;'>","null","","","","","","","","","",""
"","html-keyboard-response","158","491022","0.0-10.0-3.0","0l6bvae9bs","one_one","1","indirect_first","0","TZ05ER25","1","28","1","1","1","1","Ich bin zwar nicht ausreichend qualifiziert für eine Einschätzung, jedoch habe ich den Eindruck, dass das ""Priming"" durch etwaige Zeichenelemente sehr opulent war. ","0","1","0","799","","","<img src = 'targets/mask.png' width = '100%;'>","75","neg","GS","GSnew","3","category3/GS3.png","targets/8.png","1","indirect","16",""
"","html-keyboard-response","159","492562","0.0-10.0-0.1","0l6bvae9bs","one_one","1","indirect_first","0","TZ05ER25","1","28","1","1","1","1","Ich bin zwar nicht ausreichend qualifiziert für eine Einschätzung, jedoch habe ich den Eindruck, dass das ""Priming"" durch etwaige Zeichenelemente sehr opulent war. ","0","1","0","null","","","<div style=""font-size:60px;"">+</div>","null","","","","","","","","","",""
"","html-keyboard-response","160","492661","0.0-10.0-1.1","0l6bvae9bs","one_one","1","indirect_first","0","TZ05ER25","1","28","1","1","1","1","Ich bin zwar nicht ausreichend qualifiziert für eine Einschätzung, jedoch habe ich den Eindruck, dass das ""Priming"" durch etwaige Zeichenelemente sehr opulent war. ","0","1","0","null","","","<img src = 'category2/men.png' width = '100%;'>","null","","","","","","","","","",""
"","html-keyboard-response","161","492941","0.0-10.0-2.1","0l6bvae9bs","one_one","1","indirect_first","0","TZ05ER25","1","28","1","1","1","1","Ich bin zwar nicht ausreichend qualifiziert für eine Einschätzung, jedoch habe ich den Eindruck, dass das ""Priming"" durch etwaige Zeichenelemente sehr opulent war. ","0","1","0","null","","","<img src = 'targets/16.png' width = '100%;'>","null","","","","","","","","","",""
"","html-keyboard-response","162","494890","0.0-10.0-3.1","0l6bvae9bs","one_one","1","indirect_first","0","TZ05ER25","1","28","1","1","1","1","Ich bin zwar nicht ausreichend qualifiziert für eine Einschätzung, jedoch habe ich den Eindruck, dass das ""Priming"" durch etwaige Zeichenelemente sehr opulent war. ","0","1","0","1948","","","<img src = 'targets/mask.png' width = '100%;'>","68","neg","GS","abstract","2","category2/men.png","targets/16.png","0","indirect","17",""
"","html-keyboard-response","163","496421","0.0-10.0-0.2","0l6bvae9bs","one_one","1","indirect_first","0","TZ05ER25","1","28","1","1","1","1","Ich bin zwar nicht ausreichend qualifiziert für eine Einschätzung, jedoch habe ich den Eindruck, dass das ""Priming"" durch etwaige Zeichenelemente sehr opulent war. ","0","1","0","null","","","<div style=""font-size:60px;"">+</div>","null","","","","","","","","","",""
"","html-keyboard-response","164","496521","0.0-10.0-1.2","0l6bvae9bs","one_one","1","indirect_first","0","TZ05ER25","1","28","1","1","1","1","Ich bin zwar nicht ausreichend qualifiziert für eine Einschätzung, jedoch habe ich den Eindruck, dass das ""Priming"" durch etwaige Zeichenelemente sehr opulent war. ","0","1","0","null","","","<img src = 'category4/GS3.png' width = '100%;'>","null","","","","","","","","","",""
"","html-keyboard-response","165","496802","0.0-10.0-2.2","0l6bvae9bs","one_one","1","indirect_first","0","TZ05ER25","1","28","1","1","1","1","Ich bin zwar nicht ausreichend qualifiziert für eine Einschätzung, jedoch habe ich den Eindruck, dass das ""Priming"" durch etwaige Zeichenelemente sehr opulent war. ","0","1","0","null","","","<img src = 'targets/38.png' width = '100%;'>","null","","","","","","","","","",""
"","html-keyboard-response","166","497704","0.0-10.0-3.2","0l6bvae9bs","one_one","1","indirect_first","0","TZ05ER25","1","28","1","1","1","1","Ich bin zwar nicht ausreichend qualifiziert für eine Einschätzung, jedoch habe ich den Eindruck, dass das ""Priming"" durch etwaige Zeichenelemente sehr opulent war. ","0","1","0","901","","","<img src = 'targets/mask.png' width = '100%;'>","75","pos","GS","GSnew","4","category4/GS3.png","targets/38.png","1","indirect","18",""
"","html-keyboard-response","167","499241","0.0-10.0-0.3","0l6bvae9bs","one_one","1","indirect_first","0","TZ05ER25","1","28","1","1","1","1","Ich bin zwar nicht ausreichend qualifiziert für eine Einschätzung, jedoch habe ich den Eindruck, dass das ""Priming"" durch etwaige Zeichenelemente sehr opulent war. ","0","1","0","null","","","<div style=""font-size:60px;"">+</div>","null","","","","","","","","","",""
"","html-keyboard-response","168","499342","0.0-10.0-1.3","0l6bvae9bs","one_one","1","indirect_first","0","TZ05ER25","1","28","1","1","1","1","Ich bin zwar nicht ausreichend qualifiziert für eine Einschätzung, jedoch habe ich den Eindruck, dass das ""Priming"" durch etwaige Zeichenelemente sehr opulent war. ","0","1","0","null","","","<img src = 'category1/GS2.png' width = '100%;'>","null","","","","","","","","","",""
"","html-keyboard-response","169","499622","0.0-10.0-2.3","0l6bvae9bs","one_one","1","indirect_first","0","TZ05ER25","1","28","1","1","1","1","Ich bin zwar nicht ausreichend qualifiziert für eine Einschätzung, jedoch habe ich den Eindruck, dass das ""Priming"" durch etwaige Zeichenelemente sehr opulent war. ","0","1","0","null","","","<img src = 'targets/18.png' width = '100%;'>","null","","","","","","","","","",""
"","html-keyboard-response","170","500699","0.0-10.0-3.3","0l6bvae9bs","one_one","1","indirect_first","0","TZ05ER25","1","28","1","1","1","1","Ich bin zwar nicht ausreichend qualifiziert für eine Einschätzung, jedoch habe ich den Eindruck, dass das ""Priming"" durch etwaige Zeichenelemente sehr opulent war. ","0","1","0","1076","","","<img src = 'targets/mask.png' width = '100%;'>","75","pos","GS","GSnew","1","category1/GS2.png","targets/18.png","1","indirect","19",""
"","html-keyboard-response","171","502242","0.0-10.0-0.4","0l6bvae9bs","one_one","1","indirect_first","0","TZ05ER25","1","28","1","1","1","1","Ich bin zwar nicht ausreichend qualifiziert für eine Einschätzung, jedoch habe ich den Eindruck, dass das ""Priming"" durch etwaige Zeichenelemente sehr opulent war. ","0","1","0","null","","","<div style=""font-size:60px;"">+</div>","null","","","","","","","","","",""
"","html-keyboard-response","172","502341","0.0-10.0-1.4","0l6bvae9bs","one_one","1","indirect_first","0","TZ05ER25","1","28","1","1","1","1","Ich bin zwar nicht ausreichend qualifiziert für eine Einschätzung, jedoch habe ich den Eindruck, dass das ""Priming"" durch etwaige Zeichenelemente sehr opulent war. ","0","1","0","null","","","<img src = 'category3/GS1.png' width = '100%;'>","null","","","","","","","","","",""
"","html-keyboard-response","173","502622","0.0-10.0-2.4","0l6bvae9bs","one_one","1","indirect_first","0","TZ05ER25","1","28","1","1","1","1","Ich bin zwar nicht ausreichend qualifiziert für eine Einschätzung, jedoch habe ich den Eindruck, dass das ""Priming"" durch etwaige Zeichenelemente sehr opulent war. ","0","1","0","null","","","<img src = 'targets/10.png' width = '100%;'>","null","","","","","","","","","",""
"","html-keyboard-response","174","504380","0.0-10.0-3.4","0l6bvae9bs","one_one","1","indirect_first","0","TZ05ER25","1","28","1","1","1","1","Ich bin zwar nicht ausreichend qualifiziert für eine Einschätzung, jedoch habe ich den Eindruck, dass das ""Priming"" durch etwaige Zeichenelemente sehr opulent war. ","0","1","0","1757","","","<img src = 'targets/mask.png' width = '100%;'>","68","neg","GS","GSnew","3","category3/GS1.png","targets/10.png","0","indirect","20",""
"","html-keyboard-response","175","505901","0.0-10.0-0.5","0l6bvae9bs","one_one","1","indirect_first","0","TZ05ER25","1","28","1","1","1","1","Ich bin zwar nicht ausreichend qualifiziert für eine Einschätzung, jedoch habe ich den Eindruck, dass das ""Priming"" durch etwaige Zeichenelemente sehr opulent war. ","0","1","0","null","","","<div style=""font-size:60px;"">+</div>","null","","","","","","","","","",""
"","html-keyboard-response","176","506001","0.0-10.0-1.5","0l6bvae9bs","one_one","1","indirect_first","0","TZ05ER25","1","28","1","1","1","1","Ich bin zwar nicht ausreichend qualifiziert für eine Einschätzung, jedoch habe ich den Eindruck, dass das ""Priming"" durch etwaige Zeichenelemente sehr opulent war. ","0","1","0","null","","","<img src = 'category3/wang.png' width = '100%;'>","null","","","","","","","","","",""
"","html-keyboard-response","177","506281","0.0-10.0-2.5","0l6bvae9bs","one_one","1","indirect_first","0","TZ05ER25","1","28","1","1","1","1","Ich bin zwar nicht ausreichend qualifiziert für eine Einschätzung, jedoch habe ich den Eindruck, dass das ""Priming"" durch etwaige Zeichenelemente sehr opulent war. ","0","1","0","null","","","<img src = 'targets/13.png' width = '100%;'>","null","","","","","","","","","",""
"","html-keyboard-response","178","512280","0.0-10.0-3.5","0l6bvae9bs","one_one","1","indirect_first","0","TZ05ER25","1","28","1","1","1","1","Ich bin zwar nicht ausreichend qualifiziert für eine Einschätzung, jedoch habe ich den Eindruck, dass das ""Priming"" durch etwaige Zeichenelemente sehr opulent war. ","0","1","0","5998","","","<img src = 'targets/mask.png' width = '100%;'>","68","neg","GS","abstract","3","category3/wang.png","targets/13.png","0","indirect","21",""
"","html-keyboard-response","179","513802","0.0-10.0-0.6","0l6bvae9bs","one_one","1","indirect_first","0","TZ05ER25","1","28","1","1","1","1","Ich bin zwar nicht ausreichend qualifiziert für eine Einschätzung, jedoch habe ich den Eindruck, dass das ""Priming"" durch etwaige Zeichenelemente sehr opulent war. ","0","1","0","null","","","<div style=""font-size:60px;"">+</div>","null","","","","","","","","","",""
"","html-keyboard-response","180","513901","0.0-10.0-1.6","0l6bvae9bs","one_one","1","indirect_first","0","TZ05ER25","1","28","1","1","1","1","Ich bin zwar nicht ausreichend qualifiziert für eine Einschätzung, jedoch habe ich den Eindruck, dass das ""Priming"" durch etwaige Zeichenelemente sehr opulent war. ","0","1","0","null","","","<img src = 'category2/GS2.png' width = '100%;'>","null","","","","","","","","","",""
"","html-keyboard-response","181","514182","0.0-10.0-2.6","0l6bvae9bs","one_one","1","indirect_first","0","TZ05ER25","1","28","1","1","1","1","Ich bin zwar nicht ausreichend qualifiziert für eine Einschätzung, jedoch habe ich den Eindruck, dass das ""Priming"" durch etwaige Zeichenelemente sehr opulent war. ","0","1","0","null","","","<img src = 'targets/11.png' width = '100%;'>","null","","","","","","","","","",""
"","html-keyboard-response","182","518418","0.0-10.0-3.6","0l6bvae9bs","one_one","1","indirect_first","0","TZ05ER25","1","28","1","1","1","1","Ich bin zwar nicht ausreichend qualifiziert für eine Einschätzung, jedoch habe ich den Eindruck, dass das ""Priming"" durch etwaige Zeichenelemente sehr opulent war. ","0","1","0","4234","","","<img src = 'targets/mask.png' width = '100%;'>","68","neg","GS","GSnew","2","category2/GS2.png","targets/11.png","0","indirect","22",""
"","html-keyboard-response","183","519942","0.0-10.0-0.7","0l6bvae9bs","one_one","1","indirect_first","0","TZ05ER25","1","28","1","1","1","1","Ich bin zwar nicht ausreichend qualifiziert für eine Einschätzung, jedoch habe ich den Eindruck, dass das ""Priming"" durch etwaige Zeichenelemente sehr opulent war. ","0","1","0","null","","","<div style=""font-size:60px;"">+</div>","null","","","","","","","","","",""
"","html-keyboard-response","184","520041","0.0-10.0-1.7","0l6bvae9bs","one_one","1","indirect_first","0","TZ05ER25","1","28","1","1","1","1","Ich bin zwar nicht ausreichend qualifiziert für eine Einschätzung, jedoch habe ich den Eindruck, dass das ""Priming"" durch etwaige Zeichenelemente sehr opulent war. ","0","1","0","null","","","<img src = 'category4/GS2.png' width = '100%;'>","null","","","","","","","","","",""
"","html-keyboard-response","185","520321","0.0-10.0-2.7","0l6bvae9bs","one_one","1","indirect_first","0","TZ05ER25","1","28","1","1","1","1","Ich bin zwar nicht ausreichend qualifiziert für eine Einschätzung, jedoch habe ich den Eindruck, dass das ""Priming"" durch etwaige Zeichenelemente sehr opulent war. ","0","1","0","null","","","<img src = 'targets/46.png' width = '100%;'>","null","","","","","","","","","",""
"","html-keyboard-response","186","521897","0.0-10.0-3.7","0l6bvae9bs","one_one","1","indirect_first","0","TZ05ER25","1","28","1","1","1","1","Ich bin zwar nicht ausreichend qualifiziert für eine Einschätzung, jedoch habe ich den Eindruck, dass das ""Priming"" durch etwaige Zeichenelemente sehr opulent war. ","0","1","0","1573","","","<img src = 'targets/mask.png' width = '100%;'>","68","pos","GS","GSnew","4","category4/GS2.png","targets/46.png","0","indirect","23",""
"","html-keyboard-response","187","523421","0.0-10.0-0.8","0l6bvae9bs","one_one","1","indirect_first","0","TZ05ER25","1","28","1","1","1","1","Ich bin zwar nicht ausreichend qualifiziert für eine Einschätzung, jedoch habe ich den Eindruck, dass das ""Priming"" durch etwaige Zeichenelemente sehr opulent war. ","0","1","0","null","","","<div style=""font-size:60px;"">+</div>","null","","","","","","","","","",""
"","html-keyboard-response","188","523522","0.0-10.0-1.8","0l6bvae9bs","one_one","1","indirect_first","0","TZ05ER25","1","28","1","1","1","1","Ich bin zwar nicht ausreichend qualifiziert für eine Einschätzung, jedoch habe ich den Eindruck, dass das ""Priming"" durch etwaige Zeichenelemente sehr opulent war. ","0","1","0","null","","","<img src = 'category4/lin.png' width = '100%;'>","null","","","","","","","","","",""
"","html-keyboard-response","189","523801","0.0-10.0-2.8","0l6bvae9bs","one_one","1","indirect_first","0","TZ05ER25","1","28","1","1","1","1","Ich bin zwar nicht ausreichend qualifiziert für eine Einschätzung, jedoch habe ich den Eindruck, dass das ""Priming"" durch etwaige Zeichenelemente sehr opulent war. ","0","1","0","null","","","<img src = 'targets/43.png' width = '100%;'>","null","","","","","","","","","",""
"","html-keyboard-response","190","526581","0.0-10.0-3.8","0l6bvae9bs","one_one","1","indirect_first","0","TZ05ER25","1","28","1","1","1","1","Ich bin zwar nicht ausreichend qualifiziert für eine Einschätzung, jedoch habe ich den Eindruck, dass das ""Priming"" durch etwaige Zeichenelemente sehr opulent war. ","0","1","0","2777","","","<img src = 'targets/mask.png' width = '100%;'>","75","pos","GS","abstract","4","category4/lin.png","targets/43.png","1","indirect","24",""
"","html-keyboard-response","191","528121","0.0-10.0-0.9","0l6bvae9bs","one_one","1","indirect_first","0","TZ05ER25","1","28","1","1","1","1","Ich bin zwar nicht ausreichend qualifiziert für eine Einschätzung, jedoch habe ich den Eindruck, dass das ""Priming"" durch etwaige Zeichenelemente sehr opulent war. ","0","1","0","null","","","<div style=""font-size:60px;"">+</div>","null","","","","","","","","","",""
"","html-keyboard-response","192","528221","0.0-10.0-1.9","0l6bvae9bs","one_one","1","indirect_first","0","TZ05ER25","1","28","1","1","1","1","Ich bin zwar nicht ausreichend qualifiziert für eine Einschätzung, jedoch habe ich den Eindruck, dass das ""Priming"" durch etwaige Zeichenelemente sehr opulent war. ","0","1","0","null","","","<img src = 'category3/GS2.png' width = '100%;'>","null","","","","","","","","","",""
"","html-keyboard-response","193","528501","0.0-10.0-2.9","0l6bvae9bs","one_one","1","indirect_first","0","TZ05ER25","1","28","1","1","1","1","Ich bin zwar nicht ausreichend qualifiziert für eine Einschätzung, jedoch habe ich den Eindruck, dass das ""Priming"" durch etwaige Zeichenelemente sehr opulent war. ","0","1","0","null","","","<img src = 'targets/34.png' width = '100%;'>","null","","","","","","","","","",""
"","html-keyboard-response","194","529122","0.0-10.0-3.9","0l6bvae9bs","one_one","1","indirect_first","0","TZ05ER25","1","28","1","1","1","1","Ich bin zwar nicht ausreichend qualifiziert für eine Einschätzung, jedoch habe ich den Eindruck, dass das ""Priming"" durch etwaige Zeichenelemente sehr opulent war. ","0","1","0","619","","","<img src = 'targets/mask.png' width = '100%;'>","75","neg","GS","GSnew","3","category3/GS2.png","targets/34.png","1","indirect","25",""
"","html-keyboard-response","195","530662","0.0-10.0-0.10","0l6bvae9bs","one_one","1","indirect_first","0","TZ05ER25","1","28","1","1","1","1","Ich bin zwar nicht ausreichend qualifiziert für eine Einschätzung, jedoch habe ich den Eindruck, dass das ""Priming"" durch etwaige Zeichenelemente sehr opulent war. ","0","1","0","null","","","<div style=""font-size:60px;"">+</div>","null","","","","","","","","","",""
"","html-keyboard-response","196","530762","0.0-10.0-1.10","0l6bvae9bs","one_one","1","indirect_first","0","TZ05ER25","1","28","1","1","1","1","Ich bin zwar nicht ausreichend qualifiziert für eine Einschätzung, jedoch habe ich den Eindruck, dass das ""Priming"" durch etwaige Zeichenelemente sehr opulent war. ","0","1","0","null","","","<img src = 'category2/GS1.png' width = '100%;'>","null","","","","","","","","","",""
"","html-keyboard-response","197","531041","0.0-10.0-2.10","0l6bvae9bs","one_one","1","indirect_first","0","TZ05ER25","1","28","1","1","1","1","Ich bin zwar nicht ausreichend qualifiziert für eine Einschätzung, jedoch habe ich den Eindruck, dass das ""Priming"" durch etwaige Zeichenelemente sehr opulent war. ","0","1","0","null","","","<img src = 'targets/9.png' width = '100%;'>","null","","","","","","","","","",""
"","html-keyboard-response","198","533475","0.0-10.0-3.10","0l6bvae9bs","one_one","1","indirect_first","0","TZ05ER25","1","28","1","1","1","1","Ich bin zwar nicht ausreichend qualifiziert für eine Einschätzung, jedoch habe ich den Eindruck, dass das ""Priming"" durch etwaige Zeichenelemente sehr opulent war. ","0","1","0","2431","","","<img src = 'targets/mask.png' width = '100%;'>","68","neg","GS","GSnew","2","category2/GS1.png","targets/9.png","0","indirect","26",""
"","html-keyboard-response","199","535002","0.0-10.0-0.11","0l6bvae9bs","one_one","1","indirect_first","0","TZ05ER25","1","28","1","1","1","1","Ich bin zwar nicht ausreichend qualifiziert für eine Einschätzung, jedoch habe ich den Eindruck, dass das ""Priming"" durch etwaige Zeichenelemente sehr opulent war. ","0","1","0","null","","","<div style=""font-size:60px;"">+</div>","null","","","","","","","","","",""
"","html-keyboard-response","200","535102","0.0-10.0-1.11","0l6bvae9bs","one_one","1","indirect_first","0","TZ05ER25","1","28","1","1","1","1","Ich bin zwar nicht ausreichend qualifiziert für eine Einschätzung, jedoch habe ich den Eindruck, dass das ""Priming"" durch etwaige Zeichenelemente sehr opulent war. ","0","1","0","null","","","<img src = 'category1/ma.png' width = '100%;'>","null","","","","","","","","","",""
"","html-keyboard-response","201","535382","0.0-10.0-2.11","0l6bvae9bs","one_one","1","indirect_first","0","TZ05ER25","1","28","1","1","1","1","Ich bin zwar nicht ausreichend qualifiziert für eine Einschätzung, jedoch habe ich den Eindruck, dass das ""Priming"" durch etwaige Zeichenelemente sehr opulent war. ","0","1","0","null","","","<img src = 'targets/12.png' width = '100%;'>","null","","","","","","","","","",""
"","html-keyboard-response","202","537887","0.0-10.0-3.11","0l6bvae9bs","one_one","1","indirect_first","0","TZ05ER25","1","28","1","1","1","1","Ich bin zwar nicht ausreichend qualifiziert für eine Einschätzung, jedoch habe ich den Eindruck, dass das ""Priming"" durch etwaige Zeichenelemente sehr opulent war. ","0","1","0","2505","","","<img src = 'targets/mask.png' width = '100%;'>","75","pos","GS","abstract","1","category1/ma.png","targets/12.png","1","indirect","27",""
