"success","trial_type","trial_index","time_elapsed","internal_node_id","subject","condition","condition_code","measure","measure_code","codeword","gender","age","education","chinese","fach","handedness","comment","hinschauen","ablenkung","gewissenhaft","rt","url","responses","stimulus","key_press","val","type","type_specific","category","cs_selected","response","target","task","indirect","nr_pres"
"true","fullscreen","0","23106","0.0-0.0","j7f9s7u49s","many_one","0","direct_first","1","er06er11","0","22","2","1","3","1","","0","1","0","","","","","","","","","","","","","","",""
"","external-html","1","63718","0.0-1.0","j7f9s7u49s","many_one","0","direct_first","1","er06er11","0","22","2","1","3","1","","0","1","0","40521","text/information.html","","","","","","","","","","","","",""
"","external-html","2","81306","0.0-2.0","j7f9s7u49s","many_one","0","direct_first","1","er06er11","0","22","2","1","3","1","","0","1","0","17497","text/consent.html","","","","","","","","","","","","",""
"","survey-html-form","3","129059","0.0-3.0","j7f9s7u49s","many_one","0","direct_first","1","er06er11","0","22","2","1","3","1","","0","1","0","47751","","{""codeword_enter"":""er06er11""}","","","","","","","","","","","",""
"","survey-html-form","4","153493","0.0-4.0","j7f9s7u49s","many_one","0","direct_first","1","er06er11","0","22","2","1","3","1","","0","1","0","24431","","{""age"":""22"",""education"":""2"",""subject"":""3"",""gender"":""0"",""handedness"":""1"",""chinese"":""1""}","","","","","","","","","","","",""
"","survey-html-form","5","169760","0.0-5.0","j7f9s7u49s","many_one","0","direct_first","1","er06er11","0","22","2","1","3","1","","0","1","0","16266","","{}","","","","","","","","","","","",""
"","html-keyboard-response","6","173766","0.0-6.0-0.0-0.0","j7f9s7u49s","many_one","0","direct_first","1","er06er11","0","22","2","1","3","1","","0","1","0","null","","","<div class = 'row'><div class = 'column'><img src = 'category3/CS1.png' width = '70%;'></div><div class = 'column'><img src = 'usneg/8485.bmp' width = '100%;'></div></div>","null","neg","CS","CS","3","category3/CS1.png","","","","",""
"","html-keyboard-response","7","176269","0.0-6.0-0.0-0.1","j7f9s7u49s","many_one","0","direct_first","1","er06er11","0","22","2","1","3","1","","0","1","0","null","","","<div class = 'row'><div class = 'column'><img src = 'category2/CS4.png' width = '70%;'></div><div class = 'column'><img src = 'uspos/1340.bmp' width = '100%;'></div></div>","null","pos","CS","CS","2","category2/CS4.png","","","","",""
"","html-keyboard-response","8","178773","0.0-6.0-0.0-0.2","j7f9s7u49s","many_one","0","direct_first","1","er06er11","0","22","2","1","3","1","","0","1","0","null","","","<div class = 'row'><div class = 'column'><img src = 'category1/CS10.png' width = '70%;'></div><div class = 'column'><img src = 'uspos/7325.bmp' width = '100%;'></div></div>","null","pos","CS","CS","1","category1/CS10.png","","","","",""
"","html-keyboard-response","9","181274","0.0-6.0-0.0-0.3","j7f9s7u49s","many_one","0","direct_first","1","er06er11","0","22","2","1","3","1","","0","1","0","null","","","<div class = 'row'><div class = 'column'><img src = 'usneg/9290.bmp' width = '100%;'></div><div class = 'column'><img src = 'category4/CS8.png' width = '70%;'></div></div>","null","neg","CS","CS","4","category4/CS8.png","","","","",""
"","html-keyboard-response","10","183780","0.0-6.0-0.0-0.4","j7f9s7u49s","many_one","0","direct_first","1","er06er11","0","22","2","1","3","1","","0","1","0","null","","","<div class = 'row'><div class = 'column'><img src = 'category4/CS6.png' width = '70%;'></div><div class = 'column'><img src = 'usneg/9560.bmp' width = '100%;'></div></div>","null","neg","CS","CS","4","category4/CS6.png","","","","",""
"","html-keyboard-response","11","186281","0.0-6.0-0.0-0.5","j7f9s7u49s","many_one","0","direct_first","1","er06er11","0","22","2","1","3","1","","0","1","0","null","","","<div class = 'row'><div class = 'column'><img src = 'category3/CS9.png' width = '70%;'></div><div class = 'column'><img src = 'usneg/9342.bmp' width = '100%;'></div></div>","null","neg","CS","CS","3","category3/CS9.png","","","","",""
"","html-keyboard-response","12","188784","0.0-6.0-0.0-0.6","j7f9s7u49s","many_one","0","direct_first","1","er06er11","0","22","2","1","3","1","","0","1","0","null","","","<div class = 'row'><div class = 'column'><img src = 'category1/CS6.png' width = '70%;'></div><div class = 'column'><img src = 'uspos/8461.bmp' width = '100%;'></div></div>","null","pos","CS","CS","1","category1/CS6.png","","","","",""
"","html-keyboard-response","13","191287","0.0-6.0-0.0-0.7","j7f9s7u49s","many_one","0","direct_first","1","er06er11","0","22","2","1","3","1","","0","1","0","null","","","<div class = 'row'><div class = 'column'><img src = 'category1/CS9.png' width = '70%;'></div><div class = 'column'><img src = 'uspos/5700.bmp' width = '100%;'></div></div>","null","pos","CS","CS","1","category1/CS9.png","","","","",""
"","html-keyboard-response","14","193789","0.0-6.0-0.0-0.8","j7f9s7u49s","many_one","0","direct_first","1","er06er11","0","22","2","1","3","1","","0","1","0","null","","","<div class = 'row'><div class = 'column'><img src = 'category2/CS10.png' width = '70%;'></div><div class = 'column'><img src = 'uspos/2165.bmp' width = '100%;'></div></div>","null","pos","CS","CS","2","category2/CS10.png","","","","",""
"","html-keyboard-response","15","196293","0.0-6.0-0.0-0.9","j7f9s7u49s","many_one","0","direct_first","1","er06er11","0","22","2","1","3","1","","0","1","0","null","","","<div class = 'row'><div class = 'column'><img src = 'usneg/3181.bmp' width = '100%;'></div><div class = 'column'><img src = 'category4/CS2.png' width = '70%;'></div></div>","null","neg","CS","CS","4","category4/CS2.png","","","","",""
"","html-keyboard-response","16","198798","0.0-6.0-0.0-0.10","j7f9s7u49s","many_one","0","direct_first","1","er06er11","0","22","2","1","3","1","","0","1","0","null","","","<div class = 'row'><div class = 'column'><img src = 'category3/CS5.png' width = '70%;'></div><div class = 'column'><img src = 'usneg/2750.bmp' width = '100%;'></div></div>","null","neg","CS","CS","3","category3/CS5.png","","","","",""
"","html-keyboard-response","17","201302","0.0-6.0-0.0-0.11","j7f9s7u49s","many_one","0","direct_first","1","er06er11","0","22","2","1","3","1","","0","1","0","null","","","<div class = 'row'><div class = 'column'><img src = 'usneg/9280.bmp' width = '100%;'></div><div class = 'column'><img src = 'category3/CS2.png' width = '70%;'></div></div>","null","neg","CS","CS","3","category3/CS2.png","","","","",""
"","html-keyboard-response","18","203803","0.0-6.0-0.0-0.12","j7f9s7u49s","many_one","0","direct_first","1","er06er11","0","22","2","1","3","1","","0","1","0","null","","","<div class = 'row'><div class = 'column'><img src = 'usneg/9220.bmp' width = '100%;'></div><div class = 'column'><img src = 'category4/CS1.png' width = '70%;'></div></div>","null","neg","CS","CS","4","category4/CS1.png","","","","",""
"","html-keyboard-response","19","206306","0.0-6.0-0.0-0.13","j7f9s7u49s","many_one","0","direct_first","1","er06er11","0","22","2","1","3","1","","0","1","0","null","","","<div class = 'row'><div class = 'column'><img src = 'category2/CS7.png' width = '70%;'></div><div class = 'column'><img src = 'uspos/2040.bmp' width = '100%;'></div></div>","null","pos","CS","CS","2","category2/CS7.png","","","","",""
"","html-keyboard-response","20","208808","0.0-6.0-0.0-0.14","j7f9s7u49s","many_one","0","direct_first","1","er06er11","0","22","2","1","3","1","","0","1","0","null","","","<div class = 'row'><div class = 'column'><img src = 'usneg/2900.bmp' width = '100%;'></div><div class = 'column'><img src = 'category4/CS10.png' width = '70%;'></div></div>","null","neg","CS","CS","4","category4/CS10.png","","","","",""
"","html-keyboard-response","21","211310","0.0-6.0-0.0-0.15","j7f9s7u49s","many_one","0","direct_first","1","er06er11","0","22","2","1","3","1","","0","1","0","null","","","<div class = 'row'><div class = 'column'><img src = 'usneg/9181.bmp' width = '100%;'></div><div class = 'column'><img src = 'category3/CS7.png' width = '70%;'></div></div>","null","neg","CS","CS","3","category3/CS7.png","","","","",""
"","html-keyboard-response","22","213812","0.0-6.0-0.0-0.16","j7f9s7u49s","many_one","0","direct_first","1","er06er11","0","22","2","1","3","1","","0","1","0","null","","","<div class = 'row'><div class = 'column'><img src = 'uspos/8490.bmp' width = '100%;'></div><div class = 'column'><img src = 'category1/CS2.png' width = '70%;'></div></div>","null","pos","CS","CS","1","category1/CS2.png","","","","",""
"","html-keyboard-response","23","216315","0.0-6.0-0.0-0.17","j7f9s7u49s","many_one","0","direct_first","1","er06er11","0","22","2","1","3","1","","0","1","0","null","","","<div class = 'row'><div class = 'column'><img src = 'category2/CS5.png' width = '70%;'></div><div class = 'column'><img src = 'uspos/2550.bmp' width = '100%;'></div></div>","null","pos","CS","CS","2","category2/CS5.png","","","","",""
"","html-keyboard-response","24","218818","0.0-6.0-0.0-0.18","j7f9s7u49s","many_one","0","direct_first","1","er06er11","0","22","2","1","3","1","","0","1","0","null","","","<div class = 'row'><div class = 'column'><img src = 'uspos/1710.bmp' width = '100%;'></div><div class = 'column'><img src = 'category1/CS4.png' width = '70%;'></div></div>","null","pos","CS","CS","1","category1/CS4.png","","","","",""
"","html-keyboard-response","25","221321","0.0-6.0-0.0-0.19","j7f9s7u49s","many_one","0","direct_first","1","er06er11","0","22","2","1","3","1","","0","1","0","null","","","<div class = 'row'><div class = 'column'><img src = 'uspos/4599.bmp' width = '100%;'></div><div class = 'column'><img src = 'category2/CS9.png' width = '70%;'></div></div>","null","pos","CS","CS","2","category2/CS9.png","","","","",""
"","survey-html-form","26","223371","0.0-6.0-1.0","j7f9s7u49s","many_one","0","direct_first","1","er06er11","0","22","2","1","3","1","","0","1","0","1548","","{}","","","","","","","","","","","",""
"","html-keyboard-response","27","227375","0.0-6.0-2.0-0.0","j7f9s7u49s","many_one","0","direct_first","1","er06er11","0","22","2","1","3","1","","0","1","0","null","","","<div class = 'row'><div class = 'column'><img src = 'category1/CS6.png' width = '70%;'></div><div class = 'column'><img src = 'uspos/8461.bmp' width = '100%;'></div></div>","null","pos","CS","CS","1","category1/CS6.png","","","","",""
"","html-keyboard-response","28","229878","0.0-6.0-2.0-0.1","j7f9s7u49s","many_one","0","direct_first","1","er06er11","0","22","2","1","3","1","","0","1","0","null","","","<div class = 'row'><div class = 'column'><img src = 'usneg/8485.bmp' width = '100%;'></div><div class = 'column'><img src = 'category3/CS1.png' width = '70%;'></div></div>","null","neg","CS","CS","3","category3/CS1.png","","","","",""
"","html-keyboard-response","29","232380","0.0-6.0-2.0-0.2","j7f9s7u49s","many_one","0","direct_first","1","er06er11","0","22","2","1","3","1","","0","1","0","null","","","<div class = 'row'><div class = 'column'><img src = 'category1/CS9.png' width = '70%;'></div><div class = 'column'><img src = 'uspos/5700.bmp' width = '100%;'></div></div>","null","pos","CS","CS","1","category1/CS9.png","","","","",""
"","html-keyboard-response","30","234881","0.0-6.0-2.0-0.3","j7f9s7u49s","many_one","0","direct_first","1","er06er11","0","22","2","1","3","1","","0","1","0","null","","","<div class = 'row'><div class = 'column'><img src = 'category1/CS2.png' width = '70%;'></div><div class = 'column'><img src = 'uspos/8490.bmp' width = '100%;'></div></div>","null","pos","CS","CS","1","category1/CS2.png","","","","",""
"","html-keyboard-response","31","237385","0.0-6.0-2.0-0.4","j7f9s7u49s","many_one","0","direct_first","1","er06er11","0","22","2","1","3","1","","0","1","0","null","","","<div class = 'row'><div class = 'column'><img src = 'category3/CS5.png' width = '70%;'></div><div class = 'column'><img src = 'usneg/2750.bmp' width = '100%;'></div></div>","null","neg","CS","CS","3","category3/CS5.png","","","","",""
"","html-keyboard-response","32","239888","0.0-6.0-2.0-0.5","j7f9s7u49s","many_one","0","direct_first","1","er06er11","0","22","2","1","3","1","","0","1","0","null","","","<div class = 'row'><div class = 'column'><img src = 'uspos/2040.bmp' width = '100%;'></div><div class = 'column'><img src = 'category2/CS7.png' width = '70%;'></div></div>","null","pos","CS","CS","2","category2/CS7.png","","","","",""
"","html-keyboard-response","33","242388","0.0-6.0-2.0-0.6","j7f9s7u49s","many_one","0","direct_first","1","er06er11","0","22","2","1","3","1","","0","1","0","null","","","<div class = 'row'><div class = 'column'><img src = 'category3/CS7.png' width = '70%;'></div><div class = 'column'><img src = 'usneg/9181.bmp' width = '100%;'></div></div>","null","neg","CS","CS","3","category3/CS7.png","","","","",""
"","html-keyboard-response","34","244891","0.0-6.0-2.0-0.7","j7f9s7u49s","many_one","0","direct_first","1","er06er11","0","22","2","1","3","1","","0","1","0","null","","","<div class = 'row'><div class = 'column'><img src = 'uspos/4599.bmp' width = '100%;'></div><div class = 'column'><img src = 'category2/CS9.png' width = '70%;'></div></div>","null","pos","CS","CS","2","category2/CS9.png","","","","",""
"","html-keyboard-response","35","247394","0.0-6.0-2.0-0.8","j7f9s7u49s","many_one","0","direct_first","1","er06er11","0","22","2","1","3","1","","0","1","0","null","","","<div class = 'row'><div class = 'column'><img src = 'usneg/9280.bmp' width = '100%;'></div><div class = 'column'><img src = 'category3/CS2.png' width = '70%;'></div></div>","null","neg","CS","CS","3","category3/CS2.png","","","","",""
"","html-keyboard-response","36","249895","0.0-6.0-2.0-0.9","j7f9s7u49s","many_one","0","direct_first","1","er06er11","0","22","2","1","3","1","","0","1","0","null","","","<div class = 'row'><div class = 'column'><img src = 'category2/CS10.png' width = '70%;'></div><div class = 'column'><img src = 'uspos/2165.bmp' width = '100%;'></div></div>","null","pos","CS","CS","2","category2/CS10.png","","","","",""
"","html-keyboard-response","37","252400","0.0-6.0-2.0-0.10","j7f9s7u49s","many_one","0","direct_first","1","er06er11","0","22","2","1","3","1","","0","1","0","null","","","<div class = 'row'><div class = 'column'><img src = 'usneg/2900.bmp' width = '100%;'></div><div class = 'column'><img src = 'category4/CS10.png' width = '70%;'></div></div>","null","neg","CS","CS","4","category4/CS10.png","","","","",""
"","html-keyboard-response","38","254901","0.0-6.0-2.0-0.11","j7f9s7u49s","many_one","0","direct_first","1","er06er11","0","22","2","1","3","1","","0","1","0","null","","","<div class = 'row'><div class = 'column'><img src = 'category2/CS5.png' width = '70%;'></div><div class = 'column'><img src = 'uspos/2550.bmp' width = '100%;'></div></div>","null","pos","CS","CS","2","category2/CS5.png","","","","",""
"","html-keyboard-response","39","257404","0.0-6.0-2.0-0.12","j7f9s7u49s","many_one","0","direct_first","1","er06er11","0","22","2","1","3","1","","0","1","0","null","","","<div class = 'row'><div class = 'column'><img src = 'category4/CS1.png' width = '70%;'></div><div class = 'column'><img src = 'usneg/9220.bmp' width = '100%;'></div></div>","null","neg","CS","CS","4","category4/CS1.png","","","","",""
"","html-keyboard-response","40","259905","0.0-6.0-2.0-0.13","j7f9s7u49s","many_one","0","direct_first","1","er06er11","0","22","2","1","3","1","","0","1","0","null","","","<div class = 'row'><div class = 'column'><img src = 'category3/CS9.png' width = '70%;'></div><div class = 'column'><img src = 'usneg/9342.bmp' width = '100%;'></div></div>","null","neg","CS","CS","3","category3/CS9.png","","","","",""
"","html-keyboard-response","41","262407","0.0-6.0-2.0-0.14","j7f9s7u49s","many_one","0","direct_first","1","er06er11","0","22","2","1","3","1","","0","1","0","null","","","<div class = 'row'><div class = 'column'><img src = 'category4/CS6.png' width = '70%;'></div><div class = 'column'><img src = 'usneg/9560.bmp' width = '100%;'></div></div>","null","neg","CS","CS","4","category4/CS6.png","","","","",""
"","html-keyboard-response","42","264910","0.0-6.0-2.0-0.15","j7f9s7u49s","many_one","0","direct_first","1","er06er11","0","22","2","1","3","1","","0","1","0","null","","","<div class = 'row'><div class = 'column'><img src = 'uspos/1340.bmp' width = '100%;'></div><div class = 'column'><img src = 'category2/CS4.png' width = '70%;'></div></div>","null","pos","CS","CS","2","category2/CS4.png","","","","",""
"","html-keyboard-response","43","267412","0.0-6.0-2.0-0.16","j7f9s7u49s","many_one","0","direct_first","1","er06er11","0","22","2","1","3","1","","0","1","0","null","","","<div class = 'row'><div class = 'column'><img src = 'usneg/3181.bmp' width = '100%;'></div><div class = 'column'><img src = 'category4/CS2.png' width = '70%;'></div></div>","null","neg","CS","CS","4","category4/CS2.png","","","","",""
"","html-keyboard-response","44","269914","0.0-6.0-2.0-0.17","j7f9s7u49s","many_one","0","direct_first","1","er06er11","0","22","2","1","3","1","","0","1","0","null","","","<div class = 'row'><div class = 'column'><img src = 'category1/CS4.png' width = '70%;'></div><div class = 'column'><img src = 'uspos/1710.bmp' width = '100%;'></div></div>","null","pos","CS","CS","1","category1/CS4.png","","","","",""
"","html-keyboard-response","45","272418","0.0-6.0-2.0-0.18","j7f9s7u49s","many_one","0","direct_first","1","er06er11","0","22","2","1","3","1","","0","1","0","null","","","<div class = 'row'><div class = 'column'><img src = 'usneg/9290.bmp' width = '100%;'></div><div class = 'column'><img src = 'category4/CS8.png' width = '70%;'></div></div>","null","neg","CS","CS","4","category4/CS8.png","","","","",""
"","html-keyboard-response","46","274921","0.0-6.0-2.0-0.19","j7f9s7u49s","many_one","0","direct_first","1","er06er11","0","22","2","1","3","1","","0","1","0","null","","","<div class = 'row'><div class = 'column'><img src = 'uspos/7325.bmp' width = '100%;'></div><div class = 'column'><img src = 'category1/CS10.png' width = '70%;'></div></div>","null","pos","CS","CS","1","category1/CS10.png","","","","",""
"","survey-html-form","47","276416","0.0-6.0-3.0","j7f9s7u49s","many_one","0","direct_first","1","er06er11","0","22","2","1","3","1","","0","1","0","994","","{}","","","","","","","","","","","",""
"","html-keyboard-response","48","280418","0.0-6.0-4.0-0.0","j7f9s7u49s","many_one","0","direct_first","1","er06er11","0","22","2","1","3","1","","0","1","0","null","","","<div class = 'row'><div class = 'column'><img src = 'category3/CS9.png' width = '70%;'></div><div class = 'column'><img src = 'usneg/9342.bmp' width = '100%;'></div></div>","null","neg","CS","CS","3","category3/CS9.png","","","","",""
"","html-keyboard-response","49","282919","0.0-6.0-4.0-0.1","j7f9s7u49s","many_one","0","direct_first","1","er06er11","0","22","2","1","3","1","","0","1","0","null","","","<div class = 'row'><div class = 'column'><img src = 'category1/CS9.png' width = '70%;'></div><div class = 'column'><img src = 'uspos/5700.bmp' width = '100%;'></div></div>","null","pos","CS","CS","1","category1/CS9.png","","","","",""
"","html-keyboard-response","50","285423","0.0-6.0-4.0-0.2","j7f9s7u49s","many_one","0","direct_first","1","er06er11","0","22","2","1","3","1","","0","1","0","null","","","<div class = 'row'><div class = 'column'><img src = 'usneg/2750.bmp' width = '100%;'></div><div class = 'column'><img src = 'category3/CS5.png' width = '70%;'></div></div>","null","neg","CS","CS","3","category3/CS5.png","","","","",""
"","html-keyboard-response","51","287927","0.0-6.0-4.0-0.3","j7f9s7u49s","many_one","0","direct_first","1","er06er11","0","22","2","1","3","1","","0","1","0","null","","","<div class = 'row'><div class = 'column'><img src = 'uspos/1340.bmp' width = '100%;'></div><div class = 'column'><img src = 'category2/CS4.png' width = '70%;'></div></div>","null","pos","CS","CS","2","category2/CS4.png","","","","",""
"","html-keyboard-response","52","290429","0.0-6.0-4.0-0.4","j7f9s7u49s","many_one","0","direct_first","1","er06er11","0","22","2","1","3","1","","0","1","0","null","","","<div class = 'row'><div class = 'column'><img src = 'category1/CS2.png' width = '70%;'></div><div class = 'column'><img src = 'uspos/8490.bmp' width = '100%;'></div></div>","null","pos","CS","CS","1","category1/CS2.png","","","","",""
"","html-keyboard-response","53","292931","0.0-6.0-4.0-0.5","j7f9s7u49s","many_one","0","direct_first","1","er06er11","0","22","2","1","3","1","","0","1","0","null","","","<div class = 'row'><div class = 'column'><img src = 'category3/CS1.png' width = '70%;'></div><div class = 'column'><img src = 'usneg/8485.bmp' width = '100%;'></div></div>","null","neg","CS","CS","3","category3/CS1.png","","","","",""
"","html-keyboard-response","54","295434","0.0-6.0-4.0-0.6","j7f9s7u49s","many_one","0","direct_first","1","er06er11","0","22","2","1","3","1","","0","1","0","null","","","<div class = 'row'><div class = 'column'><img src = 'category1/CS6.png' width = '70%;'></div><div class = 'column'><img src = 'uspos/8461.bmp' width = '100%;'></div></div>","null","pos","CS","CS","1","category1/CS6.png","","","","",""
"","html-keyboard-response","55","297936","0.0-6.0-4.0-0.7","j7f9s7u49s","many_one","0","direct_first","1","er06er11","0","22","2","1","3","1","","0","1","0","null","","","<div class = 'row'><div class = 'column'><img src = 'uspos/2040.bmp' width = '100%;'></div><div class = 'column'><img src = 'category2/CS7.png' width = '70%;'></div></div>","null","pos","CS","CS","2","category2/CS7.png","","","","",""
"","html-keyboard-response","56","300438","0.0-6.0-4.0-0.8","j7f9s7u49s","many_one","0","direct_first","1","er06er11","0","22","2","1","3","1","","0","1","0","null","","","<div class = 'row'><div class = 'column'><img src = 'uspos/2165.bmp' width = '100%;'></div><div class = 'column'><img src = 'category2/CS10.png' width = '70%;'></div></div>","null","pos","CS","CS","2","category2/CS10.png","","","","",""
"","html-keyboard-response","57","302938","0.0-6.0-4.0-0.9","j7f9s7u49s","many_one","0","direct_first","1","er06er11","0","22","2","1","3","1","","0","1","0","null","","","<div class = 'row'><div class = 'column'><img src = 'category4/CS10.png' width = '70%;'></div><div class = 'column'><img src = 'usneg/2900.bmp' width = '100%;'></div></div>","null","neg","CS","CS","4","category4/CS10.png","","","","",""
"","html-keyboard-response","58","305440","0.0-6.0-4.0-0.10","j7f9s7u49s","many_one","0","direct_first","1","er06er11","0","22","2","1","3","1","","0","1","0","null","","","<div class = 'row'><div class = 'column'><img src = 'usneg/9280.bmp' width = '100%;'></div><div class = 'column'><img src = 'category3/CS2.png' width = '70%;'></div></div>","null","neg","CS","CS","3","category3/CS2.png","","","","",""
"","html-keyboard-response","59","307941","0.0-6.0-4.0-0.11","j7f9s7u49s","many_one","0","direct_first","1","er06er11","0","22","2","1","3","1","","0","1","0","null","","","<div class = 'row'><div class = 'column'><img src = 'usneg/9181.bmp' width = '100%;'></div><div class = 'column'><img src = 'category3/CS7.png' width = '70%;'></div></div>","null","neg","CS","CS","3","category3/CS7.png","","","","",""
"","html-keyboard-response","60","310443","0.0-6.0-4.0-0.12","j7f9s7u49s","many_one","0","direct_first","1","er06er11","0","22","2","1","3","1","","0","1","0","null","","","<div class = 'row'><div class = 'column'><img src = 'category1/CS10.png' width = '70%;'></div><div class = 'column'><img src = 'uspos/7325.bmp' width = '100%;'></div></div>","null","pos","CS","CS","1","category1/CS10.png","","","","",""
"","html-keyboard-response","61","312946","0.0-6.0-4.0-0.13","j7f9s7u49s","many_one","0","direct_first","1","er06er11","0","22","2","1","3","1","","0","1","0","null","","","<div class = 'row'><div class = 'column'><img src = 'category1/CS4.png' width = '70%;'></div><div class = 'column'><img src = 'uspos/1710.bmp' width = '100%;'></div></div>","null","pos","CS","CS","1","category1/CS4.png","","","","",""
"","html-keyboard-response","62","315448","0.0-6.0-4.0-0.14","j7f9s7u49s","many_one","0","direct_first","1","er06er11","0","22","2","1","3","1","","0","1","0","null","","","<div class = 'row'><div class = 'column'><img src = 'uspos/4599.bmp' width = '100%;'></div><div class = 'column'><img src = 'category2/CS9.png' width = '70%;'></div></div>","null","pos","CS","CS","2","category2/CS9.png","","","","",""
"","html-keyboard-response","63","317950","0.0-6.0-4.0-0.15","j7f9s7u49s","many_one","0","direct_first","1","er06er11","0","22","2","1","3","1","","0","1","0","null","","","<div class = 'row'><div class = 'column'><img src = 'usneg/3181.bmp' width = '100%;'></div><div class = 'column'><img src = 'category4/CS2.png' width = '70%;'></div></div>","null","neg","CS","CS","4","category4/CS2.png","","","","",""
"","html-keyboard-response","64","320468","0.0-6.0-4.0-0.16","j7f9s7u49s","many_one","0","direct_first","1","er06er11","0","22","2","1","3","1","","0","1","0","null","","","<div class = 'row'><div class = 'column'><img src = 'category4/CS6.png' width = '70%;'></div><div class = 'column'><img src = 'usneg/9560.bmp' width = '100%;'></div></div>","null","neg","CS","CS","4","category4/CS6.png","","","","",""
"","html-keyboard-response","65","322979","0.0-6.0-4.0-0.17","j7f9s7u49s","many_one","0","direct_first","1","er06er11","0","22","2","1","3","1","","0","1","0","null","","","<div class = 'row'><div class = 'column'><img src = 'usneg/9290.bmp' width = '100%;'></div><div class = 'column'><img src = 'category4/CS8.png' width = '70%;'></div></div>","null","neg","CS","CS","4","category4/CS8.png","","","","",""
"","html-keyboard-response","66","325496","0.0-6.0-4.0-0.18","j7f9s7u49s","many_one","0","direct_first","1","er06er11","0","22","2","1","3","1","","0","1","0","null","","","<div class = 'row'><div class = 'column'><img src = 'usneg/9220.bmp' width = '100%;'></div><div class = 'column'><img src = 'category4/CS1.png' width = '70%;'></div></div>","null","neg","CS","CS","4","category4/CS1.png","","","","",""
"","html-keyboard-response","67","327998","0.0-6.0-4.0-0.19","j7f9s7u49s","many_one","0","direct_first","1","er06er11","0","22","2","1","3","1","","0","1","0","null","","","<div class = 'row'><div class = 'column'><img src = 'category2/CS5.png' width = '70%;'></div><div class = 'column'><img src = 'uspos/2550.bmp' width = '100%;'></div></div>","null","pos","CS","CS","2","category2/CS5.png","","","","",""
"","survey-html-form","68","329586","0.0-6.0-5.0","j7f9s7u49s","many_one","0","direct_first","1","er06er11","0","22","2","1","3","1","","0","1","0","1065","","{}","","","","","","","","","","","",""
"","html-keyboard-response","69","333609","0.0-6.0-6.0-0.0","j7f9s7u49s","many_one","0","direct_first","1","er06er11","0","22","2","1","3","1","","0","1","0","null","","","<div class = 'row'><div class = 'column'><img src = 'category1/CS10.png' width = '70%;'></div><div class = 'column'><img src = 'uspos/7325.bmp' width = '100%;'></div></div>","null","pos","CS","CS","1","category1/CS10.png","","","","",""
"","html-keyboard-response","70","336139","0.0-6.0-6.0-0.1","j7f9s7u49s","many_one","0","direct_first","1","er06er11","0","22","2","1","3","1","","0","1","0","null","","","<div class = 'row'><div class = 'column'><img src = 'category1/CS9.png' width = '70%;'></div><div class = 'column'><img src = 'uspos/5700.bmp' width = '100%;'></div></div>","null","pos","CS","CS","1","category1/CS9.png","","","","",""
"","html-keyboard-response","71","338678","0.0-6.0-6.0-0.2","j7f9s7u49s","many_one","0","direct_first","1","er06er11","0","22","2","1","3","1","","0","1","0","null","","","<div class = 'row'><div class = 'column'><img src = 'category4/CS6.png' width = '70%;'></div><div class = 'column'><img src = 'usneg/9560.bmp' width = '100%;'></div></div>","null","neg","CS","CS","4","category4/CS6.png","","","","",""
"","html-keyboard-response","72","341218","0.0-6.0-6.0-0.3","j7f9s7u49s","many_one","0","direct_first","1","er06er11","0","22","2","1","3","1","","0","1","0","null","","","<div class = 'row'><div class = 'column'><img src = 'uspos/1340.bmp' width = '100%;'></div><div class = 'column'><img src = 'category2/CS4.png' width = '70%;'></div></div>","null","pos","CS","CS","2","category2/CS4.png","","","","",""
"","html-keyboard-response","73","343739","0.0-6.0-6.0-0.4","j7f9s7u49s","many_one","0","direct_first","1","er06er11","0","22","2","1","3","1","","0","1","0","null","","","<div class = 'row'><div class = 'column'><img src = 'usneg/2900.bmp' width = '100%;'></div><div class = 'column'><img src = 'category4/CS10.png' width = '70%;'></div></div>","null","neg","CS","CS","4","category4/CS10.png","","","","",""
"","html-keyboard-response","74","346268","0.0-6.0-6.0-0.5","j7f9s7u49s","many_one","0","direct_first","1","er06er11","0","22","2","1","3","1","","0","1","0","null","","","<div class = 'row'><div class = 'column'><img src = 'category3/CS5.png' width = '70%;'></div><div class = 'column'><img src = 'usneg/2750.bmp' width = '100%;'></div></div>","null","neg","CS","CS","3","category3/CS5.png","","","","",""
"","html-keyboard-response","75","348779","0.0-6.0-6.0-0.6","j7f9s7u49s","many_one","0","direct_first","1","er06er11","0","22","2","1","3","1","","0","1","0","null","","","<div class = 'row'><div class = 'column'><img src = 'uspos/8461.bmp' width = '100%;'></div><div class = 'column'><img src = 'category1/CS6.png' width = '70%;'></div></div>","null","pos","CS","CS","1","category1/CS6.png","","","","",""
"","html-keyboard-response","76","351318","0.0-6.0-6.0-0.7","j7f9s7u49s","many_one","0","direct_first","1","er06er11","0","22","2","1","3","1","","0","1","0","null","","","<div class = 'row'><div class = 'column'><img src = 'category1/CS4.png' width = '70%;'></div><div class = 'column'><img src = 'uspos/1710.bmp' width = '100%;'></div></div>","null","pos","CS","CS","1","category1/CS4.png","","","","",""
"","html-keyboard-response","77","353857","0.0-6.0-6.0-0.8","j7f9s7u49s","many_one","0","direct_first","1","er06er11","0","22","2","1","3","1","","0","1","0","null","","","<div class = 'row'><div class = 'column'><img src = 'category3/CS2.png' width = '70%;'></div><div class = 'column'><img src = 'usneg/9280.bmp' width = '100%;'></div></div>","null","neg","CS","CS","3","category3/CS2.png","","","","",""
"","html-keyboard-response","78","356378","0.0-6.0-6.0-0.9","j7f9s7u49s","many_one","0","direct_first","1","er06er11","0","22","2","1","3","1","","0","1","0","null","","","<div class = 'row'><div class = 'column'><img src = 'category4/CS2.png' width = '70%;'></div><div class = 'column'><img src = 'usneg/3181.bmp' width = '100%;'></div></div>","null","neg","CS","CS","4","category4/CS2.png","","","","",""
"","html-keyboard-response","79","358898","0.0-6.0-6.0-0.10","j7f9s7u49s","many_one","0","direct_first","1","er06er11","0","22","2","1","3","1","","0","1","0","null","","","<div class = 'row'><div class = 'column'><img src = 'category2/CS7.png' width = '70%;'></div><div class = 'column'><img src = 'uspos/2040.bmp' width = '100%;'></div></div>","null","pos","CS","CS","2","category2/CS7.png","","","","",""
"","html-keyboard-response","80","361418","0.0-6.0-6.0-0.11","j7f9s7u49s","many_one","0","direct_first","1","er06er11","0","22","2","1","3","1","","0","1","0","null","","","<div class = 'row'><div class = 'column'><img src = 'category2/CS10.png' width = '70%;'></div><div class = 'column'><img src = 'uspos/2165.bmp' width = '100%;'></div></div>","null","pos","CS","CS","2","category2/CS10.png","","","","",""
"","html-keyboard-response","81","363929","0.0-6.0-6.0-0.12","j7f9s7u49s","many_one","0","direct_first","1","er06er11","0","22","2","1","3","1","","0","1","0","null","","","<div class = 'row'><div class = 'column'><img src = 'usneg/9290.bmp' width = '100%;'></div><div class = 'column'><img src = 'category4/CS8.png' width = '70%;'></div></div>","null","neg","CS","CS","4","category4/CS8.png","","","","",""
"","html-keyboard-response","82","366433","0.0-6.0-6.0-0.13","j7f9s7u49s","many_one","0","direct_first","1","er06er11","0","22","2","1","3","1","","0","1","0","null","","","<div class = 'row'><div class = 'column'><img src = 'category3/CS1.png' width = '70%;'></div><div class = 'column'><img src = 'usneg/8485.bmp' width = '100%;'></div></div>","null","neg","CS","CS","3","category3/CS1.png","","","","",""
"","html-keyboard-response","83","368953","0.0-6.0-6.0-0.14","j7f9s7u49s","many_one","0","direct_first","1","er06er11","0","22","2","1","3","1","","0","1","0","null","","","<div class = 'row'><div class = 'column'><img src = 'category2/CS5.png' width = '70%;'></div><div class = 'column'><img src = 'uspos/2550.bmp' width = '100%;'></div></div>","null","pos","CS","CS","2","category2/CS5.png","","","","",""
"","html-keyboard-response","84","371468","0.0-6.0-6.0-0.15","j7f9s7u49s","many_one","0","direct_first","1","er06er11","0","22","2","1","3","1","","0","1","0","null","","","<div class = 'row'><div class = 'column'><img src = 'category1/CS2.png' width = '70%;'></div><div class = 'column'><img src = 'uspos/8490.bmp' width = '100%;'></div></div>","null","pos","CS","CS","1","category1/CS2.png","","","","",""
"","html-keyboard-response","85","373988","0.0-6.0-6.0-0.16","j7f9s7u49s","many_one","0","direct_first","1","er06er11","0","22","2","1","3","1","","0","1","0","null","","","<div class = 'row'><div class = 'column'><img src = 'category4/CS1.png' width = '70%;'></div><div class = 'column'><img src = 'usneg/9220.bmp' width = '100%;'></div></div>","null","neg","CS","CS","4","category4/CS1.png","","","","",""
"","html-keyboard-response","86","376516","0.0-6.0-6.0-0.17","j7f9s7u49s","many_one","0","direct_first","1","er06er11","0","22","2","1","3","1","","0","1","0","null","","","<div class = 'row'><div class = 'column'><img src = 'usneg/9181.bmp' width = '100%;'></div><div class = 'column'><img src = 'category3/CS7.png' width = '70%;'></div></div>","null","neg","CS","CS","3","category3/CS7.png","","","","",""
"","html-keyboard-response","87","379048","0.0-6.0-6.0-0.18","j7f9s7u49s","many_one","0","direct_first","1","er06er11","0","22","2","1","3","1","","0","1","0","null","","","<div class = 'row'><div class = 'column'><img src = 'usneg/9342.bmp' width = '100%;'></div><div class = 'column'><img src = 'category3/CS9.png' width = '70%;'></div></div>","null","neg","CS","CS","3","category3/CS9.png","","","","",""
"","html-keyboard-response","88","381578","0.0-6.0-6.0-0.19","j7f9s7u49s","many_one","0","direct_first","1","er06er11","0","22","2","1","3","1","","0","1","0","null","","","<div class = 'row'><div class = 'column'><img src = 'uspos/4599.bmp' width = '100%;'></div><div class = 'column'><img src = 'category2/CS9.png' width = '70%;'></div></div>","null","pos","CS","CS","2","category2/CS9.png","","","","",""
"","survey-html-form","89","392335","0.0-7.0","j7f9s7u49s","many_one","0","direct_first","1","er06er11","0","22","2","1","3","1","","0","1","0","10236","","{}","","","","","","","","","","","",""
"","image-slider-response","90","401170","0.0-8.0-0.0","j7f9s7u49s","many_one","0","direct_first","1","er06er11","0","22","2","1","3","1","","0","1","0","6822","","","","","pos","GS","abstract","2","category2/men.png","63","targets/26.png","direct","",""
"","image-slider-response","91","407717","0.0-8.0-0.1","j7f9s7u49s","many_one","0","direct_first","1","er06er11","0","22","2","1","3","1","","0","1","0","6545","","","","","pos","GS","GSnew","1","category1/GS2.png","19","targets/38.png","direct","",""
"","image-slider-response","92","412990","0.0-8.0-0.2","j7f9s7u49s","many_one","0","direct_first","1","er06er11","0","22","2","1","3","1","","0","1","0","5272","","","","","pos","CS","CS","1","category1/CS4.png","79","targets/22.png","direct","",""
"","image-slider-response","93","417018","0.0-8.0-0.3","j7f9s7u49s","many_one","0","direct_first","1","er06er11","0","22","2","1","3","1","","0","1","0","4026","","","","","neg","GS","GSnew","4","category4/GS3.png","-24","targets/42.png","direct","",""
"","image-slider-response","94","421945","0.0-8.0-0.4","j7f9s7u49s","many_one","0","direct_first","1","er06er11","0","22","2","1","3","1","","0","1","0","4925","","","","","neg","CS","CS","4","category4/CS8.png","-39","targets/2.png","direct","",""
"","image-slider-response","95","424487","0.0-8.0-0.5","j7f9s7u49s","many_one","0","direct_first","1","er06er11","0","22","2","1","3","1","","0","1","0","2541","","","","","pos","CS","CS","2","category2/CS5.png","54","targets/44.png","direct","",""
"","image-slider-response","96","428612","0.0-8.0-0.6","j7f9s7u49s","many_one","0","direct_first","1","er06er11","0","22","2","1","3","1","","0","1","0","4123","","","","","pos","GS","GSnew","1","category1/GS1.png","19","targets/21.png","direct","",""
"","image-slider-response","97","431200","0.0-8.0-0.7","j7f9s7u49s","many_one","0","direct_first","1","er06er11","0","22","2","1","3","1","","0","1","0","2587","","","","","neg","GS","GSnew","4","category4/GS1.png","-21","targets/17.png","direct","",""
"","image-slider-response","98","433646","0.0-8.0-0.8","j7f9s7u49s","many_one","0","direct_first","1","er06er11","0","22","2","1","3","1","","0","1","0","2445","","","","","neg","GS","abstract","4","category4/lin.png","-11","targets/45.png","direct","",""
"","image-slider-response","99","436119","0.0-8.0-0.9","j7f9s7u49s","many_one","0","direct_first","1","er06er11","0","22","2","1","3","1","","0","1","0","2473","","","","","neg","GS","GSold","4","category4/CS4.png","-20","targets/8.png","direct","",""
"","image-slider-response","100","439910","0.0-8.0-0.10","j7f9s7u49s","many_one","0","direct_first","1","er06er11","0","22","2","1","3","1","","0","1","0","3789","","","","","neg","GS","GSnew","3","category3/GS3.png","-94","targets/47.png","direct","",""
"","image-slider-response","101","442848","0.0-8.0-0.11","j7f9s7u49s","many_one","0","direct_first","1","er06er11","0","22","2","1","3","1","","0","1","0","2936","","","","","pos","CS","CS","1","category1/CS10.png","7","targets/30.png","direct","",""
"","image-slider-response","102","445383","0.0-8.0-0.12","j7f9s7u49s","many_one","0","direct_first","1","er06er11","0","22","2","1","3","1","","0","1","0","2532","","","","","neg","CS","CS","4","category4/CS6.png","20","targets/41.png","direct","",""
"","image-slider-response","103","447896","0.0-8.0-0.13","j7f9s7u49s","many_one","0","direct_first","1","er06er11","0","22","2","1","3","1","","0","1","0","2510","","","","","pos","CS","CS","2","category2/CS10.png","93","targets/35.png","direct","",""
"","image-slider-response","104","451271","0.0-8.0-0.14","j7f9s7u49s","many_one","0","direct_first","1","er06er11","0","22","2","1","3","1","","0","1","0","3373","","","","","pos","GS","GSnew","2","category2/GS1.png","-33","targets/15.png","direct","",""
"","image-slider-response","105","454151","0.0-8.0-0.15","j7f9s7u49s","many_one","0","direct_first","1","er06er11","0","22","2","1","3","1","","0","1","0","2878","","","","","neg","CS","CS","4","category4/CS2.png","-15","targets/9.png","direct","",""
"","image-slider-response","106","457332","0.0-8.0-0.16","j7f9s7u49s","many_one","0","direct_first","1","er06er11","0","22","2","1","3","1","","0","1","0","3178","","","","","pos","CS","CS","1","category1/CS6.png","86","targets/12.png","direct","",""
"","image-slider-response","107","459536","0.0-8.0-0.17","j7f9s7u49s","many_one","0","direct_first","1","er06er11","0","22","2","1","3","1","","0","1","0","2202","","","","","pos","GS","GSnew","1","category1/GS3.png","18","targets/37.png","direct","",""
"","image-slider-response","108","463127","0.0-8.0-0.18","j7f9s7u49s","many_one","0","direct_first","1","er06er11","0","22","2","1","3","1","","0","1","0","3589","","","","","pos","GS","GSold","1","category1/CS7.png","35","targets/46.png","direct","",""
"","image-slider-response","109","466459","0.0-8.0-0.19","j7f9s7u49s","many_one","0","direct_first","1","er06er11","0","22","2","1","3","1","","0","1","0","3330","","","","","pos","GS","GSnew","2","category2/GS2.png","-30","targets/36.png","direct","",""
"","image-slider-response","110","468686","0.0-8.0-0.20","j7f9s7u49s","many_one","0","direct_first","1","er06er11","0","22","2","1","3","1","","0","1","0","2225","","","","","neg","CS","CS","3","category3/CS2.png","-76","targets/48.png","direct","",""
"","image-slider-response","111","470711","0.0-8.0-0.21","j7f9s7u49s","many_one","0","direct_first","1","er06er11","0","22","2","1","3","1","","0","1","0","2023","","","","","neg","GS","GSnew","3","category3/GS2.png","-39","targets/1.png","direct","",""
"","image-slider-response","112","475069","0.0-8.0-0.22","j7f9s7u49s","many_one","0","direct_first","1","er06er11","0","22","2","1","3","1","","0","1","0","4355","","","","","neg","GS","GSold","4","category4/CS5.png","20","targets/28.png","direct","",""
"","image-slider-response","113","477453","0.0-8.0-0.23","j7f9s7u49s","many_one","0","direct_first","1","er06er11","0","22","2","1","3","1","","0","1","0","2383","","","","","neg","CS","CS","3","category3/CS7.png","-71","targets/29.png","direct","",""
"","image-slider-response","114","479994","0.0-8.0-0.24","j7f9s7u49s","many_one","0","direct_first","1","er06er11","0","22","2","1","3","1","","0","1","0","2537","","","","","neg","GS","GSnew","4","category4/GS2.png","19","targets/19.png","direct","",""
"","image-slider-response","115","484262","0.0-8.0-0.25","j7f9s7u49s","many_one","0","direct_first","1","er06er11","0","22","2","1","3","1","","0","1","0","4266","","","","","neg","CS","CS","4","category4/CS1.png","-35","targets/5.png","direct","",""
"","image-slider-response","116","486190","0.0-8.0-0.26","j7f9s7u49s","many_one","0","direct_first","1","er06er11","0","22","2","1","3","1","","0","1","0","1927","","","","","neg","CS","CS","3","category3/CS9.png","-58","targets/10.png","direct","",""
"","image-slider-response","117","489206","0.0-8.0-0.27","j7f9s7u49s","many_one","0","direct_first","1","er06er11","0","22","2","1","3","1","","0","1","0","3014","","","","","neg","GS","GSnew","3","category3/GS1.png","-21","targets/24.png","direct","",""
"","image-slider-response","118","494329","0.0-8.0-0.28","j7f9s7u49s","many_one","0","direct_first","1","er06er11","0","22","2","1","3","1","","0","1","0","5120","","","","","neg","CS","CS","4","category4/CS10.png","-10","targets/14.png","direct","",""
"","image-slider-response","119","496915","0.0-8.0-0.29","j7f9s7u49s","many_one","0","direct_first","1","er06er11","0","22","2","1","3","1","","0","1","0","2585","","","","","pos","CS","CS","2","category2/CS4.png","84","targets/6.png","direct","",""
"","image-slider-response","120","498962","0.0-8.0-0.30","j7f9s7u49s","many_one","0","direct_first","1","er06er11","0","22","2","1","3","1","","0","1","0","2045","","","","","neg","CS","CS","3","category3/CS5.png","-69","targets/43.png","direct","",""
"","image-slider-response","121","501513","0.0-8.0-0.31","j7f9s7u49s","many_one","0","direct_first","1","er06er11","0","22","2","1","3","1","","0","1","0","2549","","","","","neg","GS","GSold","3","category3/CS3.png","-70","targets/31.png","direct","",""
"","image-slider-response","122","503717","0.0-8.0-0.32","j7f9s7u49s","many_one","0","direct_first","1","er06er11","0","22","2","1","3","1","","0","1","0","2201","","","","","pos","CS","CS","2","category2/CS7.png","99","targets/27.png","direct","",""
"","image-slider-response","123","506006","0.0-8.0-0.33","j7f9s7u49s","many_one","0","direct_first","1","er06er11","0","22","2","1","3","1","","0","1","0","2286","","","","","neg","GS","GSold","3","category3/CS6.png","-33","targets/40.png","direct","",""
"","image-slider-response","124","508840","0.0-8.0-0.34","j7f9s7u49s","many_one","0","direct_first","1","er06er11","0","22","2","1","3","1","","0","1","0","2833","","","","","pos","CS","CS","1","category1/CS9.png","51","targets/23.png","direct","",""
"","image-slider-response","125","511413","0.0-8.0-0.35","j7f9s7u49s","many_one","0","direct_first","1","er06er11","0","22","2","1","3","1","","0","1","0","2570","","","","","neg","GS","GSold","3","category3/CS4.png","-40","targets/32.png","direct","",""
"","image-slider-response","126","513573","0.0-8.0-0.36","j7f9s7u49s","many_one","0","direct_first","1","er06er11","0","22","2","1","3","1","","0","1","0","2158","","","","","pos","GS","GSold","1","category1/CS3.png","41","targets/25.png","direct","",""
"","image-slider-response","127","515501","0.0-8.0-0.37","j7f9s7u49s","many_one","0","direct_first","1","er06er11","0","22","2","1","3","1","","0","1","0","1924","","","","","pos","GS","GSold","1","category1/CS8.png","44","targets/20.png","direct","",""
"","image-slider-response","128","518815","0.0-8.0-0.38","j7f9s7u49s","many_one","0","direct_first","1","er06er11","0","22","2","1","3","1","","0","1","0","3314","","","","","pos","GS","GSold","2","category2/CS3.png","43","targets/16.png","direct","",""
"","image-slider-response","129","520953","0.0-8.0-0.39","j7f9s7u49s","many_one","0","direct_first","1","er06er11","0","22","2","1","3","1","","0","1","0","2135","","","","","neg","CS","CS","3","category3/CS1.png","-78","targets/13.png","direct","",""
"","image-slider-response","130","524418","0.0-8.0-0.40","j7f9s7u49s","many_one","0","direct_first","1","er06er11","0","22","2","1","3","1","","0","1","0","3463","","","","","neg","GS","GSold","4","category4/CS9.png","-18","targets/33.png","direct","",""
"","image-slider-response","131","526382","0.0-8.0-0.41","j7f9s7u49s","many_one","0","direct_first","1","er06er11","0","22","2","1","3","1","","0","1","0","1960","","","","","pos","GS","abstract","1","category1/ma.png","40","targets/3.png","direct","",""
"","image-slider-response","132","530575","0.0-8.0-0.42","j7f9s7u49s","many_one","0","direct_first","1","er06er11","0","22","2","1","3","1","","0","1","0","4191","","","","","pos","CS","CS","2","category2/CS9.png","82","targets/4.png","direct","",""
"","image-slider-response","133","532788","0.0-8.0-0.43","j7f9s7u49s","many_one","0","direct_first","1","er06er11","0","22","2","1","3","1","","0","1","0","2212","","","","","pos","GS","GSold","2","category2/CS1.png","45","targets/11.png","direct","",""
"","image-slider-response","134","535429","0.0-8.0-0.44","j7f9s7u49s","many_one","0","direct_first","1","er06er11","0","22","2","1","3","1","","0","1","0","2638","","","","","pos","CS","CS","1","category1/CS2.png","21","targets/34.png","direct","",""
"","image-slider-response","135","538661","0.0-8.0-0.45","j7f9s7u49s","many_one","0","direct_first","1","er06er11","0","22","2","1","3","1","","0","1","0","3230","","","","","neg","GS","abstract","3","category3/wang.png","-100","targets/18.png","direct","",""
"","image-slider-response","136","544352","0.0-8.0-0.46","j7f9s7u49s","many_one","0","direct_first","1","er06er11","0","22","2","1","3","1","","0","1","0","5688","","","","","pos","GS","GSnew","2","category2/GS3.png","29","targets/7.png","direct","",""
"","image-slider-response","137","548297","0.0-8.0-0.47","j7f9s7u49s","many_one","0","direct_first","1","er06er11","0","22","2","1","3","1","","0","1","0","3944","","","","","pos","GS","GSold","2","category2/CS8.png","88","targets/39.png","direct","",""
"","html-keyboard-response","138","562567","0.0-9.0","j7f9s7u49s","many_one","0","direct_first","1","er06er11","0","22","2","1","3","1","","0","1","0","14268","","","<p>Sie sehen nun die chinesischen Zeichen nur ganz kurz. Danach sehen Sie die jeweilige Aussprache der Zeichen als Silbe auf dem Bildschrim. Ihre Aufgabe ist es, für jede Silbe anzugeben, ob diese etwas angenehmes, oder unangenehmes bedeuten könnte. Verlassen Sie sich hier vor allem auf Ihre Intuition.<br><br>Die Zeichen werden nur zur Orientierung dargestellt, beachten Sie sie deshalb nicht. Konzentrieren Sie sich vor allem auf die Silben. <br>Reagieren Sie mit folgenden zwei Tasten: <br><br><b>'D' </b> wenn die Silbe etwas <b>unangenehmes</b> bedeuten könnte. <br><b>'K'</b> wenn die Silbe etwas <b>angenehmes</b> bedeuten könnte. <br><br>Bitte legen Sie nun den Zeigefinger der linken Hand auf die Taste 'D' und den Zeigefinger der rechten Hand auf die Taste 'K'. <br>Reagieren Sie auf jede Silbe so schnell wie möglich. Uns interessiert Ihre spontane Reaktion. <br> <br> <br>Drücken Sie 'D' oder 'K', um die nächste Aufgabe zu starten. </p>","68","","","","","","","","","",""
"","html-keyboard-response","139","565599","0.0-10.0-0.0","j7f9s7u49s","many_one","0","direct_first","1","er06er11","0","22","2","1","3","1","","0","1","0","null","","","<div style=""font-size:60px;"">+</div>","null","","","","","","","","","",""
"","html-keyboard-response","140","565699","0.0-10.0-1.0","j7f9s7u49s","many_one","0","direct_first","1","er06er11","0","22","2","1","3","1","","0","1","0","null","","","<img src = 'category4/CS9.png' width = '100%;'>","null","","","","","","","","","",""
"","html-keyboard-response","141","565978","0.0-10.0-2.0","j7f9s7u49s","many_one","0","direct_first","1","er06er11","0","22","2","1","3","1","","0","1","0","null","","","<img src = 'targets/33.png' width = '100%;'>","null","","","","","","","","","",""
"","html-keyboard-response","142","569005","0.0-10.0-3.0","j7f9s7u49s","many_one","0","direct_first","1","er06er11","0","22","2","1","3","1","","0","1","0","3024","","","<img src = 'targets/mask.png' width = '100%;'>","75","neg","GS","GSold","4","category4/CS9.png","","targets/33.png","indirect","1","0"
"","html-keyboard-response","143","570539","0.0-10.0-0.1","j7f9s7u49s","many_one","0","direct_first","1","er06er11","0","22","2","1","3","1","","0","1","0","null","","","<div style=""font-size:60px;"">+</div>","null","","","","","","","","","",""
"","html-keyboard-response","144","570638","0.0-10.0-1.1","j7f9s7u49s","many_one","0","direct_first","1","er06er11","0","22","2","1","3","1","","0","1","0","null","","","<img src = 'category3/CS1.png' width = '100%;'>","null","","","","","","","","","",""
"","html-keyboard-response","145","570918","0.0-10.0-2.1","j7f9s7u49s","many_one","0","direct_first","1","er06er11","0","22","2","1","3","1","","0","1","0","null","","","<img src = 'targets/13.png' width = '100%;'>","null","","","","","","","","","",""
"","html-keyboard-response","146","571348","0.0-10.0-3.1","j7f9s7u49s","many_one","0","direct_first","1","er06er11","0","22","2","1","3","1","","0","1","0","428","","","<img src = 'targets/mask.png' width = '100%;'>","68","neg","CS","CS","3","category3/CS1.png","","targets/13.png","indirect","0","1"
"","html-keyboard-response","147","572878","0.0-10.0-0.2","j7f9s7u49s","many_one","0","direct_first","1","er06er11","0","22","2","1","3","1","","0","1","0","null","","","<div style=""font-size:60px;"">+</div>","null","","","","","","","","","",""
"","html-keyboard-response","148","572978","0.0-10.0-1.2","j7f9s7u49s","many_one","0","direct_first","1","er06er11","0","22","2","1","3","1","","0","1","0","null","","","<img src = 'category4/CS2.png' width = '100%;'>","null","","","","","","","","","",""
"","html-keyboard-response","149","573258","0.0-10.0-2.2","j7f9s7u49s","many_one","0","direct_first","1","er06er11","0","22","2","1","3","1","","0","1","0","null","","","<img src = 'targets/9.png' width = '100%;'>","null","","","","","","","","","",""
"","html-keyboard-response","150","574834","0.0-10.0-3.2","j7f9s7u49s","many_one","0","direct_first","1","er06er11","0","22","2","1","3","1","","0","1","0","1574","","","<img src = 'targets/mask.png' width = '100%;'>","75","neg","CS","CS","4","category4/CS2.png","","targets/9.png","indirect","1","2"
"","html-keyboard-response","151","576359","0.0-10.0-0.3","j7f9s7u49s","many_one","0","direct_first","1","er06er11","0","22","2","1","3","1","","0","1","0","null","","","<div style=""font-size:60px;"">+</div>","null","","","","","","","","","",""
"","html-keyboard-response","152","576458","0.0-10.0-1.3","j7f9s7u49s","many_one","0","direct_first","1","er06er11","0","22","2","1","3","1","","0","1","0","null","","","<img src = 'category1/CS10.png' width = '100%;'>","null","","","","","","","","","",""
"","html-keyboard-response","153","576739","0.0-10.0-2.3","j7f9s7u49s","many_one","0","direct_first","1","er06er11","0","22","2","1","3","1","","0","1","0","null","","","<img src = 'targets/30.png' width = '100%;'>","null","","","","","","","","","",""
"","html-keyboard-response","154","577307","0.0-10.0-3.3","j7f9s7u49s","many_one","0","direct_first","1","er06er11","0","22","2","1","3","1","","0","1","0","567","","","<img src = 'targets/mask.png' width = '100%;'>","75","pos","CS","CS","1","category1/CS10.png","","targets/30.png","indirect","1","3"
"","html-keyboard-response","155","578828","0.0-10.0-0.4","j7f9s7u49s","many_one","0","direct_first","1","er06er11","0","22","2","1","3","1","","0","1","0","null","","","<div style=""font-size:60px;"">+</div>","null","","","","","","","","","",""
"","html-keyboard-response","156","578928","0.0-10.0-1.4","j7f9s7u49s","many_one","0","direct_first","1","er06er11","0","22","2","1","3","1","","0","1","0","null","","","<img src = 'category1/CS9.png' width = '100%;'>","null","","","","","","","","","",""
"","html-keyboard-response","157","579209","0.0-10.0-2.4","j7f9s7u49s","many_one","0","direct_first","1","er06er11","0","22","2","1","3","1","","0","1","0","null","","","<img src = 'targets/23.png' width = '100%;'>","null","","","","","","","","","",""
"","html-keyboard-response","158","582100","0.0-10.0-3.4","j7f9s7u49s","many_one","0","direct_first","1","er06er11","0","22","2","1","3","1","","0","1","0","2889","","","<img src = 'targets/mask.png' width = '100%;'>","75","pos","CS","CS","1","category1/CS9.png","","targets/23.png","indirect","1","4"
"","html-keyboard-response","159","583628","0.0-10.0-0.5","j7f9s7u49s","many_one","0","direct_first","1","er06er11","0","22","2","1","3","1","","0","1","0","null","","","<div style=""font-size:60px;"">+</div>","null","","","","","","","","","",""
"","html-keyboard-response","160","583729","0.0-10.0-1.5","j7f9s7u49s","many_one","0","direct_first","1","er06er11","0","22","2","1","3","1","","0","1","0","null","","","<img src = 'category1/CS2.png' width = '100%;'>","null","","","","","","","","","",""
"","html-keyboard-response","161","584009","0.0-10.0-2.5","j7f9s7u49s","many_one","0","direct_first","1","er06er11","0","22","2","1","3","1","","0","1","0","null","","","<img src = 'targets/34.png' width = '100%;'>","null","","","","","","","","","",""
"","html-keyboard-response","162","585574","0.0-10.0-3.5","j7f9s7u49s","many_one","0","direct_first","1","er06er11","0","22","2","1","3","1","","0","1","0","1564","","","<img src = 'targets/mask.png' width = '100%;'>","75","pos","CS","CS","1","category1/CS2.png","","targets/34.png","indirect","1","5"
"","html-keyboard-response","163","587089","0.0-10.0-0.6","j7f9s7u49s","many_one","0","direct_first","1","er06er11","0","22","2","1","3","1","","0","1","0","null","","","<div style=""font-size:60px;"">+</div>","null","","","","","","","","","",""
"","html-keyboard-response","164","587189","0.0-10.0-1.6","j7f9s7u49s","many_one","0","direct_first","1","er06er11","0","22","2","1","3","1","","0","1","0","null","","","<img src = 'category1/CS6.png' width = '100%;'>","null","","","","","","","","","",""
"","html-keyboard-response","165","587468","0.0-10.0-2.6","j7f9s7u49s","many_one","0","direct_first","1","er06er11","0","22","2","1","3","1","","0","1","0","null","","","<img src = 'targets/12.png' width = '100%;'>","null","","","","","","","","","",""
"","html-keyboard-response","166","588357","0.0-10.0-3.6","j7f9s7u49s","many_one","0","direct_first","1","er06er11","0","22","2","1","3","1","","0","1","0","887","","","<img src = 'targets/mask.png' width = '100%;'>","68","pos","CS","CS","1","category1/CS6.png","","targets/12.png","indirect","0","6"
"","html-keyboard-response","167","589868","0.0-10.0-0.7","j7f9s7u49s","many_one","0","direct_first","1","er06er11","0","22","2","1","3","1","","0","1","0","null","","","<div style=""font-size:60px;"">+</div>","null","","","","","","","","","",""
"","html-keyboard-response","168","589964","0.0-10.0-1.7","j7f9s7u49s","many_one","0","direct_first","1","er06er11","0","22","2","1","3","1","","0","1","0","null","","","<img src = 'category4/CS6.png' width = '100%;'>","null","","","","","","","","","",""
"","html-keyboard-response","169","590239","0.0-10.0-2.7","j7f9s7u49s","many_one","0","direct_first","1","er06er11","0","22","2","1","3","1","","0","1","0","null","","","<img src = 'targets/41.png' width = '100%;'>","null","","","","","","","","","",""
"","html-keyboard-response","170","591020","0.0-10.0-3.7","j7f9s7u49s","many_one","0","direct_first","1","er06er11","0","22","2","1","3","1","","0","1","0","781","","","<img src = 'targets/mask.png' width = '100%;'>","68","neg","CS","CS","4","category4/CS6.png","","targets/41.png","indirect","0","7"
"","html-keyboard-response","171","592559","0.0-10.0-0.8","j7f9s7u49s","many_one","0","direct_first","1","er06er11","0","22","2","1","3","1","","0","1","0","null","","","<div style=""font-size:60px;"">+</div>","null","","","","","","","","","",""
"","html-keyboard-response","172","592659","0.0-10.0-1.8","j7f9s7u49s","many_one","0","direct_first","1","er06er11","0","22","2","1","3","1","","0","1","0","null","","","<img src = 'category3/CS2.png' width = '100%;'>","null","","","","","","","","","",""
"","html-keyboard-response","173","592939","0.0-10.0-2.8","j7f9s7u49s","many_one","0","direct_first","1","er06er11","0","22","2","1","3","1","","0","1","0","null","","","<img src = 'targets/48.png' width = '100%;'>","null","","","","","","","","","",""
"","html-keyboard-response","174","594135","0.0-10.0-3.8","j7f9s7u49s","many_one","0","direct_first","1","er06er11","0","22","2","1","3","1","","0","1","0","1196","","","<img src = 'targets/mask.png' width = '100%;'>","68","neg","CS","CS","3","category3/CS2.png","","targets/48.png","indirect","0","8"
"","html-keyboard-response","175","595648","0.0-10.0-0.9","j7f9s7u49s","many_one","0","direct_first","1","er06er11","0","22","2","1","3","1","","0","1","0","null","","","<div style=""font-size:60px;"">+</div>","null","","","","","","","","","",""
"","html-keyboard-response","176","595749","0.0-10.0-1.9","j7f9s7u49s","many_one","0","direct_first","1","er06er11","0","22","2","1","3","1","","0","1","0","null","","","<img src = 'category2/CS9.png' width = '100%;'>","null","","","","","","","","","",""
"","html-keyboard-response","177","596028","0.0-10.0-2.9","j7f9s7u49s","many_one","0","direct_first","1","er06er11","0","22","2","1","3","1","","0","1","0","null","","","<img src = 'targets/4.png' width = '100%;'>","null","","","","","","","","","",""
"","html-keyboard-response","178","596810","0.0-10.0-3.9","j7f9s7u49s","many_one","0","direct_first","1","er06er11","0","22","2","1","3","1","","0","1","0","779","","","<img src = 'targets/mask.png' width = '100%;'>","75","pos","CS","CS","2","category2/CS9.png","","targets/4.png","indirect","1","9"
"","html-keyboard-response","179","598328","0.0-10.0-0.10","j7f9s7u49s","many_one","0","direct_first","1","er06er11","0","22","2","1","3","1","","0","1","0","null","","","<div style=""font-size:60px;"">+</div>","null","","","","","","","","","",""
"","html-keyboard-response","180","598428","0.0-10.0-1.10","j7f9s7u49s","many_one","0","direct_first","1","er06er11","0","22","2","1","3","1","","0","1","0","null","","","<img src = 'category4/CS10.png' width = '100%;'>","null","","","","","","","","","",""
"","html-keyboard-response","181","598709","0.0-10.0-2.10","j7f9s7u49s","many_one","0","direct_first","1","er06er11","0","22","2","1","3","1","","0","1","0","null","","","<img src = 'targets/14.png' width = '100%;'>","null","","","","","","","","","",""
"","html-keyboard-response","182","600518","0.0-10.0-3.10","j7f9s7u49s","many_one","0","direct_first","1","er06er11","0","22","2","1","3","1","","0","1","0","1808","","","<img src = 'targets/mask.png' width = '100%;'>","68","neg","CS","CS","4","category4/CS10.png","","targets/14.png","indirect","0","10"
"","html-keyboard-response","183","602049","0.0-10.0-0.11","j7f9s7u49s","many_one","0","direct_first","1","er06er11","0","22","2","1","3","1","","0","1","0","null","","","<div style=""font-size:60px;"">+</div>","null","","","","","","","","","",""
"","html-keyboard-response","184","602148","0.0-10.0-1.11","j7f9s7u49s","many_one","0","direct_first","1","er06er11","0","22","2","1","3","1","","0","1","0","null","","","<img src = 'category4/CS8.png' width = '100%;'>","null","","","","","","","","","",""
"","html-keyboard-response","185","602428","0.0-10.0-2.11","j7f9s7u49s","many_one","0","direct_first","1","er06er11","0","22","2","1","3","1","","0","1","0","null","","","<img src = 'targets/2.png' width = '100%;'>","null","","","","","","","","","",""
"","html-keyboard-response","186","602897","0.0-10.0-3.11","j7f9s7u49s","many_one","0","direct_first","1","er06er11","0","22","2","1","3","1","","0","1","0","467","","","<img src = 'targets/mask.png' width = '100%;'>","68","neg","CS","CS","4","category4/CS8.png","","targets/2.png","indirect","0","11"
"","html-keyboard-response","187","604428","0.0-10.0-0.12","j7f9s7u49s","many_one","0","direct_first","1","er06er11","0","22","2","1","3","1","","0","1","0","null","","","<div style=""font-size:60px;"">+</div>","null","","","","","","","","","",""
"","html-keyboard-response","188","604529","0.0-10.0-1.12","j7f9s7u49s","many_one","0","direct_first","1","er06er11","0","22","2","1","3","1","","0","1","0","null","","","<img src = 'category3/CS5.png' width = '100%;'>","null","","","","","","","","","",""
"","html-keyboard-response","189","604798","0.0-10.0-2.12","j7f9s7u49s","many_one","0","direct_first","1","er06er11","0","22","2","1","3","1","","0","1","0","null","","","<img src = 'targets/43.png' width = '100%;'>","null","","","","","","","","","",""
"","html-keyboard-response","190","605116","0.0-10.0-3.12","j7f9s7u49s","many_one","0","direct_first","1","er06er11","0","22","2","1","3","1","","0","1","0","318","","","<img src = 'targets/mask.png' width = '100%;'>","75","neg","CS","CS","3","category3/CS5.png","","targets/43.png","indirect","1","12"
"","html-keyboard-response","191","606619","0.0-10.0-0.13","j7f9s7u49s","many_one","0","direct_first","1","er06er11","0","22","2","1","3","1","","0","1","0","null","","","<div style=""font-size:60px;"">+</div>","null","","","","","","","","","",""
"","html-keyboard-response","192","606718","0.0-10.0-1.13","j7f9s7u49s","many_one","0","direct_first","1","er06er11","0","22","2","1","3","1","","0","1","0","null","","","<img src = 'category2/CS7.png' width = '100%;'>","null","","","","","","","","","",""
"","html-keyboard-response","193","606999","0.0-10.0-2.13","j7f9s7u49s","many_one","0","direct_first","1","er06er11","0","22","2","1","3","1","","0","1","0","null","","","<img src = 'targets/27.png' width = '100%;'>","null","","","","","","","","","",""
"","html-keyboard-response","194","607444","0.0-10.0-3.13","j7f9s7u49s","many_one","0","direct_first","1","er06er11","0","22","2","1","3","1","","0","1","0","446","","","<img src = 'targets/mask.png' width = '100%;'>","75","pos","CS","CS","2","category2/CS7.png","","targets/27.png","indirect","1","13"
"","html-keyboard-response","195","608969","0.0-10.0-0.14","j7f9s7u49s","many_one","0","direct_first","1","er06er11","0","22","2","1","3","1","","0","1","0","null","","","<div style=""font-size:60px;"">+</div>","null","","","","","","","","","",""
"","html-keyboard-response","196","609069","0.0-10.0-1.14","j7f9s7u49s","many_one","0","direct_first","1","er06er11","0","22","2","1","3","1","","0","1","0","null","","","<img src = 'category4/CS1.png' width = '100%;'>","null","","","","","","","","","",""
"","html-keyboard-response","197","609349","0.0-10.0-2.14","j7f9s7u49s","many_one","0","direct_first","1","er06er11","0","22","2","1","3","1","","0","1","0","null","","","<img src = 'targets/5.png' width = '100%;'>","null","","","","","","","","","",""
"","html-keyboard-response","198","609972","0.0-10.0-3.14","j7f9s7u49s","many_one","0","direct_first","1","er06er11","0","22","2","1","3","1","","0","1","0","622","","","<img src = 'targets/mask.png' width = '100%;'>","68","neg","CS","CS","4","category4/CS1.png","","targets/5.png","indirect","0","14"
"","html-keyboard-response","199","611488","0.0-10.0-0.15","j7f9s7u49s","many_one","0","direct_first","1","er06er11","0","22","2","1","3","1","","0","1","0","null","","","<div style=""font-size:60px;"">+</div>","null","","","","","","","","","",""
"","html-keyboard-response","200","611589","0.0-10.0-1.15","j7f9s7u49s","many_one","0","direct_first","1","er06er11","0","22","2","1","3","1","","0","1","0","null","","","<img src = 'category3/CS7.png' width = '100%;'>","null","","","","","","","","","",""
"","html-keyboard-response","201","611868","0.0-10.0-2.15","j7f9s7u49s","many_one","0","direct_first","1","er06er11","0","22","2","1","3","1","","0","1","0","null","","","<img src = 'targets/29.png' width = '100%;'>","null","","","","","","","","","",""
"","html-keyboard-response","202","612230","0.0-10.0-3.15","j7f9s7u49s","many_one","0","direct_first","1","er06er11","0","22","2","1","3","1","","0","1","0","361","","","<img src = 'targets/mask.png' width = '100%;'>","68","neg","CS","CS","3","category3/CS7.png","","targets/29.png","indirect","0","15"
"","html-keyboard-response","203","613768","0.0-10.0-0.16","j7f9s7u49s","many_one","0","direct_first","1","er06er11","0","22","2","1","3","1","","0","1","0","null","","","<div style=""font-size:60px;"">+</div>","null","","","","","","","","","",""
"","html-keyboard-response","204","613868","0.0-10.0-1.16","j7f9s7u49s","many_one","0","direct_first","1","er06er11","0","22","2","1","3","1","","0","1","0","null","","","<img src = 'category1/CS4.png' width = '100%;'>","null","","","","","","","","","",""
"","html-keyboard-response","205","614149","0.0-10.0-2.16","j7f9s7u49s","many_one","0","direct_first","1","er06er11","0","22","2","1","3","1","","0","1","0","null","","","<img src = 'targets/22.png' width = '100%;'>","null","","","","","","","","","",""
"","html-keyboard-response","206","614660","0.0-10.0-3.16","j7f9s7u49s","many_one","0","direct_first","1","er06er11","0","22","2","1","3","1","","0","1","0","509","","","<img src = 'targets/mask.png' width = '100%;'>","75","pos","CS","CS","1","category1/CS4.png","","targets/22.png","indirect","1","16"
"","html-keyboard-response","207","616169","0.0-10.0-0.17","j7f9s7u49s","many_one","0","direct_first","1","er06er11","0","22","2","1","3","1","","0","1","0","null","","","<div style=""font-size:60px;"">+</div>","null","","","","","","","","","",""
"","html-keyboard-response","208","616269","0.0-10.0-1.17","j7f9s7u49s","many_one","0","direct_first","1","er06er11","0","22","2","1","3","1","","0","1","0","null","","","<img src = 'category2/CS10.png' width = '100%;'>","null","","","","","","","","","",""
"","html-keyboard-response","209","616538","0.0-10.0-2.17","j7f9s7u49s","many_one","0","direct_first","1","er06er11","0","22","2","1","3","1","","0","1","0","null","","","<img src = 'targets/35.png' width = '100%;'>","null","","","","","","","","","",""
"","html-keyboard-response","210","617084","0.0-10.0-3.17","j7f9s7u49s","many_one","0","direct_first","1","er06er11","0","22","2","1","3","1","","0","1","0","545","","","<img src = 'targets/mask.png' width = '100%;'>","75","pos","CS","CS","2","category2/CS10.png","","targets/35.png","indirect","1","17"
"","html-keyboard-response","211","618618","0.0-10.0-0.18","j7f9s7u49s","many_one","0","direct_first","1","er06er11","0","22","2","1","3","1","","0","1","0","null","","","<div style=""font-size:60px;"">+</div>","null","","","","","","","","","",""
"","html-keyboard-response","212","618718","0.0-10.0-1.18","j7f9s7u49s","many_one","0","direct_first","1","er06er11","0","22","2","1","3","1","","0","1","0","null","","","<img src = 'category2/CS4.png' width = '100%;'>","null","","","","","","","","","",""
"","html-keyboard-response","213","618999","0.0-10.0-2.18","j7f9s7u49s","many_one","0","direct_first","1","er06er11","0","22","2","1","3","1","","0","1","0","null","","","<img src = 'targets/6.png' width = '100%;'>","null","","","","","","","","","",""
"","html-keyboard-response","214","619451","0.0-10.0-3.18","j7f9s7u49s","many_one","0","direct_first","1","er06er11","0","22","2","1","3","1","","0","1","0","452","","","<img src = 'targets/mask.png' width = '100%;'>","75","pos","CS","CS","2","category2/CS4.png","","targets/6.png","indirect","1","18"
"","html-keyboard-response","215","620978","0.0-10.0-0.19","j7f9s7u49s","many_one","0","direct_first","1","er06er11","0","22","2","1","3","1","","0","1","0","null","","","<div style=""font-size:60px;"">+</div>","null","","","","","","","","","",""
"","html-keyboard-response","216","621078","0.0-10.0-1.19","j7f9s7u49s","many_one","0","direct_first","1","er06er11","0","22","2","1","3","1","","0","1","0","null","","","<img src = 'category4/CS5.png' width = '100%;'>","null","","","","","","","","","",""
"","html-keyboard-response","217","621358","0.0-10.0-2.19","j7f9s7u49s","many_one","0","direct_first","1","er06er11","0","22","2","1","3","1","","0","1","0","null","","","<img src = 'targets/28.png' width = '100%;'>","null","","","","","","","","","",""
"","html-keyboard-response","218","621985","0.0-10.0-3.19","j7f9s7u49s","many_one","0","direct_first","1","er06er11","0","22","2","1","3","1","","0","1","0","625","","","<img src = 'targets/mask.png' width = '100%;'>","68","neg","GS","GSold","4","category4/CS5.png","","targets/28.png","indirect","0","19"
"","html-keyboard-response","219","623509","0.0-10.0-0.20","j7f9s7u49s","many_one","0","direct_first","1","er06er11","0","22","2","1","3","1","","0","1","0","null","","","<div style=""font-size:60px;"">+</div>","null","","","","","","","","","",""
"","html-keyboard-response","220","623609","0.0-10.0-1.20","j7f9s7u49s","many_one","0","direct_first","1","er06er11","0","22","2","1","3","1","","0","1","0","null","","","<img src = 'category3/CS9.png' width = '100%;'>","null","","","","","","","","","",""
"","html-keyboard-response","221","623888","0.0-10.0-2.20","j7f9s7u49s","many_one","0","direct_first","1","er06er11","0","22","2","1","3","1","","0","1","0","null","","","<img src = 'targets/10.png' width = '100%;'>","null","","","","","","","","","",""
"","html-keyboard-response","222","624309","0.0-10.0-3.20","j7f9s7u49s","many_one","0","direct_first","1","er06er11","0","22","2","1","3","1","","0","1","0","420","","","<img src = 'targets/mask.png' width = '100%;'>","68","neg","CS","CS","3","category3/CS9.png","","targets/10.png","indirect","0","20"
"","html-keyboard-response","223","625829","0.0-10.0-0.21","j7f9s7u49s","many_one","0","direct_first","1","er06er11","0","22","2","1","3","1","","0","1","0","null","","","<div style=""font-size:60px;"">+</div>","null","","","","","","","","","",""
"","html-keyboard-response","224","625929","0.0-10.0-1.21","j7f9s7u49s","many_one","0","direct_first","1","er06er11","0","22","2","1","3","1","","0","1","0","null","","","<img src = 'category4/CS4.png' width = '100%;'>","null","","","","","","","","","",""
"","html-keyboard-response","225","626208","0.0-10.0-2.21","j7f9s7u49s","many_one","0","direct_first","1","er06er11","0","22","2","1","3","1","","0","1","0","null","","","<img src = 'targets/8.png' width = '100%;'>","null","","","","","","","","","",""
"","html-keyboard-response","226","627237","0.0-10.0-3.21","j7f9s7u49s","many_one","0","direct_first","1","er06er11","0","22","2","1","3","1","","0","1","0","1027","","","<img src = 'targets/mask.png' width = '100%;'>","75","neg","GS","GSold","4","category4/CS4.png","","targets/8.png","indirect","1","21"
"","html-keyboard-response","227","628749","0.0-10.0-0.22","j7f9s7u49s","many_one","0","direct_first","1","er06er11","0","22","2","1","3","1","","0","1","0","null","","","<div style=""font-size:60px;"">+</div>","null","","","","","","","","","",""
"","html-keyboard-response","228","628849","0.0-10.0-1.22","j7f9s7u49s","many_one","0","direct_first","1","er06er11","0","22","2","1","3","1","","0","1","0","null","","","<img src = 'category2/CS5.png' width = '100%;'>","null","","","","","","","","","",""
"","html-keyboard-response","229","629129","0.0-10.0-2.22","j7f9s7u49s","many_one","0","direct_first","1","er06er11","0","22","2","1","3","1","","0","1","0","null","","","<img src = 'targets/44.png' width = '100%;'>","null","","","","","","","","","",""
"","html-keyboard-response","230","629640","0.0-10.0-3.22","j7f9s7u49s","many_one","0","direct_first","1","er06er11","0","22","2","1","3","1","","0","1","0","510","","","<img src = 'targets/mask.png' width = '100%;'>","75","pos","CS","CS","2","category2/CS5.png","","targets/44.png","indirect","1","22"
"","html-keyboard-response","231","631169","0.0-10.0-0.23","j7f9s7u49s","many_one","0","direct_first","1","er06er11","0","22","2","1","3","1","","0","1","0","null","","","<div style=""font-size:60px;"">+</div>","null","","","","","","","","","",""
"","html-keyboard-response","232","631268","0.0-10.0-1.23","j7f9s7u49s","many_one","0","direct_first","1","er06er11","0","22","2","1","3","1","","0","1","0","null","","","<img src = 'category1/CS7.png' width = '100%;'>","null","","","","","","","","","",""
"","html-keyboard-response","233","631548","0.0-10.0-2.23","j7f9s7u49s","many_one","0","direct_first","1","er06er11","0","22","2","1","3","1","","0","1","0","null","","","<img src = 'targets/46.png' width = '100%;'>","null","","","","","","","","","",""
"","html-keyboard-response","234","632083","0.0-10.0-3.23","j7f9s7u49s","many_one","0","direct_first","1","er06er11","0","22","2","1","3","1","","0","1","0","532","","","<img src = 'targets/mask.png' width = '100%;'>","75","pos","GS","GSold","1","category1/CS7.png","","targets/46.png","indirect","1","23"
"","survey-html-form","235","635000","0.0-11.0","j7f9s7u49s","many_one","0","direct_first","1","er06er11","0","22","2","1","3","1","","0","1","0","2411","","{}","","","","","","","","","","","",""
"","html-keyboard-response","236","638038","0.0-12.0-0.0","j7f9s7u49s","many_one","0","direct_first","1","er06er11","0","22","2","1","3","1","","0","1","0","null","","","<div style=""font-size:60px;"">+</div>","null","","","","","","","","","",""
"","html-keyboard-response","237","638138","0.0-12.0-1.0","j7f9s7u49s","many_one","0","direct_first","1","er06er11","0","22","2","1","3","1","","0","1","0","null","","","<img src = 'category3/CS3.png' width = '100%;'>","null","","","","","","","","","",""
"","html-keyboard-response","238","638417","0.0-12.0-2.0","j7f9s7u49s","many_one","0","direct_first","1","er06er11","0","22","2","1","3","1","","0","1","0","null","","","<img src = 'targets/31.png' width = '100%;'>","null","","","","","","","","","",""
"","html-keyboard-response","239","638748","0.0-12.0-3.0","j7f9s7u49s","many_one","0","direct_first","1","er06er11","0","22","2","1","3","1","","0","1","0","329","","","<img src = 'targets/mask.png' width = '100%;'>","68","neg","GS","GSold","3","category3/CS3.png","","targets/31.png","indirect","0","24"
"","html-keyboard-response","240","640268","0.0-12.0-0.1","j7f9s7u49s","many_one","0","direct_first","1","er06er11","0","22","2","1","3","1","","0","1","0","null","","","<div style=""font-size:60px;"">+</div>","null","","","","","","","","","",""
"","html-keyboard-response","241","640369","0.0-12.0-1.1","j7f9s7u49s","many_one","0","direct_first","1","er06er11","0","22","2","1","3","1","","0","1","0","null","","","<img src = 'category1/ma.png' width = '100%;'>","null","","","","","","","","","",""
"","html-keyboard-response","242","640648","0.0-12.0-2.1","j7f9s7u49s","many_one","0","direct_first","1","er06er11","0","22","2","1","3","1","","0","1","0","null","","","<img src = 'targets/3.png' width = '100%;'>","null","","","","","","","","","",""
"","html-keyboard-response","243","641024","0.0-12.0-3.1","j7f9s7u49s","many_one","0","direct_first","1","er06er11","0","22","2","1","3","1","","0","1","0","374","","","<img src = 'targets/mask.png' width = '100%;'>","75","pos","GS","abstract","1","category1/ma.png","","targets/3.png","indirect","1","25"
"","html-keyboard-response","244","642543","0.0-12.0-0.2","j7f9s7u49s","many_one","0","direct_first","1","er06er11","0","22","2","1","3","1","","0","1","0","null","","","<div style=""font-size:60px;"">+</div>","null","","","","","","","","","",""
"","html-keyboard-response","245","642648","0.0-12.0-1.2","j7f9s7u49s","many_one","0","direct_first","1","er06er11","0","22","2","1","3","1","","0","1","0","null","","","<img src = 'category3/GS2.png' width = '100%;'>","null","","","","","","","","","",""
"","html-keyboard-response","246","642929","0.0-12.0-2.2","j7f9s7u49s","many_one","0","direct_first","1","er06er11","0","22","2","1","3","1","","0","1","0","null","","","<img src = 'targets/1.png' width = '100%;'>","null","","","","","","","","","",""
"","html-keyboard-response","247","643540","0.0-12.0-3.2","j7f9s7u49s","many_one","0","direct_first","1","er06er11","0","22","2","1","3","1","","0","1","0","609","","","<img src = 'targets/mask.png' width = '100%;'>","68","neg","GS","GSnew","3","category3/GS2.png","","targets/1.png","indirect","0","26"
"","html-keyboard-response","248","645058","0.0-12.0-0.3","j7f9s7u49s","many_one","0","direct_first","1","er06er11","0","22","2","1","3","1","","0","1","0","null","","","<div style=""font-size:60px;"">+</div>","null","","","","","","","","","",""
"","html-keyboard-response","249","645158","0.0-12.0-1.3","j7f9s7u49s","many_one","0","direct_first","1","er06er11","0","22","2","1","3","1","","0","1","0","null","","","<img src = 'category4/lin.png' width = '100%;'>","null","","","","","","","","","",""
"","html-keyboard-response","250","645438","0.0-12.0-2.3","j7f9s7u49s","many_one","0","direct_first","1","er06er11","0","22","2","1","3","1","","0","1","0","null","","","<img src = 'targets/45.png' width = '100%;'>","null","","","","","","","","","",""
"","html-keyboard-response","251","646114","0.0-12.0-3.3","j7f9s7u49s","many_one","0","direct_first","1","er06er11","0","22","2","1","3","1","","0","1","0","675","","","<img src = 'targets/mask.png' width = '100%;'>","68","neg","GS","abstract","4","category4/lin.png","","targets/45.png","indirect","0","27"
"","html-keyboard-response","252","647629","0.0-12.0-0.4","j7f9s7u49s","many_one","0","direct_first","1","er06er11","0","22","2","1","3","1","","0","1","0","null","","","<div style=""font-size:60px;"">+</div>","null","","","","","","","","","",""
"","html-keyboard-response","253","647729","0.0-12.0-1.4","j7f9s7u49s","many_one","0","direct_first","1","er06er11","0","22","2","1","3","1","","0","1","0","null","","","<img src = 'category3/GS3.png' width = '100%;'>","null","","","","","","","","","",""
"","html-keyboard-response","254","648008","0.0-12.0-2.4","j7f9s7u49s","many_one","0","direct_first","1","er06er11","0","22","2","1","3","1","","0","1","0","null","","","<img src = 'targets/47.png' width = '100%;'>","null","","","","","","","","","",""
"","html-keyboard-response","255","648379","0.0-12.0-3.4","j7f9s7u49s","many_one","0","direct_first","1","er06er11","0","22","2","1","3","1","","0","1","0","368","","","<img src = 'targets/mask.png' width = '100%;'>","68","neg","GS","GSnew","3","category3/GS3.png","","targets/47.png","indirect","0","28"
"","html-keyboard-response","256","649889","0.0-12.0-0.5","j7f9s7u49s","many_one","0","direct_first","1","er06er11","0","22","2","1","3","1","","0","1","0","null","","","<div style=""font-size:60px;"">+</div>","null","","","","","","","","","",""
"","html-keyboard-response","257","649988","0.0-12.0-1.5","j7f9s7u49s","many_one","0","direct_first","1","er06er11","0","22","2","1","3","1","","0","1","0","null","","","<img src = 'category3/CS4.png' width = '100%;'>","null","","","","","","","","","",""
"","html-keyboard-response","258","650268","0.0-12.0-2.5","j7f9s7u49s","many_one","0","direct_first","1","er06er11","0","22","2","1","3","1","","0","1","0","null","","","<img src = 'targets/32.png' width = '100%;'>","null","","","","","","","","","",""
"","html-keyboard-response","259","650737","0.0-12.0-3.5","j7f9s7u49s","many_one","0","direct_first","1","er06er11","0","22","2","1","3","1","","0","1","0","468","","","<img src = 'targets/mask.png' width = '100%;'>","68","neg","GS","GSold","3","category3/CS4.png","","targets/32.png","indirect","0","29"
"","html-keyboard-response","260","652258","0.0-12.0-0.6","j7f9s7u49s","many_one","0","direct_first","1","er06er11","0","22","2","1","3","1","","0","1","0","null","","","<div style=""font-size:60px;"">+</div>","null","","","","","","","","","",""
"","html-keyboard-response","261","652359","0.0-12.0-1.6","j7f9s7u49s","many_one","0","direct_first","1","er06er11","0","22","2","1","3","1","","0","1","0","null","","","<img src = 'category3/CS6.png' width = '100%;'>","null","","","","","","","","","",""
"","html-keyboard-response","262","652639","0.0-12.0-2.6","j7f9s7u49s","many_one","0","direct_first","1","er06er11","0","22","2","1","3","1","","0","1","0","null","","","<img src = 'targets/40.png' width = '100%;'>","null","","","","","","","","","",""
"","html-keyboard-response","263","652915","0.0-12.0-3.6","j7f9s7u49s","many_one","0","direct_first","1","er06er11","0","22","2","1","3","1","","0","1","0","277","","","<img src = 'targets/mask.png' width = '100%;'>","68","neg","GS","GSold","3","category3/CS6.png","","targets/40.png","indirect","0","30"
"","html-keyboard-response","264","654439","0.0-12.0-0.7","j7f9s7u49s","many_one","0","direct_first","1","er06er11","0","22","2","1","3","1","","0","1","0","null","","","<div style=""font-size:60px;"">+</div>","null","","","","","","","","","",""
"","html-keyboard-response","265","654538","0.0-12.0-1.7","j7f9s7u49s","many_one","0","direct_first","1","er06er11","0","22","2","1","3","1","","0","1","0","null","","","<img src = 'category2/GS1.png' width = '100%;'>","null","","","","","","","","","",""
"","html-keyboard-response","266","654819","0.0-12.0-2.7","j7f9s7u49s","many_one","0","direct_first","1","er06er11","0","22","2","1","3","1","","0","1","0","null","","","<img src = 'targets/15.png' width = '100%;'>","null","","","","","","","","","",""
"","html-keyboard-response","267","655146","0.0-12.0-3.7","j7f9s7u49s","many_one","0","direct_first","1","er06er11","0","22","2","1","3","1","","0","1","0","324","","","<img src = 'targets/mask.png' width = '100%;'>","75","pos","GS","GSnew","2","category2/GS1.png","","targets/15.png","indirect","1","31"
"","html-keyboard-response","268","656679","0.0-12.0-0.8","j7f9s7u49s","many_one","0","direct_first","1","er06er11","0","22","2","1","3","1","","0","1","0","null","","","<div style=""font-size:60px;"">+</div>","null","","","","","","","","","",""
"","html-keyboard-response","269","656779","0.0-12.0-1.8","j7f9s7u49s","many_one","0","direct_first","1","er06er11","0","22","2","1","3","1","","0","1","0","null","","","<img src = 'category4/GS2.png' width = '100%;'>","null","","","","","","","","","",""
"","html-keyboard-response","270","657058","0.0-12.0-2.8","j7f9s7u49s","many_one","0","direct_first","1","er06er11","0","22","2","1","3","1","","0","1","0","null","","","<img src = 'targets/19.png' width = '100%;'>","null","","","","","","","","","",""
"","html-keyboard-response","271","657384","0.0-12.0-3.8","j7f9s7u49s","many_one","0","direct_first","1","er06er11","0","22","2","1","3","1","","0","1","0","324","","","<img src = 'targets/mask.png' width = '100%;'>","75","neg","GS","GSnew","4","category4/GS2.png","","targets/19.png","indirect","1","32"
"","html-keyboard-response","272","658918","0.0-12.0-0.9","j7f9s7u49s","many_one","0","direct_first","1","er06er11","0","22","2","1","3","1","","0","1","0","null","","","<div style=""font-size:60px;"">+</div>","null","","","","","","","","","",""
"","html-keyboard-response","273","659019","0.0-12.0-1.9","j7f9s7u49s","many_one","0","direct_first","1","er06er11","0","22","2","1","3","1","","0","1","0","null","","","<img src = 'category1/CS3.png' width = '100%;'>","null","","","","","","","","","",""
"","html-keyboard-response","274","659299","0.0-12.0-2.9","j7f9s7u49s","many_one","0","direct_first","1","er06er11","0","22","2","1","3","1","","0","1","0","null","","","<img src = 'targets/25.png' width = '100%;'>","null","","","","","","","","","",""
"","html-keyboard-response","275","659681","0.0-12.0-3.9","j7f9s7u49s","many_one","0","direct_first","1","er06er11","0","22","2","1","3","1","","0","1","0","382","","","<img src = 'targets/mask.png' width = '100%;'>","75","pos","GS","GSold","1","category1/CS3.png","","targets/25.png","indirect","1","33"
"","html-keyboard-response","276","661208","0.0-12.0-0.10","j7f9s7u49s","many_one","0","direct_first","1","er06er11","0","22","2","1","3","1","","0","1","0","null","","","<div style=""font-size:60px;"">+</div>","null","","","","","","","","","",""
"","html-keyboard-response","277","661309","0.0-12.0-1.10","j7f9s7u49s","many_one","0","direct_first","1","er06er11","0","22","2","1","3","1","","0","1","0","null","","","<img src = 'category2/CS1.png' width = '100%;'>","null","","","","","","","","","",""
"","html-keyboard-response","278","661589","0.0-12.0-2.10","j7f9s7u49s","many_one","0","direct_first","1","er06er11","0","22","2","1","3","1","","0","1","0","null","","","<img src = 'targets/11.png' width = '100%;'>","null","","","","","","","","","",""
"","html-keyboard-response","279","661932","0.0-12.0-3.10","j7f9s7u49s","many_one","0","direct_first","1","er06er11","0","22","2","1","3","1","","0","1","0","344","","","<img src = 'targets/mask.png' width = '100%;'>","75","pos","GS","GSold","2","category2/CS1.png","","targets/11.png","indirect","1","34"
"","html-keyboard-response","280","663468","0.0-12.0-0.11","j7f9s7u49s","many_one","0","direct_first","1","er06er11","0","22","2","1","3","1","","0","1","0","null","","","<div style=""font-size:60px;"">+</div>","null","","","","","","","","","",""
"","html-keyboard-response","281","663569","0.0-12.0-1.11","j7f9s7u49s","many_one","0","direct_first","1","er06er11","0","22","2","1","3","1","","0","1","0","null","","","<img src = 'category1/GS2.png' width = '100%;'>","null","","","","","","","","","",""
"","html-keyboard-response","282","663849","0.0-12.0-2.11","j7f9s7u49s","many_one","0","direct_first","1","er06er11","0","22","2","1","3","1","","0","1","0","null","","","<img src = 'targets/38.png' width = '100%;'>","null","","","","","","","","","",""
"","html-keyboard-response","283","664993","0.0-12.0-3.11","j7f9s7u49s","many_one","0","direct_first","1","er06er11","0","22","2","1","3","1","","0","1","0","1143","","","<img src = 'targets/mask.png' width = '100%;'>","75","pos","GS","GSnew","1","category1/GS2.png","","targets/38.png","indirect","1","35"
"","html-keyboard-response","284","666519","0.0-12.0-0.12","j7f9s7u49s","many_one","0","direct_first","1","er06er11","0","22","2","1","3","1","","0","1","0","null","","","<div style=""font-size:60px;"">+</div>","null","","","","","","","","","",""
"","html-keyboard-response","285","666618","0.0-12.0-1.12","j7f9s7u49s","many_one","0","direct_first","1","er06er11","0","22","2","1","3","1","","0","1","0","null","","","<img src = 'category1/GS3.png' width = '100%;'>","null","","","","","","","","","",""
"","html-keyboard-response","286","666899","0.0-12.0-2.12","j7f9s7u49s","many_one","0","direct_first","1","er06er11","0","22","2","1","3","1","","0","1","0","null","","","<img src = 'targets/37.png' width = '100%;'>","null","","","","","","","","","",""
"","html-keyboard-response","287","668001","0.0-12.0-3.12","j7f9s7u49s","many_one","0","direct_first","1","er06er11","0","22","2","1","3","1","","0","1","0","1101","","","<img src = 'targets/mask.png' width = '100%;'>","75","pos","GS","GSnew","1","category1/GS3.png","","targets/37.png","indirect","1","36"
"","html-keyboard-response","288","669528","0.0-12.0-0.13","j7f9s7u49s","many_one","0","direct_first","1","er06er11","0","22","2","1","3","1","","0","1","0","null","","","<div style=""font-size:60px;"">+</div>","null","","","","","","","","","",""
"","html-keyboard-response","289","669628","0.0-12.0-1.13","j7f9s7u49s","many_one","0","direct_first","1","er06er11","0","22","2","1","3","1","","0","1","0","null","","","<img src = 'category4/GS1.png' width = '100%;'>","null","","","","","","","","","",""
"","html-keyboard-response","290","669909","0.0-12.0-2.13","j7f9s7u49s","many_one","0","direct_first","1","er06er11","0","22","2","1","3","1","","0","1","0","null","","","<img src = 'targets/17.png' width = '100%;'>","null","","","","","","","","","",""
"","html-keyboard-response","291","670927","0.0-12.0-3.13","j7f9s7u49s","many_one","0","direct_first","1","er06er11","0","22","2","1","3","1","","0","1","0","1016","","","<img src = 'targets/mask.png' width = '100%;'>","75","neg","GS","GSnew","4","category4/GS1.png","","targets/17.png","indirect","1","37"
"","html-keyboard-response","292","672458","0.0-12.0-0.14","j7f9s7u49s","many_one","0","direct_first","1","er06er11","0","22","2","1","3","1","","0","1","0","null","","","<div style=""font-size:60px;"">+</div>","null","","","","","","","","","",""
"","html-keyboard-response","293","672559","0.0-12.0-1.14","j7f9s7u49s","many_one","0","direct_first","1","er06er11","0","22","2","1","3","1","","0","1","0","null","","","<img src = 'category2/GS3.png' width = '100%;'>","null","","","","","","","","","",""
"","html-keyboard-response","294","672838","0.0-12.0-2.14","j7f9s7u49s","many_one","0","direct_first","1","er06er11","0","22","2","1","3","1","","0","1","0","null","","","<img src = 'targets/7.png' width = '100%;'>","null","","","","","","","","","",""
"","html-keyboard-response","295","673792","0.0-12.0-3.14","j7f9s7u49s","many_one","0","direct_first","1","er06er11","0","22","2","1","3","1","","0","1","0","954","","","<img src = 'targets/mask.png' width = '100%;'>","75","pos","GS","GSnew","2","category2/GS3.png","","targets/7.png","indirect","1","38"
"","html-keyboard-response","296","675309","0.0-12.0-0.15","j7f9s7u49s","many_one","0","direct_first","1","er06er11","0","22","2","1","3","1","","0","1","0","null","","","<div style=""font-size:60px;"">+</div>","null","","","","","","","","","",""
"","html-keyboard-response","297","675409","0.0-12.0-1.15","j7f9s7u49s","many_one","0","direct_first","1","er06er11","0","22","2","1","3","1","","0","1","0","null","","","<img src = 'category3/wang.png' width = '100%;'>","null","","","","","","","","","",""
"","html-keyboard-response","298","675689","0.0-12.0-2.15","j7f9s7u49s","many_one","0","direct_first","1","er06er11","0","22","2","1","3","1","","0","1","0","null","","","<img src = 'targets/18.png' width = '100%;'>","null","","","","","","","","","",""
"","html-keyboard-response","299","676201","0.0-12.0-3.15","j7f9s7u49s","many_one","0","direct_first","1","er06er11","0","22","2","1","3","1","","0","1","0","512","","","<img src = 'targets/mask.png' width = '100%;'>","68","neg","GS","abstract","3","category3/wang.png","","targets/18.png","indirect","0","39"
"","html-keyboard-response","300","677729","0.0-12.0-0.16","j7f9s7u49s","many_one","0","direct_first","1","er06er11","0","22","2","1","3","1","","0","1","0","null","","","<div style=""font-size:60px;"">+</div>","null","","","","","","","","","",""
"","html-keyboard-response","301","677829","0.0-12.0-1.16","j7f9s7u49s","many_one","0","direct_first","1","er06er11","0","22","2","1","3","1","","0","1","0","null","","","<img src = 'category1/GS1.png' width = '100%;'>","null","","","","","","","","","",""
"","html-keyboard-response","302","678109","0.0-12.0-2.16","j7f9s7u49s","many_one","0","direct_first","1","er06er11","0","22","2","1","3","1","","0","1","0","null","","","<img src = 'targets/21.png' width = '100%;'>","null","","","","","","","","","",""
"","html-keyboard-response","303","679214","0.0-12.0-3.16","j7f9s7u49s","many_one","0","direct_first","1","er06er11","0","22","2","1","3","1","","0","1","0","1105","","","<img src = 'targets/mask.png' width = '100%;'>","68","pos","GS","GSnew","1","category1/GS1.png","","targets/21.png","indirect","0","40"
"","html-keyboard-response","304","680749","0.0-12.0-0.17","j7f9s7u49s","many_one","0","direct_first","1","er06er11","0","22","2","1","3","1","","0","1","0","null","","","<div style=""font-size:60px;"">+</div>","null","","","","","","","","","",""
"","html-keyboard-response","305","680849","0.0-12.0-1.17","j7f9s7u49s","many_one","0","direct_first","1","er06er11","0","22","2","1","3","1","","0","1","0","null","","","<img src = 'category2/GS2.png' width = '100%;'>","null","","","","","","","","","",""
"","html-keyboard-response","306","681129","0.0-12.0-2.17","j7f9s7u49s","many_one","0","direct_first","1","er06er11","0","22","2","1","3","1","","0","1","0","null","","","<img src = 'targets/36.png' width = '100%;'>","null","","","","","","","","","",""
"","html-keyboard-response","307","681542","0.0-12.0-3.17","j7f9s7u49s","many_one","0","direct_first","1","er06er11","0","22","2","1","3","1","","0","1","0","413","","","<img src = 'targets/mask.png' width = '100%;'>","75","pos","GS","GSnew","2","category2/GS2.png","","targets/36.png","indirect","1","41"
"","html-keyboard-response","308","683069","0.0-12.0-0.18","j7f9s7u49s","many_one","0","direct_first","1","er06er11","0","22","2","1","3","1","","0","1","0","null","","","<div style=""font-size:60px;"">+</div>","null","","","","","","","","","",""
"","html-keyboard-response","309","683169","0.0-12.0-1.18","j7f9s7u49s","many_one","0","direct_first","1","er06er11","0","22","2","1","3","1","","0","1","0","null","","","<img src = 'category2/men.png' width = '100%;'>","null","","","","","","","","","",""
"","html-keyboard-response","310","683448","0.0-12.0-2.18","j7f9s7u49s","many_one","0","direct_first","1","er06er11","0","22","2","1","3","1","","0","1","0","null","","","<img src = 'targets/26.png' width = '100%;'>","null","","","","","","","","","",""
"","html-keyboard-response","311","683956","0.0-12.0-3.18","j7f9s7u49s","many_one","0","direct_first","1","er06er11","0","22","2","1","3","1","","0","1","0","506","","","<img src = 'targets/mask.png' width = '100%;'>","75","pos","GS","abstract","2","category2/men.png","","targets/26.png","indirect","1","42"
"","html-keyboard-response","312","685489","0.0-12.0-0.19","j7f9s7u49s","many_one","0","direct_first","1","er06er11","0","22","2","1","3","1","","0","1","0","null","","","<div style=""font-size:60px;"">+</div>","null","","","","","","","","","",""
"","html-keyboard-response","313","685589","0.0-12.0-1.19","j7f9s7u49s","many_one","0","direct_first","1","er06er11","0","22","2","1","3","1","","0","1","0","null","","","<img src = 'category2/CS8.png' width = '100%;'>","null","","","","","","","","","",""
"","html-keyboard-response","314","685868","0.0-12.0-2.19","j7f9s7u49s","many_one","0","direct_first","1","er06er11","0","22","2","1","3","1","","0","1","0","null","","","<img src = 'targets/39.png' width = '100%;'>","null","","","","","","","","","",""
"","html-keyboard-response","315","686175","0.0-12.0-3.19","j7f9s7u49s","many_one","0","direct_first","1","er06er11","0","22","2","1","3","1","","0","1","0","304","","","<img src = 'targets/mask.png' width = '100%;'>","75","pos","GS","GSold","2","category2/CS8.png","","targets/39.png","indirect","1","43"
"","html-keyboard-response","316","687689","0.0-12.0-0.20","j7f9s7u49s","many_one","0","direct_first","1","er06er11","0","22","2","1","3","1","","0","1","0","null","","","<div style=""font-size:60px;"">+</div>","null","","","","","","","","","",""
"","html-keyboard-response","317","687789","0.0-12.0-1.20","j7f9s7u49s","many_one","0","direct_first","1","er06er11","0","22","2","1","3","1","","0","1","0","null","","","<img src = 'category1/CS8.png' width = '100%;'>","null","","","","","","","","","",""
"","html-keyboard-response","318","688068","0.0-12.0-2.20","j7f9s7u49s","many_one","0","direct_first","1","er06er11","0","22","2","1","3","1","","0","1","0","null","","","<img src = 'targets/20.png' width = '100%;'>","null","","","","","","","","","",""
"","html-keyboard-response","319","689266","0.0-12.0-3.20","j7f9s7u49s","many_one","0","direct_first","1","er06er11","0","22","2","1","3","1","","0","1","0","1197","","","<img src = 'targets/mask.png' width = '100%;'>","75","pos","GS","GSold","1","category1/CS8.png","","targets/20.png","indirect","1","44"
"","html-keyboard-response","320","690769","0.0-12.0-0.21","j7f9s7u49s","many_one","0","direct_first","1","er06er11","0","22","2","1","3","1","","0","1","0","null","","","<div style=""font-size:60px;"">+</div>","null","","","","","","","","","",""
"","html-keyboard-response","321","690869","0.0-12.0-1.21","j7f9s7u49s","many_one","0","direct_first","1","er06er11","0","22","2","1","3","1","","0","1","0","null","","","<img src = 'category4/GS3.png' width = '100%;'>","null","","","","","","","","","",""
"","html-keyboard-response","322","691148","0.0-12.0-2.21","j7f9s7u49s","many_one","0","direct_first","1","er06er11","0","22","2","1","3","1","","0","1","0","null","","","<img src = 'targets/42.png' width = '100%;'>","null","","","","","","","","","",""
"","html-keyboard-response","323","691480","0.0-12.0-3.21","j7f9s7u49s","many_one","0","direct_first","1","er06er11","0","22","2","1","3","1","","0","1","0","331","","","<img src = 'targets/mask.png' width = '100%;'>","75","neg","GS","GSnew","4","category4/GS3.png","","targets/42.png","indirect","1","45"
"","html-keyboard-response","324","692988","0.0-12.0-0.22","j7f9s7u49s","many_one","0","direct_first","1","er06er11","0","22","2","1","3","1","","0","1","0","null","","","<div style=""font-size:60px;"">+</div>","null","","","","","","","","","",""
"","html-keyboard-response","325","693089","0.0-12.0-1.22","j7f9s7u49s","many_one","0","direct_first","1","er06er11","0","22","2","1","3","1","","0","1","0","null","","","<img src = 'category2/CS3.png' width = '100%;'>","null","","","","","","","","","",""
"","html-keyboard-response","326","693368","0.0-12.0-2.22","j7f9s7u49s","many_one","0","direct_first","1","er06er11","0","22","2","1","3","1","","0","1","0","null","","","<img src = 'targets/16.png' width = '100%;'>","null","","","","","","","","","",""
"","html-keyboard-response","327","693774","0.0-12.0-3.22","j7f9s7u49s","many_one","0","direct_first","1","er06er11","0","22","2","1","3","1","","0","1","0","405","","","<img src = 'targets/mask.png' width = '100%;'>","75","pos","GS","GSold","2","category2/CS3.png","","targets/16.png","indirect","1","46"
"","html-keyboard-response","328","695308","0.0-12.0-0.23","j7f9s7u49s","many_one","0","direct_first","1","er06er11","0","22","2","1","3","1","","0","1","0","null","","","<div style=""font-size:60px;"">+</div>","null","","","","","","","","","",""
"","html-keyboard-response","329","695409","0.0-12.0-1.23","j7f9s7u49s","many_one","0","direct_first","1","er06er11","0","22","2","1","3","1","","0","1","0","null","","","<img src = 'category3/GS1.png' width = '100%;'>","null","","","","","","","","","",""
"","html-keyboard-response","330","695689","0.0-12.0-2.23","j7f9s7u49s","many_one","0","direct_first","1","er06er11","0","22","2","1","3","1","","0","1","0","null","","","<img src = 'targets/24.png' width = '100%;'>","null","","","","","","","","","",""
"","html-keyboard-response","331","696352","0.0-12.0-3.23","j7f9s7u49s","many_one","0","direct_first","1","er06er11","0","22","2","1","3","1","","0","1","0","663","","","<img src = 'targets/mask.png' width = '100%;'>","75","neg","GS","GSnew","3","category3/GS1.png","","targets/24.png","indirect","1","47"
"","survey-html-form","332","702462","0.0-13.0","j7f9s7u49s","many_one","0","direct_first","1","er06er11","0","22","2","1","3","1","","0","1","0","5592","","{}","","","","","","","","","","","",""
