"success","trial_type","trial_index","time_elapsed","internal_node_id","subject","condition","condition_code","measure","measure_code","codeword","gender","age","education","chinese","fach","handedness","comment","hinschauen","ablenkung","gewissenhaft","rt","url","responses","stimulus","key_press","val","type","type_specific","category","cs_selected","target","indirect","task","nr_pres","response"
"true","fullscreen","0","8112","0.0-0.0","vfs2r4l8qp","many_one","0","indirect_first","0","158463NM","0","19","1","1","3","1","Ich musste mich erst an die Geschwindigkeit gewöhnen, aber es ist schon interessant gewesen.","0","1","0","","","","","","","","","","","","","","",""
"","external-html","1","20646","0.0-1.0","vfs2r4l8qp","many_one","0","indirect_first","0","158463NM","0","19","1","1","3","1","Ich musste mich erst an die Geschwindigkeit gewöhnen, aber es ist schon interessant gewesen.","0","1","0","12420.215000049211","text/information.html","","","","","","","","","","","","",""
"","external-html","2","30051","0.0-2.0","vfs2r4l8qp","many_one","0","indirect_first","0","158463NM","0","19","1","1","3","1","Ich musste mich erst an die Geschwindigkeit gewöhnen, aber es ist schon interessant gewesen.","0","1","0","9202.179999905638","text/consent.html","","","","","","","","","","","","",""
"","survey-html-form","3","69808","0.0-3.0","vfs2r4l8qp","many_one","0","indirect_first","0","158463NM","0","19","1","1","3","1","Ich musste mich erst an die Geschwindigkeit gewöhnen, aber es ist schon interessant gewesen.","0","1","0","39754.13999997545","","{""codeword_enter"":""158463NM""}","","","","","","","","","","","",""
"","survey-html-form","4","95959","0.0-4.0","vfs2r4l8qp","many_one","0","indirect_first","0","158463NM","0","19","1","1","3","1","Ich musste mich erst an die Geschwindigkeit gewöhnen, aber es ist schon interessant gewesen.","0","1","0","26149.940000032075","","{""age"":""19"",""education"":""1"",""subject"":""3"",""gender"":""0"",""handedness"":""1"",""chinese"":""1""}","","","","","","","","","","","",""
"","survey-html-form","5","112114","0.0-5.0","vfs2r4l8qp","many_one","0","indirect_first","0","158463NM","0","19","1","1","3","1","Ich musste mich erst an die Geschwindigkeit gewöhnen, aber es ist schon interessant gewesen.","0","1","0","16154.065000009723","","{}","","","","","","","","","","","",""
"","html-keyboard-response","6","116131","0.0-6.0-0.0-0.0","vfs2r4l8qp","many_one","0","indirect_first","0","158463NM","0","19","1","1","3","1","Ich musste mich erst an die Geschwindigkeit gewöhnen, aber es ist schon interessant gewesen.","0","1","0","null","","","<div class = 'row'><div class = 'column'><img src = 'category1/CS7.png' width = '70%;'></div><div class = 'column'><img src = 'uspos/5470.bmp' width = '100%;'></div></div>","null","pos","CS","CS","1","category1/CS7.png","","","","",""
"","html-keyboard-response","7","118633","0.0-6.0-0.0-0.1","vfs2r4l8qp","many_one","0","indirect_first","0","158463NM","0","19","1","1","3","1","Ich musste mich erst an die Geschwindigkeit gewöhnen, aber es ist schon interessant gewesen.","0","1","0","null","","","<div class = 'row'><div class = 'column'><img src = 'uspos/2360.bmp' width = '100%;'></div><div class = 'column'><img src = 'category2/CS10.png' width = '70%;'></div></div>","null","pos","CS","CS","2","category2/CS10.png","","","","",""
"","html-keyboard-response","8","121135","0.0-6.0-0.0-0.2","vfs2r4l8qp","many_one","0","indirect_first","0","158463NM","0","19","1","1","3","1","Ich musste mich erst an die Geschwindigkeit gewöhnen, aber es ist schon interessant gewesen.","0","1","0","null","","","<div class = 'row'><div class = 'column'><img src = 'usneg/9280.bmp' width = '100%;'></div><div class = 'column'><img src = 'category3/CS4.png' width = '70%;'></div></div>","null","neg","CS","CS","3","category3/CS4.png","","","","",""
"","html-keyboard-response","9","123638","0.0-6.0-0.0-0.3","vfs2r4l8qp","many_one","0","indirect_first","0","158463NM","0","19","1","1","3","1","Ich musste mich erst an die Geschwindigkeit gewöhnen, aber es ist schon interessant gewesen.","0","1","0","null","","","<div class = 'row'><div class = 'column'><img src = 'category4/CS9.png' width = '70%;'></div><div class = 'column'><img src = 'usneg/9000.bmp' width = '100%;'></div></div>","null","neg","CS","CS","4","category4/CS9.png","","","","",""
"","html-keyboard-response","10","126142","0.0-6.0-0.0-0.4","vfs2r4l8qp","many_one","0","indirect_first","0","158463NM","0","19","1","1","3","1","Ich musste mich erst an die Geschwindigkeit gewöhnen, aber es ist schon interessant gewesen.","0","1","0","null","","","<div class = 'row'><div class = 'column'><img src = 'uspos/2900.2.bmp' width = '100%;'></div><div class = 'column'><img src = 'category1/CS10.png' width = '70%;'></div></div>","null","pos","CS","CS","1","category1/CS10.png","","","","",""
"","html-keyboard-response","11","128645","0.0-6.0-0.0-0.5","vfs2r4l8qp","many_one","0","indirect_first","0","158463NM","0","19","1","1","3","1","Ich musste mich erst an die Geschwindigkeit gewöhnen, aber es ist schon interessant gewesen.","0","1","0","null","","","<div class = 'row'><div class = 'column'><img src = 'usneg/9421.bmp' width = '100%;'></div><div class = 'column'><img src = 'category4/CS5.png' width = '70%;'></div></div>","null","neg","CS","CS","4","category4/CS5.png","","","","",""
"","html-keyboard-response","12","131149","0.0-6.0-0.0-0.6","vfs2r4l8qp","many_one","0","indirect_first","0","158463NM","0","19","1","1","3","1","Ich musste mich erst an die Geschwindigkeit gewöhnen, aber es ist schon interessant gewesen.","0","1","0","null","","","<div class = 'row'><div class = 'column'><img src = 'usneg/9290.bmp' width = '100%;'></div><div class = 'column'><img src = 'category3/CS1.png' width = '70%;'></div></div>","null","neg","CS","CS","3","category3/CS1.png","","","","",""
"","html-keyboard-response","13","133651","0.0-6.0-0.0-0.7","vfs2r4l8qp","many_one","0","indirect_first","0","158463NM","0","19","1","1","3","1","Ich musste mich erst an die Geschwindigkeit gewöhnen, aber es ist schon interessant gewesen.","0","1","0","null","","","<div class = 'row'><div class = 'column'><img src = 'usneg/9340.bmp' width = '100%;'></div><div class = 'column'><img src = 'category4/CS8.png' width = '70%;'></div></div>","null","neg","CS","CS","4","category4/CS8.png","","","","",""
"","html-keyboard-response","14","136155","0.0-6.0-0.0-0.8","vfs2r4l8qp","many_one","0","indirect_first","0","158463NM","0","19","1","1","3","1","Ich musste mich erst an die Geschwindigkeit gewöhnen, aber es ist schon interessant gewesen.","0","1","0","null","","","<div class = 'row'><div class = 'column'><img src = 'uspos/5830.bmp' width = '100%;'></div><div class = 'column'><img src = 'category2/CS9.png' width = '70%;'></div></div>","null","pos","CS","CS","2","category2/CS9.png","","","","",""
"","html-keyboard-response","15","138658","0.0-6.0-0.0-0.9","vfs2r4l8qp","many_one","0","indirect_first","0","158463NM","0","19","1","1","3","1","Ich musste mich erst an die Geschwindigkeit gewöhnen, aber es ist schon interessant gewesen.","0","1","0","null","","","<div class = 'row'><div class = 'column'><img src = 'uspos/1463.bmp' width = '100%;'></div><div class = 'column'><img src = 'category2/CS5.png' width = '70%;'></div></div>","null","pos","CS","CS","2","category2/CS5.png","","","","",""
"","html-keyboard-response","16","141162","0.0-6.0-0.0-0.10","vfs2r4l8qp","many_one","0","indirect_first","0","158463NM","0","19","1","1","3","1","Ich musste mich erst an die Geschwindigkeit gewöhnen, aber es ist schon interessant gewesen.","0","1","0","null","","","<div class = 'row'><div class = 'column'><img src = 'usneg/9560.bmp' width = '100%;'></div><div class = 'column'><img src = 'category4/CS7.png' width = '70%;'></div></div>","null","neg","CS","CS","4","category4/CS7.png","","","","",""
"","html-keyboard-response","17","143664","0.0-6.0-0.0-0.11","vfs2r4l8qp","many_one","0","indirect_first","0","158463NM","0","19","1","1","3","1","Ich musste mich erst an die Geschwindigkeit gewöhnen, aber es ist schon interessant gewesen.","0","1","0","null","","","<div class = 'row'><div class = 'column'><img src = 'uspos/2150.bmp' width = '100%;'></div><div class = 'column'><img src = 'category1/CS4.png' width = '70%;'></div></div>","null","pos","CS","CS","1","category1/CS4.png","","","","",""
"","html-keyboard-response","18","146167","0.0-6.0-0.0-0.12","vfs2r4l8qp","many_one","0","indirect_first","0","158463NM","0","19","1","1","3","1","Ich musste mich erst an die Geschwindigkeit gewöhnen, aber es ist schon interessant gewesen.","0","1","0","null","","","<div class = 'row'><div class = 'column'><img src = 'usneg/9220.bmp' width = '100%;'></div><div class = 'column'><img src = 'category4/CS1.png' width = '70%;'></div></div>","null","neg","CS","CS","4","category4/CS1.png","","","","",""
"","html-keyboard-response","19","148670","0.0-6.0-0.0-0.13","vfs2r4l8qp","many_one","0","indirect_first","0","158463NM","0","19","1","1","3","1","Ich musste mich erst an die Geschwindigkeit gewöhnen, aber es ist schon interessant gewesen.","0","1","0","null","","","<div class = 'row'><div class = 'column'><img src = 'uspos/5600.bmp' width = '100%;'></div><div class = 'column'><img src = 'category2/CS7.png' width = '70%;'></div></div>","null","pos","CS","CS","2","category2/CS7.png","","","","",""
"","html-keyboard-response","20","151172","0.0-6.0-0.0-0.14","vfs2r4l8qp","many_one","0","indirect_first","0","158463NM","0","19","1","1","3","1","Ich musste mich erst an die Geschwindigkeit gewöhnen, aber es ist schon interessant gewesen.","0","1","0","null","","","<div class = 'row'><div class = 'column'><img src = 'usneg/9635.2.bmp' width = '100%;'></div><div class = 'column'><img src = 'category3/CS9.png' width = '70%;'></div></div>","null","neg","CS","CS","3","category3/CS9.png","","","","",""
"","html-keyboard-response","21","153675","0.0-6.0-0.0-0.15","vfs2r4l8qp","many_one","0","indirect_first","0","158463NM","0","19","1","1","3","1","Ich musste mich erst an die Geschwindigkeit gewöhnen, aber es ist schon interessant gewesen.","0","1","0","null","","","<div class = 'row'><div class = 'column'><img src = 'usneg/3160.bmp' width = '100%;'></div><div class = 'column'><img src = 'category3/CS2.png' width = '70%;'></div></div>","null","neg","CS","CS","3","category3/CS2.png","","","","",""
"","html-keyboard-response","22","156188","0.0-6.0-0.0-0.16","vfs2r4l8qp","many_one","0","indirect_first","0","158463NM","0","19","1","1","3","1","Ich musste mich erst an die Geschwindigkeit gewöhnen, aber es ist schon interessant gewesen.","0","1","0","null","","","<div class = 'row'><div class = 'column'><img src = 'usneg/9041.bmp' width = '100%;'></div><div class = 'column'><img src = 'category3/CS10.png' width = '70%;'></div></div>","null","neg","CS","CS","3","category3/CS10.png","","","","",""
"","html-keyboard-response","23","158691","0.0-6.0-0.0-0.17","vfs2r4l8qp","many_one","0","indirect_first","0","158463NM","0","19","1","1","3","1","Ich musste mich erst an die Geschwindigkeit gewöhnen, aber es ist schon interessant gewesen.","0","1","0","null","","","<div class = 'row'><div class = 'column'><img src = 'category1/CS6.png' width = '70%;'></div><div class = 'column'><img src = 'uspos/5621.bmp' width = '100%;'></div></div>","null","pos","CS","CS","1","category1/CS6.png","","","","",""
"","html-keyboard-response","24","161199","0.0-6.0-0.0-0.18","vfs2r4l8qp","many_one","0","indirect_first","0","158463NM","0","19","1","1","3","1","Ich musste mich erst an die Geschwindigkeit gewöhnen, aber es ist schon interessant gewesen.","0","1","0","null","","","<div class = 'row'><div class = 'column'><img src = 'uspos/1440.bmp' width = '100%;'></div><div class = 'column'><img src = 'category1/CS5.png' width = '70%;'></div></div>","null","pos","CS","CS","1","category1/CS5.png","","","","",""
"","html-keyboard-response","25","163702","0.0-6.0-0.0-0.19","vfs2r4l8qp","many_one","0","indirect_first","0","158463NM","0","19","1","1","3","1","Ich musste mich erst an die Geschwindigkeit gewöhnen, aber es ist schon interessant gewesen.","0","1","0","null","","","<div class = 'row'><div class = 'column'><img src = 'category2/CS8.png' width = '70%;'></div><div class = 'column'><img src = 'uspos/8350.bmp' width = '100%;'></div></div>","null","pos","CS","CS","2","category2/CS8.png","","","","",""
"","survey-html-form","26","175783","0.0-6.0-1.0","vfs2r4l8qp","many_one","0","indirect_first","0","158463NM","0","19","1","1","3","1","Ich musste mich erst an die Geschwindigkeit gewöhnen, aber es ist schon interessant gewesen.","0","1","0","11578.620000043884","","{}","","","","","","","","","","","",""
"","html-keyboard-response","27","179787","0.0-6.0-2.0-0.0","vfs2r4l8qp","many_one","0","indirect_first","0","158463NM","0","19","1","1","3","1","Ich musste mich erst an die Geschwindigkeit gewöhnen, aber es ist schon interessant gewesen.","0","1","0","null","","","<div class = 'row'><div class = 'column'><img src = 'usneg/3160.bmp' width = '100%;'></div><div class = 'column'><img src = 'category3/CS2.png' width = '70%;'></div></div>","null","neg","CS","CS","3","category3/CS2.png","","","","",""
"","html-keyboard-response","28","182290","0.0-6.0-2.0-0.1","vfs2r4l8qp","many_one","0","indirect_first","0","158463NM","0","19","1","1","3","1","Ich musste mich erst an die Geschwindigkeit gewöhnen, aber es ist schon interessant gewesen.","0","1","0","null","","","<div class = 'row'><div class = 'column'><img src = 'category4/CS7.png' width = '70%;'></div><div class = 'column'><img src = 'usneg/9560.bmp' width = '100%;'></div></div>","null","neg","CS","CS","4","category4/CS7.png","","","","",""
"","html-keyboard-response","29","184795","0.0-6.0-2.0-0.2","vfs2r4l8qp","many_one","0","indirect_first","0","158463NM","0","19","1","1","3","1","Ich musste mich erst an die Geschwindigkeit gewöhnen, aber es ist schon interessant gewesen.","0","1","0","null","","","<div class = 'row'><div class = 'column'><img src = 'uspos/5600.bmp' width = '100%;'></div><div class = 'column'><img src = 'category2/CS7.png' width = '70%;'></div></div>","null","pos","CS","CS","2","category2/CS7.png","","","","",""
"","html-keyboard-response","30","187298","0.0-6.0-2.0-0.3","vfs2r4l8qp","many_one","0","indirect_first","0","158463NM","0","19","1","1","3","1","Ich musste mich erst an die Geschwindigkeit gewöhnen, aber es ist schon interessant gewesen.","0","1","0","null","","","<div class = 'row'><div class = 'column'><img src = 'category4/CS1.png' width = '70%;'></div><div class = 'column'><img src = 'usneg/9220.bmp' width = '100%;'></div></div>","null","neg","CS","CS","4","category4/CS1.png","","","","",""
"","html-keyboard-response","31","189801","0.0-6.0-2.0-0.4","vfs2r4l8qp","many_one","0","indirect_first","0","158463NM","0","19","1","1","3","1","Ich musste mich erst an die Geschwindigkeit gewöhnen, aber es ist schon interessant gewesen.","0","1","0","null","","","<div class = 'row'><div class = 'column'><img src = 'category3/CS10.png' width = '70%;'></div><div class = 'column'><img src = 'usneg/9041.bmp' width = '100%;'></div></div>","null","neg","CS","CS","3","category3/CS10.png","","","","",""
"","html-keyboard-response","32","192305","0.0-6.0-2.0-0.5","vfs2r4l8qp","many_one","0","indirect_first","0","158463NM","0","19","1","1","3","1","Ich musste mich erst an die Geschwindigkeit gewöhnen, aber es ist schon interessant gewesen.","0","1","0","null","","","<div class = 'row'><div class = 'column'><img src = 'category1/CS10.png' width = '70%;'></div><div class = 'column'><img src = 'uspos/2900.2.bmp' width = '100%;'></div></div>","null","pos","CS","CS","1","category1/CS10.png","","","","",""
"","html-keyboard-response","33","194807","0.0-6.0-2.0-0.6","vfs2r4l8qp","many_one","0","indirect_first","0","158463NM","0","19","1","1","3","1","Ich musste mich erst an die Geschwindigkeit gewöhnen, aber es ist schon interessant gewesen.","0","1","0","null","","","<div class = 'row'><div class = 'column'><img src = 'category3/CS9.png' width = '70%;'></div><div class = 'column'><img src = 'usneg/9635.2.bmp' width = '100%;'></div></div>","null","neg","CS","CS","3","category3/CS9.png","","","","",""
"","html-keyboard-response","34","197309","0.0-6.0-2.0-0.7","vfs2r4l8qp","many_one","0","indirect_first","0","158463NM","0","19","1","1","3","1","Ich musste mich erst an die Geschwindigkeit gewöhnen, aber es ist schon interessant gewesen.","0","1","0","null","","","<div class = 'row'><div class = 'column'><img src = 'category1/CS4.png' width = '70%;'></div><div class = 'column'><img src = 'uspos/2150.bmp' width = '100%;'></div></div>","null","pos","CS","CS","1","category1/CS4.png","","","","",""
"","html-keyboard-response","35","199814","0.0-6.0-2.0-0.8","vfs2r4l8qp","many_one","0","indirect_first","0","158463NM","0","19","1","1","3","1","Ich musste mich erst an die Geschwindigkeit gewöhnen, aber es ist schon interessant gewesen.","0","1","0","null","","","<div class = 'row'><div class = 'column'><img src = 'category1/CS5.png' width = '70%;'></div><div class = 'column'><img src = 'uspos/1440.bmp' width = '100%;'></div></div>","null","pos","CS","CS","1","category1/CS5.png","","","","",""
"","html-keyboard-response","36","202317","0.0-6.0-2.0-0.9","vfs2r4l8qp","many_one","0","indirect_first","0","158463NM","0","19","1","1","3","1","Ich musste mich erst an die Geschwindigkeit gewöhnen, aber es ist schon interessant gewesen.","0","1","0","null","","","<div class = 'row'><div class = 'column'><img src = 'category4/CS8.png' width = '70%;'></div><div class = 'column'><img src = 'usneg/9340.bmp' width = '100%;'></div></div>","null","neg","CS","CS","4","category4/CS8.png","","","","",""
"","html-keyboard-response","37","204820","0.0-6.0-2.0-0.10","vfs2r4l8qp","many_one","0","indirect_first","0","158463NM","0","19","1","1","3","1","Ich musste mich erst an die Geschwindigkeit gewöhnen, aber es ist schon interessant gewesen.","0","1","0","null","","","<div class = 'row'><div class = 'column'><img src = 'usneg/9280.bmp' width = '100%;'></div><div class = 'column'><img src = 'category3/CS4.png' width = '70%;'></div></div>","null","neg","CS","CS","3","category3/CS4.png","","","","",""
"","html-keyboard-response","38","207322","0.0-6.0-2.0-0.11","vfs2r4l8qp","many_one","0","indirect_first","0","158463NM","0","19","1","1","3","1","Ich musste mich erst an die Geschwindigkeit gewöhnen, aber es ist schon interessant gewesen.","0","1","0","null","","","<div class = 'row'><div class = 'column'><img src = 'category2/CS9.png' width = '70%;'></div><div class = 'column'><img src = 'uspos/5830.bmp' width = '100%;'></div></div>","null","pos","CS","CS","2","category2/CS9.png","","","","",""
"","html-keyboard-response","39","209826","0.0-6.0-2.0-0.12","vfs2r4l8qp","many_one","0","indirect_first","0","158463NM","0","19","1","1","3","1","Ich musste mich erst an die Geschwindigkeit gewöhnen, aber es ist schon interessant gewesen.","0","1","0","null","","","<div class = 'row'><div class = 'column'><img src = 'category2/CS8.png' width = '70%;'></div><div class = 'column'><img src = 'uspos/8350.bmp' width = '100%;'></div></div>","null","pos","CS","CS","2","category2/CS8.png","","","","",""
"","html-keyboard-response","40","212330","0.0-6.0-2.0-0.13","vfs2r4l8qp","many_one","0","indirect_first","0","158463NM","0","19","1","1","3","1","Ich musste mich erst an die Geschwindigkeit gewöhnen, aber es ist schon interessant gewesen.","0","1","0","null","","","<div class = 'row'><div class = 'column'><img src = 'category1/CS6.png' width = '70%;'></div><div class = 'column'><img src = 'uspos/5621.bmp' width = '100%;'></div></div>","null","pos","CS","CS","1","category1/CS6.png","","","","",""
"","html-keyboard-response","41","214831","0.0-6.0-2.0-0.14","vfs2r4l8qp","many_one","0","indirect_first","0","158463NM","0","19","1","1","3","1","Ich musste mich erst an die Geschwindigkeit gewöhnen, aber es ist schon interessant gewesen.","0","1","0","null","","","<div class = 'row'><div class = 'column'><img src = 'category2/CS10.png' width = '70%;'></div><div class = 'column'><img src = 'uspos/2360.bmp' width = '100%;'></div></div>","null","pos","CS","CS","2","category2/CS10.png","","","","",""
"","html-keyboard-response","42","217335","0.0-6.0-2.0-0.15","vfs2r4l8qp","many_one","0","indirect_first","0","158463NM","0","19","1","1","3","1","Ich musste mich erst an die Geschwindigkeit gewöhnen, aber es ist schon interessant gewesen.","0","1","0","null","","","<div class = 'row'><div class = 'column'><img src = 'category1/CS7.png' width = '70%;'></div><div class = 'column'><img src = 'uspos/5470.bmp' width = '100%;'></div></div>","null","pos","CS","CS","1","category1/CS7.png","","","","",""
"","html-keyboard-response","43","219837","0.0-6.0-2.0-0.16","vfs2r4l8qp","many_one","0","indirect_first","0","158463NM","0","19","1","1","3","1","Ich musste mich erst an die Geschwindigkeit gewöhnen, aber es ist schon interessant gewesen.","0","1","0","null","","","<div class = 'row'><div class = 'column'><img src = 'uspos/1463.bmp' width = '100%;'></div><div class = 'column'><img src = 'category2/CS5.png' width = '70%;'></div></div>","null","pos","CS","CS","2","category2/CS5.png","","","","",""
"","html-keyboard-response","44","222339","0.0-6.0-2.0-0.17","vfs2r4l8qp","many_one","0","indirect_first","0","158463NM","0","19","1","1","3","1","Ich musste mich erst an die Geschwindigkeit gewöhnen, aber es ist schon interessant gewesen.","0","1","0","null","","","<div class = 'row'><div class = 'column'><img src = 'usneg/9290.bmp' width = '100%;'></div><div class = 'column'><img src = 'category3/CS1.png' width = '70%;'></div></div>","null","neg","CS","CS","3","category3/CS1.png","","","","",""
"","html-keyboard-response","45","224843","0.0-6.0-2.0-0.18","vfs2r4l8qp","many_one","0","indirect_first","0","158463NM","0","19","1","1","3","1","Ich musste mich erst an die Geschwindigkeit gewöhnen, aber es ist schon interessant gewesen.","0","1","0","null","","","<div class = 'row'><div class = 'column'><img src = 'category4/CS5.png' width = '70%;'></div><div class = 'column'><img src = 'usneg/9421.bmp' width = '100%;'></div></div>","null","neg","CS","CS","4","category4/CS5.png","","","","",""
"","html-keyboard-response","46","227346","0.0-6.0-2.0-0.19","vfs2r4l8qp","many_one","0","indirect_first","0","158463NM","0","19","1","1","3","1","Ich musste mich erst an die Geschwindigkeit gewöhnen, aber es ist schon interessant gewesen.","0","1","0","null","","","<div class = 'row'><div class = 'column'><img src = 'usneg/9000.bmp' width = '100%;'></div><div class = 'column'><img src = 'category4/CS9.png' width = '70%;'></div></div>","null","neg","CS","CS","4","category4/CS9.png","","","","",""
"","survey-html-form","47","238473","0.0-6.0-3.0","vfs2r4l8qp","many_one","0","indirect_first","0","158463NM","0","19","1","1","3","1","Ich musste mich erst an die Geschwindigkeit gewöhnen, aber es ist schon interessant gewesen.","0","1","0","10626.034999964759","","{}","","","","","","","","","","","",""
"","html-keyboard-response","48","242482","0.0-6.0-4.0-0.0","vfs2r4l8qp","many_one","0","indirect_first","0","158463NM","0","19","1","1","3","1","Ich musste mich erst an die Geschwindigkeit gewöhnen, aber es ist schon interessant gewesen.","0","1","0","null","","","<div class = 'row'><div class = 'column'><img src = 'category1/CS5.png' width = '70%;'></div><div class = 'column'><img src = 'uspos/1440.bmp' width = '100%;'></div></div>","null","pos","CS","CS","1","category1/CS5.png","","","","",""
"","html-keyboard-response","49","244984","0.0-6.0-4.0-0.1","vfs2r4l8qp","many_one","0","indirect_first","0","158463NM","0","19","1","1","3","1","Ich musste mich erst an die Geschwindigkeit gewöhnen, aber es ist schon interessant gewesen.","0","1","0","null","","","<div class = 'row'><div class = 'column'><img src = 'uspos/2360.bmp' width = '100%;'></div><div class = 'column'><img src = 'category2/CS10.png' width = '70%;'></div></div>","null","pos","CS","CS","2","category2/CS10.png","","","","",""
"","html-keyboard-response","50","247487","0.0-6.0-4.0-0.2","vfs2r4l8qp","many_one","0","indirect_first","0","158463NM","0","19","1","1","3","1","Ich musste mich erst an die Geschwindigkeit gewöhnen, aber es ist schon interessant gewesen.","0","1","0","null","","","<div class = 'row'><div class = 'column'><img src = 'usneg/9340.bmp' width = '100%;'></div><div class = 'column'><img src = 'category4/CS8.png' width = '70%;'></div></div>","null","neg","CS","CS","4","category4/CS8.png","","","","",""
"","html-keyboard-response","51","249989","0.0-6.0-4.0-0.3","vfs2r4l8qp","many_one","0","indirect_first","0","158463NM","0","19","1","1","3","1","Ich musste mich erst an die Geschwindigkeit gewöhnen, aber es ist schon interessant gewesen.","0","1","0","null","","","<div class = 'row'><div class = 'column'><img src = 'category1/CS10.png' width = '70%;'></div><div class = 'column'><img src = 'uspos/2900.2.bmp' width = '100%;'></div></div>","null","pos","CS","CS","1","category1/CS10.png","","","","",""
"","html-keyboard-response","52","252493","0.0-6.0-4.0-0.4","vfs2r4l8qp","many_one","0","indirect_first","0","158463NM","0","19","1","1","3","1","Ich musste mich erst an die Geschwindigkeit gewöhnen, aber es ist schon interessant gewesen.","0","1","0","null","","","<div class = 'row'><div class = 'column'><img src = 'uspos/1463.bmp' width = '100%;'></div><div class = 'column'><img src = 'category2/CS5.png' width = '70%;'></div></div>","null","pos","CS","CS","2","category2/CS5.png","","","","",""
"","html-keyboard-response","53","254996","0.0-6.0-4.0-0.5","vfs2r4l8qp","many_one","0","indirect_first","0","158463NM","0","19","1","1","3","1","Ich musste mich erst an die Geschwindigkeit gewöhnen, aber es ist schon interessant gewesen.","0","1","0","null","","","<div class = 'row'><div class = 'column'><img src = 'category1/CS7.png' width = '70%;'></div><div class = 'column'><img src = 'uspos/5470.bmp' width = '100%;'></div></div>","null","pos","CS","CS","1","category1/CS7.png","","","","",""
"","html-keyboard-response","54","257499","0.0-6.0-4.0-0.6","vfs2r4l8qp","many_one","0","indirect_first","0","158463NM","0","19","1","1","3","1","Ich musste mich erst an die Geschwindigkeit gewöhnen, aber es ist schon interessant gewesen.","0","1","0","null","","","<div class = 'row'><div class = 'column'><img src = 'category4/CS9.png' width = '70%;'></div><div class = 'column'><img src = 'usneg/9000.bmp' width = '100%;'></div></div>","null","neg","CS","CS","4","category4/CS9.png","","","","",""
"","html-keyboard-response","55","260001","0.0-6.0-4.0-0.7","vfs2r4l8qp","many_one","0","indirect_first","0","158463NM","0","19","1","1","3","1","Ich musste mich erst an die Geschwindigkeit gewöhnen, aber es ist schon interessant gewesen.","0","1","0","null","","","<div class = 'row'><div class = 'column'><img src = 'uspos/5621.bmp' width = '100%;'></div><div class = 'column'><img src = 'category1/CS6.png' width = '70%;'></div></div>","null","pos","CS","CS","1","category1/CS6.png","","","","",""
"","html-keyboard-response","56","262505","0.0-6.0-4.0-0.8","vfs2r4l8qp","many_one","0","indirect_first","0","158463NM","0","19","1","1","3","1","Ich musste mich erst an die Geschwindigkeit gewöhnen, aber es ist schon interessant gewesen.","0","1","0","null","","","<div class = 'row'><div class = 'column'><img src = 'category4/CS1.png' width = '70%;'></div><div class = 'column'><img src = 'usneg/9220.bmp' width = '100%;'></div></div>","null","neg","CS","CS","4","category4/CS1.png","","","","",""
"","html-keyboard-response","57","265006","0.0-6.0-4.0-0.9","vfs2r4l8qp","many_one","0","indirect_first","0","158463NM","0","19","1","1","3","1","Ich musste mich erst an die Geschwindigkeit gewöhnen, aber es ist schon interessant gewesen.","0","1","0","null","","","<div class = 'row'><div class = 'column'><img src = 'category3/CS4.png' width = '70%;'></div><div class = 'column'><img src = 'usneg/9280.bmp' width = '100%;'></div></div>","null","neg","CS","CS","3","category3/CS4.png","","","","",""
"","html-keyboard-response","58","267509","0.0-6.0-4.0-0.10","vfs2r4l8qp","many_one","0","indirect_first","0","158463NM","0","19","1","1","3","1","Ich musste mich erst an die Geschwindigkeit gewöhnen, aber es ist schon interessant gewesen.","0","1","0","null","","","<div class = 'row'><div class = 'column'><img src = 'category4/CS5.png' width = '70%;'></div><div class = 'column'><img src = 'usneg/9421.bmp' width = '100%;'></div></div>","null","neg","CS","CS","4","category4/CS5.png","","","","",""
"","html-keyboard-response","59","270012","0.0-6.0-4.0-0.11","vfs2r4l8qp","many_one","0","indirect_first","0","158463NM","0","19","1","1","3","1","Ich musste mich erst an die Geschwindigkeit gewöhnen, aber es ist schon interessant gewesen.","0","1","0","null","","","<div class = 'row'><div class = 'column'><img src = 'uspos/8350.bmp' width = '100%;'></div><div class = 'column'><img src = 'category2/CS8.png' width = '70%;'></div></div>","null","pos","CS","CS","2","category2/CS8.png","","","","",""
"","html-keyboard-response","60","272532","0.0-6.0-4.0-0.12","vfs2r4l8qp","many_one","0","indirect_first","0","158463NM","0","19","1","1","3","1","Ich musste mich erst an die Geschwindigkeit gewöhnen, aber es ist schon interessant gewesen.","0","1","0","null","","","<div class = 'row'><div class = 'column'><img src = 'usneg/9635.2.bmp' width = '100%;'></div><div class = 'column'><img src = 'category3/CS9.png' width = '70%;'></div></div>","null","neg","CS","CS","3","category3/CS9.png","","","","",""
"","html-keyboard-response","61","275035","0.0-6.0-4.0-0.13","vfs2r4l8qp","many_one","0","indirect_first","0","158463NM","0","19","1","1","3","1","Ich musste mich erst an die Geschwindigkeit gewöhnen, aber es ist schon interessant gewesen.","0","1","0","null","","","<div class = 'row'><div class = 'column'><img src = 'category2/CS9.png' width = '70%;'></div><div class = 'column'><img src = 'uspos/5830.bmp' width = '100%;'></div></div>","null","pos","CS","CS","2","category2/CS9.png","","","","",""
"","html-keyboard-response","62","277538","0.0-6.0-4.0-0.14","vfs2r4l8qp","many_one","0","indirect_first","0","158463NM","0","19","1","1","3","1","Ich musste mich erst an die Geschwindigkeit gewöhnen, aber es ist schon interessant gewesen.","0","1","0","null","","","<div class = 'row'><div class = 'column'><img src = 'category1/CS4.png' width = '70%;'></div><div class = 'column'><img src = 'uspos/2150.bmp' width = '100%;'></div></div>","null","pos","CS","CS","1","category1/CS4.png","","","","",""
"","html-keyboard-response","63","280041","0.0-6.0-4.0-0.15","vfs2r4l8qp","many_one","0","indirect_first","0","158463NM","0","19","1","1","3","1","Ich musste mich erst an die Geschwindigkeit gewöhnen, aber es ist schon interessant gewesen.","0","1","0","null","","","<div class = 'row'><div class = 'column'><img src = 'usneg/9560.bmp' width = '100%;'></div><div class = 'column'><img src = 'category4/CS7.png' width = '70%;'></div></div>","null","neg","CS","CS","4","category4/CS7.png","","","","",""
"","html-keyboard-response","64","282543","0.0-6.0-4.0-0.16","vfs2r4l8qp","many_one","0","indirect_first","0","158463NM","0","19","1","1","3","1","Ich musste mich erst an die Geschwindigkeit gewöhnen, aber es ist schon interessant gewesen.","0","1","0","null","","","<div class = 'row'><div class = 'column'><img src = 'category3/CS2.png' width = '70%;'></div><div class = 'column'><img src = 'usneg/3160.bmp' width = '100%;'></div></div>","null","neg","CS","CS","3","category3/CS2.png","","","","",""
"","html-keyboard-response","65","285045","0.0-6.0-4.0-0.17","vfs2r4l8qp","many_one","0","indirect_first","0","158463NM","0","19","1","1","3","1","Ich musste mich erst an die Geschwindigkeit gewöhnen, aber es ist schon interessant gewesen.","0","1","0","null","","","<div class = 'row'><div class = 'column'><img src = 'uspos/5600.bmp' width = '100%;'></div><div class = 'column'><img src = 'category2/CS7.png' width = '70%;'></div></div>","null","pos","CS","CS","2","category2/CS7.png","","","","",""
"","html-keyboard-response","66","287549","0.0-6.0-4.0-0.18","vfs2r4l8qp","many_one","0","indirect_first","0","158463NM","0","19","1","1","3","1","Ich musste mich erst an die Geschwindigkeit gewöhnen, aber es ist schon interessant gewesen.","0","1","0","null","","","<div class = 'row'><div class = 'column'><img src = 'category3/CS1.png' width = '70%;'></div><div class = 'column'><img src = 'usneg/9290.bmp' width = '100%;'></div></div>","null","neg","CS","CS","3","category3/CS1.png","","","","",""
"","html-keyboard-response","67","290050","0.0-6.0-4.0-0.19","vfs2r4l8qp","many_one","0","indirect_first","0","158463NM","0","19","1","1","3","1","Ich musste mich erst an die Geschwindigkeit gewöhnen, aber es ist schon interessant gewesen.","0","1","0","null","","","<div class = 'row'><div class = 'column'><img src = 'category3/CS10.png' width = '70%;'></div><div class = 'column'><img src = 'usneg/9041.bmp' width = '100%;'></div></div>","null","neg","CS","CS","3","category3/CS10.png","","","","",""
"","survey-html-form","68","299074","0.0-6.0-5.0","vfs2r4l8qp","many_one","0","indirect_first","0","158463NM","0","19","1","1","3","1","Ich musste mich erst an die Geschwindigkeit gewöhnen, aber es ist schon interessant gewesen.","0","1","0","8522.31499995105","","{}","","","","","","","","","","","",""
"","html-keyboard-response","69","303078","0.0-6.0-6.0-0.0","vfs2r4l8qp","many_one","0","indirect_first","0","158463NM","0","19","1","1","3","1","Ich musste mich erst an die Geschwindigkeit gewöhnen, aber es ist schon interessant gewesen.","0","1","0","null","","","<div class = 'row'><div class = 'column'><img src = 'uspos/5621.bmp' width = '100%;'></div><div class = 'column'><img src = 'category1/CS6.png' width = '70%;'></div></div>","null","pos","CS","CS","1","category1/CS6.png","","","","",""
"","html-keyboard-response","70","305583","0.0-6.0-6.0-0.1","vfs2r4l8qp","many_one","0","indirect_first","0","158463NM","0","19","1","1","3","1","Ich musste mich erst an die Geschwindigkeit gewöhnen, aber es ist schon interessant gewesen.","0","1","0","null","","","<div class = 'row'><div class = 'column'><img src = 'category2/CS8.png' width = '70%;'></div><div class = 'column'><img src = 'uspos/8350.bmp' width = '100%;'></div></div>","null","pos","CS","CS","2","category2/CS8.png","","","","",""
"","html-keyboard-response","71","308084","0.0-6.0-6.0-0.2","vfs2r4l8qp","many_one","0","indirect_first","0","158463NM","0","19","1","1","3","1","Ich musste mich erst an die Geschwindigkeit gewöhnen, aber es ist schon interessant gewesen.","0","1","0","null","","","<div class = 'row'><div class = 'column'><img src = 'category1/CS7.png' width = '70%;'></div><div class = 'column'><img src = 'uspos/5470.bmp' width = '100%;'></div></div>","null","pos","CS","CS","1","category1/CS7.png","","","","",""
"","html-keyboard-response","72","310587","0.0-6.0-6.0-0.3","vfs2r4l8qp","many_one","0","indirect_first","0","158463NM","0","19","1","1","3","1","Ich musste mich erst an die Geschwindigkeit gewöhnen, aber es ist schon interessant gewesen.","0","1","0","null","","","<div class = 'row'><div class = 'column'><img src = 'category4/CS8.png' width = '70%;'></div><div class = 'column'><img src = 'usneg/9340.bmp' width = '100%;'></div></div>","null","neg","CS","CS","4","category4/CS8.png","","","","",""
"","html-keyboard-response","73","313092","0.0-6.0-6.0-0.4","vfs2r4l8qp","many_one","0","indirect_first","0","158463NM","0","19","1","1","3","1","Ich musste mich erst an die Geschwindigkeit gewöhnen, aber es ist schon interessant gewesen.","0","1","0","null","","","<div class = 'row'><div class = 'column'><img src = 'category3/CS2.png' width = '70%;'></div><div class = 'column'><img src = 'usneg/3160.bmp' width = '100%;'></div></div>","null","neg","CS","CS","3","category3/CS2.png","","","","",""
"","html-keyboard-response","74","315595","0.0-6.0-6.0-0.5","vfs2r4l8qp","many_one","0","indirect_first","0","158463NM","0","19","1","1","3","1","Ich musste mich erst an die Geschwindigkeit gewöhnen, aber es ist schon interessant gewesen.","0","1","0","null","","","<div class = 'row'><div class = 'column'><img src = 'usneg/9220.bmp' width = '100%;'></div><div class = 'column'><img src = 'category4/CS1.png' width = '70%;'></div></div>","null","neg","CS","CS","4","category4/CS1.png","","","","",""
"","html-keyboard-response","75","318097","0.0-6.0-6.0-0.6","vfs2r4l8qp","many_one","0","indirect_first","0","158463NM","0","19","1","1","3","1","Ich musste mich erst an die Geschwindigkeit gewöhnen, aber es ist schon interessant gewesen.","0","1","0","null","","","<div class = 'row'><div class = 'column'><img src = 'category3/CS10.png' width = '70%;'></div><div class = 'column'><img src = 'usneg/9041.bmp' width = '100%;'></div></div>","null","neg","CS","CS","3","category3/CS10.png","","","","",""
"","html-keyboard-response","76","320600","0.0-6.0-6.0-0.7","vfs2r4l8qp","many_one","0","indirect_first","0","158463NM","0","19","1","1","3","1","Ich musste mich erst an die Geschwindigkeit gewöhnen, aber es ist schon interessant gewesen.","0","1","0","null","","","<div class = 'row'><div class = 'column'><img src = 'usneg/9280.bmp' width = '100%;'></div><div class = 'column'><img src = 'category3/CS4.png' width = '70%;'></div></div>","null","neg","CS","CS","3","category3/CS4.png","","","","",""
"","html-keyboard-response","77","323103","0.0-6.0-6.0-0.8","vfs2r4l8qp","many_one","0","indirect_first","0","158463NM","0","19","1","1","3","1","Ich musste mich erst an die Geschwindigkeit gewöhnen, aber es ist schon interessant gewesen.","0","1","0","null","","","<div class = 'row'><div class = 'column'><img src = 'category4/CS5.png' width = '70%;'></div><div class = 'column'><img src = 'usneg/9421.bmp' width = '100%;'></div></div>","null","neg","CS","CS","4","category4/CS5.png","","","","",""
"","html-keyboard-response","78","325607","0.0-6.0-6.0-0.9","vfs2r4l8qp","many_one","0","indirect_first","0","158463NM","0","19","1","1","3","1","Ich musste mich erst an die Geschwindigkeit gewöhnen, aber es ist schon interessant gewesen.","0","1","0","null","","","<div class = 'row'><div class = 'column'><img src = 'category2/CS5.png' width = '70%;'></div><div class = 'column'><img src = 'uspos/1463.bmp' width = '100%;'></div></div>","null","pos","CS","CS","2","category2/CS5.png","","","","",""
"","html-keyboard-response","79","328109","0.0-6.0-6.0-0.10","vfs2r4l8qp","many_one","0","indirect_first","0","158463NM","0","19","1","1","3","1","Ich musste mich erst an die Geschwindigkeit gewöhnen, aber es ist schon interessant gewesen.","0","1","0","null","","","<div class = 'row'><div class = 'column'><img src = 'category4/CS7.png' width = '70%;'></div><div class = 'column'><img src = 'usneg/9560.bmp' width = '100%;'></div></div>","null","neg","CS","CS","4","category4/CS7.png","","","","",""
"","html-keyboard-response","80","330611","0.0-6.0-6.0-0.11","vfs2r4l8qp","many_one","0","indirect_first","0","158463NM","0","19","1","1","3","1","Ich musste mich erst an die Geschwindigkeit gewöhnen, aber es ist schon interessant gewesen.","0","1","0","null","","","<div class = 'row'><div class = 'column'><img src = 'category2/CS7.png' width = '70%;'></div><div class = 'column'><img src = 'uspos/5600.bmp' width = '100%;'></div></div>","null","pos","CS","CS","2","category2/CS7.png","","","","",""
"","html-keyboard-response","81","333125","0.0-6.0-6.0-0.12","vfs2r4l8qp","many_one","0","indirect_first","0","158463NM","0","19","1","1","3","1","Ich musste mich erst an die Geschwindigkeit gewöhnen, aber es ist schon interessant gewesen.","0","1","0","null","","","<div class = 'row'><div class = 'column'><img src = 'category1/CS5.png' width = '70%;'></div><div class = 'column'><img src = 'uspos/1440.bmp' width = '100%;'></div></div>","null","pos","CS","CS","1","category1/CS5.png","","","","",""
"","html-keyboard-response","82","335628","0.0-6.0-6.0-0.13","vfs2r4l8qp","many_one","0","indirect_first","0","158463NM","0","19","1","1","3","1","Ich musste mich erst an die Geschwindigkeit gewöhnen, aber es ist schon interessant gewesen.","0","1","0","null","","","<div class = 'row'><div class = 'column'><img src = 'usneg/9290.bmp' width = '100%;'></div><div class = 'column'><img src = 'category3/CS1.png' width = '70%;'></div></div>","null","neg","CS","CS","3","category3/CS1.png","","","","",""
"","html-keyboard-response","83","338131","0.0-6.0-6.0-0.14","vfs2r4l8qp","many_one","0","indirect_first","0","158463NM","0","19","1","1","3","1","Ich musste mich erst an die Geschwindigkeit gewöhnen, aber es ist schon interessant gewesen.","0","1","0","null","","","<div class = 'row'><div class = 'column'><img src = 'category3/CS9.png' width = '70%;'></div><div class = 'column'><img src = 'usneg/9635.2.bmp' width = '100%;'></div></div>","null","neg","CS","CS","3","category3/CS9.png","","","","",""
"","html-keyboard-response","84","340635","0.0-6.0-6.0-0.15","vfs2r4l8qp","many_one","0","indirect_first","0","158463NM","0","19","1","1","3","1","Ich musste mich erst an die Geschwindigkeit gewöhnen, aber es ist schon interessant gewesen.","0","1","0","null","","","<div class = 'row'><div class = 'column'><img src = 'category1/CS4.png' width = '70%;'></div><div class = 'column'><img src = 'uspos/2150.bmp' width = '100%;'></div></div>","null","pos","CS","CS","1","category1/CS4.png","","","","",""
"","html-keyboard-response","85","343137","0.0-6.0-6.0-0.16","vfs2r4l8qp","many_one","0","indirect_first","0","158463NM","0","19","1","1","3","1","Ich musste mich erst an die Geschwindigkeit gewöhnen, aber es ist schon interessant gewesen.","0","1","0","null","","","<div class = 'row'><div class = 'column'><img src = 'category2/CS9.png' width = '70%;'></div><div class = 'column'><img src = 'uspos/5830.bmp' width = '100%;'></div></div>","null","pos","CS","CS","2","category2/CS9.png","","","","",""
"","html-keyboard-response","86","345639","0.0-6.0-6.0-0.17","vfs2r4l8qp","many_one","0","indirect_first","0","158463NM","0","19","1","1","3","1","Ich musste mich erst an die Geschwindigkeit gewöhnen, aber es ist schon interessant gewesen.","0","1","0","null","","","<div class = 'row'><div class = 'column'><img src = 'category4/CS9.png' width = '70%;'></div><div class = 'column'><img src = 'usneg/9000.bmp' width = '100%;'></div></div>","null","neg","CS","CS","4","category4/CS9.png","","","","",""
"","html-keyboard-response","87","348142","0.0-6.0-6.0-0.18","vfs2r4l8qp","many_one","0","indirect_first","0","158463NM","0","19","1","1","3","1","Ich musste mich erst an die Geschwindigkeit gewöhnen, aber es ist schon interessant gewesen.","0","1","0","null","","","<div class = 'row'><div class = 'column'><img src = 'uspos/2360.bmp' width = '100%;'></div><div class = 'column'><img src = 'category2/CS10.png' width = '70%;'></div></div>","null","pos","CS","CS","2","category2/CS10.png","","","","",""
"","html-keyboard-response","88","350645","0.0-6.0-6.0-0.19","vfs2r4l8qp","many_one","0","indirect_first","0","158463NM","0","19","1","1","3","1","Ich musste mich erst an die Geschwindigkeit gewöhnen, aber es ist schon interessant gewesen.","0","1","0","null","","","<div class = 'row'><div class = 'column'><img src = 'uspos/2900.2.bmp' width = '100%;'></div><div class = 'column'><img src = 'category1/CS10.png' width = '70%;'></div></div>","null","pos","CS","CS","1","category1/CS10.png","","","","",""
"","html-keyboard-response","89","393638","0.0-7.0","vfs2r4l8qp","many_one","0","indirect_first","0","158463NM","0","19","1","1","3","1","Ich musste mich erst an die Geschwindigkeit gewöhnen, aber es ist schon interessant gewesen.","0","1","0","42490.609999978915","","","<p>Sie sehen nun die chinesischen Zeichen nur ganz kurz. Danach sehen Sie die jeweilige Aussprache der Zeichen als Silbe auf dem Bildschrim. Ihre Aufgabe ist es, für jede Silbe anzugeben, ob diese etwas angenehmes, oder unangenehmes bedeuten könnte. Verlassen Sie sich hier vor allem auf Ihre Intuition.<br><br>Die Zeichen werden nur zur Orientierung dargestellt, beachten Sie sie deshalb nicht. Konzentrieren Sie sich vor allem auf die Silben. <br>Reagieren Sie mit folgenden zwei Tasten: <br><br><b>'D' </b> wenn die Silbe etwas <b>unangenehmes</b> bedeuten könnte. <br><b>'K'</b> wenn die Silbe etwas <b>angenehmes</b> bedeuten könnte. <br><br>Bitte legen Sie nun den Zeigefinger der linken Hand auf die Taste 'D' und den Zeigefinger der rechten Hand auf die Taste 'K'. <br>Reagieren Sie auf jede Silbe so schnell wie möglich. Uns interessiert Ihre spontane Reaktion. <br> <br> <br>Drücken Sie 'D' oder 'K', um die nächste Aufgabe zu starten. </p>","75","","","","","","","","","",""
"","html-keyboard-response","90","396640","0.0-8.0-0.0","vfs2r4l8qp","many_one","0","indirect_first","0","158463NM","0","19","1","1","3","1","Ich musste mich erst an die Geschwindigkeit gewöhnen, aber es ist schon interessant gewesen.","0","1","0","null","","","<div style=""font-size:60px;"">+</div>","null","","","","","","","","","",""
"","html-keyboard-response","91","396731","0.0-8.0-1.0","vfs2r4l8qp","many_one","0","indirect_first","0","158463NM","0","19","1","1","3","1","Ich musste mich erst an die Geschwindigkeit gewöhnen, aber es ist schon interessant gewesen.","0","1","0","null","","","<img src = 'category4/CS1.png' width = '100%;'>","null","","","","","","","","","",""
"","html-keyboard-response","92","396982","0.0-8.0-2.0","vfs2r4l8qp","many_one","0","indirect_first","0","158463NM","0","19","1","1","3","1","Ich musste mich erst an die Geschwindigkeit gewöhnen, aber es ist schon interessant gewesen.","0","1","0","null","","","<img src = 'targets/31.png' width = '100%;'>","null","","","","","","","","","",""
"","html-keyboard-response","93","400843","0.0-8.0-3.0","vfs2r4l8qp","many_one","0","indirect_first","0","158463NM","0","19","1","1","3","1","Ich musste mich erst an die Geschwindigkeit gewöhnen, aber es ist schon interessant gewesen.","0","1","0","3860.0599999772385","","","<img src = 'targets/mask.png' width = '100%;'>","75","neg","CS","CS","4","category4/CS1.png","targets/31.png","1","indirect","0",""
"","html-keyboard-response","94","402346","0.0-8.0-0.1","vfs2r4l8qp","many_one","0","indirect_first","0","158463NM","0","19","1","1","3","1","Ich musste mich erst an die Geschwindigkeit gewöhnen, aber es ist schon interessant gewesen.","0","1","0","null","","","<div style=""font-size:60px;"">+</div>","null","","","","","","","","","",""
"","html-keyboard-response","95","402438","0.0-8.0-1.1","vfs2r4l8qp","many_one","0","indirect_first","0","158463NM","0","19","1","1","3","1","Ich musste mich erst an die Geschwindigkeit gewöhnen, aber es ist schon interessant gewesen.","0","1","0","null","","","<img src = 'category2/CS7.png' width = '100%;'>","null","","","","","","","","","",""
"","html-keyboard-response","96","402690","0.0-8.0-2.1","vfs2r4l8qp","many_one","0","indirect_first","0","158463NM","0","19","1","1","3","1","Ich musste mich erst an die Geschwindigkeit gewöhnen, aber es ist schon interessant gewesen.","0","1","0","null","","","<img src = 'targets/44.png' width = '100%;'>","null","","","","","","","","","",""
"","html-keyboard-response","97","407292","0.0-8.0-3.1","vfs2r4l8qp","many_one","0","indirect_first","0","158463NM","0","19","1","1","3","1","Ich musste mich erst an die Geschwindigkeit gewöhnen, aber es ist schon interessant gewesen.","0","1","0","4601.075000013225","","","<img src = 'targets/mask.png' width = '100%;'>","68","pos","CS","CS","2","category2/CS7.png","targets/44.png","0","indirect","1",""
"","html-keyboard-response","98","408794","0.0-8.0-0.2","vfs2r4l8qp","many_one","0","indirect_first","0","158463NM","0","19","1","1","3","1","Ich musste mich erst an die Geschwindigkeit gewöhnen, aber es ist schon interessant gewesen.","0","1","0","null","","","<div style=""font-size:60px;"">+</div>","null","","","","","","","","","",""
"","html-keyboard-response","99","408886","0.0-8.0-1.2","vfs2r4l8qp","many_one","0","indirect_first","0","158463NM","0","19","1","1","3","1","Ich musste mich erst an die Geschwindigkeit gewöhnen, aber es ist schon interessant gewesen.","0","1","0","null","","","<img src = 'category4/CS3.png' width = '100%;'>","null","","","","","","","","","",""
"","html-keyboard-response","100","409139","0.0-8.0-2.2","vfs2r4l8qp","many_one","0","indirect_first","0","158463NM","0","19","1","1","3","1","Ich musste mich erst an die Geschwindigkeit gewöhnen, aber es ist schon interessant gewesen.","0","1","0","null","","","<img src = 'targets/15.png' width = '100%;'>","null","","","","","","","","","",""
"","html-keyboard-response","101","410472","0.0-8.0-3.2","vfs2r4l8qp","many_one","0","indirect_first","0","158463NM","0","19","1","1","3","1","Ich musste mich erst an die Geschwindigkeit gewöhnen, aber es ist schon interessant gewesen.","0","1","0","1332.369999960065","","","<img src = 'targets/mask.png' width = '100%;'>","75","neg","GS","GSold","4","category4/CS3.png","targets/15.png","1","indirect","2",""
"","html-keyboard-response","102","411976","0.0-8.0-0.3","vfs2r4l8qp","many_one","0","indirect_first","0","158463NM","0","19","1","1","3","1","Ich musste mich erst an die Geschwindigkeit gewöhnen, aber es ist schon interessant gewesen.","0","1","0","null","","","<div style=""font-size:60px;"">+</div>","null","","","","","","","","","",""
"","html-keyboard-response","103","412068","0.0-8.0-1.3","vfs2r4l8qp","many_one","0","indirect_first","0","158463NM","0","19","1","1","3","1","Ich musste mich erst an die Geschwindigkeit gewöhnen, aber es ist schon interessant gewesen.","0","1","0","null","","","<img src = 'category4/CS5.png' width = '100%;'>","null","","","","","","","","","",""
"","html-keyboard-response","104","412321","0.0-8.0-2.3","vfs2r4l8qp","many_one","0","indirect_first","0","158463NM","0","19","1","1","3","1","Ich musste mich erst an die Geschwindigkeit gewöhnen, aber es ist schon interessant gewesen.","0","1","0","null","","","<img src = 'targets/2.png' width = '100%;'>","null","","","","","","","","","",""
"","html-keyboard-response","105","413455","0.0-8.0-3.3","vfs2r4l8qp","many_one","0","indirect_first","0","158463NM","0","19","1","1","3","1","Ich musste mich erst an die Geschwindigkeit gewöhnen, aber es ist schon interessant gewesen.","0","1","0","1134.0750000672415","","","<img src = 'targets/mask.png' width = '100%;'>","68","neg","CS","CS","4","category4/CS5.png","targets/2.png","0","indirect","3",""
"","html-keyboard-response","106","414959","0.0-8.0-0.4","vfs2r4l8qp","many_one","0","indirect_first","0","158463NM","0","19","1","1","3","1","Ich musste mich erst an die Geschwindigkeit gewöhnen, aber es ist schon interessant gewesen.","0","1","0","null","","","<div style=""font-size:60px;"">+</div>","null","","","","","","","","","",""
"","html-keyboard-response","107","415050","0.0-8.0-1.4","vfs2r4l8qp","many_one","0","indirect_first","0","158463NM","0","19","1","1","3","1","Ich musste mich erst an die Geschwindigkeit gewöhnen, aber es ist schon interessant gewesen.","0","1","0","null","","","<img src = 'category4/CS9.png' width = '100%;'>","null","","","","","","","","","",""
"","html-keyboard-response","108","415303","0.0-8.0-2.4","vfs2r4l8qp","many_one","0","indirect_first","0","158463NM","0","19","1","1","3","1","Ich musste mich erst an die Geschwindigkeit gewöhnen, aber es ist schon interessant gewesen.","0","1","0","null","","","<img src = 'targets/21.png' width = '100%;'>","null","","","","","","","","","",""
"","html-keyboard-response","109","416529","0.0-8.0-3.4","vfs2r4l8qp","many_one","0","indirect_first","0","158463NM","0","19","1","1","3","1","Ich musste mich erst an die Geschwindigkeit gewöhnen, aber es ist schon interessant gewesen.","0","1","0","1226.0950000490993","","","<img src = 'targets/mask.png' width = '100%;'>","68","neg","CS","CS","4","category4/CS9.png","targets/21.png","0","indirect","4",""
"","html-keyboard-response","110","418032","0.0-8.0-0.5","vfs2r4l8qp","many_one","0","indirect_first","0","158463NM","0","19","1","1","3","1","Ich musste mich erst an die Geschwindigkeit gewöhnen, aber es ist schon interessant gewesen.","0","1","0","null","","","<div style=""font-size:60px;"">+</div>","null","","","","","","","","","",""
"","html-keyboard-response","111","418124","0.0-8.0-1.5","vfs2r4l8qp","many_one","0","indirect_first","0","158463NM","0","19","1","1","3","1","Ich musste mich erst an die Geschwindigkeit gewöhnen, aber es ist schon interessant gewesen.","0","1","0","null","","","<img src = 'category4/CS7.png' width = '100%;'>","null","","","","","","","","","",""
"","html-keyboard-response","112","418376","0.0-8.0-2.5","vfs2r4l8qp","many_one","0","indirect_first","0","158463NM","0","19","1","1","3","1","Ich musste mich erst an die Geschwindigkeit gewöhnen, aber es ist schon interessant gewesen.","0","1","0","null","","","<img src = 'targets/43.png' width = '100%;'>","null","","","","","","","","","",""
"","html-keyboard-response","113","421330","0.0-8.0-3.5","vfs2r4l8qp","many_one","0","indirect_first","0","158463NM","0","19","1","1","3","1","Ich musste mich erst an die Geschwindigkeit gewöhnen, aber es ist schon interessant gewesen.","0","1","0","2953.4749999875203","","","<img src = 'targets/mask.png' width = '100%;'>","75","neg","CS","CS","4","category4/CS7.png","targets/43.png","1","indirect","5",""
"","html-keyboard-response","114","422832","0.0-8.0-0.6","vfs2r4l8qp","many_one","0","indirect_first","0","158463NM","0","19","1","1","3","1","Ich musste mich erst an die Geschwindigkeit gewöhnen, aber es ist schon interessant gewesen.","0","1","0","null","","","<div style=""font-size:60px;"">+</div>","null","","","","","","","","","",""
"","html-keyboard-response","115","422924","0.0-8.0-1.6","vfs2r4l8qp","many_one","0","indirect_first","0","158463NM","0","19","1","1","3","1","Ich musste mich erst an die Geschwindigkeit gewöhnen, aber es ist schon interessant gewesen.","0","1","0","null","","","<img src = 'category2/CS10.png' width = '100%;'>","null","","","","","","","","","",""
"","html-keyboard-response","116","423176","0.0-8.0-2.6","vfs2r4l8qp","many_one","0","indirect_first","0","158463NM","0","19","1","1","3","1","Ich musste mich erst an die Geschwindigkeit gewöhnen, aber es ist schon interessant gewesen.","0","1","0","null","","","<img src = 'targets/16.png' width = '100%;'>","null","","","","","","","","","",""
"","html-keyboard-response","117","424069","0.0-8.0-3.6","vfs2r4l8qp","many_one","0","indirect_first","0","158463NM","0","19","1","1","3","1","Ich musste mich erst an die Geschwindigkeit gewöhnen, aber es ist schon interessant gewesen.","0","1","0","892.0149999903515","","","<img src = 'targets/mask.png' width = '100%;'>","75","pos","CS","CS","2","category2/CS10.png","targets/16.png","1","indirect","6",""
"","html-keyboard-response","118","425570","0.0-8.0-0.7","vfs2r4l8qp","many_one","0","indirect_first","0","158463NM","0","19","1","1","3","1","Ich musste mich erst an die Geschwindigkeit gewöhnen, aber es ist schon interessant gewesen.","0","1","0","null","","","<div style=""font-size:60px;"">+</div>","null","","","","","","","","","",""
"","html-keyboard-response","119","425662","0.0-8.0-1.7","vfs2r4l8qp","many_one","0","indirect_first","0","158463NM","0","19","1","1","3","1","Ich musste mich erst an die Geschwindigkeit gewöhnen, aber es ist schon interessant gewesen.","0","1","0","null","","","<img src = 'category2/CS9.png' width = '100%;'>","null","","","","","","","","","",""
"","html-keyboard-response","120","425918","0.0-8.0-2.7","vfs2r4l8qp","many_one","0","indirect_first","0","158463NM","0","19","1","1","3","1","Ich musste mich erst an die Geschwindigkeit gewöhnen, aber es ist schon interessant gewesen.","0","1","0","null","","","<img src = 'targets/20.png' width = '100%;'>","null","","","","","","","","","",""
"","html-keyboard-response","121","426399","0.0-8.0-3.7","vfs2r4l8qp","many_one","0","indirect_first","0","158463NM","0","19","1","1","3","1","Ich musste mich erst an die Geschwindigkeit gewöhnen, aber es ist schon interessant gewesen.","0","1","0","480.0950000062585","","","<img src = 'targets/mask.png' width = '100%;'>","75","pos","CS","CS","2","category2/CS9.png","targets/20.png","1","indirect","7",""
"","html-keyboard-response","122","427902","0.0-8.0-0.8","vfs2r4l8qp","many_one","0","indirect_first","0","158463NM","0","19","1","1","3","1","Ich musste mich erst an die Geschwindigkeit gewöhnen, aber es ist schon interessant gewesen.","0","1","0","null","","","<div style=""font-size:60px;"">+</div>","null","","","","","","","","","",""
"","html-keyboard-response","123","427992","0.0-8.0-1.8","vfs2r4l8qp","many_one","0","indirect_first","0","158463NM","0","19","1","1","3","1","Ich musste mich erst an die Geschwindigkeit gewöhnen, aber es ist schon interessant gewesen.","0","1","0","null","","","<img src = 'category4/CS8.png' width = '100%;'>","null","","","","","","","","","",""
"","html-keyboard-response","124","428245","0.0-8.0-2.8","vfs2r4l8qp","many_one","0","indirect_first","0","158463NM","0","19","1","1","3","1","Ich musste mich erst an die Geschwindigkeit gewöhnen, aber es ist schon interessant gewesen.","0","1","0","null","","","<img src = 'targets/11.png' width = '100%;'>","null","","","","","","","","","",""
"","html-keyboard-response","125","430204","0.0-8.0-3.8","vfs2r4l8qp","many_one","0","indirect_first","0","158463NM","0","19","1","1","3","1","Ich musste mich erst an die Geschwindigkeit gewöhnen, aber es ist schon interessant gewesen.","0","1","0","1958.2650000229478","","","<img src = 'targets/mask.png' width = '100%;'>","68","neg","CS","CS","4","category4/CS8.png","targets/11.png","0","indirect","8",""
"","html-keyboard-response","126","431705","0.0-8.0-0.9","vfs2r4l8qp","many_one","0","indirect_first","0","158463NM","0","19","1","1","3","1","Ich musste mich erst an die Geschwindigkeit gewöhnen, aber es ist schon interessant gewesen.","0","1","0","null","","","<div style=""font-size:60px;"">+</div>","null","","","","","","","","","",""
"","html-keyboard-response","127","431796","0.0-8.0-1.9","vfs2r4l8qp","many_one","0","indirect_first","0","158463NM","0","19","1","1","3","1","Ich musste mich erst an die Geschwindigkeit gewöhnen, aber es ist schon interessant gewesen.","0","1","0","null","","","<img src = 'category3/CS10.png' width = '100%;'>","null","","","","","","","","","",""
"","html-keyboard-response","128","432049","0.0-8.0-2.9","vfs2r4l8qp","many_one","0","indirect_first","0","158463NM","0","19","1","1","3","1","Ich musste mich erst an die Geschwindigkeit gewöhnen, aber es ist schon interessant gewesen.","0","1","0","null","","","<img src = 'targets/8.png' width = '100%;'>","null","","","","","","","","","",""
"","html-keyboard-response","129","433917","0.0-8.0-3.9","vfs2r4l8qp","many_one","0","indirect_first","0","158463NM","0","19","1","1","3","1","Ich musste mich erst an die Geschwindigkeit gewöhnen, aber es ist schon interessant gewesen.","0","1","0","1867.3600000329316","","","<img src = 'targets/mask.png' width = '100%;'>","68","neg","CS","CS","3","category3/CS10.png","targets/8.png","0","indirect","9",""
"","html-keyboard-response","130","435418","0.0-8.0-0.10","vfs2r4l8qp","many_one","0","indirect_first","0","158463NM","0","19","1","1","3","1","Ich musste mich erst an die Geschwindigkeit gewöhnen, aber es ist schon interessant gewesen.","0","1","0","null","","","<div style=""font-size:60px;"">+</div>","null","","","","","","","","","",""
"","html-keyboard-response","131","435510","0.0-8.0-1.10","vfs2r4l8qp","many_one","0","indirect_first","0","158463NM","0","19","1","1","3","1","Ich musste mich erst an die Geschwindigkeit gewöhnen, aber es ist schon interessant gewesen.","0","1","0","null","","","<img src = 'category4/CS4.png' width = '100%;'>","null","","","","","","","","","",""
"","html-keyboard-response","132","435762","0.0-8.0-2.10","vfs2r4l8qp","many_one","0","indirect_first","0","158463NM","0","19","1","1","3","1","Ich musste mich erst an die Geschwindigkeit gewöhnen, aber es ist schon interessant gewesen.","0","1","0","null","","","<img src = 'targets/24.png' width = '100%;'>","null","","","","","","","","","",""
"","html-keyboard-response","133","438871","0.0-8.0-3.10","vfs2r4l8qp","many_one","0","indirect_first","0","158463NM","0","19","1","1","3","1","Ich musste mich erst an die Geschwindigkeit gewöhnen, aber es ist schon interessant gewesen.","0","1","0","3108.2200000528246","","","<img src = 'targets/mask.png' width = '100%;'>","75","neg","GS","GSold","4","category4/CS4.png","targets/24.png","1","indirect","10",""
"","html-keyboard-response","134","440372","0.0-8.0-0.11","vfs2r4l8qp","many_one","0","indirect_first","0","158463NM","0","19","1","1","3","1","Ich musste mich erst an die Geschwindigkeit gewöhnen, aber es ist schon interessant gewesen.","0","1","0","null","","","<div style=""font-size:60px;"">+</div>","null","","","","","","","","","",""
"","html-keyboard-response","135","440463","0.0-8.0-1.11","vfs2r4l8qp","many_one","0","indirect_first","0","158463NM","0","19","1","1","3","1","Ich musste mich erst an die Geschwindigkeit gewöhnen, aber es ist schon interessant gewesen.","0","1","0","null","","","<img src = 'category1/CS7.png' width = '100%;'>","null","","","","","","","","","",""
"","html-keyboard-response","136","440716","0.0-8.0-2.11","vfs2r4l8qp","many_one","0","indirect_first","0","158463NM","0","19","1","1","3","1","Ich musste mich erst an die Geschwindigkeit gewöhnen, aber es ist schon interessant gewesen.","0","1","0","null","","","<img src = 'targets/33.png' width = '100%;'>","null","","","","","","","","","",""
"","html-keyboard-response","137","443146","0.0-8.0-3.11","vfs2r4l8qp","many_one","0","indirect_first","0","158463NM","0","19","1","1","3","1","Ich musste mich erst an die Geschwindigkeit gewöhnen, aber es ist schon interessant gewesen.","0","1","0","2429.1250000242144","","","<img src = 'targets/mask.png' width = '100%;'>","75","pos","CS","CS","1","category1/CS7.png","targets/33.png","1","indirect","11",""
"","html-keyboard-response","138","444647","0.0-8.0-0.12","vfs2r4l8qp","many_one","0","indirect_first","0","158463NM","0","19","1","1","3","1","Ich musste mich erst an die Geschwindigkeit gewöhnen, aber es ist schon interessant gewesen.","0","1","0","null","","","<div style=""font-size:60px;"">+</div>","null","","","","","","","","","",""
"","html-keyboard-response","139","444739","0.0-8.0-1.12","vfs2r4l8qp","many_one","0","indirect_first","0","158463NM","0","19","1","1","3","1","Ich musste mich erst an die Geschwindigkeit gewöhnen, aber es ist schon interessant gewesen.","0","1","0","null","","","<img src = 'category1/CS6.png' width = '100%;'>","null","","","","","","","","","",""
"","html-keyboard-response","140","444992","0.0-8.0-2.12","vfs2r4l8qp","many_one","0","indirect_first","0","158463NM","0","19","1","1","3","1","Ich musste mich erst an die Geschwindigkeit gewöhnen, aber es ist schon interessant gewesen.","0","1","0","null","","","<img src = 'targets/13.png' width = '100%;'>","null","","","","","","","","","",""
"","html-keyboard-response","141","446920","0.0-8.0-3.12","vfs2r4l8qp","many_one","0","indirect_first","0","158463NM","0","19","1","1","3","1","Ich musste mich erst an die Geschwindigkeit gewöhnen, aber es ist schon interessant gewesen.","0","1","0","1927.5250000646338","","","<img src = 'targets/mask.png' width = '100%;'>","68","pos","CS","CS","1","category1/CS6.png","targets/13.png","0","indirect","12",""
"","html-keyboard-response","142","448437","0.0-8.0-0.13","vfs2r4l8qp","many_one","0","indirect_first","0","158463NM","0","19","1","1","3","1","Ich musste mich erst an die Geschwindigkeit gewöhnen, aber es ist schon interessant gewesen.","0","1","0","null","","","<div style=""font-size:60px;"">+</div>","null","","","","","","","","","",""
"","html-keyboard-response","143","448529","0.0-8.0-1.13","vfs2r4l8qp","many_one","0","indirect_first","0","158463NM","0","19","1","1","3","1","Ich musste mich erst an die Geschwindigkeit gewöhnen, aber es ist schon interessant gewesen.","0","1","0","null","","","<img src = 'category3/CS2.png' width = '100%;'>","null","","","","","","","","","",""
"","html-keyboard-response","144","448782","0.0-8.0-2.13","vfs2r4l8qp","many_one","0","indirect_first","0","158463NM","0","19","1","1","3","1","Ich musste mich erst an die Geschwindigkeit gewöhnen, aber es ist schon interessant gewesen.","0","1","0","null","","","<img src = 'targets/7.png' width = '100%;'>","null","","","","","","","","","",""
"","html-keyboard-response","145","449259","0.0-8.0-3.13","vfs2r4l8qp","many_one","0","indirect_first","0","158463NM","0","19","1","1","3","1","Ich musste mich erst an die Geschwindigkeit gewöhnen, aber es ist schon interessant gewesen.","0","1","0","476.5549999428913","","","<img src = 'targets/mask.png' width = '100%;'>","68","neg","CS","CS","3","category3/CS2.png","targets/7.png","0","indirect","13",""
"","html-keyboard-response","146","450761","0.0-8.0-0.14","vfs2r4l8qp","many_one","0","indirect_first","0","158463NM","0","19","1","1","3","1","Ich musste mich erst an die Geschwindigkeit gewöhnen, aber es ist schon interessant gewesen.","0","1","0","null","","","<div style=""font-size:60px;"">+</div>","null","","","","","","","","","",""
"","html-keyboard-response","147","450851","0.0-8.0-1.14","vfs2r4l8qp","many_one","0","indirect_first","0","158463NM","0","19","1","1","3","1","Ich musste mich erst an die Geschwindigkeit gewöhnen, aber es ist schon interessant gewesen.","0","1","0","null","","","<img src = 'category4/CS2.png' width = '100%;'>","null","","","","","","","","","",""
"","html-keyboard-response","148","451103","0.0-8.0-2.14","vfs2r4l8qp","many_one","0","indirect_first","0","158463NM","0","19","1","1","3","1","Ich musste mich erst an die Geschwindigkeit gewöhnen, aber es ist schon interessant gewesen.","0","1","0","null","","","<img src = 'targets/48.png' width = '100%;'>","null","","","","","","","","","",""
"","html-keyboard-response","149","454071","0.0-8.0-3.14","vfs2r4l8qp","many_one","0","indirect_first","0","158463NM","0","19","1","1","3","1","Ich musste mich erst an die Geschwindigkeit gewöhnen, aber es ist schon interessant gewesen.","0","1","0","2967.46999991592","","","<img src = 'targets/mask.png' width = '100%;'>","68","neg","GS","GSold","4","category4/CS2.png","targets/48.png","0","indirect","14",""
"","html-keyboard-response","150","455576","0.0-8.0-0.15","vfs2r4l8qp","many_one","0","indirect_first","0","158463NM","0","19","1","1","3","1","Ich musste mich erst an die Geschwindigkeit gewöhnen, aber es ist schon interessant gewesen.","0","1","0","null","","","<div style=""font-size:60px;"">+</div>","null","","","","","","","","","",""
"","html-keyboard-response","151","455666","0.0-8.0-1.15","vfs2r4l8qp","many_one","0","indirect_first","0","158463NM","0","19","1","1","3","1","Ich musste mich erst an die Geschwindigkeit gewöhnen, aber es ist schon interessant gewesen.","0","1","0","null","","","<img src = 'category3/CS4.png' width = '100%;'>","null","","","","","","","","","",""
"","html-keyboard-response","152","455919","0.0-8.0-2.15","vfs2r4l8qp","many_one","0","indirect_first","0","158463NM","0","19","1","1","3","1","Ich musste mich erst an die Geschwindigkeit gewöhnen, aber es ist schon interessant gewesen.","0","1","0","null","","","<img src = 'targets/17.png' width = '100%;'>","null","","","","","","","","","",""
"","html-keyboard-response","153","456658","0.0-8.0-3.15","vfs2r4l8qp","many_one","0","indirect_first","0","158463NM","0","19","1","1","3","1","Ich musste mich erst an die Geschwindigkeit gewöhnen, aber es ist schon interessant gewesen.","0","1","0","737.4100000597537","","","<img src = 'targets/mask.png' width = '100%;'>","68","neg","CS","CS","3","category3/CS4.png","targets/17.png","0","indirect","15",""
"","html-keyboard-response","154","458160","0.0-8.0-0.16","vfs2r4l8qp","many_one","0","indirect_first","0","158463NM","0","19","1","1","3","1","Ich musste mich erst an die Geschwindigkeit gewöhnen, aber es ist schon interessant gewesen.","0","1","0","null","","","<div style=""font-size:60px;"">+</div>","null","","","","","","","","","",""
"","html-keyboard-response","155","458251","0.0-8.0-1.16","vfs2r4l8qp","many_one","0","indirect_first","0","158463NM","0","19","1","1","3","1","Ich musste mich erst an die Geschwindigkeit gewöhnen, aber es ist schon interessant gewesen.","0","1","0","null","","","<img src = 'category1/CS2.png' width = '100%;'>","null","","","","","","","","","",""
"","html-keyboard-response","156","458505","0.0-8.0-2.16","vfs2r4l8qp","many_one","0","indirect_first","0","158463NM","0","19","1","1","3","1","Ich musste mich erst an die Geschwindigkeit gewöhnen, aber es ist schon interessant gewesen.","0","1","0","null","","","<img src = 'targets/32.png' width = '100%;'>","null","","","","","","","","","",""
"","html-keyboard-response","157","459378","0.0-8.0-3.16","vfs2r4l8qp","many_one","0","indirect_first","0","158463NM","0","19","1","1","3","1","Ich musste mich erst an die Geschwindigkeit gewöhnen, aber es ist schon interessant gewesen.","0","1","0","873.2849999796599","","","<img src = 'targets/mask.png' width = '100%;'>","75","pos","GS","GSold","1","category1/CS2.png","targets/32.png","1","indirect","16",""
"","html-keyboard-response","158","460881","0.0-8.0-0.17","vfs2r4l8qp","many_one","0","indirect_first","0","158463NM","0","19","1","1","3","1","Ich musste mich erst an die Geschwindigkeit gewöhnen, aber es ist schon interessant gewesen.","0","1","0","null","","","<div style=""font-size:60px;"">+</div>","null","","","","","","","","","",""
"","html-keyboard-response","159","460972","0.0-8.0-1.17","vfs2r4l8qp","many_one","0","indirect_first","0","158463NM","0","19","1","1","3","1","Ich musste mich erst an die Geschwindigkeit gewöhnen, aber es ist schon interessant gewesen.","0","1","0","null","","","<img src = 'category3/CS1.png' width = '100%;'>","null","","","","","","","","","",""
"","html-keyboard-response","160","461224","0.0-8.0-2.17","vfs2r4l8qp","many_one","0","indirect_first","0","158463NM","0","19","1","1","3","1","Ich musste mich erst an die Geschwindigkeit gewöhnen, aber es ist schon interessant gewesen.","0","1","0","null","","","<img src = 'targets/45.png' width = '100%;'>","null","","","","","","","","","",""
"","html-keyboard-response","161","461660","0.0-8.0-3.17","vfs2r4l8qp","many_one","0","indirect_first","0","158463NM","0","19","1","1","3","1","Ich musste mich erst an die Geschwindigkeit gewöhnen, aber es ist schon interessant gewesen.","0","1","0","435.60500000603497","","","<img src = 'targets/mask.png' width = '100%;'>","68","neg","CS","CS","3","category3/CS1.png","targets/45.png","0","indirect","17",""
"","html-keyboard-response","162","463163","0.0-8.0-0.18","vfs2r4l8qp","many_one","0","indirect_first","0","158463NM","0","19","1","1","3","1","Ich musste mich erst an die Geschwindigkeit gewöhnen, aber es ist schon interessant gewesen.","0","1","0","null","","","<div style=""font-size:60px;"">+</div>","null","","","","","","","","","",""
"","html-keyboard-response","163","463255","0.0-8.0-1.18","vfs2r4l8qp","many_one","0","indirect_first","0","158463NM","0","19","1","1","3","1","Ich musste mich erst an die Geschwindigkeit gewöhnen, aber es ist schon interessant gewesen.","0","1","0","null","","","<img src = 'category1/CS5.png' width = '100%;'>","null","","","","","","","","","",""
"","html-keyboard-response","164","463506","0.0-8.0-2.18","vfs2r4l8qp","many_one","0","indirect_first","0","158463NM","0","19","1","1","3","1","Ich musste mich erst an die Geschwindigkeit gewöhnen, aber es ist schon interessant gewesen.","0","1","0","null","","","<img src = 'targets/12.png' width = '100%;'>","null","","","","","","","","","",""
"","html-keyboard-response","165","464935","0.0-8.0-3.18","vfs2r4l8qp","many_one","0","indirect_first","0","158463NM","0","19","1","1","3","1","Ich musste mich erst an die Geschwindigkeit gewöhnen, aber es ist schon interessant gewesen.","0","1","0","1427.7749999891967","","","<img src = 'targets/mask.png' width = '100%;'>","75","pos","CS","CS","1","category1/CS5.png","targets/12.png","1","indirect","18",""
"","html-keyboard-response","166","466437","0.0-8.0-0.19","vfs2r4l8qp","many_one","0","indirect_first","0","158463NM","0","19","1","1","3","1","Ich musste mich erst an die Geschwindigkeit gewöhnen, aber es ist schon interessant gewesen.","0","1","0","null","","","<div style=""font-size:60px;"">+</div>","null","","","","","","","","","",""
"","html-keyboard-response","167","466529","0.0-8.0-1.19","vfs2r4l8qp","many_one","0","indirect_first","0","158463NM","0","19","1","1","3","1","Ich musste mich erst an die Geschwindigkeit gewöhnen, aber es ist schon interessant gewesen.","0","1","0","null","","","<img src = 'category2/CS8.png' width = '100%;'>","null","","","","","","","","","",""
"","html-keyboard-response","168","466782","0.0-8.0-2.19","vfs2r4l8qp","many_one","0","indirect_first","0","158463NM","0","19","1","1","3","1","Ich musste mich erst an die Geschwindigkeit gewöhnen, aber es ist schon interessant gewesen.","0","1","0","null","","","<img src = 'targets/37.png' width = '100%;'>","null","","","","","","","","","",""
"","html-keyboard-response","169","467311","0.0-8.0-3.19","vfs2r4l8qp","many_one","0","indirect_first","0","158463NM","0","19","1","1","3","1","Ich musste mich erst an die Geschwindigkeit gewöhnen, aber es ist schon interessant gewesen.","0","1","0","528.0300000449643","","","<img src = 'targets/mask.png' width = '100%;'>","75","pos","CS","CS","2","category2/CS8.png","targets/37.png","1","indirect","19",""
"","html-keyboard-response","170","468815","0.0-8.0-0.20","vfs2r4l8qp","many_one","0","indirect_first","0","158463NM","0","19","1","1","3","1","Ich musste mich erst an die Geschwindigkeit gewöhnen, aber es ist schon interessant gewesen.","0","1","0","null","","","<div style=""font-size:60px;"">+</div>","null","","","","","","","","","",""
"","html-keyboard-response","171","468906","0.0-8.0-1.20","vfs2r4l8qp","many_one","0","indirect_first","0","158463NM","0","19","1","1","3","1","Ich musste mich erst an die Geschwindigkeit gewöhnen, aber es ist schon interessant gewesen.","0","1","0","null","","","<img src = 'category3/CS9.png' width = '100%;'>","null","","","","","","","","","",""
"","html-keyboard-response","172","469157","0.0-8.0-2.20","vfs2r4l8qp","many_one","0","indirect_first","0","158463NM","0","19","1","1","3","1","Ich musste mich erst an die Geschwindigkeit gewöhnen, aber es ist schon interessant gewesen.","0","1","0","null","","","<img src = 'targets/18.png' width = '100%;'>","null","","","","","","","","","",""
"","html-keyboard-response","173","469549","0.0-8.0-3.20","vfs2r4l8qp","many_one","0","indirect_first","0","158463NM","0","19","1","1","3","1","Ich musste mich erst an die Geschwindigkeit gewöhnen, aber es ist schon interessant gewesen.","0","1","0","391.0599999362603","","","<img src = 'targets/mask.png' width = '100%;'>","68","neg","CS","CS","3","category3/CS9.png","targets/18.png","0","indirect","20",""
"","html-keyboard-response","174","471051","0.0-8.0-0.21","vfs2r4l8qp","many_one","0","indirect_first","0","158463NM","0","19","1","1","3","1","Ich musste mich erst an die Geschwindigkeit gewöhnen, aber es ist schon interessant gewesen.","0","1","0","null","","","<div style=""font-size:60px;"">+</div>","null","","","","","","","","","",""
"","html-keyboard-response","175","471142","0.0-8.0-1.21","vfs2r4l8qp","many_one","0","indirect_first","0","158463NM","0","19","1","1","3","1","Ich musste mich erst an die Geschwindigkeit gewöhnen, aber es ist schon interessant gewesen.","0","1","0","null","","","<img src = 'category1/CS10.png' width = '100%;'>","null","","","","","","","","","",""
"","html-keyboard-response","176","471394","0.0-8.0-2.21","vfs2r4l8qp","many_one","0","indirect_first","0","158463NM","0","19","1","1","3","1","Ich musste mich erst an die Geschwindigkeit gewöhnen, aber es ist schon interessant gewesen.","0","1","0","null","","","<img src = 'targets/46.png' width = '100%;'>","null","","","","","","","","","",""
"","html-keyboard-response","177","472176","0.0-8.0-3.21","vfs2r4l8qp","many_one","0","indirect_first","0","158463NM","0","19","1","1","3","1","Ich musste mich erst an die Geschwindigkeit gewöhnen, aber es ist schon interessant gewesen.","0","1","0","781.25","","","<img src = 'targets/mask.png' width = '100%;'>","68","pos","CS","CS","1","category1/CS10.png","targets/46.png","0","indirect","21",""
"","html-keyboard-response","178","473680","0.0-8.0-0.22","vfs2r4l8qp","many_one","0","indirect_first","0","158463NM","0","19","1","1","3","1","Ich musste mich erst an die Geschwindigkeit gewöhnen, aber es ist schon interessant gewesen.","0","1","0","null","","","<div style=""font-size:60px;"">+</div>","null","","","","","","","","","",""
"","html-keyboard-response","179","473770","0.0-8.0-1.22","vfs2r4l8qp","many_one","0","indirect_first","0","158463NM","0","19","1","1","3","1","Ich musste mich erst an die Geschwindigkeit gewöhnen, aber es ist schon interessant gewesen.","0","1","0","null","","","<img src = 'category2/CS5.png' width = '100%;'>","null","","","","","","","","","",""
"","html-keyboard-response","180","474025","0.0-8.0-2.22","vfs2r4l8qp","many_one","0","indirect_first","0","158463NM","0","19","1","1","3","1","Ich musste mich erst an die Geschwindigkeit gewöhnen, aber es ist schon interessant gewesen.","0","1","0","null","","","<img src = 'targets/42.png' width = '100%;'>","null","","","","","","","","","",""
"","html-keyboard-response","181","474983","0.0-8.0-3.22","vfs2r4l8qp","many_one","0","indirect_first","0","158463NM","0","19","1","1","3","1","Ich musste mich erst an die Geschwindigkeit gewöhnen, aber es ist schon interessant gewesen.","0","1","0","957.3350000428036","","","<img src = 'targets/mask.png' width = '100%;'>","75","pos","CS","CS","2","category2/CS5.png","targets/42.png","1","indirect","22",""
"","html-keyboard-response","182","476485","0.0-8.0-0.23","vfs2r4l8qp","many_one","0","indirect_first","0","158463NM","0","19","1","1","3","1","Ich musste mich erst an die Geschwindigkeit gewöhnen, aber es ist schon interessant gewesen.","0","1","0","null","","","<div style=""font-size:60px;"">+</div>","null","","","","","","","","","",""
"","html-keyboard-response","183","476577","0.0-8.0-1.23","vfs2r4l8qp","many_one","0","indirect_first","0","158463NM","0","19","1","1","3","1","Ich musste mich erst an die Geschwindigkeit gewöhnen, aber es ist schon interessant gewesen.","0","1","0","null","","","<img src = 'category1/CS4.png' width = '100%;'>","null","","","","","","","","","",""
"","html-keyboard-response","184","476829","0.0-8.0-2.23","vfs2r4l8qp","many_one","0","indirect_first","0","158463NM","0","19","1","1","3","1","Ich musste mich erst an die Geschwindigkeit gewöhnen, aber es ist schon interessant gewesen.","0","1","0","null","","","<img src = 'targets/40.png' width = '100%;'>","null","","","","","","","","","",""
"","html-keyboard-response","185","478047","0.0-8.0-3.23","vfs2r4l8qp","many_one","0","indirect_first","0","158463NM","0","19","1","1","3","1","Ich musste mich erst an die Geschwindigkeit gewöhnen, aber es ist schon interessant gewesen.","0","1","0","1217.7099999971688","","","<img src = 'targets/mask.png' width = '100%;'>","75","pos","CS","CS","1","category1/CS4.png","targets/40.png","1","indirect","23",""
"","survey-html-form","186","493454","0.0-9.0","vfs2r4l8qp","many_one","0","indirect_first","0","158463NM","0","19","1","1","3","1","Ich musste mich erst an die Geschwindigkeit gewöhnen, aber es ist schon interessant gewesen.","0","1","0","14905.800000065938","","{}","","","","","","","","","","","",""
"","html-keyboard-response","187","496456","0.0-10.0-0.0","vfs2r4l8qp","many_one","0","indirect_first","0","158463NM","0","19","1","1","3","1","Ich musste mich erst an die Geschwindigkeit gewöhnen, aber es ist schon interessant gewesen.","0","1","0","null","","","<div style=""font-size:60px;"">+</div>","null","","","","","","","","","",""
"","html-keyboard-response","188","496547","0.0-10.0-1.0","vfs2r4l8qp","many_one","0","indirect_first","0","158463NM","0","19","1","1","3","1","Ich musste mich erst an die Geschwindigkeit gewöhnen, aber es ist schon interessant gewesen.","0","1","0","null","","","<img src = 'category2/men.png' width = '100%;'>","null","","","","","","","","","",""
"","html-keyboard-response","189","496800","0.0-10.0-2.0","vfs2r4l8qp","many_one","0","indirect_first","0","158463NM","0","19","1","1","3","1","Ich musste mich erst an die Geschwindigkeit gewöhnen, aber es ist schon interessant gewesen.","0","1","0","null","","","<img src = 'targets/6.png' width = '100%;'>","null","","","","","","","","","",""
"","html-keyboard-response","190","504519","0.0-10.0-3.0","vfs2r4l8qp","many_one","0","indirect_first","0","158463NM","0","19","1","1","3","1","Ich musste mich erst an die Geschwindigkeit gewöhnen, aber es ist schon interessant gewesen.","0","1","0","7718.145000049844","","","<img src = 'targets/mask.png' width = '100%;'>","75","pos","GS","abstract","2","category2/men.png","targets/6.png","1","indirect","24",""
"","html-keyboard-response","191","506021","0.0-10.0-0.1","vfs2r4l8qp","many_one","0","indirect_first","0","158463NM","0","19","1","1","3","1","Ich musste mich erst an die Geschwindigkeit gewöhnen, aber es ist schon interessant gewesen.","0","1","0","null","","","<div style=""font-size:60px;"">+</div>","null","","","","","","","","","",""
"","html-keyboard-response","192","506112","0.0-10.0-1.1","vfs2r4l8qp","many_one","0","indirect_first","0","158463NM","0","19","1","1","3","1","Ich musste mich erst an die Geschwindigkeit gewöhnen, aber es ist schon interessant gewesen.","0","1","0","null","","","<img src = 'category3/GS2.png' width = '100%;'>","null","","","","","","","","","",""
"","html-keyboard-response","193","506365","0.0-10.0-2.1","vfs2r4l8qp","many_one","0","indirect_first","0","158463NM","0","19","1","1","3","1","Ich musste mich erst an die Geschwindigkeit gewöhnen, aber es ist schon interessant gewesen.","0","1","0","null","","","<img src = 'targets/39.png' width = '100%;'>","null","","","","","","","","","",""
"","html-keyboard-response","194","515654","0.0-10.0-3.1","vfs2r4l8qp","many_one","0","indirect_first","0","158463NM","0","19","1","1","3","1","Ich musste mich erst an die Geschwindigkeit gewöhnen, aber es ist schon interessant gewesen.","0","1","0","9288.484999909997","","","<img src = 'targets/mask.png' width = '100%;'>","68","neg","GS","GSnew","3","category3/GS2.png","targets/39.png","0","indirect","25",""
"","html-keyboard-response","195","517157","0.0-10.0-0.2","vfs2r4l8qp","many_one","0","indirect_first","0","158463NM","0","19","1","1","3","1","Ich musste mich erst an die Geschwindigkeit gewöhnen, aber es ist schon interessant gewesen.","0","1","0","null","","","<div style=""font-size:60px;"">+</div>","null","","","","","","","","","",""
"","html-keyboard-response","196","517248","0.0-10.0-1.2","vfs2r4l8qp","many_one","0","indirect_first","0","158463NM","0","19","1","1","3","1","Ich musste mich erst an die Geschwindigkeit gewöhnen, aber es ist schon interessant gewesen.","0","1","0","null","","","<img src = 'category3/GS3.png' width = '100%;'>","null","","","","","","","","","",""
"","html-keyboard-response","197","517500","0.0-10.0-2.2","vfs2r4l8qp","many_one","0","indirect_first","0","158463NM","0","19","1","1","3","1","Ich musste mich erst an die Geschwindigkeit gewöhnen, aber es ist schon interessant gewesen.","0","1","0","null","","","<img src = 'targets/10.png' width = '100%;'>","null","","","","","","","","","",""
"","html-keyboard-response","198","518999","0.0-10.0-3.2","vfs2r4l8qp","many_one","0","indirect_first","0","158463NM","0","19","1","1","3","1","Ich musste mich erst an die Geschwindigkeit gewöhnen, aber es ist schon interessant gewesen.","0","1","0","1498.1149999657646","","","<img src = 'targets/mask.png' width = '100%;'>","68","neg","GS","GSnew","3","category3/GS3.png","targets/10.png","0","indirect","26",""
"","html-keyboard-response","199","520501","0.0-10.0-0.3","vfs2r4l8qp","many_one","0","indirect_first","0","158463NM","0","19","1","1","3","1","Ich musste mich erst an die Geschwindigkeit gewöhnen, aber es ist schon interessant gewesen.","0","1","0","null","","","<div style=""font-size:60px;"">+</div>","null","","","","","","","","","",""
"","html-keyboard-response","200","520592","0.0-10.0-1.3","vfs2r4l8qp","many_one","0","indirect_first","0","158463NM","0","19","1","1","3","1","Ich musste mich erst an die Geschwindigkeit gewöhnen, aber es ist schon interessant gewesen.","0","1","0","null","","","<img src = 'category3/GS1.png' width = '100%;'>","null","","","","","","","","","",""
"","html-keyboard-response","201","520844","0.0-10.0-2.3","vfs2r4l8qp","many_one","0","indirect_first","0","158463NM","0","19","1","1","3","1","Ich musste mich erst an die Geschwindigkeit gewöhnen, aber es ist schon interessant gewesen.","0","1","0","null","","","<img src = 'targets/41.png' width = '100%;'>","null","","","","","","","","","",""
"","html-keyboard-response","202","523255","0.0-10.0-3.3","vfs2r4l8qp","many_one","0","indirect_first","0","158463NM","0","19","1","1","3","1","Ich musste mich erst an die Geschwindigkeit gewöhnen, aber es ist schon interessant gewesen.","0","1","0","2410.5449999915436","","","<img src = 'targets/mask.png' width = '100%;'>","68","neg","GS","GSnew","3","category3/GS1.png","targets/41.png","0","indirect","27",""
"","html-keyboard-response","203","524757","0.0-10.0-0.4","vfs2r4l8qp","many_one","0","indirect_first","0","158463NM","0","19","1","1","3","1","Ich musste mich erst an die Geschwindigkeit gewöhnen, aber es ist schon interessant gewesen.","0","1","0","null","","","<div style=""font-size:60px;"">+</div>","null","","","","","","","","","",""
"","html-keyboard-response","204","524848","0.0-10.0-1.4","vfs2r4l8qp","many_one","0","indirect_first","0","158463NM","0","19","1","1","3","1","Ich musste mich erst an die Geschwindigkeit gewöhnen, aber es ist schon interessant gewesen.","0","1","0","null","","","<img src = 'category2/GS3.png' width = '100%;'>","null","","","","","","","","","",""
"","html-keyboard-response","205","525101","0.0-10.0-2.4","vfs2r4l8qp","many_one","0","indirect_first","0","158463NM","0","19","1","1","3","1","Ich musste mich erst an die Geschwindigkeit gewöhnen, aber es ist schon interessant gewesen.","0","1","0","null","","","<img src = 'targets/1.png' width = '100%;'>","null","","","","","","","","","",""
"","html-keyboard-response","206","525841","0.0-10.0-3.4","vfs2r4l8qp","many_one","0","indirect_first","0","158463NM","0","19","1","1","3","1","Ich musste mich erst an die Geschwindigkeit gewöhnen, aber es ist schon interessant gewesen.","0","1","0","739.0949999680743","","","<img src = 'targets/mask.png' width = '100%;'>","75","pos","GS","GSnew","2","category2/GS3.png","targets/1.png","1","indirect","28",""
"","html-keyboard-response","207","527344","0.0-10.0-0.5","vfs2r4l8qp","many_one","0","indirect_first","0","158463NM","0","19","1","1","3","1","Ich musste mich erst an die Geschwindigkeit gewöhnen, aber es ist schon interessant gewesen.","0","1","0","null","","","<div style=""font-size:60px;"">+</div>","null","","","","","","","","","",""
"","html-keyboard-response","208","527436","0.0-10.0-1.5","vfs2r4l8qp","many_one","0","indirect_first","0","158463NM","0","19","1","1","3","1","Ich musste mich erst an die Geschwindigkeit gewöhnen, aber es ist schon interessant gewesen.","0","1","0","null","","","<img src = 'category3/wang.png' width = '100%;'>","null","","","","","","","","","",""
"","html-keyboard-response","209","527689","0.0-10.0-2.5","vfs2r4l8qp","many_one","0","indirect_first","0","158463NM","0","19","1","1","3","1","Ich musste mich erst an die Geschwindigkeit gewöhnen, aber es ist schon interessant gewesen.","0","1","0","null","","","<img src = 'targets/28.png' width = '100%;'>","null","","","","","","","","","",""
"","html-keyboard-response","210","528676","0.0-10.0-3.5","vfs2r4l8qp","many_one","0","indirect_first","0","158463NM","0","19","1","1","3","1","Ich musste mich erst an die Geschwindigkeit gewöhnen, aber es ist schon interessant gewesen.","0","1","0","986.159999971278","","","<img src = 'targets/mask.png' width = '100%;'>","75","neg","GS","abstract","3","category3/wang.png","targets/28.png","1","indirect","29",""
"","html-keyboard-response","211","530178","0.0-10.0-0.6","vfs2r4l8qp","many_one","0","indirect_first","0","158463NM","0","19","1","1","3","1","Ich musste mich erst an die Geschwindigkeit gewöhnen, aber es ist schon interessant gewesen.","0","1","0","null","","","<div style=""font-size:60px;"">+</div>","null","","","","","","","","","",""
"","html-keyboard-response","212","530270","0.0-10.0-1.6","vfs2r4l8qp","many_one","0","indirect_first","0","158463NM","0","19","1","1","3","1","Ich musste mich erst an die Geschwindigkeit gewöhnen, aber es ist schon interessant gewesen.","0","1","0","null","","","<img src = 'category1/CS1.png' width = '100%;'>","null","","","","","","","","","",""
"","html-keyboard-response","213","530522","0.0-10.0-2.6","vfs2r4l8qp","many_one","0","indirect_first","0","158463NM","0","19","1","1","3","1","Ich musste mich erst an die Geschwindigkeit gewöhnen, aber es ist schon interessant gewesen.","0","1","0","null","","","<img src = 'targets/34.png' width = '100%;'>","null","","","","","","","","","",""
"","html-keyboard-response","214","530981","0.0-10.0-3.6","vfs2r4l8qp","many_one","0","indirect_first","0","158463NM","0","19","1","1","3","1","Ich musste mich erst an die Geschwindigkeit gewöhnen, aber es ist schon interessant gewesen.","0","1","0","458.50499998778105","","","<img src = 'targets/mask.png' width = '100%;'>","75","pos","GS","GSold","1","category1/CS1.png","targets/34.png","1","indirect","30",""
"","html-keyboard-response","215","532482","0.0-10.0-0.7","vfs2r4l8qp","many_one","0","indirect_first","0","158463NM","0","19","1","1","3","1","Ich musste mich erst an die Geschwindigkeit gewöhnen, aber es ist schon interessant gewesen.","0","1","0","null","","","<div style=""font-size:60px;"">+</div>","null","","","","","","","","","",""
"","html-keyboard-response","216","532573","0.0-10.0-1.7","vfs2r4l8qp","many_one","0","indirect_first","0","158463NM","0","19","1","1","3","1","Ich musste mich erst an die Geschwindigkeit gewöhnen, aber es ist schon interessant gewesen.","0","1","0","null","","","<img src = 'category4/lin.png' width = '100%;'>","null","","","","","","","","","",""
"","html-keyboard-response","217","532825","0.0-10.0-2.7","vfs2r4l8qp","many_one","0","indirect_first","0","158463NM","0","19","1","1","3","1","Ich musste mich erst an die Geschwindigkeit gewöhnen, aber es ist schon interessant gewesen.","0","1","0","null","","","<img src = 'targets/3.png' width = '100%;'>","null","","","","","","","","","",""
"","html-keyboard-response","218","534184","0.0-10.0-3.7","vfs2r4l8qp","many_one","0","indirect_first","0","158463NM","0","19","1","1","3","1","Ich musste mich erst an die Geschwindigkeit gewöhnen, aber es ist schon interessant gewesen.","0","1","0","1358.4049999481067","","","<img src = 'targets/mask.png' width = '100%;'>","68","neg","GS","abstract","4","category4/lin.png","targets/3.png","0","indirect","31",""
"","html-keyboard-response","219","535686","0.0-10.0-0.8","vfs2r4l8qp","many_one","0","indirect_first","0","158463NM","0","19","1","1","3","1","Ich musste mich erst an die Geschwindigkeit gewöhnen, aber es ist schon interessant gewesen.","0","1","0","null","","","<div style=""font-size:60px;"">+</div>","null","","","","","","","","","",""
"","html-keyboard-response","220","535778","0.0-10.0-1.8","vfs2r4l8qp","many_one","0","indirect_first","0","158463NM","0","19","1","1","3","1","Ich musste mich erst an die Geschwindigkeit gewöhnen, aber es ist schon interessant gewesen.","0","1","0","null","","","<img src = 'category1/ma.png' width = '100%;'>","null","","","","","","","","","",""
"","html-keyboard-response","221","536031","0.0-10.0-2.8","vfs2r4l8qp","many_one","0","indirect_first","0","158463NM","0","19","1","1","3","1","Ich musste mich erst an die Geschwindigkeit gewöhnen, aber es ist schon interessant gewesen.","0","1","0","null","","","<img src = 'targets/29.png' width = '100%;'>","null","","","","","","","","","",""
"","html-keyboard-response","222","536712","0.0-10.0-3.8","vfs2r4l8qp","many_one","0","indirect_first","0","158463NM","0","19","1","1","3","1","Ich musste mich erst an die Geschwindigkeit gewöhnen, aber es ist schon interessant gewesen.","0","1","0","680.945000029169","","","<img src = 'targets/mask.png' width = '100%;'>","75","pos","GS","abstract","1","category1/ma.png","targets/29.png","1","indirect","32",""
"","html-keyboard-response","223","538215","0.0-10.0-0.9","vfs2r4l8qp","many_one","0","indirect_first","0","158463NM","0","19","1","1","3","1","Ich musste mich erst an die Geschwindigkeit gewöhnen, aber es ist schon interessant gewesen.","0","1","0","null","","","<div style=""font-size:60px;"">+</div>","null","","","","","","","","","",""
"","html-keyboard-response","224","538306","0.0-10.0-1.9","vfs2r4l8qp","many_one","0","indirect_first","0","158463NM","0","19","1","1","3","1","Ich musste mich erst an die Geschwindigkeit gewöhnen, aber es ist schon interessant gewesen.","0","1","0","null","","","<img src = 'category1/CS9.png' width = '100%;'>","null","","","","","","","","","",""
"","html-keyboard-response","225","538558","0.0-10.0-2.9","vfs2r4l8qp","many_one","0","indirect_first","0","158463NM","0","19","1","1","3","1","Ich musste mich erst an die Geschwindigkeit gewöhnen, aber es ist schon interessant gewesen.","0","1","0","null","","","<img src = 'targets/47.png' width = '100%;'>","null","","","","","","","","","",""
"","html-keyboard-response","226","539585","0.0-10.0-3.9","vfs2r4l8qp","many_one","0","indirect_first","0","158463NM","0","19","1","1","3","1","Ich musste mich erst an die Geschwindigkeit gewöhnen, aber es ist schon interessant gewesen.","0","1","0","1025.7500000298023","","","<img src = 'targets/mask.png' width = '100%;'>","75","pos","GS","GSold","1","category1/CS9.png","targets/47.png","1","indirect","33",""
"","html-keyboard-response","227","541087","0.0-10.0-0.10","vfs2r4l8qp","many_one","0","indirect_first","0","158463NM","0","19","1","1","3","1","Ich musste mich erst an die Geschwindigkeit gewöhnen, aber es ist schon interessant gewesen.","0","1","0","null","","","<div style=""font-size:60px;"">+</div>","null","","","","","","","","","",""
"","html-keyboard-response","228","541178","0.0-10.0-1.10","vfs2r4l8qp","many_one","0","indirect_first","0","158463NM","0","19","1","1","3","1","Ich musste mich erst an die Geschwindigkeit gewöhnen, aber es ist schon interessant gewesen.","0","1","0","null","","","<img src = 'category3/CS6.png' width = '100%;'>","null","","","","","","","","","",""
"","html-keyboard-response","229","541429","0.0-10.0-2.10","vfs2r4l8qp","many_one","0","indirect_first","0","158463NM","0","19","1","1","3","1","Ich musste mich erst an die Geschwindigkeit gewöhnen, aber es ist schon interessant gewesen.","0","1","0","null","","","<img src = 'targets/19.png' width = '100%;'>","null","","","","","","","","","",""
"","html-keyboard-response","230","541953","0.0-10.0-3.10","vfs2r4l8qp","many_one","0","indirect_first","0","158463NM","0","19","1","1","3","1","Ich musste mich erst an die Geschwindigkeit gewöhnen, aber es ist schon interessant gewesen.","0","1","0","523.3849999494851","","","<img src = 'targets/mask.png' width = '100%;'>","68","neg","GS","GSold","3","category3/CS6.png","targets/19.png","0","indirect","34",""
"","html-keyboard-response","231","543456","0.0-10.0-0.11","vfs2r4l8qp","many_one","0","indirect_first","0","158463NM","0","19","1","1","3","1","Ich musste mich erst an die Geschwindigkeit gewöhnen, aber es ist schon interessant gewesen.","0","1","0","null","","","<div style=""font-size:60px;"">+</div>","null","","","","","","","","","",""
"","html-keyboard-response","232","543548","0.0-10.0-1.11","vfs2r4l8qp","many_one","0","indirect_first","0","158463NM","0","19","1","1","3","1","Ich musste mich erst an die Geschwindigkeit gewöhnen, aber es ist schon interessant gewesen.","0","1","0","null","","","<img src = 'category1/GS2.png' width = '100%;'>","null","","","","","","","","","",""
"","html-keyboard-response","233","543801","0.0-10.0-2.11","vfs2r4l8qp","many_one","0","indirect_first","0","158463NM","0","19","1","1","3","1","Ich musste mich erst an die Geschwindigkeit gewöhnen, aber es ist schon interessant gewesen.","0","1","0","null","","","<img src = 'targets/38.png' width = '100%;'>","null","","","","","","","","","",""
"","html-keyboard-response","234","544157","0.0-10.0-3.11","vfs2r4l8qp","many_one","0","indirect_first","0","158463NM","0","19","1","1","3","1","Ich musste mich erst an die Geschwindigkeit gewöhnen, aber es ist schon interessant gewesen.","0","1","0","355.84500001277775","","","<img src = 'targets/mask.png' width = '100%;'>","75","pos","GS","GSnew","1","category1/GS2.png","targets/38.png","1","indirect","35",""
"","html-keyboard-response","235","545660","0.0-10.0-0.12","vfs2r4l8qp","many_one","0","indirect_first","0","158463NM","0","19","1","1","3","1","Ich musste mich erst an die Geschwindigkeit gewöhnen, aber es ist schon interessant gewesen.","0","1","0","null","","","<div style=""font-size:60px;"">+</div>","null","","","","","","","","","",""
"","html-keyboard-response","236","545751","0.0-10.0-1.12","vfs2r4l8qp","many_one","0","indirect_first","0","158463NM","0","19","1","1","3","1","Ich musste mich erst an die Geschwindigkeit gewöhnen, aber es ist schon interessant gewesen.","0","1","0","null","","","<img src = 'category2/GS1.png' width = '100%;'>","null","","","","","","","","","",""
"","html-keyboard-response","237","546003","0.0-10.0-2.12","vfs2r4l8qp","many_one","0","indirect_first","0","158463NM","0","19","1","1","3","1","Ich musste mich erst an die Geschwindigkeit gewöhnen, aber es ist schon interessant gewesen.","0","1","0","null","","","<img src = 'targets/35.png' width = '100%;'>","null","","","","","","","","","",""
"","html-keyboard-response","238","546499","0.0-10.0-3.12","vfs2r4l8qp","many_one","0","indirect_first","0","158463NM","0","19","1","1","3","1","Ich musste mich erst an die Geschwindigkeit gewöhnen, aber es ist schon interessant gewesen.","0","1","0","495.2349999221042","","","<img src = 'targets/mask.png' width = '100%;'>","75","pos","GS","GSnew","2","category2/GS1.png","targets/35.png","1","indirect","36",""
"","html-keyboard-response","239","548001","0.0-10.0-0.13","vfs2r4l8qp","many_one","0","indirect_first","0","158463NM","0","19","1","1","3","1","Ich musste mich erst an die Geschwindigkeit gewöhnen, aber es ist schon interessant gewesen.","0","1","0","null","","","<div style=""font-size:60px;"">+</div>","null","","","","","","","","","",""
"","html-keyboard-response","240","548093","0.0-10.0-1.13","vfs2r4l8qp","many_one","0","indirect_first","0","158463NM","0","19","1","1","3","1","Ich musste mich erst an die Geschwindigkeit gewöhnen, aber es ist schon interessant gewesen.","0","1","0","null","","","<img src = 'category4/GS1.png' width = '100%;'>","null","","","","","","","","","",""
"","html-keyboard-response","241","548345","0.0-10.0-2.13","vfs2r4l8qp","many_one","0","indirect_first","0","158463NM","0","19","1","1","3","1","Ich musste mich erst an die Geschwindigkeit gewöhnen, aber es ist schon interessant gewesen.","0","1","0","null","","","<img src = 'targets/14.png' width = '100%;'>","null","","","","","","","","","",""
