"success","trial_type","trial_index","time_elapsed","internal_node_id","subject","condition","condition_code","measure","measure_code","codeword","gender","age","education","chinese","fach","handedness","comment","hinschauen","ablenkung","gewissenhaft","rt","url","responses","stimulus","key_press","val","type","type_specific","category","cs_selected","target","indirect","task","nr_pres","response"
"true","fullscreen","0","3685","0.0-0.0","r0rjyglh94","one_one","1","indirect_first","0","ar06rg30","1","21","1","1","3","1","","0","1","0","","","","","","","","","","","","","","",""
"","external-html","1","37259","0.0-1.0","r0rjyglh94","one_one","1","indirect_first","0","ar06rg30","1","21","1","1","3","1","","0","1","0","33515.54500008933","text/information.html","","","","","","","","","","","","",""
"","external-html","2","44867","0.0-2.0","r0rjyglh94","one_one","1","indirect_first","0","ar06rg30","1","21","1","1","3","1","","0","1","0","7525.49000014551","text/consent.html","","","","","","","","","","","","",""
"","survey-html-form","3","95140","0.0-3.0","r0rjyglh94","one_one","1","indirect_first","0","ar06rg30","1","21","1","1","3","1","","0","1","0","50270.14000015333","","{""codeword_enter"":""ar06rg30""}","","","","","","","","","","","",""
"","survey-html-form","4","119701","0.0-4.0","r0rjyglh94","one_one","1","indirect_first","0","ar06rg30","1","21","1","1","3","1","","0","1","0","24557.090000016615","","{""age"":""21"",""education"":""1"",""subject"":""3"",""gender"":""1"",""handedness"":""1"",""chinese"":""1""}","","","","","","","","","","","",""
"","survey-html-form","5","131587","0.0-5.0","r0rjyglh94","one_one","1","indirect_first","0","ar06rg30","1","21","1","1","3","1","","0","1","0","11883.549999911338","","{}","","","","","","","","","","","",""
"","html-keyboard-response","6","135607","0.0-6.0-0.0-0.0","r0rjyglh94","one_one","1","indirect_first","0","ar06rg30","1","21","1","1","3","1","","0","1","0","null","","","<div class = 'row'><div class = 'column'><img src = 'category3/CS5.png' width = '70%;'></div><div class = 'column'><img src = 'usneg/9635.2.bmp' width = '100%;'></div></div>","null","neg","CS","CS","3","category3/CS5.png","","","","",""
"","html-keyboard-response","7","138136","0.0-6.0-0.0-0.1","r0rjyglh94","one_one","1","indirect_first","0","ar06rg30","1","21","1","1","3","1","","0","1","0","null","","","<div class = 'row'><div class = 'column'><img src = 'uspos/8461.bmp' width = '100%;'></div><div class = 'column'><img src = 'category4/CS4.png' width = '70%;'></div></div>","null","pos","CS","CS","4","category4/CS4.png","","","","",""
"","html-keyboard-response","8","140668","0.0-6.0-0.0-0.2","r0rjyglh94","one_one","1","indirect_first","0","ar06rg30","1","21","1","1","3","1","","0","1","0","null","","","<div class = 'row'><div class = 'column'><img src = 'category3/CS5.png' width = '70%;'></div><div class = 'column'><img src = 'usneg/9635.2.bmp' width = '100%;'></div></div>","null","neg","CS","CS","3","category3/CS5.png","","","","",""
"","html-keyboard-response","9","143198","0.0-6.0-0.0-0.3","r0rjyglh94","one_one","1","indirect_first","0","ar06rg30","1","21","1","1","3","1","","0","1","0","null","","","<div class = 'row'><div class = 'column'><img src = 'category1/CS9.png' width = '70%;'></div><div class = 'column'><img src = 'usneg/6570.1.bmp' width = '100%;'></div></div>","null","neg","CS","CS","1","category1/CS9.png","","","","",""
"","html-keyboard-response","10","145729","0.0-6.0-0.0-0.4","r0rjyglh94","one_one","1","indirect_first","0","ar06rg30","1","21","1","1","3","1","","0","1","0","null","","","<div class = 'row'><div class = 'column'><img src = 'category3/CS5.png' width = '70%;'></div><div class = 'column'><img src = 'usneg/9635.2.bmp' width = '100%;'></div></div>","null","neg","CS","CS","3","category3/CS5.png","","","","",""
"","html-keyboard-response","11","148271","0.0-6.0-0.0-0.5","r0rjyglh94","one_one","1","indirect_first","0","ar06rg30","1","21","1","1","3","1","","0","1","0","null","","","<div class = 'row'><div class = 'column'><img src = 'uspos/7325.bmp' width = '100%;'></div><div class = 'column'><img src = 'category2/CS9.png' width = '70%;'></div></div>","null","pos","CS","CS","2","category2/CS9.png","","","","",""
"","html-keyboard-response","12","150791","0.0-6.0-0.0-0.6","r0rjyglh94","one_one","1","indirect_first","0","ar06rg30","1","21","1","1","3","1","","0","1","0","null","","","<div class = 'row'><div class = 'column'><img src = 'uspos/8461.bmp' width = '100%;'></div><div class = 'column'><img src = 'category4/CS4.png' width = '70%;'></div></div>","null","pos","CS","CS","4","category4/CS4.png","","","","",""
"","html-keyboard-response","13","153324","0.0-6.0-0.0-0.7","r0rjyglh94","one_one","1","indirect_first","0","ar06rg30","1","21","1","1","3","1","","0","1","0","null","","","<div class = 'row'><div class = 'column'><img src = 'category2/CS9.png' width = '70%;'></div><div class = 'column'><img src = 'uspos/7325.bmp' width = '100%;'></div></div>","null","pos","CS","CS","2","category2/CS9.png","","","","",""
"","html-keyboard-response","14","155854","0.0-6.0-0.0-0.8","r0rjyglh94","one_one","1","indirect_first","0","ar06rg30","1","21","1","1","3","1","","0","1","0","null","","","<div class = 'row'><div class = 'column'><img src = 'usneg/9635.2.bmp' width = '100%;'></div><div class = 'column'><img src = 'category3/CS5.png' width = '70%;'></div></div>","null","neg","CS","CS","3","category3/CS5.png","","","","",""
"","html-keyboard-response","15","158385","0.0-6.0-0.0-0.9","r0rjyglh94","one_one","1","indirect_first","0","ar06rg30","1","21","1","1","3","1","","0","1","0","null","","","<div class = 'row'><div class = 'column'><img src = 'usneg/6570.1.bmp' width = '100%;'></div><div class = 'column'><img src = 'category1/CS9.png' width = '70%;'></div></div>","null","neg","CS","CS","1","category1/CS9.png","","","","",""
"","html-keyboard-response","16","160905","0.0-6.0-0.0-0.10","r0rjyglh94","one_one","1","indirect_first","0","ar06rg30","1","21","1","1","3","1","","0","1","0","null","","","<div class = 'row'><div class = 'column'><img src = 'uspos/7325.bmp' width = '100%;'></div><div class = 'column'><img src = 'category2/CS9.png' width = '70%;'></div></div>","null","pos","CS","CS","2","category2/CS9.png","","","","",""
"","html-keyboard-response","17","163432","0.0-6.0-0.0-0.11","r0rjyglh94","one_one","1","indirect_first","0","ar06rg30","1","21","1","1","3","1","","0","1","0","null","","","<div class = 'row'><div class = 'column'><img src = 'usneg/6570.1.bmp' width = '100%;'></div><div class = 'column'><img src = 'category1/CS9.png' width = '70%;'></div></div>","null","neg","CS","CS","1","category1/CS9.png","","","","",""
"","html-keyboard-response","18","165961","0.0-6.0-0.0-0.12","r0rjyglh94","one_one","1","indirect_first","0","ar06rg30","1","21","1","1","3","1","","0","1","0","null","","","<div class = 'row'><div class = 'column'><img src = 'category2/CS9.png' width = '70%;'></div><div class = 'column'><img src = 'uspos/7325.bmp' width = '100%;'></div></div>","null","pos","CS","CS","2","category2/CS9.png","","","","",""
"","html-keyboard-response","19","168495","0.0-6.0-0.0-0.13","r0rjyglh94","one_one","1","indirect_first","0","ar06rg30","1","21","1","1","3","1","","0","1","0","null","","","<div class = 'row'><div class = 'column'><img src = 'uspos/8461.bmp' width = '100%;'></div><div class = 'column'><img src = 'category4/CS4.png' width = '70%;'></div></div>","null","pos","CS","CS","4","category4/CS4.png","","","","",""
"","html-keyboard-response","20","171025","0.0-6.0-0.0-0.14","r0rjyglh94","one_one","1","indirect_first","0","ar06rg30","1","21","1","1","3","1","","0","1","0","null","","","<div class = 'row'><div class = 'column'><img src = 'usneg/9635.2.bmp' width = '100%;'></div><div class = 'column'><img src = 'category3/CS5.png' width = '70%;'></div></div>","null","neg","CS","CS","3","category3/CS5.png","","","","",""
"","html-keyboard-response","21","173558","0.0-6.0-0.0-0.15","r0rjyglh94","one_one","1","indirect_first","0","ar06rg30","1","21","1","1","3","1","","0","1","0","null","","","<div class = 'row'><div class = 'column'><img src = 'uspos/8461.bmp' width = '100%;'></div><div class = 'column'><img src = 'category4/CS4.png' width = '70%;'></div></div>","null","pos","CS","CS","4","category4/CS4.png","","","","",""
"","html-keyboard-response","22","176087","0.0-6.0-0.0-0.16","r0rjyglh94","one_one","1","indirect_first","0","ar06rg30","1","21","1","1","3","1","","0","1","0","null","","","<div class = 'row'><div class = 'column'><img src = 'usneg/6570.1.bmp' width = '100%;'></div><div class = 'column'><img src = 'category1/CS9.png' width = '70%;'></div></div>","null","neg","CS","CS","1","category1/CS9.png","","","","",""
"","html-keyboard-response","23","178617","0.0-6.0-0.0-0.17","r0rjyglh94","one_one","1","indirect_first","0","ar06rg30","1","21","1","1","3","1","","0","1","0","null","","","<div class = 'row'><div class = 'column'><img src = 'category2/CS9.png' width = '70%;'></div><div class = 'column'><img src = 'uspos/7325.bmp' width = '100%;'></div></div>","null","pos","CS","CS","2","category2/CS9.png","","","","",""
"","html-keyboard-response","24","181148","0.0-6.0-0.0-0.18","r0rjyglh94","one_one","1","indirect_first","0","ar06rg30","1","21","1","1","3","1","","0","1","0","null","","","<div class = 'row'><div class = 'column'><img src = 'uspos/8461.bmp' width = '100%;'></div><div class = 'column'><img src = 'category4/CS4.png' width = '70%;'></div></div>","null","pos","CS","CS","4","category4/CS4.png","","","","",""
"","html-keyboard-response","25","183679","0.0-6.0-0.0-0.19","r0rjyglh94","one_one","1","indirect_first","0","ar06rg30","1","21","1","1","3","1","","0","1","0","null","","","<div class = 'row'><div class = 'column'><img src = 'usneg/6570.1.bmp' width = '100%;'></div><div class = 'column'><img src = 'category1/CS9.png' width = '70%;'></div></div>","null","neg","CS","CS","1","category1/CS9.png","","","","",""
"","survey-html-form","26","186186","0.0-6.0-1.0","r0rjyglh94","one_one","1","indirect_first","0","ar06rg30","1","21","1","1","3","1","","0","1","0","1989.4300000742078","","{}","","","","","","","","","","","",""
"","html-keyboard-response","27","190207","0.0-6.0-2.0-0.0","r0rjyglh94","one_one","1","indirect_first","0","ar06rg30","1","21","1","1","3","1","","0","1","0","null","","","<div class = 'row'><div class = 'column'><img src = 'usneg/9635.2.bmp' width = '100%;'></div><div class = 'column'><img src = 'category3/CS5.png' width = '70%;'></div></div>","null","neg","CS","CS","3","category3/CS5.png","","","","",""
"","html-keyboard-response","28","192732","0.0-6.0-2.0-0.1","r0rjyglh94","one_one","1","indirect_first","0","ar06rg30","1","21","1","1","3","1","","0","1","0","null","","","<div class = 'row'><div class = 'column'><img src = 'category2/CS9.png' width = '70%;'></div><div class = 'column'><img src = 'uspos/7325.bmp' width = '100%;'></div></div>","null","pos","CS","CS","2","category2/CS9.png","","","","",""
"","html-keyboard-response","29","195252","0.0-6.0-2.0-0.2","r0rjyglh94","one_one","1","indirect_first","0","ar06rg30","1","21","1","1","3","1","","0","1","0","null","","","<div class = 'row'><div class = 'column'><img src = 'usneg/9635.2.bmp' width = '100%;'></div><div class = 'column'><img src = 'category3/CS5.png' width = '70%;'></div></div>","null","neg","CS","CS","3","category3/CS5.png","","","","",""
"","html-keyboard-response","30","197785","0.0-6.0-2.0-0.3","r0rjyglh94","one_one","1","indirect_first","0","ar06rg30","1","21","1","1","3","1","","0","1","0","null","","","<div class = 'row'><div class = 'column'><img src = 'category1/CS9.png' width = '70%;'></div><div class = 'column'><img src = 'usneg/6570.1.bmp' width = '100%;'></div></div>","null","neg","CS","CS","1","category1/CS9.png","","","","",""
"","html-keyboard-response","31","200316","0.0-6.0-2.0-0.4","r0rjyglh94","one_one","1","indirect_first","0","ar06rg30","1","21","1","1","3","1","","0","1","0","null","","","<div class = 'row'><div class = 'column'><img src = 'category2/CS9.png' width = '70%;'></div><div class = 'column'><img src = 'uspos/7325.bmp' width = '100%;'></div></div>","null","pos","CS","CS","2","category2/CS9.png","","","","",""
"","html-keyboard-response","32","202847","0.0-6.0-2.0-0.5","r0rjyglh94","one_one","1","indirect_first","0","ar06rg30","1","21","1","1","3","1","","0","1","0","null","","","<div class = 'row'><div class = 'column'><img src = 'uspos/8461.bmp' width = '100%;'></div><div class = 'column'><img src = 'category4/CS4.png' width = '70%;'></div></div>","null","pos","CS","CS","4","category4/CS4.png","","","","",""
"","html-keyboard-response","33","205377","0.0-6.0-2.0-0.6","r0rjyglh94","one_one","1","indirect_first","0","ar06rg30","1","21","1","1","3","1","","0","1","0","null","","","<div class = 'row'><div class = 'column'><img src = 'uspos/7325.bmp' width = '100%;'></div><div class = 'column'><img src = 'category2/CS9.png' width = '70%;'></div></div>","null","pos","CS","CS","2","category2/CS9.png","","","","",""
"","html-keyboard-response","34","207907","0.0-6.0-2.0-0.7","r0rjyglh94","one_one","1","indirect_first","0","ar06rg30","1","21","1","1","3","1","","0","1","0","null","","","<div class = 'row'><div class = 'column'><img src = 'category1/CS9.png' width = '70%;'></div><div class = 'column'><img src = 'usneg/6570.1.bmp' width = '100%;'></div></div>","null","neg","CS","CS","1","category1/CS9.png","","","","",""
"","html-keyboard-response","35","210439","0.0-6.0-2.0-0.8","r0rjyglh94","one_one","1","indirect_first","0","ar06rg30","1","21","1","1","3","1","","0","1","0","null","","","<div class = 'row'><div class = 'column'><img src = 'uspos/7325.bmp' width = '100%;'></div><div class = 'column'><img src = 'category2/CS9.png' width = '70%;'></div></div>","null","pos","CS","CS","2","category2/CS9.png","","","","",""
"","html-keyboard-response","36","212971","0.0-6.0-2.0-0.9","r0rjyglh94","one_one","1","indirect_first","0","ar06rg30","1","21","1","1","3","1","","0","1","0","null","","","<div class = 'row'><div class = 'column'><img src = 'usneg/6570.1.bmp' width = '100%;'></div><div class = 'column'><img src = 'category1/CS9.png' width = '70%;'></div></div>","null","neg","CS","CS","1","category1/CS9.png","","","","",""
"","html-keyboard-response","37","215502","0.0-6.0-2.0-0.10","r0rjyglh94","one_one","1","indirect_first","0","ar06rg30","1","21","1","1","3","1","","0","1","0","null","","","<div class = 'row'><div class = 'column'><img src = 'category4/CS4.png' width = '70%;'></div><div class = 'column'><img src = 'uspos/8461.bmp' width = '100%;'></div></div>","null","pos","CS","CS","4","category4/CS4.png","","","","",""
"","html-keyboard-response","38","218032","0.0-6.0-2.0-0.11","r0rjyglh94","one_one","1","indirect_first","0","ar06rg30","1","21","1","1","3","1","","0","1","0","null","","","<div class = 'row'><div class = 'column'><img src = 'uspos/7325.bmp' width = '100%;'></div><div class = 'column'><img src = 'category2/CS9.png' width = '70%;'></div></div>","null","pos","CS","CS","2","category2/CS9.png","","","","",""
"","html-keyboard-response","39","220562","0.0-6.0-2.0-0.12","r0rjyglh94","one_one","1","indirect_first","0","ar06rg30","1","21","1","1","3","1","","0","1","0","null","","","<div class = 'row'><div class = 'column'><img src = 'usneg/9635.2.bmp' width = '100%;'></div><div class = 'column'><img src = 'category3/CS5.png' width = '70%;'></div></div>","null","neg","CS","CS","3","category3/CS5.png","","","","",""
"","html-keyboard-response","40","223095","0.0-6.0-2.0-0.13","r0rjyglh94","one_one","1","indirect_first","0","ar06rg30","1","21","1","1","3","1","","0","1","0","null","","","<div class = 'row'><div class = 'column'><img src = 'category4/CS4.png' width = '70%;'></div><div class = 'column'><img src = 'uspos/8461.bmp' width = '100%;'></div></div>","null","pos","CS","CS","4","category4/CS4.png","","","","",""
"","html-keyboard-response","41","225611","0.0-6.0-2.0-0.14","r0rjyglh94","one_one","1","indirect_first","0","ar06rg30","1","21","1","1","3","1","","0","1","0","null","","","<div class = 'row'><div class = 'column'><img src = 'category1/CS9.png' width = '70%;'></div><div class = 'column'><img src = 'usneg/6570.1.bmp' width = '100%;'></div></div>","null","neg","CS","CS","1","category1/CS9.png","","","","",""
"","html-keyboard-response","42","228142","0.0-6.0-2.0-0.15","r0rjyglh94","one_one","1","indirect_first","0","ar06rg30","1","21","1","1","3","1","","0","1","0","null","","","<div class = 'row'><div class = 'column'><img src = 'category3/CS5.png' width = '70%;'></div><div class = 'column'><img src = 'usneg/9635.2.bmp' width = '100%;'></div></div>","null","neg","CS","CS","3","category3/CS5.png","","","","",""
"","html-keyboard-response","43","230672","0.0-6.0-2.0-0.16","r0rjyglh94","one_one","1","indirect_first","0","ar06rg30","1","21","1","1","3","1","","0","1","0","null","","","<div class = 'row'><div class = 'column'><img src = 'category1/CS9.png' width = '70%;'></div><div class = 'column'><img src = 'usneg/6570.1.bmp' width = '100%;'></div></div>","null","neg","CS","CS","1","category1/CS9.png","","","","",""
"","html-keyboard-response","44","233204","0.0-6.0-2.0-0.17","r0rjyglh94","one_one","1","indirect_first","0","ar06rg30","1","21","1","1","3","1","","0","1","0","null","","","<div class = 'row'><div class = 'column'><img src = 'category4/CS4.png' width = '70%;'></div><div class = 'column'><img src = 'uspos/8461.bmp' width = '100%;'></div></div>","null","pos","CS","CS","4","category4/CS4.png","","","","",""
"","html-keyboard-response","45","235735","0.0-6.0-2.0-0.18","r0rjyglh94","one_one","1","indirect_first","0","ar06rg30","1","21","1","1","3","1","","0","1","0","null","","","<div class = 'row'><div class = 'column'><img src = 'usneg/9635.2.bmp' width = '100%;'></div><div class = 'column'><img src = 'category3/CS5.png' width = '70%;'></div></div>","null","neg","CS","CS","3","category3/CS5.png","","","","",""
"","html-keyboard-response","46","238267","0.0-6.0-2.0-0.19","r0rjyglh94","one_one","1","indirect_first","0","ar06rg30","1","21","1","1","3","1","","0","1","0","null","","","<div class = 'row'><div class = 'column'><img src = 'category4/CS4.png' width = '70%;'></div><div class = 'column'><img src = 'uspos/8461.bmp' width = '100%;'></div></div>","null","pos","CS","CS","4","category4/CS4.png","","","","",""
"","survey-html-form","47","240010","0.0-6.0-3.0","r0rjyglh94","one_one","1","indirect_first","0","ar06rg30","1","21","1","1","3","1","","0","1","0","1227.2799999918789","","{}","","","","","","","","","","","",""
"","html-keyboard-response","48","244043","0.0-6.0-4.0-0.0","r0rjyglh94","one_one","1","indirect_first","0","ar06rg30","1","21","1","1","3","1","","0","1","0","null","","","<div class = 'row'><div class = 'column'><img src = 'category2/CS9.png' width = '70%;'></div><div class = 'column'><img src = 'uspos/7325.bmp' width = '100%;'></div></div>","null","pos","CS","CS","2","category2/CS9.png","","","","",""
"","html-keyboard-response","49","246574","0.0-6.0-4.0-0.1","r0rjyglh94","one_one","1","indirect_first","0","ar06rg30","1","21","1","1","3","1","","0","1","0","null","","","<div class = 'row'><div class = 'column'><img src = 'usneg/6570.1.bmp' width = '100%;'></div><div class = 'column'><img src = 'category1/CS9.png' width = '70%;'></div></div>","null","neg","CS","CS","1","category1/CS9.png","","","","",""
"","html-keyboard-response","50","249105","0.0-6.0-4.0-0.2","r0rjyglh94","one_one","1","indirect_first","0","ar06rg30","1","21","1","1","3","1","","0","1","0","null","","","<div class = 'row'><div class = 'column'><img src = 'uspos/8461.bmp' width = '100%;'></div><div class = 'column'><img src = 'category4/CS4.png' width = '70%;'></div></div>","null","pos","CS","CS","4","category4/CS4.png","","","","",""
"","html-keyboard-response","51","251637","0.0-6.0-4.0-0.3","r0rjyglh94","one_one","1","indirect_first","0","ar06rg30","1","21","1","1","3","1","","0","1","0","null","","","<div class = 'row'><div class = 'column'><img src = 'category1/CS9.png' width = '70%;'></div><div class = 'column'><img src = 'usneg/6570.1.bmp' width = '100%;'></div></div>","null","neg","CS","CS","1","category1/CS9.png","","","","",""
"","html-keyboard-response","52","254169","0.0-6.0-4.0-0.4","r0rjyglh94","one_one","1","indirect_first","0","ar06rg30","1","21","1","1","3","1","","0","1","0","null","","","<div class = 'row'><div class = 'column'><img src = 'uspos/8461.bmp' width = '100%;'></div><div class = 'column'><img src = 'category4/CS4.png' width = '70%;'></div></div>","null","pos","CS","CS","4","category4/CS4.png","","","","",""
"","html-keyboard-response","53","256699","0.0-6.0-4.0-0.5","r0rjyglh94","one_one","1","indirect_first","0","ar06rg30","1","21","1","1","3","1","","0","1","0","null","","","<div class = 'row'><div class = 'column'><img src = 'uspos/7325.bmp' width = '100%;'></div><div class = 'column'><img src = 'category2/CS9.png' width = '70%;'></div></div>","null","pos","CS","CS","2","category2/CS9.png","","","","",""
"","html-keyboard-response","54","259230","0.0-6.0-4.0-0.6","r0rjyglh94","one_one","1","indirect_first","0","ar06rg30","1","21","1","1","3","1","","0","1","0","null","","","<div class = 'row'><div class = 'column'><img src = 'category4/CS4.png' width = '70%;'></div><div class = 'column'><img src = 'uspos/8461.bmp' width = '100%;'></div></div>","null","pos","CS","CS","4","category4/CS4.png","","","","",""
"","html-keyboard-response","55","261760","0.0-6.0-4.0-0.7","r0rjyglh94","one_one","1","indirect_first","0","ar06rg30","1","21","1","1","3","1","","0","1","0","null","","","<div class = 'row'><div class = 'column'><img src = 'category3/CS5.png' width = '70%;'></div><div class = 'column'><img src = 'usneg/9635.2.bmp' width = '100%;'></div></div>","null","neg","CS","CS","3","category3/CS5.png","","","","",""
"","html-keyboard-response","56","264292","0.0-6.0-4.0-0.8","r0rjyglh94","one_one","1","indirect_first","0","ar06rg30","1","21","1","1","3","1","","0","1","0","null","","","<div class = 'row'><div class = 'column'><img src = 'category2/CS9.png' width = '70%;'></div><div class = 'column'><img src = 'uspos/7325.bmp' width = '100%;'></div></div>","null","pos","CS","CS","2","category2/CS9.png","","","","",""
"","html-keyboard-response","57","266823","0.0-6.0-4.0-0.9","r0rjyglh94","one_one","1","indirect_first","0","ar06rg30","1","21","1","1","3","1","","0","1","0","null","","","<div class = 'row'><div class = 'column'><img src = 'usneg/9635.2.bmp' width = '100%;'></div><div class = 'column'><img src = 'category3/CS5.png' width = '70%;'></div></div>","null","neg","CS","CS","3","category3/CS5.png","","","","",""
"","html-keyboard-response","58","269356","0.0-6.0-4.0-0.10","r0rjyglh94","one_one","1","indirect_first","0","ar06rg30","1","21","1","1","3","1","","0","1","0","null","","","<div class = 'row'><div class = 'column'><img src = 'category1/CS9.png' width = '70%;'></div><div class = 'column'><img src = 'usneg/6570.1.bmp' width = '100%;'></div></div>","null","neg","CS","CS","1","category1/CS9.png","","","","",""
"","html-keyboard-response","59","271885","0.0-6.0-4.0-0.11","r0rjyglh94","one_one","1","indirect_first","0","ar06rg30","1","21","1","1","3","1","","0","1","0","null","","","<div class = 'row'><div class = 'column'><img src = 'category4/CS4.png' width = '70%;'></div><div class = 'column'><img src = 'uspos/8461.bmp' width = '100%;'></div></div>","null","pos","CS","CS","4","category4/CS4.png","","","","",""
"","html-keyboard-response","60","274416","0.0-6.0-4.0-0.12","r0rjyglh94","one_one","1","indirect_first","0","ar06rg30","1","21","1","1","3","1","","0","1","0","null","","","<div class = 'row'><div class = 'column'><img src = 'uspos/7325.bmp' width = '100%;'></div><div class = 'column'><img src = 'category2/CS9.png' width = '70%;'></div></div>","null","pos","CS","CS","2","category2/CS9.png","","","","",""
"","html-keyboard-response","61","276947","0.0-6.0-4.0-0.13","r0rjyglh94","one_one","1","indirect_first","0","ar06rg30","1","21","1","1","3","1","","0","1","0","null","","","<div class = 'row'><div class = 'column'><img src = 'usneg/9635.2.bmp' width = '100%;'></div><div class = 'column'><img src = 'category3/CS5.png' width = '70%;'></div></div>","null","neg","CS","CS","3","category3/CS5.png","","","","",""
"","html-keyboard-response","62","279481","0.0-6.0-4.0-0.14","r0rjyglh94","one_one","1","indirect_first","0","ar06rg30","1","21","1","1","3","1","","0","1","0","null","","","<div class = 'row'><div class = 'column'><img src = 'usneg/6570.1.bmp' width = '100%;'></div><div class = 'column'><img src = 'category1/CS9.png' width = '70%;'></div></div>","null","neg","CS","CS","1","category1/CS9.png","","","","",""
"","html-keyboard-response","63","282009","0.0-6.0-4.0-0.15","r0rjyglh94","one_one","1","indirect_first","0","ar06rg30","1","21","1","1","3","1","","0","1","0","null","","","<div class = 'row'><div class = 'column'><img src = 'category3/CS5.png' width = '70%;'></div><div class = 'column'><img src = 'usneg/9635.2.bmp' width = '100%;'></div></div>","null","neg","CS","CS","3","category3/CS5.png","","","","",""
"","html-keyboard-response","64","284540","0.0-6.0-4.0-0.16","r0rjyglh94","one_one","1","indirect_first","0","ar06rg30","1","21","1","1","3","1","","0","1","0","null","","","<div class = 'row'><div class = 'column'><img src = 'uspos/8461.bmp' width = '100%;'></div><div class = 'column'><img src = 'category4/CS4.png' width = '70%;'></div></div>","null","pos","CS","CS","4","category4/CS4.png","","","","",""
"","html-keyboard-response","65","287073","0.0-6.0-4.0-0.17","r0rjyglh94","one_one","1","indirect_first","0","ar06rg30","1","21","1","1","3","1","","0","1","0","null","","","<div class = 'row'><div class = 'column'><img src = 'category3/CS5.png' width = '70%;'></div><div class = 'column'><img src = 'usneg/9635.2.bmp' width = '100%;'></div></div>","null","neg","CS","CS","3","category3/CS5.png","","","","",""
"","html-keyboard-response","66","289602","0.0-6.0-4.0-0.18","r0rjyglh94","one_one","1","indirect_first","0","ar06rg30","1","21","1","1","3","1","","0","1","0","null","","","<div class = 'row'><div class = 'column'><img src = 'category2/CS9.png' width = '70%;'></div><div class = 'column'><img src = 'uspos/7325.bmp' width = '100%;'></div></div>","null","pos","CS","CS","2","category2/CS9.png","","","","",""
"","html-keyboard-response","67","292136","0.0-6.0-4.0-0.19","r0rjyglh94","one_one","1","indirect_first","0","ar06rg30","1","21","1","1","3","1","","0","1","0","null","","","<div class = 'row'><div class = 'column'><img src = 'category1/CS9.png' width = '70%;'></div><div class = 'column'><img src = 'usneg/6570.1.bmp' width = '100%;'></div></div>","null","neg","CS","CS","1","category1/CS9.png","","","","",""
"","survey-html-form","68","294548","0.0-6.0-5.0","r0rjyglh94","one_one","1","indirect_first","0","ar06rg30","1","21","1","1","3","1","","0","1","0","1895.1100001577288","","{}","","","","","","","","","","","",""
"","html-keyboard-response","69","298582","0.0-6.0-6.0-0.0","r0rjyglh94","one_one","1","indirect_first","0","ar06rg30","1","21","1","1","3","1","","0","1","0","null","","","<div class = 'row'><div class = 'column'><img src = 'category4/CS4.png' width = '70%;'></div><div class = 'column'><img src = 'uspos/8461.bmp' width = '100%;'></div></div>","null","pos","CS","CS","4","category4/CS4.png","","","","",""
"","html-keyboard-response","70","301111","0.0-6.0-6.0-0.1","r0rjyglh94","one_one","1","indirect_first","0","ar06rg30","1","21","1","1","3","1","","0","1","0","null","","","<div class = 'row'><div class = 'column'><img src = 'usneg/6570.1.bmp' width = '100%;'></div><div class = 'column'><img src = 'category1/CS9.png' width = '70%;'></div></div>","null","neg","CS","CS","1","category1/CS9.png","","","","",""
"","html-keyboard-response","71","303643","0.0-6.0-6.0-0.2","r0rjyglh94","one_one","1","indirect_first","0","ar06rg30","1","21","1","1","3","1","","0","1","0","null","","","<div class = 'row'><div class = 'column'><img src = 'uspos/8461.bmp' width = '100%;'></div><div class = 'column'><img src = 'category4/CS4.png' width = '70%;'></div></div>","null","pos","CS","CS","4","category4/CS4.png","","","","",""
"","html-keyboard-response","72","306172","0.0-6.0-6.0-0.3","r0rjyglh94","one_one","1","indirect_first","0","ar06rg30","1","21","1","1","3","1","","0","1","0","null","","","<div class = 'row'><div class = 'column'><img src = 'category1/CS9.png' width = '70%;'></div><div class = 'column'><img src = 'usneg/6570.1.bmp' width = '100%;'></div></div>","null","neg","CS","CS","1","category1/CS9.png","","","","",""
"","html-keyboard-response","73","308704","0.0-6.0-6.0-0.4","r0rjyglh94","one_one","1","indirect_first","0","ar06rg30","1","21","1","1","3","1","","0","1","0","null","","","<div class = 'row'><div class = 'column'><img src = 'category2/CS9.png' width = '70%;'></div><div class = 'column'><img src = 'uspos/7325.bmp' width = '100%;'></div></div>","null","pos","CS","CS","2","category2/CS9.png","","","","",""
"","html-keyboard-response","74","311236","0.0-6.0-6.0-0.5","r0rjyglh94","one_one","1","indirect_first","0","ar06rg30","1","21","1","1","3","1","","0","1","0","null","","","<div class = 'row'><div class = 'column'><img src = 'category3/CS5.png' width = '70%;'></div><div class = 'column'><img src = 'usneg/9635.2.bmp' width = '100%;'></div></div>","null","neg","CS","CS","3","category3/CS5.png","","","","",""
"","html-keyboard-response","75","313768","0.0-6.0-6.0-0.6","r0rjyglh94","one_one","1","indirect_first","0","ar06rg30","1","21","1","1","3","1","","0","1","0","null","","","<div class = 'row'><div class = 'column'><img src = 'category4/CS4.png' width = '70%;'></div><div class = 'column'><img src = 'uspos/8461.bmp' width = '100%;'></div></div>","null","pos","CS","CS","4","category4/CS4.png","","","","",""
"","html-keyboard-response","76","316299","0.0-6.0-6.0-0.7","r0rjyglh94","one_one","1","indirect_first","0","ar06rg30","1","21","1","1","3","1","","0","1","0","null","","","<div class = 'row'><div class = 'column'><img src = 'usneg/6570.1.bmp' width = '100%;'></div><div class = 'column'><img src = 'category1/CS9.png' width = '70%;'></div></div>","null","neg","CS","CS","1","category1/CS9.png","","","","",""
"","html-keyboard-response","77","318817","0.0-6.0-6.0-0.8","r0rjyglh94","one_one","1","indirect_first","0","ar06rg30","1","21","1","1","3","1","","0","1","0","null","","","<div class = 'row'><div class = 'column'><img src = 'category4/CS4.png' width = '70%;'></div><div class = 'column'><img src = 'uspos/8461.bmp' width = '100%;'></div></div>","null","pos","CS","CS","4","category4/CS4.png","","","","",""
"","html-keyboard-response","78","321343","0.0-6.0-6.0-0.9","r0rjyglh94","one_one","1","indirect_first","0","ar06rg30","1","21","1","1","3","1","","0","1","0","null","","","<div class = 'row'><div class = 'column'><img src = 'category2/CS9.png' width = '70%;'></div><div class = 'column'><img src = 'uspos/7325.bmp' width = '100%;'></div></div>","null","pos","CS","CS","2","category2/CS9.png","","","","",""
"","html-keyboard-response","79","323860","0.0-6.0-6.0-0.10","r0rjyglh94","one_one","1","indirect_first","0","ar06rg30","1","21","1","1","3","1","","0","1","0","null","","","<div class = 'row'><div class = 'column'><img src = 'usneg/9635.2.bmp' width = '100%;'></div><div class = 'column'><img src = 'category3/CS5.png' width = '70%;'></div></div>","null","neg","CS","CS","3","category3/CS5.png","","","","",""
"","html-keyboard-response","80","326390","0.0-6.0-6.0-0.11","r0rjyglh94","one_one","1","indirect_first","0","ar06rg30","1","21","1","1","3","1","","0","1","0","null","","","<div class = 'row'><div class = 'column'><img src = 'usneg/6570.1.bmp' width = '100%;'></div><div class = 'column'><img src = 'category1/CS9.png' width = '70%;'></div></div>","null","neg","CS","CS","1","category1/CS9.png","","","","",""
"","html-keyboard-response","81","328922","0.0-6.0-6.0-0.12","r0rjyglh94","one_one","1","indirect_first","0","ar06rg30","1","21","1","1","3","1","","0","1","0","null","","","<div class = 'row'><div class = 'column'><img src = 'usneg/9635.2.bmp' width = '100%;'></div><div class = 'column'><img src = 'category3/CS5.png' width = '70%;'></div></div>","null","neg","CS","CS","3","category3/CS5.png","","","","",""
"","html-keyboard-response","82","331469","0.0-6.0-6.0-0.13","r0rjyglh94","one_one","1","indirect_first","0","ar06rg30","1","21","1","1","3","1","","0","1","0","null","","","<div class = 'row'><div class = 'column'><img src = 'uspos/8461.bmp' width = '100%;'></div><div class = 'column'><img src = 'category4/CS4.png' width = '70%;'></div></div>","null","pos","CS","CS","4","category4/CS4.png","","","","",""
"","html-keyboard-response","83","334000","0.0-6.0-6.0-0.14","r0rjyglh94","one_one","1","indirect_first","0","ar06rg30","1","21","1","1","3","1","","0","1","0","null","","","<div class = 'row'><div class = 'column'><img src = 'category2/CS9.png' width = '70%;'></div><div class = 'column'><img src = 'uspos/7325.bmp' width = '100%;'></div></div>","null","pos","CS","CS","2","category2/CS9.png","","","","",""
"","html-keyboard-response","84","336530","0.0-6.0-6.0-0.15","r0rjyglh94","one_one","1","indirect_first","0","ar06rg30","1","21","1","1","3","1","","0","1","0","null","","","<div class = 'row'><div class = 'column'><img src = 'usneg/6570.1.bmp' width = '100%;'></div><div class = 'column'><img src = 'category1/CS9.png' width = '70%;'></div></div>","null","neg","CS","CS","1","category1/CS9.png","","","","",""
"","html-keyboard-response","85","339061","0.0-6.0-6.0-0.16","r0rjyglh94","one_one","1","indirect_first","0","ar06rg30","1","21","1","1","3","1","","0","1","0","null","","","<div class = 'row'><div class = 'column'><img src = 'category3/CS5.png' width = '70%;'></div><div class = 'column'><img src = 'usneg/9635.2.bmp' width = '100%;'></div></div>","null","neg","CS","CS","3","category3/CS5.png","","","","",""
"","html-keyboard-response","86","341591","0.0-6.0-6.0-0.17","r0rjyglh94","one_one","1","indirect_first","0","ar06rg30","1","21","1","1","3","1","","0","1","0","null","","","<div class = 'row'><div class = 'column'><img src = 'uspos/7325.bmp' width = '100%;'></div><div class = 'column'><img src = 'category2/CS9.png' width = '70%;'></div></div>","null","pos","CS","CS","2","category2/CS9.png","","","","",""
"","html-keyboard-response","87","344108","0.0-6.0-6.0-0.18","r0rjyglh94","one_one","1","indirect_first","0","ar06rg30","1","21","1","1","3","1","","0","1","0","null","","","<div class = 'row'><div class = 'column'><img src = 'usneg/9635.2.bmp' width = '100%;'></div><div class = 'column'><img src = 'category3/CS5.png' width = '70%;'></div></div>","null","neg","CS","CS","3","category3/CS5.png","","","","",""
"","html-keyboard-response","88","346639","0.0-6.0-6.0-0.19","r0rjyglh94","one_one","1","indirect_first","0","ar06rg30","1","21","1","1","3","1","","0","1","0","null","","","<div class = 'row'><div class = 'column'><img src = 'category2/CS9.png' width = '70%;'></div><div class = 'column'><img src = 'uspos/7325.bmp' width = '100%;'></div></div>","null","pos","CS","CS","2","category2/CS9.png","","","","",""
"","html-keyboard-response","89","385615","0.0-7.0","r0rjyglh94","one_one","1","indirect_first","0","ar06rg30","1","21","1","1","3","1","","0","1","0","38457.97000010498","","","<p>Sie sehen nun die chinesischen Zeichen nur ganz kurz. Danach sehen Sie die jeweilige Aussprache der Zeichen als Silbe auf dem Bildschrim. Ihre Aufgabe ist es, für jede Silbe anzugeben, ob diese etwas angenehmes, oder unangenehmes bedeuten könnte. Verlassen Sie sich hier vor allem auf Ihre Intuition.<br><br>Die Zeichen werden nur zur Orientierung dargestellt, beachten Sie sie deshalb nicht. Konzentrieren Sie sich vor allem auf die Silben. <br>Reagieren Sie mit folgenden zwei Tasten: <br><br><b>'D' </b> wenn die Silbe etwas <b>unangenehmes</b> bedeuten könnte. <br><b>'K'</b> wenn die Silbe etwas <b>angenehmes</b> bedeuten könnte. <br><br>Bitte legen Sie nun den Zeigefinger der linken Hand auf die Taste 'D' und den Zeigefinger der rechten Hand auf die Taste 'K'. <br>Reagieren Sie auf jede Silbe so schnell wie möglich. Uns interessiert Ihre spontane Reaktion. <br> <br> <br>Drücken Sie 'D' oder 'K', um die nächste Aufgabe zu starten. </p>","68","","","","","","","","","",""
"","html-keyboard-response","90","388635","0.0-8.0-0.0","r0rjyglh94","one_one","1","indirect_first","0","ar06rg30","1","21","1","1","3","1","","0","1","0","null","","","<div style=""font-size:60px;"">+</div>","null","","","","","","","","","",""
"","html-keyboard-response","91","388734","0.0-8.0-1.0","r0rjyglh94","one_one","1","indirect_first","0","ar06rg30","1","21","1","1","3","1","","0","1","0","null","","","<img src = 'category1/CS9.png' width = '100%;'>","null","","","","","","","","","",""
"","html-keyboard-response","92","389001","0.0-8.0-2.0","r0rjyglh94","one_one","1","indirect_first","0","ar06rg30","1","21","1","1","3","1","","0","1","0","null","","","<img src = 'targets/41.png' width = '100%;'>","null","","","","","","","","","",""
"","html-keyboard-response","93","391093","0.0-8.0-3.0","r0rjyglh94","one_one","1","indirect_first","0","ar06rg30","1","21","1","1","3","1","","0","1","0","2089.159999974072","","","<img src = 'targets/mask.png' width = '100%;'>","68","neg","CS","CS","1","category1/CS9.png","targets/41.png","0","indirect","0",""
"","html-keyboard-response","94","392614","0.0-8.0-0.1","r0rjyglh94","one_one","1","indirect_first","0","ar06rg30","1","21","1","1","3","1","","0","1","0","null","","","<div style=""font-size:60px;"">+</div>","null","","","","","","","","","",""
"","html-keyboard-response","95","392714","0.0-8.0-1.1","r0rjyglh94","one_one","1","indirect_first","0","ar06rg30","1","21","1","1","3","1","","0","1","0","null","","","<img src = 'category4/CS8.png' width = '100%;'>","null","","","","","","","","","",""
"","html-keyboard-response","96","392980","0.0-8.0-2.1","r0rjyglh94","one_one","1","indirect_first","0","ar06rg30","1","21","1","1","3","1","","0","1","0","null","","","<img src = 'targets/7.png' width = '100%;'>","null","","","","","","","","","",""
"","html-keyboard-response","97","394018","0.0-8.0-3.1","r0rjyglh94","one_one","1","indirect_first","0","ar06rg30","1","21","1","1","3","1","","0","1","0","1035.0299999117851","","","<img src = 'targets/mask.png' width = '100%;'>","75","pos","GS","GSold","4","category4/CS8.png","targets/7.png","1","indirect","1",""
"","html-keyboard-response","98","395546","0.0-8.0-0.2","r0rjyglh94","one_one","1","indirect_first","0","ar06rg30","1","21","1","1","3","1","","0","1","0","null","","","<div style=""font-size:60px;"">+</div>","null","","","","","","","","","",""
"","html-keyboard-response","99","395646","0.0-8.0-1.2","r0rjyglh94","one_one","1","indirect_first","0","ar06rg30","1","21","1","1","3","1","","0","1","0","null","","","<img src = 'category3/CS6.png' width = '100%;'>","null","","","","","","","","","",""
"","html-keyboard-response","100","395913","0.0-8.0-2.2","r0rjyglh94","one_one","1","indirect_first","0","ar06rg30","1","21","1","1","3","1","","0","1","0","null","","","<img src = 'targets/13.png' width = '100%;'>","null","","","","","","","","","",""
"","html-keyboard-response","101","397771","0.0-8.0-3.2","r0rjyglh94","one_one","1","indirect_first","0","ar06rg30","1","21","1","1","3","1","","0","1","0","1854.6750000678003","","","<img src = 'targets/mask.png' width = '100%;'>","75","neg","GS","GSold","3","category3/CS6.png","targets/13.png","1","indirect","2",""
"","html-keyboard-response","102","399291","0.0-8.0-0.3","r0rjyglh94","one_one","1","indirect_first","0","ar06rg30","1","21","1","1","3","1","","0","1","0","null","","","<div style=""font-size:60px;"">+</div>","null","","","","","","","","","",""
"","html-keyboard-response","103","399392","0.0-8.0-1.3","r0rjyglh94","one_one","1","indirect_first","0","ar06rg30","1","21","1","1","3","1","","0","1","0","null","","","<img src = 'category2/CS2.png' width = '100%;'>","null","","","","","","","","","",""
"","html-keyboard-response","104","399659","0.0-8.0-2.3","r0rjyglh94","one_one","1","indirect_first","0","ar06rg30","1","21","1","1","3","1","","0","1","0","null","","","<img src = 'targets/10.png' width = '100%;'>","null","","","","","","","","","",""
"","html-keyboard-response","105","400607","0.0-8.0-3.3","r0rjyglh94","one_one","1","indirect_first","0","ar06rg30","1","21","1","1","3","1","","0","1","0","946.0100000724196","","","<img src = 'targets/mask.png' width = '100%;'>","68","pos","GS","GSold","2","category2/CS2.png","targets/10.png","0","indirect","3",""
"","html-keyboard-response","106","402125","0.0-8.0-0.4","r0rjyglh94","one_one","1","indirect_first","0","ar06rg30","1","21","1","1","3","1","","0","1","0","null","","","<div style=""font-size:60px;"">+</div>","null","","","","","","","","","",""
"","html-keyboard-response","107","402221","0.0-8.0-1.4","r0rjyglh94","one_one","1","indirect_first","0","ar06rg30","1","21","1","1","3","1","","0","1","0","null","","","<img src = 'category2/CS9.png' width = '100%;'>","null","","","","","","","","","",""
"","html-keyboard-response","108","402488","0.0-8.0-2.4","r0rjyglh94","one_one","1","indirect_first","0","ar06rg30","1","21","1","1","3","1","","0","1","0","null","","","<img src = 'targets/33.png' width = '100%;'>","null","","","","","","","","","",""
"","html-keyboard-response","109","403683","0.0-8.0-3.4","r0rjyglh94","one_one","1","indirect_first","0","ar06rg30","1","21","1","1","3","1","","0","1","0","1191.7300000786781","","","<img src = 'targets/mask.png' width = '100%;'>","68","pos","CS","CS","2","category2/CS9.png","targets/33.png","0","indirect","4",""
"","html-keyboard-response","110","405202","0.0-8.0-0.5","r0rjyglh94","one_one","1","indirect_first","0","ar06rg30","1","21","1","1","3","1","","0","1","0","null","","","<div style=""font-size:60px;"">+</div>","null","","","","","","","","","",""
"","html-keyboard-response","111","405303","0.0-8.0-1.5","r0rjyglh94","one_one","1","indirect_first","0","ar06rg30","1","21","1","1","3","1","","0","1","0","null","","","<img src = 'category3/CS7.png' width = '100%;'>","null","","","","","","","","","",""
"","html-keyboard-response","112","405570","0.0-8.0-2.5","r0rjyglh94","one_one","1","indirect_first","0","ar06rg30","1","21","1","1","3","1","","0","1","0","null","","","<img src = 'targets/31.png' width = '100%;'>","null","","","","","","","","","",""
"","html-keyboard-response","113","407125","0.0-8.0-3.5","r0rjyglh94","one_one","1","indirect_first","0","ar06rg30","1","21","1","1","3","1","","0","1","0","1553.455000044778","","","<img src = 'targets/mask.png' width = '100%;'>","75","neg","GS","GSold","3","category3/CS7.png","targets/31.png","1","indirect","5",""
"","html-keyboard-response","114","408650","0.0-8.0-0.6","r0rjyglh94","one_one","1","indirect_first","0","ar06rg30","1","21","1","1","3","1","","0","1","0","null","","","<div style=""font-size:60px;"">+</div>","null","","","","","","","","","",""
"","html-keyboard-response","115","408749","0.0-8.0-1.6","r0rjyglh94","one_one","1","indirect_first","0","ar06rg30","1","21","1","1","3","1","","0","1","0","null","","","<img src = 'category4/CS4.png' width = '100%;'>","null","","","","","","","","","",""
"","html-keyboard-response","116","409016","0.0-8.0-2.6","r0rjyglh94","one_one","1","indirect_first","0","ar06rg30","1","21","1","1","3","1","","0","1","0","null","","","<img src = 'targets/14.png' width = '100%;'>","null","","","","","","","","","",""
"","html-keyboard-response","117","410439","0.0-8.0-3.6","r0rjyglh94","one_one","1","indirect_first","0","ar06rg30","1","21","1","1","3","1","","0","1","0","1419.7450000792742","","","<img src = 'targets/mask.png' width = '100%;'>","75","pos","CS","CS","4","category4/CS4.png","targets/14.png","1","indirect","6",""
"","html-keyboard-response","118","411964","0.0-8.0-0.7","r0rjyglh94","one_one","1","indirect_first","0","ar06rg30","1","21","1","1","3","1","","0","1","0","null","","","<div style=""font-size:60px;"">+</div>","null","","","","","","","","","",""
"","html-keyboard-response","119","412065","0.0-8.0-1.7","r0rjyglh94","one_one","1","indirect_first","0","ar06rg30","1","21","1","1","3","1","","0","1","0","null","","","<img src = 'category2/CS8.png' width = '100%;'>","null","","","","","","","","","",""
"","html-keyboard-response","120","412328","0.0-8.0-2.7","r0rjyglh94","one_one","1","indirect_first","0","ar06rg30","1","21","1","1","3","1","","0","1","0","null","","","<img src = 'targets/16.png' width = '100%;'>","null","","","","","","","","","",""
"","html-keyboard-response","121","413486","0.0-8.0-3.7","r0rjyglh94","one_one","1","indirect_first","0","ar06rg30","1","21","1","1","3","1","","0","1","0","1154.3250000104308","","","<img src = 'targets/mask.png' width = '100%;'>","75","pos","GS","GSold","2","category2/CS8.png","targets/16.png","1","indirect","7",""
"","html-keyboard-response","122","415010","0.0-8.0-0.8","r0rjyglh94","one_one","1","indirect_first","0","ar06rg30","1","21","1","1","3","1","","0","1","0","null","","","<div style=""font-size:60px;"">+</div>","null","","","","","","","","","",""
"","html-keyboard-response","123","415109","0.0-8.0-1.8","r0rjyglh94","one_one","1","indirect_first","0","ar06rg30","1","21","1","1","3","1","","0","1","0","null","","","<img src = 'category1/CS5.png' width = '100%;'>","null","","","","","","","","","",""
"","html-keyboard-response","124","415377","0.0-8.0-2.8","r0rjyglh94","one_one","1","indirect_first","0","ar06rg30","1","21","1","1","3","1","","0","1","0","null","","","<img src = 'targets/22.png' width = '100%;'>","null","","","","","","","","","",""
"","html-keyboard-response","125","417235","0.0-8.0-3.8","r0rjyglh94","one_one","1","indirect_first","0","ar06rg30","1","21","1","1","3","1","","0","1","0","1855.4650000296533","","","<img src = 'targets/mask.png' width = '100%;'>","68","neg","GS","GSold","1","category1/CS5.png","targets/22.png","0","indirect","8",""
"","html-keyboard-response","126","418759","0.0-8.0-0.9","r0rjyglh94","one_one","1","indirect_first","0","ar06rg30","1","21","1","1","3","1","","0","1","0","null","","","<div style=""font-size:60px;"">+</div>","null","","","","","","","","","",""
"","html-keyboard-response","127","418858","0.0-8.0-1.9","r0rjyglh94","one_one","1","indirect_first","0","ar06rg30","1","21","1","1","3","1","","0","1","0","null","","","<img src = 'category3/CS5.png' width = '100%;'>","null","","","","","","","","","",""
"","html-keyboard-response","128","419124","0.0-8.0-2.9","r0rjyglh94","one_one","1","indirect_first","0","ar06rg30","1","21","1","1","3","1","","0","1","0","null","","","<img src = 'targets/26.png' width = '100%;'>","null","","","","","","","","","",""
"","html-keyboard-response","129","420051","0.0-8.0-3.9","r0rjyglh94","one_one","1","indirect_first","0","ar06rg30","1","21","1","1","3","1","","0","1","0","924.4600001256913","","","<img src = 'targets/mask.png' width = '100%;'>","68","neg","CS","CS","3","category3/CS5.png","targets/26.png","0","indirect","9",""
"","html-keyboard-response","130","421571","0.0-8.0-0.10","r0rjyglh94","one_one","1","indirect_first","0","ar06rg30","1","21","1","1","3","1","","0","1","0","null","","","<div style=""font-size:60px;"">+</div>","null","","","","","","","","","",""
"","html-keyboard-response","131","421671","0.0-8.0-1.10","r0rjyglh94","one_one","1","indirect_first","0","ar06rg30","1","21","1","1","3","1","","0","1","0","null","","","<img src = 'category4/CS6.png' width = '100%;'>","null","","","","","","","","","",""
"","html-keyboard-response","132","421940","0.0-8.0-2.10","r0rjyglh94","one_one","1","indirect_first","0","ar06rg30","1","21","1","1","3","1","","0","1","0","null","","","<img src = 'targets/37.png' width = '100%;'>","null","","","","","","","","","",""
"","html-keyboard-response","133","423502","0.0-8.0-3.10","r0rjyglh94","one_one","1","indirect_first","0","ar06rg30","1","21","1","1","3","1","","0","1","0","1557.265000184998","","","<img src = 'targets/mask.png' width = '100%;'>","68","pos","GS","GSold","4","category4/CS6.png","targets/37.png","0","indirect","10",""
"","html-keyboard-response","134","425018","0.0-8.0-0.11","r0rjyglh94","one_one","1","indirect_first","0","ar06rg30","1","21","1","1","3","1","","0","1","0","null","","","<div style=""font-size:60px;"">+</div>","null","","","","","","","","","",""
"","html-keyboard-response","135","425119","0.0-8.0-1.11","r0rjyglh94","one_one","1","indirect_first","0","ar06rg30","1","21","1","1","3","1","","0","1","0","null","","","<img src = 'category3/CS1.png' width = '100%;'>","null","","","","","","","","","",""
"","html-keyboard-response","136","425385","0.0-8.0-2.11","r0rjyglh94","one_one","1","indirect_first","0","ar06rg30","1","21","1","1","3","1","","0","1","0","null","","","<img src = 'targets/12.png' width = '100%;'>","null","","","","","","","","","",""
"","html-keyboard-response","137","426328","0.0-8.0-3.11","r0rjyglh94","one_one","1","indirect_first","0","ar06rg30","1","21","1","1","3","1","","0","1","0","941.1100000143051","","","<img src = 'targets/mask.png' width = '100%;'>","75","neg","GS","GSold","3","category3/CS1.png","targets/12.png","1","indirect","11",""
"","html-keyboard-response","138","427849","0.0-8.0-0.12","r0rjyglh94","one_one","1","indirect_first","0","ar06rg30","1","21","1","1","3","1","","0","1","0","null","","","<div style=""font-size:60px;"">+</div>","null","","","","","","","","","",""
"","html-keyboard-response","139","427949","0.0-8.0-1.12","r0rjyglh94","one_one","1","indirect_first","0","ar06rg30","1","21","1","1","3","1","","0","1","0","null","","","<img src = 'category1/CS3.png' width = '100%;'>","null","","","","","","","","","",""
"","html-keyboard-response","140","428216","0.0-8.0-2.12","r0rjyglh94","one_one","1","indirect_first","0","ar06rg30","1","21","1","1","3","1","","0","1","0","null","","","<img src = 'targets/24.png' width = '100%;'>","null","","","","","","","","","",""
"","html-keyboard-response","141","430098","0.0-8.0-3.12","r0rjyglh94","one_one","1","indirect_first","0","ar06rg30","1","21","1","1","3","1","","0","1","0","1877.695000031963","","","<img src = 'targets/mask.png' width = '100%;'>","68","neg","GS","GSold","1","category1/CS3.png","targets/24.png","0","indirect","12",""
"","html-keyboard-response","142","431629","0.0-8.0-0.13","r0rjyglh94","one_one","1","indirect_first","0","ar06rg30","1","21","1","1","3","1","","0","1","0","null","","","<div style=""font-size:60px;"">+</div>","null","","","","","","","","","",""
"","html-keyboard-response","143","431729","0.0-8.0-1.13","r0rjyglh94","one_one","1","indirect_first","0","ar06rg30","1","21","1","1","3","1","","0","1","0","null","","","<img src = 'category1/CS7.png' width = '100%;'>","null","","","","","","","","","",""
"","html-keyboard-response","144","431996","0.0-8.0-2.13","r0rjyglh94","one_one","1","indirect_first","0","ar06rg30","1","21","1","1","3","1","","0","1","0","null","","","<img src = 'targets/48.png' width = '100%;'>","null","","","","","","","","","",""
"","html-keyboard-response","145","432932","0.0-8.0-3.13","r0rjyglh94","one_one","1","indirect_first","0","ar06rg30","1","21","1","1","3","1","","0","1","0","932.899999897927","","","<img src = 'targets/mask.png' width = '100%;'>","75","neg","GS","GSold","1","category1/CS7.png","targets/48.png","1","indirect","13",""
"","html-keyboard-response","146","434462","0.0-8.0-0.14","r0rjyglh94","one_one","1","indirect_first","0","ar06rg30","1","21","1","1","3","1","","0","1","0","null","","","<div style=""font-size:60px;"">+</div>","null","","","","","","","","","",""
"","html-keyboard-response","147","434560","0.0-8.0-1.14","r0rjyglh94","one_one","1","indirect_first","0","ar06rg30","1","21","1","1","3","1","","0","1","0","null","","","<img src = 'category2/CS5.png' width = '100%;'>","null","","","","","","","","","",""
"","html-keyboard-response","148","434826","0.0-8.0-2.14","r0rjyglh94","one_one","1","indirect_first","0","ar06rg30","1","21","1","1","3","1","","0","1","0","null","","","<img src = 'targets/18.png' width = '100%;'>","null","","","","","","","","","",""
"","html-keyboard-response","149","435602","0.0-8.0-3.14","r0rjyglh94","one_one","1","indirect_first","0","ar06rg30","1","21","1","1","3","1","","0","1","0","773.2949999626726","","","<img src = 'targets/mask.png' width = '100%;'>","68","pos","GS","GSold","2","category2/CS5.png","targets/18.png","0","indirect","14",""
"","html-keyboard-response","150","437123","0.0-8.0-0.15","r0rjyglh94","one_one","1","indirect_first","0","ar06rg30","1","21","1","1","3","1","","0","1","0","null","","","<div style=""font-size:60px;"">+</div>","null","","","","","","","","","",""
"","html-keyboard-response","151","437224","0.0-8.0-1.15","r0rjyglh94","one_one","1","indirect_first","0","ar06rg30","1","21","1","1","3","1","","0","1","0","null","","","<img src = 'category4/CS10.png' width = '100%;'>","null","","","","","","","","","",""
"","html-keyboard-response","152","437493","0.0-8.0-2.15","r0rjyglh94","one_one","1","indirect_first","0","ar06rg30","1","21","1","1","3","1","","0","1","0","null","","","<img src = 'targets/8.png' width = '100%;'>","null","","","","","","","","","",""
"","html-keyboard-response","153","438498","0.0-8.0-3.15","r0rjyglh94","one_one","1","indirect_first","0","ar06rg30","1","21","1","1","3","1","","0","1","0","1002.5750000495464","","","<img src = 'targets/mask.png' width = '100%;'>","68","pos","GS","GSold","4","category4/CS10.png","targets/8.png","0","indirect","15",""
"","survey-html-form","154","443938","0.0-9.0","r0rjyglh94","one_one","1","indirect_first","0","ar06rg30","1","21","1","1","3","1","","0","1","0","4928.139999974519","","{}","","","","","","","","","","","",""
"","html-keyboard-response","155","446967","0.0-10.0-0.0","r0rjyglh94","one_one","1","indirect_first","0","ar06rg30","1","21","1","1","3","1","","0","1","0","null","","","<div style=""font-size:60px;"">+</div>","null","","","","","","","","","",""
"","html-keyboard-response","156","447066","0.0-10.0-1.0","r0rjyglh94","one_one","1","indirect_first","0","ar06rg30","1","21","1","1","3","1","","0","1","0","null","","","<img src = 'category1/GS1.png' width = '100%;'>","null","","","","","","","","","",""
"","html-keyboard-response","157","447332","0.0-10.0-2.0","r0rjyglh94","one_one","1","indirect_first","0","ar06rg30","1","21","1","1","3","1","","0","1","0","null","","","<img src = 'targets/2.png' width = '100%;'>","null","","","","","","","","","",""
"","html-keyboard-response","158","448769","0.0-10.0-3.0","r0rjyglh94","one_one","1","indirect_first","0","ar06rg30","1","21","1","1","3","1","","0","1","0","1433.0599999520928","","","<img src = 'targets/mask.png' width = '100%;'>","68","neg","GS","GSnew","1","category1/GS1.png","targets/2.png","0","indirect","16",""
"","html-keyboard-response","159","450292","0.0-10.0-0.1","r0rjyglh94","one_one","1","indirect_first","0","ar06rg30","1","21","1","1","3","1","","0","1","0","null","","","<div style=""font-size:60px;"">+</div>","null","","","","","","","","","",""
"","html-keyboard-response","160","450391","0.0-10.0-1.1","r0rjyglh94","one_one","1","indirect_first","0","ar06rg30","1","21","1","1","3","1","","0","1","0","null","","","<img src = 'category2/GS2.png' width = '100%;'>","null","","","","","","","","","",""
"","html-keyboard-response","161","450657","0.0-10.0-2.1","r0rjyglh94","one_one","1","indirect_first","0","ar06rg30","1","21","1","1","3","1","","0","1","0","null","","","<img src = 'targets/39.png' width = '100%;'>","null","","","","","","","","","",""
"","html-keyboard-response","162","451699","0.0-10.0-3.1","r0rjyglh94","one_one","1","indirect_first","0","ar06rg30","1","21","1","1","3","1","","0","1","0","1039.4299998879433","","","<img src = 'targets/mask.png' width = '100%;'>","75","pos","GS","GSnew","2","category2/GS2.png","targets/39.png","1","indirect","17",""
"","html-keyboard-response","163","453229","0.0-10.0-0.2","r0rjyglh94","one_one","1","indirect_first","0","ar06rg30","1","21","1","1","3","1","","0","1","0","null","","","<div style=""font-size:60px;"">+</div>","null","","","","","","","","","",""
"","html-keyboard-response","164","453327","0.0-10.0-1.2","r0rjyglh94","one_one","1","indirect_first","0","ar06rg30","1","21","1","1","3","1","","0","1","0","null","","","<img src = 'category1/GS3.png' width = '100%;'>","null","","","","","","","","","",""
"","html-keyboard-response","165","453595","0.0-10.0-2.2","r0rjyglh94","one_one","1","indirect_first","0","ar06rg30","1","21","1","1","3","1","","0","1","0","null","","","<img src = 'targets/20.png' width = '100%;'>","null","","","","","","","","","",""
"","html-keyboard-response","166","454670","0.0-10.0-3.2","r0rjyglh94","one_one","1","indirect_first","0","ar06rg30","1","21","1","1","3","1","","0","1","0","1071.9350001309067","","","<img src = 'targets/mask.png' width = '100%;'>","68","neg","GS","GSnew","1","category1/GS3.png","targets/20.png","0","indirect","18",""
"","html-keyboard-response","167","456192","0.0-10.0-0.3","r0rjyglh94","one_one","1","indirect_first","0","ar06rg30","1","21","1","1","3","1","","0","1","0","null","","","<div style=""font-size:60px;"">+</div>","null","","","","","","","","","",""
"","html-keyboard-response","168","456284","0.0-10.0-1.3","r0rjyglh94","one_one","1","indirect_first","0","ar06rg30","1","21","1","1","3","1","","0","1","0","null","","","<img src = 'category1/ma.png' width = '100%;'>","null","","","","","","","","","",""
"","html-keyboard-response","169","456559","0.0-10.0-2.3","r0rjyglh94","one_one","1","indirect_first","0","ar06rg30","1","21","1","1","3","1","","0","1","0","null","","","<img src = 'targets/4.png' width = '100%;'>","null","","","","","","","","","",""
"","html-keyboard-response","170","457663","0.0-10.0-3.3","r0rjyglh94","one_one","1","indirect_first","0","ar06rg30","1","21","1","1","3","1","","0","1","0","1099.2000000551343","","","<img src = 'targets/mask.png' width = '100%;'>","68","neg","GS","abstract","1","category1/ma.png","targets/4.png","0","indirect","19",""
"","html-keyboard-response","171","459189","0.0-10.0-0.4","r0rjyglh94","one_one","1","indirect_first","0","ar06rg30","1","21","1","1","3","1","","0","1","0","null","","","<div style=""font-size:60px;"">+</div>","null","","","","","","","","","",""
"","html-keyboard-response","172","459283","0.0-10.0-1.4","r0rjyglh94","one_one","1","indirect_first","0","ar06rg30","1","21","1","1","3","1","","0","1","0","null","","","<img src = 'category3/wang.png' width = '100%;'>","null","","","","","","","","","",""
"","html-keyboard-response","173","459556","0.0-10.0-2.4","r0rjyglh94","one_one","1","indirect_first","0","ar06rg30","1","21","1","1","3","1","","0","1","0","null","","","<img src = 'targets/17.png' width = '100%;'>","null","","","","","","","","","",""
"","html-keyboard-response","174","460514","0.0-10.0-3.4","r0rjyglh94","one_one","1","indirect_first","0","ar06rg30","1","21","1","1","3","1","","0","1","0","954.9400000832975","","","<img src = 'targets/mask.png' width = '100%;'>","75","neg","GS","abstract","3","category3/wang.png","targets/17.png","1","indirect","20",""
"","html-keyboard-response","175","462023","0.0-10.0-0.5","r0rjyglh94","one_one","1","indirect_first","0","ar06rg30","1","21","1","1","3","1","","0","1","0","null","","","<div style=""font-size:60px;"">+</div>","null","","","","","","","","","",""
"","html-keyboard-response","176","462122","0.0-10.0-1.5","r0rjyglh94","one_one","1","indirect_first","0","ar06rg30","1","21","1","1","3","1","","0","1","0","null","","","<img src = 'category2/men.png' width = '100%;'>","null","","","","","","","","","",""
"","html-keyboard-response","177","462386","0.0-10.0-2.5","r0rjyglh94","one_one","1","indirect_first","0","ar06rg30","1","21","1","1","3","1","","0","1","0","null","","","<img src = 'targets/28.png' width = '100%;'>","null","","","","","","","","","",""
"","html-keyboard-response","178","463490","0.0-10.0-3.5","r0rjyglh94","one_one","1","indirect_first","0","ar06rg30","1","21","1","1","3","1","","0","1","0","1101.6599999275059","","","<img src = 'targets/mask.png' width = '100%;'>","75","pos","GS","abstract","2","category2/men.png","targets/28.png","1","indirect","21",""
"","html-keyboard-response","179","465018","0.0-10.0-0.6","r0rjyglh94","one_one","1","indirect_first","0","ar06rg30","1","21","1","1","3","1","","0","1","0","null","","","<div style=""font-size:60px;"">+</div>","null","","","","","","","","","",""
"","html-keyboard-response","180","465117","0.0-10.0-1.6","r0rjyglh94","one_one","1","indirect_first","0","ar06rg30","1","21","1","1","3","1","","0","1","0","null","","","<img src = 'category4/GS3.png' width = '100%;'>","null","","","","","","","","","",""
"","html-keyboard-response","181","465384","0.0-10.0-2.6","r0rjyglh94","one_one","1","indirect_first","0","ar06rg30","1","21","1","1","3","1","","0","1","0","null","","","<img src = 'targets/29.png' width = '100%;'>","null","","","","","","","","","",""
"","html-keyboard-response","182","466606","0.0-10.0-3.6","r0rjyglh94","one_one","1","indirect_first","0","ar06rg30","1","21","1","1","3","1","","0","1","0","1219.9200000613928","","","<img src = 'targets/mask.png' width = '100%;'>","75","pos","GS","GSnew","4","category4/GS3.png","targets/29.png","1","indirect","22",""
"","html-keyboard-response","183","468132","0.0-10.0-0.7","r0rjyglh94","one_one","1","indirect_first","0","ar06rg30","1","21","1","1","3","1","","0","1","0","null","","","<div style=""font-size:60px;"">+</div>","null","","","","","","","","","",""
"","html-keyboard-response","184","468233","0.0-10.0-1.7","r0rjyglh94","one_one","1","indirect_first","0","ar06rg30","1","21","1","1","3","1","","0","1","0","null","","","<img src = 'category4/GS1.png' width = '100%;'>","null","","","","","","","","","",""
"","html-keyboard-response","185","468498","0.0-10.0-2.7","r0rjyglh94","one_one","1","indirect_first","0","ar06rg30","1","21","1","1","3","1","","0","1","0","null","","","<img src = 'targets/42.png' width = '100%;'>","null","","","","","","","","","",""
"","html-keyboard-response","186","469686","0.0-10.0-3.7","r0rjyglh94","one_one","1","indirect_first","0","ar06rg30","1","21","1","1","3","1","","0","1","0","1183.4099998231977","","","<img src = 'targets/mask.png' width = '100%;'>","75","pos","GS","GSnew","4","category4/GS1.png","targets/42.png","1","indirect","23",""
"","html-keyboard-response","187","471198","0.0-10.0-0.8","r0rjyglh94","one_one","1","indirect_first","0","ar06rg30","1","21","1","1","3","1","","0","1","0","null","","","<div style=""font-size:60px;"">+</div>","null","","","","","","","","","",""
"","html-keyboard-response","188","471294","0.0-10.0-1.8","r0rjyglh94","one_one","1","indirect_first","0","ar06rg30","1","21","1","1","3","1","","0","1","0","null","","","<img src = 'category2/GS3.png' width = '100%;'>","null","","","","","","","","","",""
"","html-keyboard-response","189","471563","0.0-10.0-2.8","r0rjyglh94","one_one","1","indirect_first","0","ar06rg30","1","21","1","1","3","1","","0","1","0","null","","","<img src = 'targets/45.png' width = '100%;'>","null","","","","","","","","","",""
"","html-keyboard-response","190","472466","0.0-10.0-3.8","r0rjyglh94","one_one","1","indirect_first","0","ar06rg30","1","21","1","1","3","1","","0","1","0","899.3849998805672","","","<img src = 'targets/mask.png' width = '100%;'>","68","pos","GS","GSnew","2","category2/GS3.png","targets/45.png","0","indirect","24",""
"","html-keyboard-response","191","473992","0.0-10.0-0.9","r0rjyglh94","one_one","1","indirect_first","0","ar06rg30","1","21","1","1","3","1","","0","1","0","null","","","<div style=""font-size:60px;"">+</div>","null","","","","","","","","","",""
"","html-keyboard-response","192","474090","0.0-10.0-1.9","r0rjyglh94","one_one","1","indirect_first","0","ar06rg30","1","21","1","1","3","1","","0","1","0","null","","","<img src = 'category4/lin.png' width = '100%;'>","null","","","","","","","","","",""
"","html-keyboard-response","193","474359","0.0-10.0-2.9","r0rjyglh94","one_one","1","indirect_first","0","ar06rg30","1","21","1","1","3","1","","0","1","0","null","","","<img src = 'targets/9.png' width = '100%;'>","null","","","","","","","","","",""
"","html-keyboard-response","194","476402","0.0-10.0-3.9","r0rjyglh94","one_one","1","indirect_first","0","ar06rg30","1","21","1","1","3","1","","0","1","0","2040.9349999390543","","","<img src = 'targets/mask.png' width = '100%;'>","75","pos","GS","abstract","4","category4/lin.png","targets/9.png","1","indirect","25",""
"","html-keyboard-response","195","477922","0.0-10.0-0.10","r0rjyglh94","one_one","1","indirect_first","0","ar06rg30","1","21","1","1","3","1","","0","1","0","null","","","<div style=""font-size:60px;"">+</div>","null","","","","","","","","","",""
"","html-keyboard-response","196","478023","0.0-10.0-1.10","r0rjyglh94","one_one","1","indirect_first","0","ar06rg30","1","21","1","1","3","1","","0","1","0","null","","","<img src = 'category1/GS2.png' width = '100%;'>","null","","","","","","","","","",""
"","html-keyboard-response","197","478289","0.0-10.0-2.10","r0rjyglh94","one_one","1","indirect_first","0","ar06rg30","1","21","1","1","3","1","","0","1","0","null","","","<img src = 'targets/44.png' width = '100%;'>","null","","","","","","","","","",""
"","html-keyboard-response","198","480309","0.0-10.0-3.10","r0rjyglh94","one_one","1","indirect_first","0","ar06rg30","1","21","1","1","3","1","","0","1","0","2016.1299998871982","","","<img src = 'targets/mask.png' width = '100%;'>","68","neg","GS","GSnew","1","category1/GS2.png","targets/44.png","0","indirect","26",""
"","html-keyboard-response","199","481838","0.0-10.0-0.11","r0rjyglh94","one_one","1","indirect_first","0","ar06rg30","1","21","1","1","3","1","","0","1","0","null","","","<div style=""font-size:60px;"">+</div>","null","","","","","","","","","",""
"","html-keyboard-response","200","481934","0.0-10.0-1.11","r0rjyglh94","one_one","1","indirect_first","0","ar06rg30","1","21","1","1","3","1","","0","1","0","null","","","<img src = 'category2/GS1.png' width = '100%;'>","null","","","","","","","","","",""
"","html-keyboard-response","201","482202","0.0-10.0-2.11","r0rjyglh94","one_one","1","indirect_first","0","ar06rg30","1","21","1","1","3","1","","0","1","0","null","","","<img src = 'targets/23.png' width = '100%;'>","null","","","","","","","","","",""
"","html-keyboard-response","202","483509","0.0-10.0-3.11","r0rjyglh94","one_one","1","indirect_first","0","ar06rg30","1","21","1","1","3","1","","0","1","0","1302.8200000990182","","","<img src = 'targets/mask.png' width = '100%;'>","75","pos","GS","GSnew","2","category2/GS1.png","targets/23.png","1","indirect","27",""
"","html-keyboard-response","203","485034","0.0-10.0-0.12","r0rjyglh94","one_one","1","indirect_first","0","ar06rg30","1","21","1","1","3","1","","0","1","0","null","","","<div style=""font-size:60px;"">+</div>","null","","","","","","","","","",""
"","html-keyboard-response","204","485133","0.0-10.0-1.12","r0rjyglh94","one_one","1","indirect_first","0","ar06rg30","1","21","1","1","3","1","","0","1","0","null","","","<img src = 'category3/GS2.png' width = '100%;'>","null","","","","","","","","","",""
"","html-keyboard-response","205","485399","0.0-10.0-2.12","r0rjyglh94","one_one","1","indirect_first","0","ar06rg30","1","21","1","1","3","1","","0","1","0","null","","","<img src = 'targets/34.png' width = '100%;'>","null","","","","","","","","","",""
"","html-keyboard-response","206","486672","0.0-10.0-3.12","r0rjyglh94","one_one","1","indirect_first","0","ar06rg30","1","21","1","1","3","1","","0","1","0","1270.625000121072","","","<img src = 'targets/mask.png' width = '100%;'>","75","neg","GS","GSnew","3","category3/GS2.png","targets/34.png","1","indirect","28",""
"","html-keyboard-response","207","488196","0.0-10.0-0.13","r0rjyglh94","one_one","1","indirect_first","0","ar06rg30","1","21","1","1","3","1","","0","1","0","null","","","<div style=""font-size:60px;"">+</div>","null","","","","","","","","","",""
"","html-keyboard-response","208","488297","0.0-10.0-1.13","r0rjyglh94","one_one","1","indirect_first","0","ar06rg30","1","21","1","1","3","1","","0","1","0","null","","","<img src = 'category4/GS2.png' width = '100%;'>","null","","","","","","","","","",""
"","html-keyboard-response","209","488562","0.0-10.0-2.13","r0rjyglh94","one_one","1","indirect_first","0","ar06rg30","1","21","1","1","3","1","","0","1","0","null","","","<img src = 'targets/5.png' width = '100%;'>","null","","","","","","","","","",""
"","html-keyboard-response","210","489174","0.0-10.0-3.13","r0rjyglh94","one_one","1","indirect_first","0","ar06rg30","1","21","1","1","3","1","","0","1","0","607.9400000162423","","","<img src = 'targets/mask.png' width = '100%;'>","75","pos","GS","GSnew","4","category4/GS2.png","targets/5.png","1","indirect","29",""
"","html-keyboard-response","211","490681","0.0-10.0-0.14","r0rjyglh94","one_one","1","indirect_first","0","ar06rg30","1","21","1","1","3","1","","0","1","0","null","","","<div style=""font-size:60px;"">+</div>","null","","","","","","","","","",""
"","html-keyboard-response","212","490777","0.0-10.0-1.14","r0rjyglh94","one_one","1","indirect_first","0","ar06rg30","1","21","1","1","3","1","","0","1","0","null","","","<img src = 'category3/GS3.png' width = '100%;'>","null","","","","","","","","","",""
"","html-keyboard-response","213","491045","0.0-10.0-2.14","r0rjyglh94","one_one","1","indirect_first","0","ar06rg30","1","21","1","1","3","1","","0","1","0","null","","","<img src = 'targets/6.png' width = '100%;'>","null","","","","","","","","","",""
"","html-keyboard-response","214","491852","0.0-10.0-3.14","r0rjyglh94","one_one","1","indirect_first","0","ar06rg30","1","21","1","1","3","1","","0","1","0","805.4100000299513","","","<img src = 'targets/mask.png' width = '100%;'>","75","neg","GS","GSnew","3","category3/GS3.png","targets/6.png","1","indirect","30",""
"","html-keyboard-response","215","493359","0.0-10.0-0.15","r0rjyglh94","one_one","1","indirect_first","0","ar06rg30","1","21","1","1","3","1","","0","1","0","null","","","<div style=""font-size:60px;"">+</div>","null","","","","","","","","","",""
"","html-keyboard-response","216","493458","0.0-10.0-1.15","r0rjyglh94","one_one","1","indirect_first","0","ar06rg30","1","21","1","1","3","1","","0","1","0","null","","","<img src = 'category3/GS1.png' width = '100%;'>","null","","","","","","","","","",""
"","html-keyboard-response","217","493726","0.0-10.0-2.15","r0rjyglh94","one_one","1","indirect_first","0","ar06rg30","1","21","1","1","3","1","","0","1","0","null","","","<img src = 'targets/21.png' width = '100%;'>","null","","","","","","","","","",""
"","html-keyboard-response","218","494717","0.0-10.0-3.15","r0rjyglh94","one_one","1","indirect_first","0","ar06rg30","1","21","1","1","3","1","","0","1","0","987.4550001695752","","","<img src = 'targets/mask.png' width = '100%;'>","68","neg","GS","GSnew","3","category3/GS1.png","targets/21.png","0","indirect","31",""
"","survey-html-form","219","500963","0.0-11.0","r0rjyglh94","one_one","1","indirect_first","0","ar06rg30","1","21","1","1","3","1","","0","1","0","5736.239999998361","","{}","","","","","","","","","","","",""
"","image-slider-response","220","515810","0.0-12.0-0.0","r0rjyglh94","one_one","1","indirect_first","0","ar06rg30","1","21","1","1","3","1","","0","1","0","12836.940000066534","","","","","pos","GS","GSnew","4","category4/GS2.png","targets/5.png","","direct","","-9"
"","image-slider-response","221","520355","0.0-12.0-0.1","r0rjyglh94","one_one","1","indirect_first","0","ar06rg30","1","21","1","1","3","1","","0","1","0","4542.4499998334795","","","","","pos","GS","GSold","2","category2/CS5.png","targets/18.png","","direct","","-37"
"","image-slider-response","222","523450","0.0-12.0-0.2","r0rjyglh94","one_one","1","indirect_first","0","ar06rg30","1","21","1","1","3","1","","0","1","0","3094.2400000058115","","","","","neg","GS","GSold","1","category1/CS7.png","targets/48.png","","direct","","-18"
"","image-slider-response","223","527411","0.0-12.0-0.3","r0rjyglh94","one_one","1","indirect_first","0","ar06rg30","1","21","1","1","3","1","","0","1","0","3959.1400001663715","","","","","neg","GS","GSold","3","category3/CS7.png","targets/31.png","","direct","","11"
"","image-slider-response","224","534921","0.0-12.0-0.4","r0rjyglh94","one_one","1","indirect_first","0","ar06rg30","1","21","1","1","3","1","","0","1","0","7509.605000028387","","","","","neg","GS","GSold","1","category1/CS3.png","targets/24.png","","direct","","40"
"","image-slider-response","225","538377","0.0-12.0-0.5","r0rjyglh94","one_one","1","indirect_first","0","ar06rg30","1","21","1","1","3","1","","0","1","0","3454.0049999486655","","","","","neg","GS","GSold","3","category3/CS1.png","targets/12.png","","direct","","27"
"","image-slider-response","226","542233","0.0-12.0-0.6","r0rjyglh94","one_one","1","indirect_first","0","ar06rg30","1","21","1","1","3","1","","0","1","0","3854.479999979958","","","","","neg","GS","GSnew","1","category1/GS2.png","targets/44.png","","direct","","-12"
"","image-slider-response","227","550017","0.0-12.0-0.7","r0rjyglh94","one_one","1","indirect_first","0","ar06rg30","1","21","1","1","3","1","","0","1","0","7782.439999980852","","","","","neg","GS","GSnew","3","category3/GS2.png","targets/34.png","","direct","","-62"
"","image-slider-response","228","553993","0.0-12.0-0.8","r0rjyglh94","one_one","1","indirect_first","0","ar06rg30","1","21","1","1","3","1","","0","1","0","3974.2600000463426","","","","","pos","GS","GSold","4","category4/CS6.png","targets/37.png","","direct","","87"
"","image-slider-response","229","556818","0.0-12.0-0.9","r0rjyglh94","one_one","1","indirect_first","0","ar06rg30","1","21","1","1","3","1","","0","1","0","2823.1800000648946","","","","","neg","GS","GSnew","1","category1/GS1.png","targets/2.png","","direct","","63"
"","image-slider-response","230","560105","0.0-12.0-0.10","r0rjyglh94","one_one","1","indirect_first","0","ar06rg30","1","21","1","1","3","1","","0","1","0","3284.84999993816","","","","","pos","GS","GSnew","4","category4/GS1.png","targets/42.png","","direct","","34"
"","image-slider-response","231","564777","0.0-12.0-0.11","r0rjyglh94","one_one","1","indirect_first","0","ar06rg30","1","21","1","1","3","1","","0","1","0","4670.60500010848","","","","","pos","CS","CS","2","category2/CS9.png","targets/33.png","","direct","","75"
"","image-slider-response","232","567961","0.0-12.0-0.12","r0rjyglh94","one_one","1","indirect_first","0","ar06rg30","1","21","1","1","3","1","","0","1","0","3181.984999915585","","","","","pos","GS","GSold","4","category4/CS10.png","targets/8.png","","direct","","86"
"","image-slider-response","233","575202","0.0-12.0-0.13","r0rjyglh94","one_one","1","indirect_first","0","ar06rg30","1","21","1","1","3","1","","0","1","0","7239.665000000969","","","","","pos","GS","abstract","4","category4/lin.png","targets/9.png","","direct","","86"
"","image-slider-response","234","578745","0.0-12.0-0.14","r0rjyglh94","one_one","1","indirect_first","0","ar06rg30","1","21","1","1","3","1","","0","1","0","3541.734999977052","","","","","neg","CS","CS","3","category3/CS5.png","targets/26.png","","direct","","-92"
"","image-slider-response","235","583905","0.0-12.0-0.15","r0rjyglh94","one_one","1","indirect_first","0","ar06rg30","1","21","1","1","3","1","","0","1","0","5158.580000046641","","","","","neg","GS","GSnew","3","category3/GS3.png","targets/6.png","","direct","","-20"
"","image-slider-response","236","586521","0.0-12.0-0.16","r0rjyglh94","one_one","1","indirect_first","0","ar06rg30","1","21","1","1","3","1","","0","1","0","2614.429999841377","","","","","neg","GS","GSnew","3","category3/GS1.png","targets/21.png","","direct","","-30"
"","image-slider-response","237","590425","0.0-12.0-0.17","r0rjyglh94","one_one","1","indirect_first","0","ar06rg30","1","21","1","1","3","1","","0","1","0","3902.754999930039","","","","","pos","GS","GSnew","2","category2/GS2.png","targets/39.png","","direct","","-14"
"","image-slider-response","238","594395","0.0-12.0-0.18","r0rjyglh94","one_one","1","indirect_first","0","ar06rg30","1","21","1","1","3","1","","0","1","0","3966.2150000222027","","","","","pos","GS","GSold","2","category2/CS2.png","targets/10.png","","direct","","56"
"","image-slider-response","239","596995","0.0-12.0-0.19","r0rjyglh94","one_one","1","indirect_first","0","ar06rg30","1","21","1","1","3","1","","0","1","0","2598.3899999409914","","","","","pos","GS","GSnew","4","category4/GS3.png","targets/29.png","","direct","","31"
"","image-slider-response","240","599252","0.0-12.0-0.20","r0rjyglh94","one_one","1","indirect_first","0","ar06rg30","1","21","1","1","3","1","","0","1","0","2255.394999869168","","","","","neg","GS","abstract","3","category3/wang.png","targets/17.png","","direct","","39"
"","image-slider-response","241","601907","0.0-12.0-0.21","r0rjyglh94","one_one","1","indirect_first","0","ar06rg30","1","21","1","1","3","1","","0","1","0","2654.300000052899","","","","","pos","GS","GSold","2","category2/CS8.png","targets/16.png","","direct","","-14"
"","image-slider-response","242","604635","0.0-12.0-0.22","r0rjyglh94","one_one","1","indirect_first","0","ar06rg30","1","21","1","1","3","1","","0","1","0","2726.3799998909235","","","","","neg","GS","GSnew","1","category1/GS3.png","targets/20.png","","direct","","55"
"","image-slider-response","243","607083","0.0-12.0-0.23","r0rjyglh94","one_one","1","indirect_first","0","ar06rg30","1","21","1","1","3","1","","0","1","0","2446.8849999830127","","","","","neg","GS","abstract","1","category1/ma.png","targets/4.png","","direct","","58"
"","image-slider-response","244","609635","0.0-12.0-0.24","r0rjyglh94","one_one","1","indirect_first","0","ar06rg30","1","21","1","1","3","1","","0","1","0","2550.7950000464916","","","","","pos","CS","CS","4","category4/CS4.png","targets/14.png","","direct","","62"
"","image-slider-response","245","612219","0.0-12.0-0.25","r0rjyglh94","one_one","1","indirect_first","0","ar06rg30","1","21","1","1","3","1","","0","1","0","2582.440000027418","","","","","neg","GS","GSold","3","category3/CS6.png","targets/13.png","","direct","","-28"
"","image-slider-response","246","614499","0.0-12.0-0.26","r0rjyglh94","one_one","1","indirect_first","0","ar06rg30","1","21","1","1","3","1","","0","1","0","2278.0049999710172","","","","","pos","GS","GSnew","2","category2/GS3.png","targets/45.png","","direct","","20"
"","image-slider-response","247","617939","0.0-12.0-0.27","r0rjyglh94","one_one","1","indirect_first","0","ar06rg30","1","21","1","1","3","1","","0","1","0","3438.9349999837577","","","","","pos","GS","abstract","2","category2/men.png","targets/28.png","","direct","","35"
"","image-slider-response","248","620459","0.0-12.0-0.28","r0rjyglh94","one_one","1","indirect_first","0","ar06rg30","1","21","1","1","3","1","","0","1","0","2518.265000078827","","","","","pos","GS","GSnew","2","category2/GS1.png","targets/23.png","","direct","","28"
"","image-slider-response","249","623244","0.0-12.0-0.29","r0rjyglh94","one_one","1","indirect_first","0","ar06rg30","1","21","1","1","3","1","","0","1","0","2782.894999952987","","","","","neg","CS","CS","1","category1/CS9.png","targets/41.png","","direct","","44"
"","image-slider-response","250","627339","0.0-12.0-0.30","r0rjyglh94","one_one","1","indirect_first","0","ar06rg30","1","21","1","1","3","1","","0","1","0","4093.319999985397","","","","","pos","GS","GSold","4","category4/CS8.png","targets/7.png","","direct","","52"
"","image-slider-response","251","632491","0.0-12.0-0.31","r0rjyglh94","one_one","1","indirect_first","0","ar06rg30","1","21","1","1","3","1","","0","1","0","5148.994999937713","","","","","neg","GS","GSold","1","category1/CS5.png","targets/22.png","","direct","","-17"
"","survey-html-form","252","638148","0.0-13.0","r0rjyglh94","one_one","1","indirect_first","0","ar06rg30","1","21","1","1","3","1","","0","1","0","5655.97500000149","","{}","","","","","","","","","","","",""
"","image-slider-response","253","648195","0.0-14.0-0.0","r0rjyglh94","one_one","1","indirect_first","0","ar06rg30","1","21","1","1","3","1","","0","1","0","9041.674999985844","","","","","neg","All","all","1","category1/ma_all.png","","","all","","-21"
"","image-slider-response","254","651259","0.0-14.0-0.1","r0rjyglh94","one_one","1","indirect_first","0","ar06rg30","1","21","1","1","3","1","","0","1","0","3062.299999874085","","","","","pos","All","all","4","category4/lin_all.png","","","all","","35"
"","image-slider-response","255","654256","0.0-14.0-0.2","r0rjyglh94","one_one","1","indirect_first","0","ar06rg30","1","21","1","1","3","1","","0","1","0","2998.7950001377612","","","","","pos","All","all","2","category2/men_all.png","","","all","","67"
"","image-slider-response","256","656729","0.0-14.0-0.3","r0rjyglh94","one_one","1","indirect_first","0","ar06rg30","1","21","1","1","3","1","","0","1","0","2471.380000002682","","","","","neg","All","all","3","category3/wang_all.png","","","all","","-23"
"","survey-text","257","659353","0.0-15.0","r0rjyglh94","one_one","1","indirect_first","0","ar06rg30","1","21","1","1","3","1","","0","1","0","2610.0200000219047","","{""comment"":""""}","","","","","","","","","","","",""
"","survey-html-form","258","670193","0.0-16.0","r0rjyglh94","one_one","1","indirect_first","0","ar06rg30","1","21","1","1","3","1","","0","1","0","10838.320000097156","","{""hinschauen"":""0"",""ablenkung"":""1"",""gewissenhaft"":""0""}","","","","","","","","","","","",""
