"success","trial_type","trial_index","time_elapsed","internal_node_id","subject","condition","condition_code","measure","measure_code","codeword","gender","age","education","chinese","fach","handedness","comment","hinschauen","ablenkung","gewissenhaft","rt","url","responses","stimulus","key_press","val","type","type_specific","category","cs_selected","response","target","task","indirect","nr_pres"
"true","fullscreen","0","6458930","0.0-0.0","n52fub90as","one_one","1","direct_first","1","CK07ld12","0","24","1","1","3","1","","0","1","0","","","","","","","","","","","","","","",""
"","external-html","1","21369043","0.0-1.0","n52fub90as","one_one","1","direct_first","1","CK07ld12","0","24","1","1","3","1","","0","1","0","14924496.290000156","text/information.html","","","","","","","","","","","","",""
"","external-html","2","21446791","0.0-2.0","n52fub90as","one_one","1","direct_first","1","CK07ld12","0","24","1","1","3","1","","0","1","0","77602.67499997467","text/consent.html","","","","","","","","","","","","",""
"","survey-html-form","3","21500110","0.0-3.0","n52fub90as","one_one","1","direct_first","1","CK07ld12","0","24","1","1","3","1","","0","1","0","53306.93000019342","","{""codeword_enter"":""CK07ld12""}","","","","","","","","","","","",""
"","survey-html-form","4","21542930","0.0-4.0","n52fub90as","one_one","1","direct_first","1","CK07ld12","0","24","1","1","3","1","","0","1","0","42792.87999984622","","{""age"":""24"",""education"":""1"",""subject"":""3"",""gender"":""0"",""handedness"":""1"",""chinese"":""1""}","","","","","","","","","","","",""
"","survey-html-form","5","21562950","0.0-5.0","n52fub90as","one_one","1","direct_first","1","CK07ld12","0","24","1","1","3","1","","0","1","0","20009.37500014156","","{}","","","","","","","","","","","",""
"","html-keyboard-response","6","21566984","0.0-6.0-0.0-0.0","n52fub90as","one_one","1","direct_first","1","CK07ld12","0","24","1","1","3","1","","0","1","0","null","","","<div class = 'row'><div class = 'column'><img src = 'uspos/7580.bmp' width = '100%;'></div><div class = 'column'><img src = 'category3/CS6.png' width = '70%;'></div></div>","null","pos","CS","CS","3","category3/CS6.png","","","","",""
"","html-keyboard-response","7","21569509","0.0-6.0-0.0-0.1","n52fub90as","one_one","1","direct_first","1","CK07ld12","0","24","1","1","3","1","","0","1","0","null","","","<div class = 'row'><div class = 'column'><img src = 'category1/CS8.png' width = '70%;'></div><div class = 'column'><img src = 'usneg/3300.bmp' width = '100%;'></div></div>","null","neg","CS","CS","1","category1/CS8.png","","","","",""
"","html-keyboard-response","8","21572024","0.0-6.0-0.0-0.2","n52fub90as","one_one","1","direct_first","1","CK07ld12","0","24","1","1","3","1","","0","1","0","null","","","<div class = 'row'><div class = 'column'><img src = 'uspos/5831.bmp' width = '100%;'></div><div class = 'column'><img src = 'category2/CS9.png' width = '70%;'></div></div>","null","pos","CS","CS","2","category2/CS9.png","","","","",""
"","html-keyboard-response","9","21574549","0.0-6.0-0.0-0.3","n52fub90as","one_one","1","direct_first","1","CK07ld12","0","24","1","1","3","1","","0","1","0","null","","","<div class = 'row'><div class = 'column'><img src = 'category1/CS8.png' width = '70%;'></div><div class = 'column'><img src = 'usneg/3300.bmp' width = '100%;'></div></div>","null","neg","CS","CS","1","category1/CS8.png","","","","",""
"","html-keyboard-response","10","21577072","0.0-6.0-0.0-0.4","n52fub90as","one_one","1","direct_first","1","CK07ld12","0","24","1","1","3","1","","0","1","0","null","","","<div class = 'row'><div class = 'column'><img src = 'category2/CS9.png' width = '70%;'></div><div class = 'column'><img src = 'uspos/5831.bmp' width = '100%;'></div></div>","null","pos","CS","CS","2","category2/CS9.png","","","","",""
"","html-keyboard-response","11","21579592","0.0-6.0-0.0-0.5","n52fub90as","one_one","1","direct_first","1","CK07ld12","0","24","1","1","3","1","","0","1","0","null","","","<div class = 'row'><div class = 'column'><img src = 'category4/CS3.png' width = '70%;'></div><div class = 'column'><img src = 'usneg/9560.bmp' width = '100%;'></div></div>","null","neg","CS","CS","4","category4/CS3.png","","","","",""
"","html-keyboard-response","12","21582119","0.0-6.0-0.0-0.6","n52fub90as","one_one","1","direct_first","1","CK07ld12","0","24","1","1","3","1","","0","1","0","null","","","<div class = 'row'><div class = 'column'><img src = 'category3/CS6.png' width = '70%;'></div><div class = 'column'><img src = 'uspos/7580.bmp' width = '100%;'></div></div>","null","pos","CS","CS","3","category3/CS6.png","","","","",""
"","html-keyboard-response","13","21584641","0.0-6.0-0.0-0.7","n52fub90as","one_one","1","direct_first","1","CK07ld12","0","24","1","1","3","1","","0","1","0","null","","","<div class = 'row'><div class = 'column'><img src = 'usneg/3300.bmp' width = '100%;'></div><div class = 'column'><img src = 'category1/CS8.png' width = '70%;'></div></div>","null","neg","CS","CS","1","category1/CS8.png","","","","",""
"","html-keyboard-response","14","21587148","0.0-6.0-0.0-0.8","n52fub90as","one_one","1","direct_first","1","CK07ld12","0","24","1","1","3","1","","0","1","0","null","","","<div class = 'row'><div class = 'column'><img src = 'uspos/7580.bmp' width = '100%;'></div><div class = 'column'><img src = 'category3/CS6.png' width = '70%;'></div></div>","null","pos","CS","CS","3","category3/CS6.png","","","","",""
"","html-keyboard-response","15","21589656","0.0-6.0-0.0-0.9","n52fub90as","one_one","1","direct_first","1","CK07ld12","0","24","1","1","3","1","","0","1","0","null","","","<div class = 'row'><div class = 'column'><img src = 'category1/CS8.png' width = '70%;'></div><div class = 'column'><img src = 'usneg/3300.bmp' width = '100%;'></div></div>","null","neg","CS","CS","1","category1/CS8.png","","","","",""
"","html-keyboard-response","16","21592174","0.0-6.0-0.0-0.10","n52fub90as","one_one","1","direct_first","1","CK07ld12","0","24","1","1","3","1","","0","1","0","null","","","<div class = 'row'><div class = 'column'><img src = 'usneg/9560.bmp' width = '100%;'></div><div class = 'column'><img src = 'category4/CS3.png' width = '70%;'></div></div>","null","neg","CS","CS","4","category4/CS3.png","","","","",""
"","html-keyboard-response","17","21594687","0.0-6.0-0.0-0.11","n52fub90as","one_one","1","direct_first","1","CK07ld12","0","24","1","1","3","1","","0","1","0","null","","","<div class = 'row'><div class = 'column'><img src = 'uspos/5831.bmp' width = '100%;'></div><div class = 'column'><img src = 'category2/CS9.png' width = '70%;'></div></div>","null","pos","CS","CS","2","category2/CS9.png","","","","",""
"","html-keyboard-response","18","21597196","0.0-6.0-0.0-0.12","n52fub90as","one_one","1","direct_first","1","CK07ld12","0","24","1","1","3","1","","0","1","0","null","","","<div class = 'row'><div class = 'column'><img src = 'category1/CS8.png' width = '70%;'></div><div class = 'column'><img src = 'usneg/3300.bmp' width = '100%;'></div></div>","null","neg","CS","CS","1","category1/CS8.png","","","","",""
"","html-keyboard-response","19","21599713","0.0-6.0-0.0-0.13","n52fub90as","one_one","1","direct_first","1","CK07ld12","0","24","1","1","3","1","","0","1","0","null","","","<div class = 'row'><div class = 'column'><img src = 'usneg/9560.bmp' width = '100%;'></div><div class = 'column'><img src = 'category4/CS3.png' width = '70%;'></div></div>","null","neg","CS","CS","4","category4/CS3.png","","","","",""
"","html-keyboard-response","20","21602231","0.0-6.0-0.0-0.14","n52fub90as","one_one","1","direct_first","1","CK07ld12","0","24","1","1","3","1","","0","1","0","null","","","<div class = 'row'><div class = 'column'><img src = 'category2/CS9.png' width = '70%;'></div><div class = 'column'><img src = 'uspos/5831.bmp' width = '100%;'></div></div>","null","pos","CS","CS","2","category2/CS9.png","","","","",""
"","html-keyboard-response","21","21604743","0.0-6.0-0.0-0.15","n52fub90as","one_one","1","direct_first","1","CK07ld12","0","24","1","1","3","1","","0","1","0","null","","","<div class = 'row'><div class = 'column'><img src = 'uspos/7580.bmp' width = '100%;'></div><div class = 'column'><img src = 'category3/CS6.png' width = '70%;'></div></div>","null","pos","CS","CS","3","category3/CS6.png","","","","",""
"","html-keyboard-response","22","21607256","0.0-6.0-0.0-0.16","n52fub90as","one_one","1","direct_first","1","CK07ld12","0","24","1","1","3","1","","0","1","0","null","","","<div class = 'row'><div class = 'column'><img src = 'category4/CS3.png' width = '70%;'></div><div class = 'column'><img src = 'usneg/9560.bmp' width = '100%;'></div></div>","null","neg","CS","CS","4","category4/CS3.png","","","","",""
"","html-keyboard-response","23","21609767","0.0-6.0-0.0-0.17","n52fub90as","one_one","1","direct_first","1","CK07ld12","0","24","1","1","3","1","","0","1","0","null","","","<div class = 'row'><div class = 'column'><img src = 'uspos/5831.bmp' width = '100%;'></div><div class = 'column'><img src = 'category2/CS9.png' width = '70%;'></div></div>","null","pos","CS","CS","2","category2/CS9.png","","","","",""
"","html-keyboard-response","24","21612287","0.0-6.0-0.0-0.18","n52fub90as","one_one","1","direct_first","1","CK07ld12","0","24","1","1","3","1","","0","1","0","null","","","<div class = 'row'><div class = 'column'><img src = 'uspos/7580.bmp' width = '100%;'></div><div class = 'column'><img src = 'category3/CS6.png' width = '70%;'></div></div>","null","pos","CS","CS","3","category3/CS6.png","","","","",""
"","html-keyboard-response","25","21614806","0.0-6.0-0.0-0.19","n52fub90as","one_one","1","direct_first","1","CK07ld12","0","24","1","1","3","1","","0","1","0","null","","","<div class = 'row'><div class = 'column'><img src = 'category4/CS3.png' width = '70%;'></div><div class = 'column'><img src = 'usneg/9560.bmp' width = '100%;'></div></div>","null","neg","CS","CS","4","category4/CS3.png","","","","",""
"","survey-html-form","26","21618751","0.0-6.0-1.0","n52fub90as","one_one","1","direct_first","1","CK07ld12","0","24","1","1","3","1","","0","1","0","3428.129999898374","","{}","","","","","","","","","","","",""
"","html-keyboard-response","27","21622782","0.0-6.0-2.0-0.0","n52fub90as","one_one","1","direct_first","1","CK07ld12","0","24","1","1","3","1","","0","1","0","null","","","<div class = 'row'><div class = 'column'><img src = 'category1/CS8.png' width = '70%;'></div><div class = 'column'><img src = 'usneg/3300.bmp' width = '100%;'></div></div>","null","neg","CS","CS","1","category1/CS8.png","","","","",""
"","html-keyboard-response","28","21625294","0.0-6.0-2.0-0.1","n52fub90as","one_one","1","direct_first","1","CK07ld12","0","24","1","1","3","1","","0","1","0","null","","","<div class = 'row'><div class = 'column'><img src = 'category3/CS6.png' width = '70%;'></div><div class = 'column'><img src = 'uspos/7580.bmp' width = '100%;'></div></div>","null","pos","CS","CS","3","category3/CS6.png","","","","",""
"","html-keyboard-response","29","21627806","0.0-6.0-2.0-0.2","n52fub90as","one_one","1","direct_first","1","CK07ld12","0","24","1","1","3","1","","0","1","0","null","","","<div class = 'row'><div class = 'column'><img src = 'usneg/9560.bmp' width = '100%;'></div><div class = 'column'><img src = 'category4/CS3.png' width = '70%;'></div></div>","null","neg","CS","CS","4","category4/CS3.png","","","","",""
"","html-keyboard-response","30","21630326","0.0-6.0-2.0-0.3","n52fub90as","one_one","1","direct_first","1","CK07ld12","0","24","1","1","3","1","","0","1","0","null","","","<div class = 'row'><div class = 'column'><img src = 'usneg/3300.bmp' width = '100%;'></div><div class = 'column'><img src = 'category1/CS8.png' width = '70%;'></div></div>","null","neg","CS","CS","1","category1/CS8.png","","","","",""
"","html-keyboard-response","31","21632843","0.0-6.0-2.0-0.4","n52fub90as","one_one","1","direct_first","1","CK07ld12","0","24","1","1","3","1","","0","1","0","null","","","<div class = 'row'><div class = 'column'><img src = 'category4/CS3.png' width = '70%;'></div><div class = 'column'><img src = 'usneg/9560.bmp' width = '100%;'></div></div>","null","neg","CS","CS","4","category4/CS3.png","","","","",""
"","html-keyboard-response","32","21635367","0.0-6.0-2.0-0.5","n52fub90as","one_one","1","direct_first","1","CK07ld12","0","24","1","1","3","1","","0","1","0","null","","","<div class = 'row'><div class = 'column'><img src = 'uspos/7580.bmp' width = '100%;'></div><div class = 'column'><img src = 'category3/CS6.png' width = '70%;'></div></div>","null","pos","CS","CS","3","category3/CS6.png","","","","",""
"","html-keyboard-response","33","21637886","0.0-6.0-2.0-0.6","n52fub90as","one_one","1","direct_first","1","CK07ld12","0","24","1","1","3","1","","0","1","0","null","","","<div class = 'row'><div class = 'column'><img src = 'category2/CS9.png' width = '70%;'></div><div class = 'column'><img src = 'uspos/5831.bmp' width = '100%;'></div></div>","null","pos","CS","CS","2","category2/CS9.png","","","","",""
"","html-keyboard-response","34","21640399","0.0-6.0-2.0-0.7","n52fub90as","one_one","1","direct_first","1","CK07ld12","0","24","1","1","3","1","","0","1","0","null","","","<div class = 'row'><div class = 'column'><img src = 'category3/CS6.png' width = '70%;'></div><div class = 'column'><img src = 'uspos/7580.bmp' width = '100%;'></div></div>","null","pos","CS","CS","3","category3/CS6.png","","","","",""
"","html-keyboard-response","35","21642906","0.0-6.0-2.0-0.8","n52fub90as","one_one","1","direct_first","1","CK07ld12","0","24","1","1","3","1","","0","1","0","null","","","<div class = 'row'><div class = 'column'><img src = 'category4/CS3.png' width = '70%;'></div><div class = 'column'><img src = 'usneg/9560.bmp' width = '100%;'></div></div>","null","neg","CS","CS","4","category4/CS3.png","","","","",""
"","html-keyboard-response","36","21645421","0.0-6.0-2.0-0.9","n52fub90as","one_one","1","direct_first","1","CK07ld12","0","24","1","1","3","1","","0","1","0","null","","","<div class = 'row'><div class = 'column'><img src = 'uspos/5831.bmp' width = '100%;'></div><div class = 'column'><img src = 'category2/CS9.png' width = '70%;'></div></div>","null","pos","CS","CS","2","category2/CS9.png","","","","",""
"","html-keyboard-response","37","21647942","0.0-6.0-2.0-0.10","n52fub90as","one_one","1","direct_first","1","CK07ld12","0","24","1","1","3","1","","0","1","0","null","","","<div class = 'row'><div class = 'column'><img src = 'category1/CS8.png' width = '70%;'></div><div class = 'column'><img src = 'usneg/3300.bmp' width = '100%;'></div></div>","null","neg","CS","CS","1","category1/CS8.png","","","","",""
"","html-keyboard-response","38","21650462","0.0-6.0-2.0-0.11","n52fub90as","one_one","1","direct_first","1","CK07ld12","0","24","1","1","3","1","","0","1","0","null","","","<div class = 'row'><div class = 'column'><img src = 'category2/CS9.png' width = '70%;'></div><div class = 'column'><img src = 'uspos/5831.bmp' width = '100%;'></div></div>","null","pos","CS","CS","2","category2/CS9.png","","","","",""
"","html-keyboard-response","39","21652983","0.0-6.0-2.0-0.12","n52fub90as","one_one","1","direct_first","1","CK07ld12","0","24","1","1","3","1","","0","1","0","null","","","<div class = 'row'><div class = 'column'><img src = 'usneg/3300.bmp' width = '100%;'></div><div class = 'column'><img src = 'category1/CS8.png' width = '70%;'></div></div>","null","neg","CS","CS","1","category1/CS8.png","","","","",""
"","html-keyboard-response","40","21655502","0.0-6.0-2.0-0.13","n52fub90as","one_one","1","direct_first","1","CK07ld12","0","24","1","1","3","1","","0","1","0","null","","","<div class = 'row'><div class = 'column'><img src = 'uspos/7580.bmp' width = '100%;'></div><div class = 'column'><img src = 'category3/CS6.png' width = '70%;'></div></div>","null","pos","CS","CS","3","category3/CS6.png","","","","",""
"","html-keyboard-response","41","21658023","0.0-6.0-2.0-0.14","n52fub90as","one_one","1","direct_first","1","CK07ld12","0","24","1","1","3","1","","0","1","0","null","","","<div class = 'row'><div class = 'column'><img src = 'category2/CS9.png' width = '70%;'></div><div class = 'column'><img src = 'uspos/5831.bmp' width = '100%;'></div></div>","null","pos","CS","CS","2","category2/CS9.png","","","","",""
"","html-keyboard-response","42","21660541","0.0-6.0-2.0-0.15","n52fub90as","one_one","1","direct_first","1","CK07ld12","0","24","1","1","3","1","","0","1","0","null","","","<div class = 'row'><div class = 'column'><img src = 'category4/CS3.png' width = '70%;'></div><div class = 'column'><img src = 'usneg/9560.bmp' width = '100%;'></div></div>","null","neg","CS","CS","4","category4/CS3.png","","","","",""
"","html-keyboard-response","43","21663062","0.0-6.0-2.0-0.16","n52fub90as","one_one","1","direct_first","1","CK07ld12","0","24","1","1","3","1","","0","1","0","null","","","<div class = 'row'><div class = 'column'><img src = 'uspos/7580.bmp' width = '100%;'></div><div class = 'column'><img src = 'category3/CS6.png' width = '70%;'></div></div>","null","pos","CS","CS","3","category3/CS6.png","","","","",""
"","html-keyboard-response","44","21665591","0.0-6.0-2.0-0.17","n52fub90as","one_one","1","direct_first","1","CK07ld12","0","24","1","1","3","1","","0","1","0","null","","","<div class = 'row'><div class = 'column'><img src = 'category2/CS9.png' width = '70%;'></div><div class = 'column'><img src = 'uspos/5831.bmp' width = '100%;'></div></div>","null","pos","CS","CS","2","category2/CS9.png","","","","",""
"","html-keyboard-response","45","21668109","0.0-6.0-2.0-0.18","n52fub90as","one_one","1","direct_first","1","CK07ld12","0","24","1","1","3","1","","0","1","0","null","","","<div class = 'row'><div class = 'column'><img src = 'usneg/9560.bmp' width = '100%;'></div><div class = 'column'><img src = 'category4/CS3.png' width = '70%;'></div></div>","null","neg","CS","CS","4","category4/CS3.png","","","","",""
"","html-keyboard-response","46","21670630","0.0-6.0-2.0-0.19","n52fub90as","one_one","1","direct_first","1","CK07ld12","0","24","1","1","3","1","","0","1","0","null","","","<div class = 'row'><div class = 'column'><img src = 'category1/CS8.png' width = '70%;'></div><div class = 'column'><img src = 'usneg/3300.bmp' width = '100%;'></div></div>","null","neg","CS","CS","1","category1/CS8.png","","","","",""
"","survey-html-form","47","21672495","0.0-6.0-3.0","n52fub90as","one_one","1","direct_first","1","CK07ld12","0","24","1","1","3","1","","0","1","0","1358.0849999561906","","{}","","","","","","","","","","","",""
"","html-keyboard-response","48","21676517","0.0-6.0-4.0-0.0","n52fub90as","one_one","1","direct_first","1","CK07ld12","0","24","1","1","3","1","","0","1","0","null","","","<div class = 'row'><div class = 'column'><img src = 'category2/CS9.png' width = '70%;'></div><div class = 'column'><img src = 'uspos/5831.bmp' width = '100%;'></div></div>","null","pos","CS","CS","2","category2/CS9.png","","","","",""
"","html-keyboard-response","49","21679039","0.0-6.0-4.0-0.1","n52fub90as","one_one","1","direct_first","1","CK07ld12","0","24","1","1","3","1","","0","1","0","null","","","<div class = 'row'><div class = 'column'><img src = 'category4/CS3.png' width = '70%;'></div><div class = 'column'><img src = 'usneg/9560.bmp' width = '100%;'></div></div>","null","neg","CS","CS","4","category4/CS3.png","","","","",""
"","html-keyboard-response","50","21681573","0.0-6.0-4.0-0.2","n52fub90as","one_one","1","direct_first","1","CK07ld12","0","24","1","1","3","1","","0","1","0","null","","","<div class = 'row'><div class = 'column'><img src = 'uspos/7580.bmp' width = '100%;'></div><div class = 'column'><img src = 'category3/CS6.png' width = '70%;'></div></div>","null","pos","CS","CS","3","category3/CS6.png","","","","",""
"","html-keyboard-response","51","21684105","0.0-6.0-4.0-0.3","n52fub90as","one_one","1","direct_first","1","CK07ld12","0","24","1","1","3","1","","0","1","0","null","","","<div class = 'row'><div class = 'column'><img src = 'category1/CS8.png' width = '70%;'></div><div class = 'column'><img src = 'usneg/3300.bmp' width = '100%;'></div></div>","null","neg","CS","CS","1","category1/CS8.png","","","","",""
"","html-keyboard-response","52","21686631","0.0-6.0-4.0-0.4","n52fub90as","one_one","1","direct_first","1","CK07ld12","0","24","1","1","3","1","","0","1","0","null","","","<div class = 'row'><div class = 'column'><img src = 'uspos/7580.bmp' width = '100%;'></div><div class = 'column'><img src = 'category3/CS6.png' width = '70%;'></div></div>","null","pos","CS","CS","3","category3/CS6.png","","","","",""
"","html-keyboard-response","53","21689151","0.0-6.0-4.0-0.5","n52fub90as","one_one","1","direct_first","1","CK07ld12","0","24","1","1","3","1","","0","1","0","null","","","<div class = 'row'><div class = 'column'><img src = 'usneg/9560.bmp' width = '100%;'></div><div class = 'column'><img src = 'category4/CS3.png' width = '70%;'></div></div>","null","neg","CS","CS","4","category4/CS3.png","","","","",""
"","html-keyboard-response","54","21691671","0.0-6.0-4.0-0.6","n52fub90as","one_one","1","direct_first","1","CK07ld12","0","24","1","1","3","1","","0","1","0","null","","","<div class = 'row'><div class = 'column'><img src = 'category3/CS6.png' width = '70%;'></div><div class = 'column'><img src = 'uspos/7580.bmp' width = '100%;'></div></div>","null","pos","CS","CS","3","category3/CS6.png","","","","",""
"","html-keyboard-response","55","21694182","0.0-6.0-4.0-0.7","n52fub90as","one_one","1","direct_first","1","CK07ld12","0","24","1","1","3","1","","0","1","0","null","","","<div class = 'row'><div class = 'column'><img src = 'usneg/3300.bmp' width = '100%;'></div><div class = 'column'><img src = 'category1/CS8.png' width = '70%;'></div></div>","null","neg","CS","CS","1","category1/CS8.png","","","","",""
"","html-keyboard-response","56","21696699","0.0-6.0-4.0-0.8","n52fub90as","one_one","1","direct_first","1","CK07ld12","0","24","1","1","3","1","","0","1","0","null","","","<div class = 'row'><div class = 'column'><img src = 'category2/CS9.png' width = '70%;'></div><div class = 'column'><img src = 'uspos/5831.bmp' width = '100%;'></div></div>","null","pos","CS","CS","2","category2/CS9.png","","","","",""
"","html-keyboard-response","57","21699213","0.0-6.0-4.0-0.9","n52fub90as","one_one","1","direct_first","1","CK07ld12","0","24","1","1","3","1","","0","1","0","null","","","<div class = 'row'><div class = 'column'><img src = 'usneg/3300.bmp' width = '100%;'></div><div class = 'column'><img src = 'category1/CS8.png' width = '70%;'></div></div>","null","neg","CS","CS","1","category1/CS8.png","","","","",""
"","html-keyboard-response","58","21701726","0.0-6.0-4.0-0.10","n52fub90as","one_one","1","direct_first","1","CK07ld12","0","24","1","1","3","1","","0","1","0","null","","","<div class = 'row'><div class = 'column'><img src = 'category2/CS9.png' width = '70%;'></div><div class = 'column'><img src = 'uspos/5831.bmp' width = '100%;'></div></div>","null","pos","CS","CS","2","category2/CS9.png","","","","",""
"","html-keyboard-response","59","21704246","0.0-6.0-4.0-0.11","n52fub90as","one_one","1","direct_first","1","CK07ld12","0","24","1","1","3","1","","0","1","0","null","","","<div class = 'row'><div class = 'column'><img src = 'category4/CS3.png' width = '70%;'></div><div class = 'column'><img src = 'usneg/9560.bmp' width = '100%;'></div></div>","null","neg","CS","CS","4","category4/CS3.png","","","","",""
"","html-keyboard-response","60","21706771","0.0-6.0-4.0-0.12","n52fub90as","one_one","1","direct_first","1","CK07ld12","0","24","1","1","3","1","","0","1","0","null","","","<div class = 'row'><div class = 'column'><img src = 'uspos/7580.bmp' width = '100%;'></div><div class = 'column'><img src = 'category3/CS6.png' width = '70%;'></div></div>","null","pos","CS","CS","3","category3/CS6.png","","","","",""
"","html-keyboard-response","61","21709289","0.0-6.0-4.0-0.13","n52fub90as","one_one","1","direct_first","1","CK07ld12","0","24","1","1","3","1","","0","1","0","null","","","<div class = 'row'><div class = 'column'><img src = 'uspos/5831.bmp' width = '100%;'></div><div class = 'column'><img src = 'category2/CS9.png' width = '70%;'></div></div>","null","pos","CS","CS","2","category2/CS9.png","","","","",""
"","html-keyboard-response","62","21711804","0.0-6.0-4.0-0.14","n52fub90as","one_one","1","direct_first","1","CK07ld12","0","24","1","1","3","1","","0","1","0","null","","","<div class = 'row'><div class = 'column'><img src = 'usneg/9560.bmp' width = '100%;'></div><div class = 'column'><img src = 'category4/CS3.png' width = '70%;'></div></div>","null","neg","CS","CS","4","category4/CS3.png","","","","",""
"","html-keyboard-response","63","21714330","0.0-6.0-4.0-0.15","n52fub90as","one_one","1","direct_first","1","CK07ld12","0","24","1","1","3","1","","0","1","0","null","","","<div class = 'row'><div class = 'column'><img src = 'category1/CS8.png' width = '70%;'></div><div class = 'column'><img src = 'usneg/3300.bmp' width = '100%;'></div></div>","null","neg","CS","CS","1","category1/CS8.png","","","","",""
"","html-keyboard-response","64","21716865","0.0-6.0-4.0-0.16","n52fub90as","one_one","1","direct_first","1","CK07ld12","0","24","1","1","3","1","","0","1","0","null","","","<div class = 'row'><div class = 'column'><img src = 'category3/CS6.png' width = '70%;'></div><div class = 'column'><img src = 'uspos/7580.bmp' width = '100%;'></div></div>","null","pos","CS","CS","3","category3/CS6.png","","","","",""
"","html-keyboard-response","65","21719382","0.0-6.0-4.0-0.17","n52fub90as","one_one","1","direct_first","1","CK07ld12","0","24","1","1","3","1","","0","1","0","null","","","<div class = 'row'><div class = 'column'><img src = 'category4/CS3.png' width = '70%;'></div><div class = 'column'><img src = 'usneg/9560.bmp' width = '100%;'></div></div>","null","neg","CS","CS","4","category4/CS3.png","","","","",""
"","html-keyboard-response","66","21721894","0.0-6.0-4.0-0.18","n52fub90as","one_one","1","direct_first","1","CK07ld12","0","24","1","1","3","1","","0","1","0","null","","","<div class = 'row'><div class = 'column'><img src = 'usneg/3300.bmp' width = '100%;'></div><div class = 'column'><img src = 'category1/CS8.png' width = '70%;'></div></div>","null","neg","CS","CS","1","category1/CS8.png","","","","",""
"","html-keyboard-response","67","21724414","0.0-6.0-4.0-0.19","n52fub90as","one_one","1","direct_first","1","CK07ld12","0","24","1","1","3","1","","0","1","0","null","","","<div class = 'row'><div class = 'column'><img src = 'uspos/5831.bmp' width = '100%;'></div><div class = 'column'><img src = 'category2/CS9.png' width = '70%;'></div></div>","null","pos","CS","CS","2","category2/CS9.png","","","","",""
"","survey-html-form","68","21726999","0.0-6.0-5.0","n52fub90as","one_one","1","direct_first","1","CK07ld12","0","24","1","1","3","1","","0","1","0","2081.8950000703335","","{}","","","","","","","","","","","",""
"","html-keyboard-response","69","21731039","0.0-6.0-6.0-0.0","n52fub90as","one_one","1","direct_first","1","CK07ld12","0","24","1","1","3","1","","0","1","0","null","","","<div class = 'row'><div class = 'column'><img src = 'uspos/7580.bmp' width = '100%;'></div><div class = 'column'><img src = 'category3/CS6.png' width = '70%;'></div></div>","null","pos","CS","CS","3","category3/CS6.png","","","","",""
"","html-keyboard-response","70","21733567","0.0-6.0-6.0-0.1","n52fub90as","one_one","1","direct_first","1","CK07ld12","0","24","1","1","3","1","","0","1","0","null","","","<div class = 'row'><div class = 'column'><img src = 'usneg/3300.bmp' width = '100%;'></div><div class = 'column'><img src = 'category1/CS8.png' width = '70%;'></div></div>","null","neg","CS","CS","1","category1/CS8.png","","","","",""
"","html-keyboard-response","71","21736087","0.0-6.0-6.0-0.2","n52fub90as","one_one","1","direct_first","1","CK07ld12","0","24","1","1","3","1","","0","1","0","null","","","<div class = 'row'><div class = 'column'><img src = 'category4/CS3.png' width = '70%;'></div><div class = 'column'><img src = 'usneg/9560.bmp' width = '100%;'></div></div>","null","neg","CS","CS","4","category4/CS3.png","","","","",""
"","html-keyboard-response","72","21738604","0.0-6.0-6.0-0.3","n52fub90as","one_one","1","direct_first","1","CK07ld12","0","24","1","1","3","1","","0","1","0","null","","","<div class = 'row'><div class = 'column'><img src = 'uspos/7580.bmp' width = '100%;'></div><div class = 'column'><img src = 'category3/CS6.png' width = '70%;'></div></div>","null","pos","CS","CS","3","category3/CS6.png","","","","",""
"","html-keyboard-response","73","21741119","0.0-6.0-6.0-0.4","n52fub90as","one_one","1","direct_first","1","CK07ld12","0","24","1","1","3","1","","0","1","0","null","","","<div class = 'row'><div class = 'column'><img src = 'category2/CS9.png' width = '70%;'></div><div class = 'column'><img src = 'uspos/5831.bmp' width = '100%;'></div></div>","null","pos","CS","CS","2","category2/CS9.png","","","","",""
"","html-keyboard-response","74","21743640","0.0-6.0-6.0-0.5","n52fub90as","one_one","1","direct_first","1","CK07ld12","0","24","1","1","3","1","","0","1","0","null","","","<div class = 'row'><div class = 'column'><img src = 'usneg/3300.bmp' width = '100%;'></div><div class = 'column'><img src = 'category1/CS8.png' width = '70%;'></div></div>","null","neg","CS","CS","1","category1/CS8.png","","","","",""
"","html-keyboard-response","75","21746158","0.0-6.0-6.0-0.6","n52fub90as","one_one","1","direct_first","1","CK07ld12","0","24","1","1","3","1","","0","1","0","null","","","<div class = 'row'><div class = 'column'><img src = 'usneg/9560.bmp' width = '100%;'></div><div class = 'column'><img src = 'category4/CS3.png' width = '70%;'></div></div>","null","neg","CS","CS","4","category4/CS3.png","","","","",""
"","html-keyboard-response","76","21748670","0.0-6.0-6.0-0.7","n52fub90as","one_one","1","direct_first","1","CK07ld12","0","24","1","1","3","1","","0","1","0","null","","","<div class = 'row'><div class = 'column'><img src = 'usneg/3300.bmp' width = '100%;'></div><div class = 'column'><img src = 'category1/CS8.png' width = '70%;'></div></div>","null","neg","CS","CS","1","category1/CS8.png","","","","",""
"","html-keyboard-response","77","21751183","0.0-6.0-6.0-0.8","n52fub90as","one_one","1","direct_first","1","CK07ld12","0","24","1","1","3","1","","0","1","0","null","","","<div class = 'row'><div class = 'column'><img src = 'category2/CS9.png' width = '70%;'></div><div class = 'column'><img src = 'uspos/5831.bmp' width = '100%;'></div></div>","null","pos","CS","CS","2","category2/CS9.png","","","","",""
"","html-keyboard-response","78","21753708","0.0-6.0-6.0-0.9","n52fub90as","one_one","1","direct_first","1","CK07ld12","0","24","1","1","3","1","","0","1","0","null","","","<div class = 'row'><div class = 'column'><img src = 'usneg/9560.bmp' width = '100%;'></div><div class = 'column'><img src = 'category4/CS3.png' width = '70%;'></div></div>","null","neg","CS","CS","4","category4/CS3.png","","","","",""
"","html-keyboard-response","79","21756222","0.0-6.0-6.0-0.10","n52fub90as","one_one","1","direct_first","1","CK07ld12","0","24","1","1","3","1","","0","1","0","null","","","<div class = 'row'><div class = 'column'><img src = 'uspos/7580.bmp' width = '100%;'></div><div class = 'column'><img src = 'category3/CS6.png' width = '70%;'></div></div>","null","pos","CS","CS","3","category3/CS6.png","","","","",""
"","html-keyboard-response","80","21758735","0.0-6.0-6.0-0.11","n52fub90as","one_one","1","direct_first","1","CK07ld12","0","24","1","1","3","1","","0","1","0","null","","","<div class = 'row'><div class = 'column'><img src = 'category4/CS3.png' width = '70%;'></div><div class = 'column'><img src = 'usneg/9560.bmp' width = '100%;'></div></div>","null","neg","CS","CS","4","category4/CS3.png","","","","",""
"","html-keyboard-response","81","21761246","0.0-6.0-6.0-0.12","n52fub90as","one_one","1","direct_first","1","CK07ld12","0","24","1","1","3","1","","0","1","0","null","","","<div class = 'row'><div class = 'column'><img src = 'uspos/5831.bmp' width = '100%;'></div><div class = 'column'><img src = 'category2/CS9.png' width = '70%;'></div></div>","null","pos","CS","CS","2","category2/CS9.png","","","","",""
"","html-keyboard-response","82","21763766","0.0-6.0-6.0-0.13","n52fub90as","one_one","1","direct_first","1","CK07ld12","0","24","1","1","3","1","","0","1","0","null","","","<div class = 'row'><div class = 'column'><img src = 'usneg/9560.bmp' width = '100%;'></div><div class = 'column'><img src = 'category4/CS3.png' width = '70%;'></div></div>","null","neg","CS","CS","4","category4/CS3.png","","","","",""
"","html-keyboard-response","83","21766279","0.0-6.0-6.0-0.14","n52fub90as","one_one","1","direct_first","1","CK07ld12","0","24","1","1","3","1","","0","1","0","null","","","<div class = 'row'><div class = 'column'><img src = 'category3/CS6.png' width = '70%;'></div><div class = 'column'><img src = 'uspos/7580.bmp' width = '100%;'></div></div>","null","pos","CS","CS","3","category3/CS6.png","","","","",""
"","html-keyboard-response","84","21768789","0.0-6.0-6.0-0.15","n52fub90as","one_one","1","direct_first","1","CK07ld12","0","24","1","1","3","1","","0","1","0","null","","","<div class = 'row'><div class = 'column'><img src = 'uspos/5831.bmp' width = '100%;'></div><div class = 'column'><img src = 'category2/CS9.png' width = '70%;'></div></div>","null","pos","CS","CS","2","category2/CS9.png","","","","",""
"","html-keyboard-response","85","21771310","0.0-6.0-6.0-0.16","n52fub90as","one_one","1","direct_first","1","CK07ld12","0","24","1","1","3","1","","0","1","0","null","","","<div class = 'row'><div class = 'column'><img src = 'category1/CS8.png' width = '70%;'></div><div class = 'column'><img src = 'usneg/3300.bmp' width = '100%;'></div></div>","null","neg","CS","CS","1","category1/CS8.png","","","","",""
"","html-keyboard-response","86","21773837","0.0-6.0-6.0-0.17","n52fub90as","one_one","1","direct_first","1","CK07ld12","0","24","1","1","3","1","","0","1","0","null","","","<div class = 'row'><div class = 'column'><img src = 'uspos/5831.bmp' width = '100%;'></div><div class = 'column'><img src = 'category2/CS9.png' width = '70%;'></div></div>","null","pos","CS","CS","2","category2/CS9.png","","","","",""
"","html-keyboard-response","87","21776355","0.0-6.0-6.0-0.18","n52fub90as","one_one","1","direct_first","1","CK07ld12","0","24","1","1","3","1","","0","1","0","null","","","<div class = 'row'><div class = 'column'><img src = 'category3/CS6.png' width = '70%;'></div><div class = 'column'><img src = 'uspos/7580.bmp' width = '100%;'></div></div>","null","pos","CS","CS","3","category3/CS6.png","","","","",""
"","html-keyboard-response","88","21778877","0.0-6.0-6.0-0.19","n52fub90as","one_one","1","direct_first","1","CK07ld12","0","24","1","1","3","1","","0","1","0","null","","","<div class = 'row'><div class = 'column'><img src = 'category1/CS8.png' width = '70%;'></div><div class = 'column'><img src = 'usneg/3300.bmp' width = '100%;'></div></div>","null","neg","CS","CS","1","category1/CS8.png","","","","",""
"","survey-html-form","89","21792153","0.0-7.0","n52fub90as","one_one","1","direct_first","1","CK07ld12","0","24","1","1","3","1","","0","1","0","12771.769999992102","","{}","","","","","","","","","","","",""
"","image-slider-response","90","21812609","0.0-8.0-0.0","n52fub90as","one_one","1","direct_first","1","CK07ld12","0","24","1","1","3","1","","0","1","0","18434.800000164658","","","","","neg","CS","CS","4","category4/CS3.png","-5","targets/27.png","direct","",""
"","image-slider-response","91","21819913","0.0-8.0-0.1","n52fub90as","one_one","1","direct_first","1","CK07ld12","0","24","1","1","3","1","","0","1","0","7296.609999846667","","","","","pos","GS","GSnew","3","category3/GS2.png","-44","targets/22.png","direct","",""
"","image-slider-response","92","21824762","0.0-8.0-0.2","n52fub90as","one_one","1","direct_first","1","CK07ld12","0","24","1","1","3","1","","0","1","0","4842.745000034571","","","","","neg","GS","GSnew","1","category1/GS2.png","28","targets/9.png","direct","",""
"","image-slider-response","93","21829194","0.0-8.0-0.3","n52fub90as","one_one","1","direct_first","1","CK07ld12","0","24","1","1","3","1","","0","1","0","4424.619999948889","","","","","pos","GS","GSnew","2","category2/GS3.png","-45","targets/1.png","direct","",""
"","image-slider-response","94","21832414","0.0-8.0-0.4","n52fub90as","one_one","1","direct_first","1","CK07ld12","0","24","1","1","3","1","","0","1","0","3213.1499999687076","","","","","neg","GS","GSnew","4","category4/GS2.png","28","targets/6.png","direct","",""
"","image-slider-response","95","21836027","0.0-8.0-0.5","n52fub90as","one_one","1","direct_first","1","CK07ld12","0","24","1","1","3","1","","0","1","0","3610.1249998919666","","","","","pos","GS","GSnew","3","category3/GS1.png","-33","targets/35.png","direct","",""
"","image-slider-response","96","21840962","0.0-8.0-0.6","n52fub90as","one_one","1","direct_first","1","CK07ld12","0","24","1","1","3","1","","0","1","0","4929.7599999681115","","","","","neg","GS","GSnew","4","category4/GS3.png","-19","targets/24.png","direct","",""
"","image-slider-response","97","21844338","0.0-8.0-0.7","n52fub90as","one_one","1","direct_first","1","CK07ld12","0","24","1","1","3","1","","0","1","0","3368.4199999570847","","","","","neg","GS","GSold","4","category4/CS2.png","-8","targets/40.png","direct","",""
"","image-slider-response","98","21846888","0.0-8.0-0.8","n52fub90as","one_one","1","direct_first","1","CK07ld12","0","24","1","1","3","1","","0","1","0","2545.105000026524","","","","","pos","GS","GSnew","3","category3/GS3.png","-15","targets/33.png","direct","",""
"","image-slider-response","99","21853803","0.0-8.0-0.9","n52fub90as","one_one","1","direct_first","1","CK07ld12","0","24","1","1","3","1","","0","1","0","6911.830000113696","","","","","neg","GS","abstract","1","category1/ma.png","14","targets/14.png","direct","",""
"","image-slider-response","100","21857794","0.0-8.0-0.10","n52fub90as","one_one","1","direct_first","1","CK07ld12","0","24","1","1","3","1","","0","1","0","3988.619999960065","","","","","pos","GS","GSold","3","category3/CS5.png","-10","targets/36.png","direct","",""
"","image-slider-response","101","21862874","0.0-8.0-0.11","n52fub90as","one_one","1","direct_first","1","CK07ld12","0","24","1","1","3","1","","0","1","0","5078.059999972582","","","","","pos","GS","GSold","3","category3/CS7.png","13","targets/32.png","direct","",""
"","image-slider-response","102","21868184","0.0-8.0-0.12","n52fub90as","one_one","1","direct_first","1","CK07ld12","0","24","1","1","3","1","","0","1","0","5305.8550001606345","","","","","pos","GS","GSnew","2","category2/GS2.png","-16","targets/13.png","direct","",""
"","image-slider-response","103","21872207","0.0-8.0-0.13","n52fub90as","one_one","1","direct_first","1","CK07ld12","0","24","1","1","3","1","","0","1","0","4015.87999984622","","","","","pos","CS","CS","2","category2/CS9.png","-22","targets/11.png","direct","",""
"","image-slider-response","104","21875082","0.0-8.0-0.14","n52fub90as","one_one","1","direct_first","1","CK07ld12","0","24","1","1","3","1","","0","1","0","2871.0700001120567","","","","","pos","GS","GSold","2","category2/CS6.png","-12","targets/20.png","direct","",""
"","image-slider-response","105","21878389","0.0-8.0-0.15","n52fub90as","one_one","1","direct_first","1","CK07ld12","0","24","1","1","3","1","","0","1","0","3301.5900000445545","","","","","pos","GS","abstract","3","category3/wang.png","-60","targets/25.png","direct","",""
"","image-slider-response","106","21882347","0.0-8.0-0.16","n52fub90as","one_one","1","direct_first","1","CK07ld12","0","24","1","1","3","1","","0","1","0","3954.9300000071526","","","","","neg","GS","GSold","1","category1/CS4.png","30","targets/16.png","direct","",""
"","image-slider-response","107","21885504","0.0-8.0-0.17","n52fub90as","one_one","1","direct_first","1","CK07ld12","0","24","1","1","3","1","","0","1","0","3153.2499999776483","","","","","neg","CS","CS","1","category1/CS8.png","19","targets/19.png","direct","",""
"","image-slider-response","108","21888470","0.0-8.0-0.18","n52fub90as","one_one","1","direct_first","1","CK07ld12","0","24","1","1","3","1","","0","1","0","2963.904999896884","","","","","pos","GS","GSold","2","category2/CS7.png","10","targets/43.png","direct","",""
"","image-slider-response","109","21891463","0.0-8.0-0.19","n52fub90as","one_one","1","direct_first","1","CK07ld12","0","24","1","1","3","1","","0","1","0","2989.5350001752377","","","","","neg","GS","GSnew","1","category1/GS3.png","-26","targets/48.png","direct","",""
"","image-slider-response","110","21894002","0.0-8.0-0.20","n52fub90as","one_one","1","direct_first","1","CK07ld12","0","24","1","1","3","1","","0","1","0","2534.534999869764","","","","","pos","GS","GSold","2","category2/CS8.png","-22","targets/17.png","direct","",""
"","image-slider-response","111","21897539","0.0-8.0-0.21","n52fub90as","one_one","1","direct_first","1","CK07ld12","0","24","1","1","3","1","","0","1","0","3532.395000103861","","","","","neg","GS","GSold","1","category1/CS9.png","-15","targets/15.png","direct","",""
"","image-slider-response","112","21900643","0.0-8.0-0.22","n52fub90as","one_one","1","direct_first","1","CK07ld12","0","24","1","1","3","1","","0","1","0","3097.3499999418855","","","","","pos","GS","GSnew","2","category2/GS1.png","-24","targets/41.png","direct","",""
"","image-slider-response","113","21903210","0.0-8.0-0.23","n52fub90as","one_one","1","direct_first","1","CK07ld12","0","24","1","1","3","1","","0","1","0","2562.5199999175966","","","","","neg","GS","abstract","4","category4/lin.png","-17","targets/21.png","direct","",""
"","image-slider-response","114","21905994","0.0-8.0-0.24","n52fub90as","one_one","1","direct_first","1","CK07ld12","0","24","1","1","3","1","","0","1","0","2776.0099999159575","","","","","pos","GS","GSold","3","category3/CS4.png","14","targets/18.png","direct","",""
"","image-slider-response","115","21908793","0.0-8.0-0.25","n52fub90as","one_one","1","direct_first","1","CK07ld12","0","24","1","1","3","1","","0","1","0","2794.0099998414516","","","","","neg","GS","GSnew","4","category4/GS1.png","22","targets/26.png","direct","",""
"","image-slider-response","116","21913020","0.0-8.0-0.26","n52fub90as","one_one","1","direct_first","1","CK07ld12","0","24","1","1","3","1","","0","1","0","4219.650000099093","","","","","neg","GS","GSold","1","category1/CS5.png","5","targets/3.png","direct","",""
"","image-slider-response","117","21917496","0.0-8.0-0.27","n52fub90as","one_one","1","direct_first","1","CK07ld12","0","24","1","1","3","1","","0","1","0","4471.91000007838","","","","","pos","CS","CS","3","category3/CS6.png","-16","targets/34.png","direct","",""
"","image-slider-response","118","21920305","0.0-8.0-0.28","n52fub90as","one_one","1","direct_first","1","CK07ld12","0","24","1","1","3","1","","0","1","0","2805.599999845028","","","","","neg","GS","GSnew","1","category1/GS1.png","-15","targets/38.png","direct","",""
"","image-slider-response","119","21923570","0.0-8.0-0.29","n52fub90as","one_one","1","direct_first","1","CK07ld12","0","24","1","1","3","1","","0","1","0","3260.565000116825","","","","","pos","GS","abstract","2","category2/men.png","-14","targets/30.png","direct","",""
"","image-slider-response","120","21927067","0.0-8.0-0.30","n52fub90as","one_one","1","direct_first","1","CK07ld12","0","24","1","1","3","1","","0","1","0","3488.9899999834597","","","","","neg","GS","GSold","4","category4/CS5.png","-11","targets/47.png","direct","",""
"","image-slider-response","121","21932005","0.0-8.0-0.31","n52fub90as","one_one","1","direct_first","1","CK07ld12","0","24","1","1","3","1","","0","1","0","4929.92000002414","","","","","neg","GS","GSold","4","category4/CS7.png","21","targets/37.png","direct","",""
"","html-keyboard-response","122","21982870","0.0-9.0","n52fub90as","one_one","1","direct_first","1","CK07ld12","0","24","1","1","3","1","","0","1","0","50859.39999995753","","","<p>Sie sehen nun die chinesischen Zeichen nur ganz kurz. Danach sehen Sie die jeweilige Aussprache der Zeichen als Silbe auf dem Bildschrim. Ihre Aufgabe ist es, für jede Silbe anzugeben, ob diese etwas angenehmes, oder unangenehmes bedeuten könnte. Verlassen Sie sich hier vor allem auf Ihre Intuition.<br><br>Die Zeichen werden nur zur Orientierung dargestellt, beachten Sie sie deshalb nicht. Konzentrieren Sie sich vor allem auf die Silben. <br>Reagieren Sie mit folgenden zwei Tasten: <br><br><b>'D' </b> wenn die Silbe etwas <b>unangenehmes</b> bedeuten könnte. <br><b>'K'</b> wenn die Silbe etwas <b>angenehmes</b> bedeuten könnte. <br><br>Bitte legen Sie nun den Zeigefinger der linken Hand auf die Taste 'D' und den Zeigefinger der rechten Hand auf die Taste 'K'. <br>Reagieren Sie auf jede Silbe so schnell wie möglich. Uns interessiert Ihre spontane Reaktion. <br> <br> <br>Drücken Sie 'D' oder 'K', um die nächste Aufgabe zu starten. </p>","68","","","","","","","","","",""
"","html-keyboard-response","123","21985879","0.0-10.0-0.0","n52fub90as","one_one","1","direct_first","1","CK07ld12","0","24","1","1","3","1","","0","1","0","null","","","<div style=""font-size:60px;"">+</div>","null","","","","","","","","","",""
"","html-keyboard-response","124","21985972","0.0-10.0-1.0","n52fub90as","one_one","1","direct_first","1","CK07ld12","0","24","1","1","3","1","","0","1","0","null","","","<img src = 'category2/CS8.png' width = '100%;'>","null","","","","","","","","","",""
"","html-keyboard-response","125","21986230","0.0-10.0-2.0","n52fub90as","one_one","1","direct_first","1","CK07ld12","0","24","1","1","3","1","","0","1","0","null","","","<img src = 'targets/17.png' width = '100%;'>","null","","","","","","","","","",""
"","html-keyboard-response","126","22000153","0.0-10.0-3.0","n52fub90as","one_one","1","direct_first","1","CK07ld12","0","24","1","1","3","1","","0","1","0","13921.069999922067","","","<img src = 'targets/mask.png' width = '100%;'>","68","pos","GS","GSold","2","category2/CS8.png","","targets/17.png","indirect","0","0"
"","html-keyboard-response","127","22001670","0.0-10.0-0.1","n52fub90as","one_one","1","direct_first","1","CK07ld12","0","24","1","1","3","1","","0","1","0","null","","","<div style=""font-size:60px;"">+</div>","null","","","","","","","","","",""
"","html-keyboard-response","128","22001763","0.0-10.0-1.1","n52fub90as","one_one","1","direct_first","1","CK07ld12","0","24","1","1","3","1","","0","1","0","null","","","<img src = 'category3/CS6.png' width = '100%;'>","null","","","","","","","","","",""
"","html-keyboard-response","129","22002030","0.0-10.0-2.1","n52fub90as","one_one","1","direct_first","1","CK07ld12","0","24","1","1","3","1","","0","1","0","null","","","<img src = 'targets/34.png' width = '100%;'>","null","","","","","","","","","",""
"","html-keyboard-response","130","22006092","0.0-10.0-3.1","n52fub90as","one_one","1","direct_first","1","CK07ld12","0","24","1","1","3","1","","0","1","0","4060.125000078231","","","<img src = 'targets/mask.png' width = '100%;'>","75","pos","CS","CS","3","category3/CS6.png","","targets/34.png","indirect","1","1"
"","html-keyboard-response","131","22007614","0.0-10.0-0.2","n52fub90as","one_one","1","direct_first","1","CK07ld12","0","24","1","1","3","1","","0","1","0","null","","","<div style=""font-size:60px;"">+</div>","null","","","","","","","","","",""
"","html-keyboard-response","132","22007706","0.0-10.0-1.2","n52fub90as","one_one","1","direct_first","1","CK07ld12","0","24","1","1","3","1","","0","1","0","null","","","<img src = 'category4/CS3.png' width = '100%;'>","null","","","","","","","","","",""
"","html-keyboard-response","133","22007975","0.0-10.0-2.2","n52fub90as","one_one","1","direct_first","1","CK07ld12","0","24","1","1","3","1","","0","1","0","null","","","<img src = 'targets/27.png' width = '100%;'>","null","","","","","","","","","",""
"","html-keyboard-response","134","22009759","0.0-10.0-3.2","n52fub90as","one_one","1","direct_first","1","CK07ld12","0","24","1","1","3","1","","0","1","0","1780.8499999791384","","","<img src = 'targets/mask.png' width = '100%;'>","75","neg","CS","CS","4","category4/CS3.png","","targets/27.png","indirect","1","2"
"","html-keyboard-response","135","22011279","0.0-10.0-0.3","n52fub90as","one_one","1","direct_first","1","CK07ld12","0","24","1","1","3","1","","0","1","0","null","","","<div style=""font-size:60px;"">+</div>","null","","","","","","","","","",""
"","html-keyboard-response","136","22011374","0.0-10.0-1.3","n52fub90as","one_one","1","direct_first","1","CK07ld12","0","24","1","1","3","1","","0","1","0","null","","","<img src = 'category4/CS7.png' width = '100%;'>","null","","","","","","","","","",""
"","html-keyboard-response","137","22011627","0.0-10.0-2.3","n52fub90as","one_one","1","direct_first","1","CK07ld12","0","24","1","1","3","1","","0","1","0","null","","","<img src = 'targets/37.png' width = '100%;'>","null","","","","","","","","","",""
"","html-keyboard-response","138","22013530","0.0-10.0-3.3","n52fub90as","one_one","1","direct_first","1","CK07ld12","0","24","1","1","3","1","","0","1","0","1900.2099998742342","","","<img src = 'targets/mask.png' width = '100%;'>","75","neg","GS","GSold","4","category4/CS7.png","","targets/37.png","indirect","1","3"
"","html-keyboard-response","139","22015051","0.0-10.0-0.4","n52fub90as","one_one","1","direct_first","1","CK07ld12","0","24","1","1","3","1","","0","1","0","null","","","<div style=""font-size:60px;"">+</div>","null","","","","","","","","","",""
"","html-keyboard-response","140","22015159","0.0-10.0-1.4","n52fub90as","one_one","1","direct_first","1","CK07ld12","0","24","1","1","3","1","","0","1","0","null","","","<img src = 'category2/CS6.png' width = '100%;'>","null","","","","","","","","","",""
"","html-keyboard-response","141","22015413","0.0-10.0-2.4","n52fub90as","one_one","1","direct_first","1","CK07ld12","0","24","1","1","3","1","","0","1","0","null","","","<img src = 'targets/20.png' width = '100%;'>","null","","","","","","","","","",""
"","html-keyboard-response","142","22017130","0.0-10.0-3.4","n52fub90as","one_one","1","direct_first","1","CK07ld12","0","24","1","1","3","1","","0","1","0","1713.879999935627","","","<img src = 'targets/mask.png' width = '100%;'>","68","pos","GS","GSold","2","category2/CS6.png","","targets/20.png","indirect","0","4"
"","html-keyboard-response","143","22018654","0.0-10.0-0.5","n52fub90as","one_one","1","direct_first","1","CK07ld12","0","24","1","1","3","1","","0","1","0","null","","","<div style=""font-size:60px;"">+</div>","null","","","","","","","","","",""
"","html-keyboard-response","144","22018748","0.0-10.0-1.5","n52fub90as","one_one","1","direct_first","1","CK07ld12","0","24","1","1","3","1","","0","1","0","null","","","<img src = 'category1/CS9.png' width = '100%;'>","null","","","","","","","","","",""
"","html-keyboard-response","145","22019016","0.0-10.0-2.5","n52fub90as","one_one","1","direct_first","1","CK07ld12","0","24","1","1","3","1","","0","1","0","null","","","<img src = 'targets/15.png' width = '100%;'>","null","","","","","","","","","",""
"","html-keyboard-response","146","22019758","0.0-10.0-3.5","n52fub90as","one_one","1","direct_first","1","CK07ld12","0","24","1","1","3","1","","0","1","0","738.905000038445","","","<img src = 'targets/mask.png' width = '100%;'>","68","neg","GS","GSold","1","category1/CS9.png","","targets/15.png","indirect","0","5"
"","html-keyboard-response","147","22021279","0.0-10.0-0.6","n52fub90as","one_one","1","direct_first","1","CK07ld12","0","24","1","1","3","1","","0","1","0","null","","","<div style=""font-size:60px;"">+</div>","null","","","","","","","","","",""
"","html-keyboard-response","148","22021374","0.0-10.0-1.6","n52fub90as","one_one","1","direct_first","1","CK07ld12","0","24","1","1","3","1","","0","1","0","null","","","<img src = 'category1/CS4.png' width = '100%;'>","null","","","","","","","","","",""
"","html-keyboard-response","149","22021641","0.0-10.0-2.6","n52fub90as","one_one","1","direct_first","1","CK07ld12","0","24","1","1","3","1","","0","1","0","null","","","<img src = 'targets/16.png' width = '100%;'>","null","","","","","","","","","",""
"","html-keyboard-response","150","22022398","0.0-10.0-3.6","n52fub90as","one_one","1","direct_first","1","CK07ld12","0","24","1","1","3","1","","0","1","0","754.9450001679361","","","<img src = 'targets/mask.png' width = '100%;'>","68","neg","GS","GSold","1","category1/CS4.png","","targets/16.png","indirect","0","6"
"","html-keyboard-response","151","22023926","0.0-10.0-0.7","n52fub90as","one_one","1","direct_first","1","CK07ld12","0","24","1","1","3","1","","0","1","0","null","","","<div style=""font-size:60px;"">+</div>","null","","","","","","","","","",""
"","html-keyboard-response","152","22024018","0.0-10.0-1.7","n52fub90as","one_one","1","direct_first","1","CK07ld12","0","24","1","1","3","1","","0","1","0","null","","","<img src = 'category4/CS5.png' width = '100%;'>","null","","","","","","","","","",""
"","html-keyboard-response","153","22024286","0.0-10.0-2.7","n52fub90as","one_one","1","direct_first","1","CK07ld12","0","24","1","1","3","1","","0","1","0","null","","","<img src = 'targets/47.png' width = '100%;'>","null","","","","","","","","","",""
"","html-keyboard-response","154","22025088","0.0-10.0-3.7","n52fub90as","one_one","1","direct_first","1","CK07ld12","0","24","1","1","3","1","","0","1","0","799.5600001886487","","","<img src = 'targets/mask.png' width = '100%;'>","75","neg","GS","GSold","4","category4/CS5.png","","targets/47.png","indirect","1","7"
"","html-keyboard-response","155","22026605","0.0-10.0-0.8","n52fub90as","one_one","1","direct_first","1","CK07ld12","0","24","1","1","3","1","","0","1","0","null","","","<div style=""font-size:60px;"">+</div>","null","","","","","","","","","",""
"","html-keyboard-response","156","22026697","0.0-10.0-1.8","n52fub90as","one_one","1","direct_first","1","CK07ld12","0","24","1","1","3","1","","0","1","0","null","","","<img src = 'category3/CS5.png' width = '100%;'>","null","","","","","","","","","",""
"","html-keyboard-response","157","22026966","0.0-10.0-2.8","n52fub90as","one_one","1","direct_first","1","CK07ld12","0","24","1","1","3","1","","0","1","0","null","","","<img src = 'targets/36.png' width = '100%;'>","null","","","","","","","","","",""
"","html-keyboard-response","158","22027722","0.0-10.0-3.8","n52fub90as","one_one","1","direct_first","1","CK07ld12","0","24","1","1","3","1","","0","1","0","753.9349999278784","","","<img src = 'targets/mask.png' width = '100%;'>","68","pos","GS","GSold","3","category3/CS5.png","","targets/36.png","indirect","0","8"
"","html-keyboard-response","159","22029240","0.0-10.0-0.9","n52fub90as","one_one","1","direct_first","1","CK07ld12","0","24","1","1","3","1","","0","1","0","null","","","<div style=""font-size:60px;"">+</div>","null","","","","","","","","","",""
"","html-keyboard-response","160","22029332","0.0-10.0-1.9","n52fub90as","one_one","1","direct_first","1","CK07ld12","0","24","1","1","3","1","","0","1","0","null","","","<img src = 'category3/CS7.png' width = '100%;'>","null","","","","","","","","","",""
"","html-keyboard-response","161","22029590","0.0-10.0-2.9","n52fub90as","one_one","1","direct_first","1","CK07ld12","0","24","1","1","3","1","","0","1","0","null","","","<img src = 'targets/32.png' width = '100%;'>","null","","","","","","","","","",""
"","html-keyboard-response","162","22030354","0.0-10.0-3.9","n52fub90as","one_one","1","direct_first","1","CK07ld12","0","24","1","1","3","1","","0","1","0","762.4349999241531","","","<img src = 'targets/mask.png' width = '100%;'>","68","pos","GS","GSold","3","category3/CS7.png","","targets/32.png","indirect","0","9"
"","html-keyboard-response","163","22031878","0.0-10.0-0.10","n52fub90as","one_one","1","direct_first","1","CK07ld12","0","24","1","1","3","1","","0","1","0","null","","","<div style=""font-size:60px;"">+</div>","null","","","","","","","","","",""
"","html-keyboard-response","164","22031969","0.0-10.0-1.10","n52fub90as","one_one","1","direct_first","1","CK07ld12","0","24","1","1","3","1","","0","1","0","null","","","<img src = 'category4/CS2.png' width = '100%;'>","null","","","","","","","","","",""
"","html-keyboard-response","165","22032238","0.0-10.0-2.10","n52fub90as","one_one","1","direct_first","1","CK07ld12","0","24","1","1","3","1","","0","1","0","null","","","<img src = 'targets/40.png' width = '100%;'>","null","","","","","","","","","",""
"","html-keyboard-response","166","22033145","0.0-10.0-3.10","n52fub90as","one_one","1","direct_first","1","CK07ld12","0","24","1","1","3","1","","0","1","0","904.5600001737475","","","<img src = 'targets/mask.png' width = '100%;'>","68","neg","GS","GSold","4","category4/CS2.png","","targets/40.png","indirect","0","10"
"","html-keyboard-response","167","22034662","0.0-10.0-0.11","n52fub90as","one_one","1","direct_first","1","CK07ld12","0","24","1","1","3","1","","0","1","0","null","","","<div style=""font-size:60px;"">+</div>","null","","","","","","","","","",""
"","html-keyboard-response","168","22034755","0.0-10.0-1.11","n52fub90as","one_one","1","direct_first","1","CK07ld12","0","24","1","1","3","1","","0","1","0","null","","","<img src = 'category1/CS5.png' width = '100%;'>","null","","","","","","","","","",""
"","html-keyboard-response","169","22035037","0.0-10.0-2.11","n52fub90as","one_one","1","direct_first","1","CK07ld12","0","24","1","1","3","1","","0","1","0","null","","","<img src = 'targets/3.png' width = '100%;'>","null","","","","","","","","","",""
"","html-keyboard-response","170","22035666","0.0-10.0-3.11","n52fub90as","one_one","1","direct_first","1","CK07ld12","0","24","1","1","3","1","","0","1","0","624.8100001849234","","","<img src = 'targets/mask.png' width = '100%;'>","68","neg","GS","GSold","1","category1/CS5.png","","targets/3.png","indirect","0","11"
"","html-keyboard-response","171","22037182","0.0-10.0-0.12","n52fub90as","one_one","1","direct_first","1","CK07ld12","0","24","1","1","3","1","","0","1","0","null","","","<div style=""font-size:60px;"">+</div>","null","","","","","","","","","",""
"","html-keyboard-response","172","22037274","0.0-10.0-1.12","n52fub90as","one_one","1","direct_first","1","CK07ld12","0","24","1","1","3","1","","0","1","0","null","","","<img src = 'category2/CS7.png' width = '100%;'>","null","","","","","","","","","",""
"","html-keyboard-response","173","22037527","0.0-10.0-2.12","n52fub90as","one_one","1","direct_first","1","CK07ld12","0","24","1","1","3","1","","0","1","0","null","","","<img src = 'targets/43.png' width = '100%;'>","null","","","","","","","","","",""
"","html-keyboard-response","174","22038005","0.0-10.0-3.12","n52fub90as","one_one","1","direct_first","1","CK07ld12","0","24","1","1","3","1","","0","1","0","475.2850001677871","","","<img src = 'targets/mask.png' width = '100%;'>","68","pos","GS","GSold","2","category2/CS7.png","","targets/43.png","indirect","0","12"
"","html-keyboard-response","175","22039533","0.0-10.0-0.13","n52fub90as","one_one","1","direct_first","1","CK07ld12","0","24","1","1","3","1","","0","1","0","null","","","<div style=""font-size:60px;"">+</div>","null","","","","","","","","","",""
"","html-keyboard-response","176","22039626","0.0-10.0-1.13","n52fub90as","one_one","1","direct_first","1","CK07ld12","0","24","1","1","3","1","","0","1","0","null","","","<img src = 'category1/CS8.png' width = '100%;'>","null","","","","","","","","","",""
"","html-keyboard-response","177","22039879","0.0-10.0-2.13","n52fub90as","one_one","1","direct_first","1","CK07ld12","0","24","1","1","3","1","","0","1","0","null","","","<img src = 'targets/19.png' width = '100%;'>","null","","","","","","","","","",""
"","html-keyboard-response","178","22040753","0.0-10.0-3.13","n52fub90as","one_one","1","direct_first","1","CK07ld12","0","24","1","1","3","1","","0","1","0","871.1800000146031","","","<img src = 'targets/mask.png' width = '100%;'>","75","neg","CS","CS","1","category1/CS8.png","","targets/19.png","indirect","1","13"
"","html-keyboard-response","179","22042264","0.0-10.0-0.14","n52fub90as","one_one","1","direct_first","1","CK07ld12","0","24","1","1","3","1","","0","1","0","null","","","<div style=""font-size:60px;"">+</div>","null","","","","","","","","","",""
"","html-keyboard-response","180","22042359","0.0-10.0-1.14","n52fub90as","one_one","1","direct_first","1","CK07ld12","0","24","1","1","3","1","","0","1","0","null","","","<img src = 'category3/CS4.png' width = '100%;'>","null","","","","","","","","","",""
"","html-keyboard-response","181","22042624","0.0-10.0-2.14","n52fub90as","one_one","1","direct_first","1","CK07ld12","0","24","1","1","3","1","","0","1","0","null","","","<img src = 'targets/18.png' width = '100%;'>","null","","","","","","","","","",""
"","html-keyboard-response","182","22043209","0.0-10.0-3.14","n52fub90as","one_one","1","direct_first","1","CK07ld12","0","24","1","1","3","1","","0","1","0","581.6150000318885","","","<img src = 'targets/mask.png' width = '100%;'>","68","pos","GS","GSold","3","category3/CS4.png","","targets/18.png","indirect","0","14"
"","html-keyboard-response","183","22044726","0.0-10.0-0.15","n52fub90as","one_one","1","direct_first","1","CK07ld12","0","24","1","1","3","1","","0","1","0","null","","","<div style=""font-size:60px;"">+</div>","null","","","","","","","","","",""
"","html-keyboard-response","184","22044819","0.0-10.0-1.15","n52fub90as","one_one","1","direct_first","1","CK07ld12","0","24","1","1","3","1","","0","1","0","null","","","<img src = 'category2/CS9.png' width = '100%;'>","null","","","","","","","","","",""
"","html-keyboard-response","185","22045072","0.0-10.0-2.15","n52fub90as","one_one","1","direct_first","1","CK07ld12","0","24","1","1","3","1","","0","1","0","null","","","<img src = 'targets/11.png' width = '100%;'>","null","","","","","","","","","",""
"","html-keyboard-response","186","22045929","0.0-10.0-3.15","n52fub90as","one_one","1","direct_first","1","CK07ld12","0","24","1","1","3","1","","0","1","0","854.7600000165403","","","<img src = 'targets/mask.png' width = '100%;'>","75","pos","CS","CS","2","category2/CS9.png","","targets/11.png","indirect","1","15"
"","survey-html-form","187","22049311","0.0-11.0","n52fub90as","one_one","1","direct_first","1","CK07ld12","0","24","1","1","3","1","","0","1","0","2863.944999873638","","{}","","","","","","","","","","","",""
"","html-keyboard-response","188","22052321","0.0-12.0-0.0","n52fub90as","one_one","1","direct_first","1","CK07ld12","0","24","1","1","3","1","","0","1","0","null","","","<div style=""font-size:60px;"">+</div>","null","","","","","","","","","",""
"","html-keyboard-response","189","22052413","0.0-12.0-1.0","n52fub90as","one_one","1","direct_first","1","CK07ld12","0","24","1","1","3","1","","0","1","0","null","","","<img src = 'category4/GS3.png' width = '100%;'>","null","","","","","","","","","",""
"","html-keyboard-response","190","22052678","0.0-12.0-2.0","n52fub90as","one_one","1","direct_first","1","CK07ld12","0","24","1","1","3","1","","0","1","0","null","","","<img src = 'targets/24.png' width = '100%;'>","null","","","","","","","","","",""
"","html-keyboard-response","191","22055145","0.0-12.0-3.0","n52fub90as","one_one","1","direct_first","1","CK07ld12","0","24","1","1","3","1","","0","1","0","2464.145000092685","","","<img src = 'targets/mask.png' width = '100%;'>","75","neg","GS","GSnew","4","category4/GS3.png","","targets/24.png","indirect","1","16"
"","html-keyboard-response","192","22056663","0.0-12.0-0.1","n52fub90as","one_one","1","direct_first","1","CK07ld12","0","24","1","1","3","1","","0","1","0","null","","","<div style=""font-size:60px;"">+</div>","null","","","","","","","","","",""
"","html-keyboard-response","193","22056755","0.0-12.0-1.1","n52fub90as","one_one","1","direct_first","1","CK07ld12","0","24","1","1","3","1","","0","1","0","null","","","<img src = 'category3/GS3.png' width = '100%;'>","null","","","","","","","","","",""
"","html-keyboard-response","194","22057008","0.0-12.0-2.1","n52fub90as","one_one","1","direct_first","1","CK07ld12","0","24","1","1","3","1","","0","1","0","null","","","<img src = 'targets/33.png' width = '100%;'>","null","","","","","","","","","",""
"","html-keyboard-response","195","22057726","0.0-12.0-3.1","n52fub90as","one_one","1","direct_first","1","CK07ld12","0","24","1","1","3","1","","0","1","0","714.1750000864267","","","<img src = 'targets/mask.png' width = '100%;'>","75","pos","GS","GSnew","3","category3/GS3.png","","targets/33.png","indirect","1","17"
"","html-keyboard-response","196","22059230","0.0-12.0-0.2","n52fub90as","one_one","1","direct_first","1","CK07ld12","0","24","1","1","3","1","","0","1","0","null","","","<div style=""font-size:60px;"">+</div>","null","","","","","","","","","",""
"","html-keyboard-response","197","22059323","0.0-12.0-1.2","n52fub90as","one_one","1","direct_first","1","CK07ld12","0","24","1","1","3","1","","0","1","0","null","","","<img src = 'category2/GS3.png' width = '100%;'>","null","","","","","","","","","",""
"","html-keyboard-response","198","22059577","0.0-12.0-2.2","n52fub90as","one_one","1","direct_first","1","CK07ld12","0","24","1","1","3","1","","0","1","0","null","","","<img src = 'targets/1.png' width = '100%;'>","null","","","","","","","","","",""
"","html-keyboard-response","199","22060090","0.0-12.0-3.2","n52fub90as","one_one","1","direct_first","1","CK07ld12","0","24","1","1","3","1","","0","1","0","510.24499978125095","","","<img src = 'targets/mask.png' width = '100%;'>","75","pos","GS","GSnew","2","category2/GS3.png","","targets/1.png","indirect","1","18"
"","html-keyboard-response","200","22061614","0.0-12.0-0.3","n52fub90as","one_one","1","direct_first","1","CK07ld12","0","24","1","1","3","1","","0","1","0","null","","","<div style=""font-size:60px;"">+</div>","null","","","","","","","","","",""
"","html-keyboard-response","201","22061706","0.0-12.0-1.3","n52fub90as","one_one","1","direct_first","1","CK07ld12","0","24","1","1","3","1","","0","1","0","null","","","<img src = 'category3/GS2.png' width = '100%;'>","null","","","","","","","","","",""
"","html-keyboard-response","202","22061987","0.0-12.0-2.3","n52fub90as","one_one","1","direct_first","1","CK07ld12","0","24","1","1","3","1","","0","1","0","null","","","<img src = 'targets/22.png' width = '100%;'>","null","","","","","","","","","",""
"","html-keyboard-response","203","22062643","0.0-12.0-3.3","n52fub90as","one_one","1","direct_first","1","CK07ld12","0","24","1","1","3","1","","0","1","0","653.9849999807775","","","<img src = 'targets/mask.png' width = '100%;'>","75","pos","GS","GSnew","3","category3/GS2.png","","targets/22.png","indirect","1","19"
"","html-keyboard-response","204","22064170","0.0-12.0-0.4","n52fub90as","one_one","1","direct_first","1","CK07ld12","0","24","1","1","3","1","","0","1","0","null","","","<div style=""font-size:60px;"">+</div>","null","","","","","","","","","",""
"","html-keyboard-response","205","22064264","0.0-12.0-1.4","n52fub90as","one_one","1","direct_first","1","CK07ld12","0","24","1","1","3","1","","0","1","0","null","","","<img src = 'category3/GS1.png' width = '100%;'>","null","","","","","","","","","",""
"","html-keyboard-response","206","22064517","0.0-12.0-2.4","n52fub90as","one_one","1","direct_first","1","CK07ld12","0","24","1","1","3","1","","0","1","0","null","","","<img src = 'targets/35.png' width = '100%;'>","null","","","","","","","","","",""
"","html-keyboard-response","207","22065008","0.0-12.0-3.4","n52fub90as","one_one","1","direct_first","1","CK07ld12","0","24","1","1","3","1","","0","1","0","488.1549999117851","","","<img src = 'targets/mask.png' width = '100%;'>","75","pos","GS","GSnew","3","category3/GS1.png","","targets/35.png","indirect","1","20"
"","html-keyboard-response","208","22066527","0.0-12.0-0.5","n52fub90as","one_one","1","direct_first","1","CK07ld12","0","24","1","1","3","1","","0","1","0","null","","","<div style=""font-size:60px;"">+</div>","null","","","","","","","","","",""
"","html-keyboard-response","209","22066619","0.0-12.0-1.5","n52fub90as","one_one","1","direct_first","1","CK07ld12","0","24","1","1","3","1","","0","1","0","null","","","<img src = 'category2/men.png' width = '100%;'>","null","","","","","","","","","",""
"","html-keyboard-response","210","22066888","0.0-12.0-2.5","n52fub90as","one_one","1","direct_first","1","CK07ld12","0","24","1","1","3","1","","0","1","0","null","","","<img src = 'targets/30.png' width = '100%;'>","null","","","","","","","","","",""
"","html-keyboard-response","211","22067399","0.0-12.0-3.5","n52fub90as","one_one","1","direct_first","1","CK07ld12","0","24","1","1","3","1","","0","1","0","508.840000025928","","","<img src = 'targets/mask.png' width = '100%;'>","75","pos","GS","abstract","2","category2/men.png","","targets/30.png","indirect","1","21"
"","html-keyboard-response","212","22068911","0.0-12.0-0.6","n52fub90as","one_one","1","direct_first","1","CK07ld12","0","24","1","1","3","1","","0","1","0","null","","","<div style=""font-size:60px;"">+</div>","null","","","","","","","","","",""
"","html-keyboard-response","213","22069004","0.0-12.0-1.6","n52fub90as","one_one","1","direct_first","1","CK07ld12","0","24","1","1","3","1","","0","1","0","null","","","<img src = 'category1/GS3.png' width = '100%;'>","null","","","","","","","","","",""
"","html-keyboard-response","214","22069276","0.0-12.0-2.6","n52fub90as","one_one","1","direct_first","1","CK07ld12","0","24","1","1","3","1","","0","1","0","null","","","<img src = 'targets/48.png' width = '100%;'>","null","","","","","","","","","",""
"","html-keyboard-response","215","22069801","0.0-12.0-3.6","n52fub90as","one_one","1","direct_first","1","CK07ld12","0","24","1","1","3","1","","0","1","0","522.2000000104308","","","<img src = 'targets/mask.png' width = '100%;'>","75","neg","GS","GSnew","1","category1/GS3.png","","targets/48.png","indirect","1","22"
"","html-keyboard-response","216","22071311","0.0-12.0-0.7","n52fub90as","one_one","1","direct_first","1","CK07ld12","0","24","1","1","3","1","","0","1","0","null","","","<div style=""font-size:60px;"">+</div>","null","","","","","","","","","",""
"","html-keyboard-response","217","22071406","0.0-12.0-1.7","n52fub90as","one_one","1","direct_first","1","CK07ld12","0","24","1","1","3","1","","0","1","0","null","","","<img src = 'category1/GS2.png' width = '100%;'>","null","","","","","","","","","",""
"","html-keyboard-response","218","22071672","0.0-12.0-2.7","n52fub90as","one_one","1","direct_first","1","CK07ld12","0","24","1","1","3","1","","0","1","0","null","","","<img src = 'targets/9.png' width = '100%;'>","null","","","","","","","","","",""
"","html-keyboard-response","219","22072051","0.0-12.0-3.7","n52fub90as","one_one","1","direct_first","1","CK07ld12","0","24","1","1","3","1","","0","1","0","377.33999989181757","","","<img src = 'targets/mask.png' width = '100%;'>","75","neg","GS","GSnew","1","category1/GS2.png","","targets/9.png","indirect","1","23"
"","html-keyboard-response","220","22073568","0.0-12.0-0.8","n52fub90as","one_one","1","direct_first","1","CK07ld12","0","24","1","1","3","1","","0","1","0","null","","","<div style=""font-size:60px;"">+</div>","null","","","","","","","","","",""
"","html-keyboard-response","221","22073660","0.0-12.0-1.8","n52fub90as","one_one","1","direct_first","1","CK07ld12","0","24","1","1","3","1","","0","1","0","null","","","<img src = 'category1/GS1.png' width = '100%;'>","null","","","","","","","","","",""
"","html-keyboard-response","222","22073927","0.0-12.0-2.8","n52fub90as","one_one","1","direct_first","1","CK07ld12","0","24","1","1","3","1","","0","1","0","null","","","<img src = 'targets/38.png' width = '100%;'>","null","","","","","","","","","",""
"","html-keyboard-response","223","22074461","0.0-12.0-3.8","n52fub90as","one_one","1","direct_first","1","CK07ld12","0","24","1","1","3","1","","0","1","0","530.899999897927","","","<img src = 'targets/mask.png' width = '100%;'>","75","neg","GS","GSnew","1","category1/GS1.png","","targets/38.png","indirect","1","24"
"","html-keyboard-response","224","22075974","0.0-12.0-0.9","n52fub90as","one_one","1","direct_first","1","CK07ld12","0","24","1","1","3","1","","0","1","0","null","","","<div style=""font-size:60px;"">+</div>","null","","","","","","","","","",""
"","html-keyboard-response","225","22076066","0.0-12.0-1.9","n52fub90as","one_one","1","direct_first","1","CK07ld12","0","24","1","1","3","1","","0","1","0","null","","","<img src = 'category4/GS2.png' width = '100%;'>","null","","","","","","","","","",""
"","html-keyboard-response","226","22076318","0.0-12.0-2.9","n52fub90as","one_one","1","direct_first","1","CK07ld12","0","24","1","1","3","1","","0","1","0","null","","","<img src = 'targets/6.png' width = '100%;'>","null","","","","","","","","","",""
"","html-keyboard-response","227","22077450","0.0-12.0-3.9","n52fub90as","one_one","1","direct_first","1","CK07ld12","0","24","1","1","3","1","","0","1","0","1128.8399999029934","","","<img src = 'targets/mask.png' width = '100%;'>","75","neg","GS","GSnew","4","category4/GS2.png","","targets/6.png","indirect","1","25"
"","html-keyboard-response","228","22078961","0.0-12.0-0.10","n52fub90as","one_one","1","direct_first","1","CK07ld12","0","24","1","1","3","1","","0","1","0","null","","","<div style=""font-size:60px;"">+</div>","null","","","","","","","","","",""
"","html-keyboard-response","229","22079054","0.0-12.0-1.10","n52fub90as","one_one","1","direct_first","1","CK07ld12","0","24","1","1","3","1","","0","1","0","null","","","<img src = 'category4/GS1.png' width = '100%;'>","null","","","","","","","","","",""
"","html-keyboard-response","230","22079334","0.0-12.0-2.10","n52fub90as","one_one","1","direct_first","1","CK07ld12","0","24","1","1","3","1","","0","1","0","null","","","<img src = 'targets/26.png' width = '100%;'>","null","","","","","","","","","",""
"","html-keyboard-response","231","22079945","0.0-12.0-3.10","n52fub90as","one_one","1","direct_first","1","CK07ld12","0","24","1","1","3","1","","0","1","0","607.5100000053644","","","<img src = 'targets/mask.png' width = '100%;'>","68","neg","GS","GSnew","4","category4/GS1.png","","targets/26.png","indirect","0","26"
"","html-keyboard-response","232","22081469","0.0-12.0-0.11","n52fub90as","one_one","1","direct_first","1","CK07ld12","0","24","1","1","3","1","","0","1","0","null","","","<div style=""font-size:60px;"">+</div>","null","","","","","","","","","",""
"","html-keyboard-response","233","22081561","0.0-12.0-1.11","n52fub90as","one_one","1","direct_first","1","CK07ld12","0","24","1","1","3","1","","0","1","0","null","","","<img src = 'category2/GS2.png' width = '100%;'>","null","","","","","","","","","",""
"","html-keyboard-response","234","22081830","0.0-12.0-2.11","n52fub90as","one_one","1","direct_first","1","CK07ld12","0","24","1","1","3","1","","0","1","0","null","","","<img src = 'targets/13.png' width = '100%;'>","null","","","","","","","","","",""
"","html-keyboard-response","235","22082560","0.0-12.0-3.11","n52fub90as","one_one","1","direct_first","1","CK07ld12","0","24","1","1","3","1","","0","1","0","726.7050000354648","","","<img src = 'targets/mask.png' width = '100%;'>","75","pos","GS","GSnew","2","category2/GS2.png","","targets/13.png","indirect","1","27"
"","html-keyboard-response","236","22084074","0.0-12.0-0.12","n52fub90as","one_one","1","direct_first","1","CK07ld12","0","24","1","1","3","1","","0","1","0","null","","","<div style=""font-size:60px;"">+</div>","null","","","","","","","","","",""
"","html-keyboard-response","237","22084167","0.0-12.0-1.12","n52fub90as","one_one","1","direct_first","1","CK07ld12","0","24","1","1","3","1","","0","1","0","null","","","<img src = 'category3/wang.png' width = '100%;'>","null","","","","","","","","","",""
"","html-keyboard-response","238","22084419","0.0-12.0-2.12","n52fub90as","one_one","1","direct_first","1","CK07ld12","0","24","1","1","3","1","","0","1","0","null","","","<img src = 'targets/25.png' width = '100%;'>","null","","","","","","","","","",""
"","html-keyboard-response","239","22085206","0.0-12.0-3.12","n52fub90as","one_one","1","direct_first","1","CK07ld12","0","24","1","1","3","1","","0","1","0","782.2300000116229","","","<img src = 'targets/mask.png' width = '100%;'>","75","pos","GS","abstract","3","category3/wang.png","","targets/25.png","indirect","1","28"
"","html-keyboard-response","240","22086726","0.0-12.0-0.13","n52fub90as","one_one","1","direct_first","1","CK07ld12","0","24","1","1","3","1","","0","1","0","null","","","<div style=""font-size:60px;"">+</div>","null","","","","","","","","","",""
"","html-keyboard-response","241","22086833","0.0-12.0-1.13","n52fub90as","one_one","1","direct_first","1","CK07ld12","0","24","1","1","3","1","","0","1","0","null","","","<img src = 'category2/GS1.png' width = '100%;'>","null","","","","","","","","","",""
"","html-keyboard-response","242","22087087","0.0-12.0-2.13","n52fub90as","one_one","1","direct_first","1","CK07ld12","0","24","1","1","3","1","","0","1","0","null","","","<img src = 'targets/41.png' width = '100%;'>","null","","","","","","","","","",""
"","html-keyboard-response","243","22087666","0.0-12.0-3.13","n52fub90as","one_one","1","direct_first","1","CK07ld12","0","24","1","1","3","1","","0","1","0","576.4750000089407","","","<img src = 'targets/mask.png' width = '100%;'>","75","pos","GS","GSnew","2","category2/GS1.png","","targets/41.png","indirect","1","29"
"","html-keyboard-response","244","22089187","0.0-12.0-0.14","n52fub90as","one_one","1","direct_first","1","CK07ld12","0","24","1","1","3","1","","0","1","0","null","","","<div style=""font-size:60px;"">+</div>","null","","","","","","","","","",""
"","html-keyboard-response","245","22089280","0.0-12.0-1.14","n52fub90as","one_one","1","direct_first","1","CK07ld12","0","24","1","1","3","1","","0","1","0","null","","","<img src = 'category4/lin.png' width = '100%;'>","null","","","","","","","","","",""
"","html-keyboard-response","246","22089532","0.0-12.0-2.14","n52fub90as","one_one","1","direct_first","1","CK07ld12","0","24","1","1","3","1","","0","1","0","null","","","<img src = 'targets/21.png' width = '100%;'>","null","","","","","","","","","",""
"","html-keyboard-response","247","22090234","0.0-12.0-3.14","n52fub90as","one_one","1","direct_first","1","CK07ld12","0","24","1","1","3","1","","0","1","0","699.0799999348819","","","<img src = 'targets/mask.png' width = '100%;'>","75","neg","GS","abstract","4","category4/lin.png","","targets/21.png","indirect","1","30"
"","html-keyboard-response","248","22091758","0.0-12.0-0.15","n52fub90as","one_one","1","direct_first","1","CK07ld12","0","24","1","1","3","1","","0","1","0","null","","","<div style=""font-size:60px;"">+</div>","null","","","","","","","","","",""
"","html-keyboard-response","249","22091850","0.0-12.0-1.15","n52fub90as","one_one","1","direct_first","1","CK07ld12","0","24","1","1","3","1","","0","1","0","null","","","<img src = 'category1/ma.png' width = '100%;'>","null","","","","","","","","","",""
"","html-keyboard-response","250","22092103","0.0-12.0-2.15","n52fub90as","one_one","1","direct_first","1","CK07ld12","0","24","1","1","3","1","","0","1","0","null","","","<img src = 'targets/14.png' width = '100%;'>","null","","","","","","","","","",""
"","html-keyboard-response","251","22092598","0.0-12.0-3.15","n52fub90as","one_one","1","direct_first","1","CK07ld12","0","24","1","1","3","1","","0","1","0","492.5700000040233","","","<img src = 'targets/mask.png' width = '100%;'>","75","neg","GS","abstract","1","category1/ma.png","","targets/14.png","indirect","1","31"
"","survey-html-form","252","22101551","0.0-13.0","n52fub90as","one_one","1","direct_first","1","CK07ld12","0","24","1","1","3","1","","0","1","0","8438.384999986738","","{}","","","","","","","","","","","",""
"","image-slider-response","253","22109882","0.0-14.0-0.0","n52fub90as","one_one","1","direct_first","1","CK07ld12","0","24","1","1","3","1","","0","1","0","7317.945000015199","","","","","pos","All","all","3","category3/wang_all.png","-10","","all","",""
"","image-slider-response","254","22113372","0.0-14.0-0.1","n52fub90as","one_one","1","direct_first","1","CK07ld12","0","24","1","1","3","1","","0","1","0","3483.4749999009073","","","","","pos","All","all","2","category2/men_all.png","13","","all","",""
"","image-slider-response","255","22116702","0.0-14.0-0.2","n52fub90as","one_one","1","direct_first","1","CK07ld12","0","24","1","1","3","1","","0","1","0","3325.7100000083447","","","","","neg","All","all","1","category1/ma_all.png","-16","","all","",""
"","image-slider-response","256","22122151","0.0-14.0-0.3","n52fub90as","one_one","1","direct_first","1","CK07ld12","0","24","1","1","3","1","","0","1","0","5442.524999842048","","","","","neg","All","all","4","category4/lin_all.png","-19","","all","",""
"","survey-text","257","22128006","0.0-15.0","n52fub90as","one_one","1","direct_first","1","CK07ld12","0","24","1","1","3","1","","0","1","0","5709.929999895394","","{""comment"":""""}","","","","","","","","","","","",""
"","survey-html-form","258","22157183","0.0-16.0","n52fub90as","one_one","1","direct_first","1","CK07ld12","0","24","1","1","3","1","","0","1","0","29165.595000144094","","{""hinschauen"":""0"",""ablenkung"":""1"",""gewissenhaft"":""0""}","","","","","","","","","","","",""
