"success","trial_type","trial_index","time_elapsed","internal_node_id","subject","condition","condition_code","measure","measure_code","codeword","gender","age","education","chinese","fach","handedness","comment","hinschauen","ablenkung","gewissenhaft","rt","url","responses","stimulus","key_press","val","type","type_specific","category","cs_selected","target","indirect","task","nr_pres","response"
"true","fullscreen","0","5802","0.0-0.0","gcbg94pk6w","one_one","1","indirect_first","0","ss070902","0","21","1","1","3","1","","0","1","0","","","","","","","","","","","","","","",""
"","external-html","1","13978","0.0-1.0","gcbg94pk6w","one_one","1","indirect_first","0","ss070902","0","21","1","1","3","1","","0","1","0","8116.625000024214","text/information.html","","","","","","","","","","","","",""
"","external-html","2","30356","0.0-2.0","gcbg94pk6w","one_one","1","indirect_first","0","ss070902","0","21","1","1","3","1","","0","1","0","16338.909999933094","text/consent.html","","","","","","","","","","","","",""
"","survey-html-form","3","91755","0.0-3.0","gcbg94pk6w","one_one","1","indirect_first","0","ss070902","0","21","1","1","3","1","","0","1","0","61400.249999947846","","{""codeword_enter"":""ss070902""}","","","","","","","","","","","",""
"","survey-html-form","4","112191","0.0-4.0","gcbg94pk6w","one_one","1","indirect_first","0","ss070902","0","21","1","1","3","1","","0","1","0","20429.87499991432","","{""age"":""21"",""education"":""1"",""subject"":""3"",""gender"":""0"",""handedness"":""1"",""chinese"":""1""}","","","","","","","","","","","",""
"","survey-html-form","5","114800","0.0-5.0","gcbg94pk6w","one_one","1","indirect_first","0","ss070902","0","21","1","1","3","1","","0","1","0","2600.4050001502037","","{}","","","","","","","","","","","",""
"","html-keyboard-response","6","118808","0.0-6.0-0.0-0.0","gcbg94pk6w","one_one","1","indirect_first","0","ss070902","0","21","1","1","3","1","","0","1","0","null","","","<div class = 'row'><div class = 'column'><img src = 'usneg/9000.bmp' width = '100%;'></div><div class = 'column'><img src = 'category4/CS10.png' width = '70%;'></div></div>","null","neg","CS","CS","4","category4/CS10.png","","","","",""
"","html-keyboard-response","7","121345","0.0-6.0-0.0-0.1","gcbg94pk6w","one_one","1","indirect_first","0","ss070902","0","21","1","1","3","1","","0","1","0","null","","","<div class = 'row'><div class = 'column'><img src = 'uspos/1460.bmp' width = '100%;'></div><div class = 'column'><img src = 'category1/CS10.png' width = '70%;'></div></div>","null","pos","CS","CS","1","category1/CS10.png","","","","",""
"","html-keyboard-response","8","123856","0.0-6.0-0.0-0.2","gcbg94pk6w","one_one","1","indirect_first","0","ss070902","0","21","1","1","3","1","","0","1","0","null","","","<div class = 'row'><div class = 'column'><img src = 'uspos/8461.bmp' width = '100%;'></div><div class = 'column'><img src = 'category2/CS2.png' width = '70%;'></div></div>","null","pos","CS","CS","2","category2/CS2.png","","","","",""
"","html-keyboard-response","9","126418","0.0-6.0-0.0-0.3","gcbg94pk6w","one_one","1","indirect_first","0","ss070902","0","21","1","1","3","1","","0","1","0","null","","","<div class = 'row'><div class = 'column'><img src = 'usneg/9342.bmp' width = '100%;'></div><div class = 'column'><img src = 'category3/CS6.png' width = '70%;'></div></div>","null","neg","CS","CS","3","category3/CS6.png","","","","",""
"","html-keyboard-response","10","128933","0.0-6.0-0.0-0.4","gcbg94pk6w","one_one","1","indirect_first","0","ss070902","0","21","1","1","3","1","","0","1","0","null","","","<div class = 'row'><div class = 'column'><img src = 'category1/CS10.png' width = '70%;'></div><div class = 'column'><img src = 'uspos/1460.bmp' width = '100%;'></div></div>","null","pos","CS","CS","1","category1/CS10.png","","","","",""
"","html-keyboard-response","11","131445","0.0-6.0-0.0-0.5","gcbg94pk6w","one_one","1","indirect_first","0","ss070902","0","21","1","1","3","1","","0","1","0","null","","","<div class = 'row'><div class = 'column'><img src = 'usneg/9342.bmp' width = '100%;'></div><div class = 'column'><img src = 'category3/CS6.png' width = '70%;'></div></div>","null","neg","CS","CS","3","category3/CS6.png","","","","",""
"","html-keyboard-response","12","133988","0.0-6.0-0.0-0.6","gcbg94pk6w","one_one","1","indirect_first","0","ss070902","0","21","1","1","3","1","","0","1","0","null","","","<div class = 'row'><div class = 'column'><img src = 'category4/CS10.png' width = '70%;'></div><div class = 'column'><img src = 'usneg/9000.bmp' width = '100%;'></div></div>","null","neg","CS","CS","4","category4/CS10.png","","","","",""
"","html-keyboard-response","13","136545","0.0-6.0-0.0-0.7","gcbg94pk6w","one_one","1","indirect_first","0","ss070902","0","21","1","1","3","1","","0","1","0","null","","","<div class = 'row'><div class = 'column'><img src = 'category2/CS2.png' width = '70%;'></div><div class = 'column'><img src = 'uspos/8461.bmp' width = '100%;'></div></div>","null","pos","CS","CS","2","category2/CS2.png","","","","",""
"","html-keyboard-response","14","139079","0.0-6.0-0.0-0.8","gcbg94pk6w","one_one","1","indirect_first","0","ss070902","0","21","1","1","3","1","","0","1","0","null","","","<div class = 'row'><div class = 'column'><img src = 'usneg/9342.bmp' width = '100%;'></div><div class = 'column'><img src = 'category3/CS6.png' width = '70%;'></div></div>","null","neg","CS","CS","3","category3/CS6.png","","","","",""
"","html-keyboard-response","15","141631","0.0-6.0-0.0-0.9","gcbg94pk6w","one_one","1","indirect_first","0","ss070902","0","21","1","1","3","1","","0","1","0","null","","","<div class = 'row'><div class = 'column'><img src = 'uspos/1460.bmp' width = '100%;'></div><div class = 'column'><img src = 'category1/CS10.png' width = '70%;'></div></div>","null","pos","CS","CS","1","category1/CS10.png","","","","",""
"","html-keyboard-response","16","144141","0.0-6.0-0.0-0.10","gcbg94pk6w","one_one","1","indirect_first","0","ss070902","0","21","1","1","3","1","","0","1","0","null","","","<div class = 'row'><div class = 'column'><img src = 'usneg/9000.bmp' width = '100%;'></div><div class = 'column'><img src = 'category4/CS10.png' width = '70%;'></div></div>","null","neg","CS","CS","4","category4/CS10.png","","","","",""
"","html-keyboard-response","17","146652","0.0-6.0-0.0-0.11","gcbg94pk6w","one_one","1","indirect_first","0","ss070902","0","21","1","1","3","1","","0","1","0","null","","","<div class = 'row'><div class = 'column'><img src = 'category3/CS6.png' width = '70%;'></div><div class = 'column'><img src = 'usneg/9342.bmp' width = '100%;'></div></div>","null","neg","CS","CS","3","category3/CS6.png","","","","",""
"","html-keyboard-response","18","149162","0.0-6.0-0.0-0.12","gcbg94pk6w","one_one","1","indirect_first","0","ss070902","0","21","1","1","3","1","","0","1","0","null","","","<div class = 'row'><div class = 'column'><img src = 'category2/CS2.png' width = '70%;'></div><div class = 'column'><img src = 'uspos/8461.bmp' width = '100%;'></div></div>","null","pos","CS","CS","2","category2/CS2.png","","","","",""
"","html-keyboard-response","19","151704","0.0-6.0-0.0-0.13","gcbg94pk6w","one_one","1","indirect_first","0","ss070902","0","21","1","1","3","1","","0","1","0","null","","","<div class = 'row'><div class = 'column'><img src = 'category1/CS10.png' width = '70%;'></div><div class = 'column'><img src = 'uspos/1460.bmp' width = '100%;'></div></div>","null","pos","CS","CS","1","category1/CS10.png","","","","",""
"","html-keyboard-response","20","154217","0.0-6.0-0.0-0.14","gcbg94pk6w","one_one","1","indirect_first","0","ss070902","0","21","1","1","3","1","","0","1","0","null","","","<div class = 'row'><div class = 'column'><img src = 'category4/CS10.png' width = '70%;'></div><div class = 'column'><img src = 'usneg/9000.bmp' width = '100%;'></div></div>","null","neg","CS","CS","4","category4/CS10.png","","","","",""
"","html-keyboard-response","21","156750","0.0-6.0-0.0-0.15","gcbg94pk6w","one_one","1","indirect_first","0","ss070902","0","21","1","1","3","1","","0","1","0","null","","","<div class = 'row'><div class = 'column'><img src = 'category2/CS2.png' width = '70%;'></div><div class = 'column'><img src = 'uspos/8461.bmp' width = '100%;'></div></div>","null","pos","CS","CS","2","category2/CS2.png","","","","",""
"","html-keyboard-response","22","159288","0.0-6.0-0.0-0.16","gcbg94pk6w","one_one","1","indirect_first","0","ss070902","0","21","1","1","3","1","","0","1","0","null","","","<div class = 'row'><div class = 'column'><img src = 'category4/CS10.png' width = '70%;'></div><div class = 'column'><img src = 'usneg/9000.bmp' width = '100%;'></div></div>","null","neg","CS","CS","4","category4/CS10.png","","","","",""
"","html-keyboard-response","23","161813","0.0-6.0-0.0-0.17","gcbg94pk6w","one_one","1","indirect_first","0","ss070902","0","21","1","1","3","1","","0","1","0","null","","","<div class = 'row'><div class = 'column'><img src = 'uspos/1460.bmp' width = '100%;'></div><div class = 'column'><img src = 'category1/CS10.png' width = '70%;'></div></div>","null","pos","CS","CS","1","category1/CS10.png","","","","",""
"","html-keyboard-response","24","164364","0.0-6.0-0.0-0.18","gcbg94pk6w","one_one","1","indirect_first","0","ss070902","0","21","1","1","3","1","","0","1","0","null","","","<div class = 'row'><div class = 'column'><img src = 'category3/CS6.png' width = '70%;'></div><div class = 'column'><img src = 'usneg/9342.bmp' width = '100%;'></div></div>","null","neg","CS","CS","3","category3/CS6.png","","","","",""
"","html-keyboard-response","25","166890","0.0-6.0-0.0-0.19","gcbg94pk6w","one_one","1","indirect_first","0","ss070902","0","21","1","1","3","1","","0","1","0","null","","","<div class = 'row'><div class = 'column'><img src = 'category2/CS2.png' width = '70%;'></div><div class = 'column'><img src = 'uspos/8461.bmp' width = '100%;'></div></div>","null","pos","CS","CS","2","category2/CS2.png","","","","",""
"","survey-html-form","26","173615","0.0-6.0-1.0","gcbg94pk6w","one_one","1","indirect_first","0","ss070902","0","21","1","1","3","1","","0","1","0","6220.0800001155585","","{}","","","","","","","","","","","",""
"","html-keyboard-response","27","177688","0.0-6.0-2.0-0.0","gcbg94pk6w","one_one","1","indirect_first","0","ss070902","0","21","1","1","3","1","","0","1","0","null","","","<div class = 'row'><div class = 'column'><img src = 'category3/CS6.png' width = '70%;'></div><div class = 'column'><img src = 'usneg/9342.bmp' width = '100%;'></div></div>","null","neg","CS","CS","3","category3/CS6.png","","","","",""
"","html-keyboard-response","28","180201","0.0-6.0-2.0-0.1","gcbg94pk6w","one_one","1","indirect_first","0","ss070902","0","21","1","1","3","1","","0","1","0","null","","","<div class = 'row'><div class = 'column'><img src = 'category2/CS2.png' width = '70%;'></div><div class = 'column'><img src = 'uspos/8461.bmp' width = '100%;'></div></div>","null","pos","CS","CS","2","category2/CS2.png","","","","",""
"","html-keyboard-response","29","182751","0.0-6.0-2.0-0.2","gcbg94pk6w","one_one","1","indirect_first","0","ss070902","0","21","1","1","3","1","","0","1","0","null","","","<div class = 'row'><div class = 'column'><img src = 'category3/CS6.png' width = '70%;'></div><div class = 'column'><img src = 'usneg/9342.bmp' width = '100%;'></div></div>","null","neg","CS","CS","3","category3/CS6.png","","","","",""
"","html-keyboard-response","30","185300","0.0-6.0-2.0-0.3","gcbg94pk6w","one_one","1","indirect_first","0","ss070902","0","21","1","1","3","1","","0","1","0","null","","","<div class = 'row'><div class = 'column'><img src = 'category4/CS10.png' width = '70%;'></div><div class = 'column'><img src = 'usneg/9000.bmp' width = '100%;'></div></div>","null","neg","CS","CS","4","category4/CS10.png","","","","",""
"","html-keyboard-response","31","187831","0.0-6.0-2.0-0.4","gcbg94pk6w","one_one","1","indirect_first","0","ss070902","0","21","1","1","3","1","","0","1","0","null","","","<div class = 'row'><div class = 'column'><img src = 'category3/CS6.png' width = '70%;'></div><div class = 'column'><img src = 'usneg/9342.bmp' width = '100%;'></div></div>","null","neg","CS","CS","3","category3/CS6.png","","","","",""
"","html-keyboard-response","32","190352","0.0-6.0-2.0-0.5","gcbg94pk6w","one_one","1","indirect_first","0","ss070902","0","21","1","1","3","1","","0","1","0","null","","","<div class = 'row'><div class = 'column'><img src = 'category4/CS10.png' width = '70%;'></div><div class = 'column'><img src = 'usneg/9000.bmp' width = '100%;'></div></div>","null","neg","CS","CS","4","category4/CS10.png","","","","",""
"","html-keyboard-response","33","192899","0.0-6.0-2.0-0.6","gcbg94pk6w","one_one","1","indirect_first","0","ss070902","0","21","1","1","3","1","","0","1","0","null","","","<div class = 'row'><div class = 'column'><img src = 'category3/CS6.png' width = '70%;'></div><div class = 'column'><img src = 'usneg/9342.bmp' width = '100%;'></div></div>","null","neg","CS","CS","3","category3/CS6.png","","","","",""
"","html-keyboard-response","34","195418","0.0-6.0-2.0-0.7","gcbg94pk6w","one_one","1","indirect_first","0","ss070902","0","21","1","1","3","1","","0","1","0","null","","","<div class = 'row'><div class = 'column'><img src = 'uspos/8461.bmp' width = '100%;'></div><div class = 'column'><img src = 'category2/CS2.png' width = '70%;'></div></div>","null","pos","CS","CS","2","category2/CS2.png","","","","",""
"","html-keyboard-response","35","197933","0.0-6.0-2.0-0.8","gcbg94pk6w","one_one","1","indirect_first","0","ss070902","0","21","1","1","3","1","","0","1","0","null","","","<div class = 'row'><div class = 'column'><img src = 'uspos/1460.bmp' width = '100%;'></div><div class = 'column'><img src = 'category1/CS10.png' width = '70%;'></div></div>","null","pos","CS","CS","1","category1/CS10.png","","","","",""
"","html-keyboard-response","36","200458","0.0-6.0-2.0-0.9","gcbg94pk6w","one_one","1","indirect_first","0","ss070902","0","21","1","1","3","1","","0","1","0","null","","","<div class = 'row'><div class = 'column'><img src = 'uspos/8461.bmp' width = '100%;'></div><div class = 'column'><img src = 'category2/CS2.png' width = '70%;'></div></div>","null","pos","CS","CS","2","category2/CS2.png","","","","",""
"","html-keyboard-response","37","203007","0.0-6.0-2.0-0.10","gcbg94pk6w","one_one","1","indirect_first","0","ss070902","0","21","1","1","3","1","","0","1","0","null","","","<div class = 'row'><div class = 'column'><img src = 'category1/CS10.png' width = '70%;'></div><div class = 'column'><img src = 'uspos/1460.bmp' width = '100%;'></div></div>","null","pos","CS","CS","1","category1/CS10.png","","","","",""
"","html-keyboard-response","38","205533","0.0-6.0-2.0-0.11","gcbg94pk6w","one_one","1","indirect_first","0","ss070902","0","21","1","1","3","1","","0","1","0","null","","","<div class = 'row'><div class = 'column'><img src = 'usneg/9000.bmp' width = '100%;'></div><div class = 'column'><img src = 'category4/CS10.png' width = '70%;'></div></div>","null","neg","CS","CS","4","category4/CS10.png","","","","",""
"","html-keyboard-response","39","208081","0.0-6.0-2.0-0.12","gcbg94pk6w","one_one","1","indirect_first","0","ss070902","0","21","1","1","3","1","","0","1","0","null","","","<div class = 'row'><div class = 'column'><img src = 'category1/CS10.png' width = '70%;'></div><div class = 'column'><img src = 'uspos/1460.bmp' width = '100%;'></div></div>","null","pos","CS","CS","1","category1/CS10.png","","","","",""
"","html-keyboard-response","40","210598","0.0-6.0-2.0-0.13","gcbg94pk6w","one_one","1","indirect_first","0","ss070902","0","21","1","1","3","1","","0","1","0","null","","","<div class = 'row'><div class = 'column'><img src = 'category2/CS2.png' width = '70%;'></div><div class = 'column'><img src = 'uspos/8461.bmp' width = '100%;'></div></div>","null","pos","CS","CS","2","category2/CS2.png","","","","",""
"","html-keyboard-response","41","213111","0.0-6.0-2.0-0.14","gcbg94pk6w","one_one","1","indirect_first","0","ss070902","0","21","1","1","3","1","","0","1","0","null","","","<div class = 'row'><div class = 'column'><img src = 'usneg/9000.bmp' width = '100%;'></div><div class = 'column'><img src = 'category4/CS10.png' width = '70%;'></div></div>","null","neg","CS","CS","4","category4/CS10.png","","","","",""
"","html-keyboard-response","42","215631","0.0-6.0-2.0-0.15","gcbg94pk6w","one_one","1","indirect_first","0","ss070902","0","21","1","1","3","1","","0","1","0","null","","","<div class = 'row'><div class = 'column'><img src = 'category2/CS2.png' width = '70%;'></div><div class = 'column'><img src = 'uspos/8461.bmp' width = '100%;'></div></div>","null","pos","CS","CS","2","category2/CS2.png","","","","",""
"","html-keyboard-response","43","218150","0.0-6.0-2.0-0.16","gcbg94pk6w","one_one","1","indirect_first","0","ss070902","0","21","1","1","3","1","","0","1","0","null","","","<div class = 'row'><div class = 'column'><img src = 'category1/CS10.png' width = '70%;'></div><div class = 'column'><img src = 'uspos/1460.bmp' width = '100%;'></div></div>","null","pos","CS","CS","1","category1/CS10.png","","","","",""
"","html-keyboard-response","44","220656","0.0-6.0-2.0-0.17","gcbg94pk6w","one_one","1","indirect_first","0","ss070902","0","21","1","1","3","1","","0","1","0","null","","","<div class = 'row'><div class = 'column'><img src = 'category4/CS10.png' width = '70%;'></div><div class = 'column'><img src = 'usneg/9000.bmp' width = '100%;'></div></div>","null","neg","CS","CS","4","category4/CS10.png","","","","",""
"","html-keyboard-response","45","223229","0.0-6.0-2.0-0.18","gcbg94pk6w","one_one","1","indirect_first","0","ss070902","0","21","1","1","3","1","","0","1","0","null","","","<div class = 'row'><div class = 'column'><img src = 'category1/CS10.png' width = '70%;'></div><div class = 'column'><img src = 'uspos/1460.bmp' width = '100%;'></div></div>","null","pos","CS","CS","1","category1/CS10.png","","","","",""
"","html-keyboard-response","46","225778","0.0-6.0-2.0-0.19","gcbg94pk6w","one_one","1","indirect_first","0","ss070902","0","21","1","1","3","1","","0","1","0","null","","","<div class = 'row'><div class = 'column'><img src = 'category3/CS6.png' width = '70%;'></div><div class = 'column'><img src = 'usneg/9342.bmp' width = '100%;'></div></div>","null","neg","CS","CS","3","category3/CS6.png","","","","",""
"","survey-html-form","47","239389","0.0-6.0-3.0","gcbg94pk6w","one_one","1","indirect_first","0","ss070902","0","21","1","1","3","1","","0","1","0","13081.165000097826","","{}","","","","","","","","","","","",""
"","html-keyboard-response","48","243406","0.0-6.0-4.0-0.0","gcbg94pk6w","one_one","1","indirect_first","0","ss070902","0","21","1","1","3","1","","0","1","0","null","","","<div class = 'row'><div class = 'column'><img src = 'uspos/1460.bmp' width = '100%;'></div><div class = 'column'><img src = 'category1/CS10.png' width = '70%;'></div></div>","null","pos","CS","CS","1","category1/CS10.png","","","","",""
"","html-keyboard-response","49","245909","0.0-6.0-4.0-0.1","gcbg94pk6w","one_one","1","indirect_first","0","ss070902","0","21","1","1","3","1","","0","1","0","null","","","<div class = 'row'><div class = 'column'><img src = 'usneg/9342.bmp' width = '100%;'></div><div class = 'column'><img src = 'category3/CS6.png' width = '70%;'></div></div>","null","neg","CS","CS","3","category3/CS6.png","","","","",""
"","html-keyboard-response","50","248449","0.0-6.0-4.0-0.2","gcbg94pk6w","one_one","1","indirect_first","0","ss070902","0","21","1","1","3","1","","0","1","0","null","","","<div class = 'row'><div class = 'column'><img src = 'uspos/1460.bmp' width = '100%;'></div><div class = 'column'><img src = 'category1/CS10.png' width = '70%;'></div></div>","null","pos","CS","CS","1","category1/CS10.png","","","","",""
"","html-keyboard-response","51","250970","0.0-6.0-4.0-0.3","gcbg94pk6w","one_one","1","indirect_first","0","ss070902","0","21","1","1","3","1","","0","1","0","null","","","<div class = 'row'><div class = 'column'><img src = 'uspos/8461.bmp' width = '100%;'></div><div class = 'column'><img src = 'category2/CS2.png' width = '70%;'></div></div>","null","pos","CS","CS","2","category2/CS2.png","","","","",""
"","html-keyboard-response","52","253514","0.0-6.0-4.0-0.4","gcbg94pk6w","one_one","1","indirect_first","0","ss070902","0","21","1","1","3","1","","0","1","0","null","","","<div class = 'row'><div class = 'column'><img src = 'usneg/9000.bmp' width = '100%;'></div><div class = 'column'><img src = 'category4/CS10.png' width = '70%;'></div></div>","null","neg","CS","CS","4","category4/CS10.png","","","","",""
"","html-keyboard-response","53","256024","0.0-6.0-4.0-0.5","gcbg94pk6w","one_one","1","indirect_first","0","ss070902","0","21","1","1","3","1","","0","1","0","null","","","<div class = 'row'><div class = 'column'><img src = 'uspos/1460.bmp' width = '100%;'></div><div class = 'column'><img src = 'category1/CS10.png' width = '70%;'></div></div>","null","pos","CS","CS","1","category1/CS10.png","","","","",""
"","html-keyboard-response","54","258537","0.0-6.0-4.0-0.6","gcbg94pk6w","one_one","1","indirect_first","0","ss070902","0","21","1","1","3","1","","0","1","0","null","","","<div class = 'row'><div class = 'column'><img src = 'uspos/8461.bmp' width = '100%;'></div><div class = 'column'><img src = 'category2/CS2.png' width = '70%;'></div></div>","null","pos","CS","CS","2","category2/CS2.png","","","","",""
"","html-keyboard-response","55","261075","0.0-6.0-4.0-0.7","gcbg94pk6w","one_one","1","indirect_first","0","ss070902","0","21","1","1","3","1","","0","1","0","null","","","<div class = 'row'><div class = 'column'><img src = 'uspos/1460.bmp' width = '100%;'></div><div class = 'column'><img src = 'category1/CS10.png' width = '70%;'></div></div>","null","pos","CS","CS","1","category1/CS10.png","","","","",""
"","html-keyboard-response","56","263618","0.0-6.0-4.0-0.8","gcbg94pk6w","one_one","1","indirect_first","0","ss070902","0","21","1","1","3","1","","0","1","0","null","","","<div class = 'row'><div class = 'column'><img src = 'usneg/9342.bmp' width = '100%;'></div><div class = 'column'><img src = 'category3/CS6.png' width = '70%;'></div></div>","null","neg","CS","CS","3","category3/CS6.png","","","","",""
"","html-keyboard-response","57","266147","0.0-6.0-4.0-0.9","gcbg94pk6w","one_one","1","indirect_first","0","ss070902","0","21","1","1","3","1","","0","1","0","null","","","<div class = 'row'><div class = 'column'><img src = 'usneg/9000.bmp' width = '100%;'></div><div class = 'column'><img src = 'category4/CS10.png' width = '70%;'></div></div>","null","neg","CS","CS","4","category4/CS10.png","","","","",""
"","html-keyboard-response","58","268669","0.0-6.0-4.0-0.10","gcbg94pk6w","one_one","1","indirect_first","0","ss070902","0","21","1","1","3","1","","0","1","0","null","","","<div class = 'row'><div class = 'column'><img src = 'category2/CS2.png' width = '70%;'></div><div class = 'column'><img src = 'uspos/8461.bmp' width = '100%;'></div></div>","null","pos","CS","CS","2","category2/CS2.png","","","","",""
"","html-keyboard-response","59","271188","0.0-6.0-4.0-0.11","gcbg94pk6w","one_one","1","indirect_first","0","ss070902","0","21","1","1","3","1","","0","1","0","null","","","<div class = 'row'><div class = 'column'><img src = 'usneg/9342.bmp' width = '100%;'></div><div class = 'column'><img src = 'category3/CS6.png' width = '70%;'></div></div>","null","neg","CS","CS","3","category3/CS6.png","","","","",""
"","html-keyboard-response","60","273715","0.0-6.0-4.0-0.12","gcbg94pk6w","one_one","1","indirect_first","0","ss070902","0","21","1","1","3","1","","0","1","0","null","","","<div class = 'row'><div class = 'column'><img src = 'category2/CS2.png' width = '70%;'></div><div class = 'column'><img src = 'uspos/8461.bmp' width = '100%;'></div></div>","null","pos","CS","CS","2","category2/CS2.png","","","","",""
"","html-keyboard-response","61","276229","0.0-6.0-4.0-0.13","gcbg94pk6w","one_one","1","indirect_first","0","ss070902","0","21","1","1","3","1","","0","1","0","null","","","<div class = 'row'><div class = 'column'><img src = 'usneg/9000.bmp' width = '100%;'></div><div class = 'column'><img src = 'category4/CS10.png' width = '70%;'></div></div>","null","neg","CS","CS","4","category4/CS10.png","","","","",""
"","html-keyboard-response","62","278777","0.0-6.0-4.0-0.14","gcbg94pk6w","one_one","1","indirect_first","0","ss070902","0","21","1","1","3","1","","0","1","0","null","","","<div class = 'row'><div class = 'column'><img src = 'category3/CS6.png' width = '70%;'></div><div class = 'column'><img src = 'usneg/9342.bmp' width = '100%;'></div></div>","null","neg","CS","CS","3","category3/CS6.png","","","","",""
"","html-keyboard-response","63","281292","0.0-6.0-4.0-0.15","gcbg94pk6w","one_one","1","indirect_first","0","ss070902","0","21","1","1","3","1","","0","1","0","null","","","<div class = 'row'><div class = 'column'><img src = 'usneg/9000.bmp' width = '100%;'></div><div class = 'column'><img src = 'category4/CS10.png' width = '70%;'></div></div>","null","neg","CS","CS","4","category4/CS10.png","","","","",""
"","html-keyboard-response","64","283860","0.0-6.0-4.0-0.16","gcbg94pk6w","one_one","1","indirect_first","0","ss070902","0","21","1","1","3","1","","0","1","0","null","","","<div class = 'row'><div class = 'column'><img src = 'category3/CS6.png' width = '70%;'></div><div class = 'column'><img src = 'usneg/9342.bmp' width = '100%;'></div></div>","null","neg","CS","CS","3","category3/CS6.png","","","","",""
"","html-keyboard-response","65","286366","0.0-6.0-4.0-0.17","gcbg94pk6w","one_one","1","indirect_first","0","ss070902","0","21","1","1","3","1","","0","1","0","null","","","<div class = 'row'><div class = 'column'><img src = 'category4/CS10.png' width = '70%;'></div><div class = 'column'><img src = 'usneg/9000.bmp' width = '100%;'></div></div>","null","neg","CS","CS","4","category4/CS10.png","","","","",""
"","html-keyboard-response","66","288890","0.0-6.0-4.0-0.18","gcbg94pk6w","one_one","1","indirect_first","0","ss070902","0","21","1","1","3","1","","0","1","0","null","","","<div class = 'row'><div class = 'column'><img src = 'uspos/1460.bmp' width = '100%;'></div><div class = 'column'><img src = 'category1/CS10.png' width = '70%;'></div></div>","null","pos","CS","CS","1","category1/CS10.png","","","","",""
"","html-keyboard-response","67","291402","0.0-6.0-4.0-0.19","gcbg94pk6w","one_one","1","indirect_first","0","ss070902","0","21","1","1","3","1","","0","1","0","null","","","<div class = 'row'><div class = 'column'><img src = 'category2/CS2.png' width = '70%;'></div><div class = 'column'><img src = 'uspos/8461.bmp' width = '100%;'></div></div>","null","pos","CS","CS","2","category2/CS2.png","","","","",""
"","survey-html-form","68","340631","0.0-6.0-5.0","gcbg94pk6w","one_one","1","indirect_first","0","ss070902","0","21","1","1","3","1","","0","1","0","48707.61000015773","","{}","","","","","","","","","","","",""
"","html-keyboard-response","69","344646","0.0-6.0-6.0-0.0","gcbg94pk6w","one_one","1","indirect_first","0","ss070902","0","21","1","1","3","1","","0","1","0","null","","","<div class = 'row'><div class = 'column'><img src = 'uspos/1460.bmp' width = '100%;'></div><div class = 'column'><img src = 'category1/CS10.png' width = '70%;'></div></div>","null","pos","CS","CS","1","category1/CS10.png","","","","",""
"","html-keyboard-response","70","347154","0.0-6.0-6.0-0.1","gcbg94pk6w","one_one","1","indirect_first","0","ss070902","0","21","1","1","3","1","","0","1","0","null","","","<div class = 'row'><div class = 'column'><img src = 'usneg/9342.bmp' width = '100%;'></div><div class = 'column'><img src = 'category3/CS6.png' width = '70%;'></div></div>","null","neg","CS","CS","3","category3/CS6.png","","","","",""
"","html-keyboard-response","71","349669","0.0-6.0-6.0-0.2","gcbg94pk6w","one_one","1","indirect_first","0","ss070902","0","21","1","1","3","1","","0","1","0","null","","","<div class = 'row'><div class = 'column'><img src = 'uspos/8461.bmp' width = '100%;'></div><div class = 'column'><img src = 'category2/CS2.png' width = '70%;'></div></div>","null","pos","CS","CS","2","category2/CS2.png","","","","",""
"","html-keyboard-response","72","352193","0.0-6.0-6.0-0.3","gcbg94pk6w","one_one","1","indirect_first","0","ss070902","0","21","1","1","3","1","","0","1","0","null","","","<div class = 'row'><div class = 'column'><img src = 'category4/CS10.png' width = '70%;'></div><div class = 'column'><img src = 'usneg/9000.bmp' width = '100%;'></div></div>","null","neg","CS","CS","4","category4/CS10.png","","","","",""
"","html-keyboard-response","73","354701","0.0-6.0-6.0-0.4","gcbg94pk6w","one_one","1","indirect_first","0","ss070902","0","21","1","1","3","1","","0","1","0","null","","","<div class = 'row'><div class = 'column'><img src = 'category3/CS6.png' width = '70%;'></div><div class = 'column'><img src = 'usneg/9342.bmp' width = '100%;'></div></div>","null","neg","CS","CS","3","category3/CS6.png","","","","",""
"","html-keyboard-response","74","357207","0.0-6.0-6.0-0.5","gcbg94pk6w","one_one","1","indirect_first","0","ss070902","0","21","1","1","3","1","","0","1","0","null","","","<div class = 'row'><div class = 'column'><img src = 'uspos/1460.bmp' width = '100%;'></div><div class = 'column'><img src = 'category1/CS10.png' width = '70%;'></div></div>","null","pos","CS","CS","1","category1/CS10.png","","","","",""
"","html-keyboard-response","75","359737","0.0-6.0-6.0-0.6","gcbg94pk6w","one_one","1","indirect_first","0","ss070902","0","21","1","1","3","1","","0","1","0","null","","","<div class = 'row'><div class = 'column'><img src = 'category4/CS10.png' width = '70%;'></div><div class = 'column'><img src = 'usneg/9000.bmp' width = '100%;'></div></div>","null","neg","CS","CS","4","category4/CS10.png","","","","",""
"","html-keyboard-response","76","362282","0.0-6.0-6.0-0.7","gcbg94pk6w","one_one","1","indirect_first","0","ss070902","0","21","1","1","3","1","","0","1","0","null","","","<div class = 'row'><div class = 'column'><img src = 'uspos/8461.bmp' width = '100%;'></div><div class = 'column'><img src = 'category2/CS2.png' width = '70%;'></div></div>","null","pos","CS","CS","2","category2/CS2.png","","","","",""
"","html-keyboard-response","77","364808","0.0-6.0-6.0-0.8","gcbg94pk6w","one_one","1","indirect_first","0","ss070902","0","21","1","1","3","1","","0","1","0","null","","","<div class = 'row'><div class = 'column'><img src = 'usneg/9342.bmp' width = '100%;'></div><div class = 'column'><img src = 'category3/CS6.png' width = '70%;'></div></div>","null","neg","CS","CS","3","category3/CS6.png","","","","",""
"","html-keyboard-response","78","367371","0.0-6.0-6.0-0.9","gcbg94pk6w","one_one","1","indirect_first","0","ss070902","0","21","1","1","3","1","","0","1","0","null","","","<div class = 'row'><div class = 'column'><img src = 'category4/CS10.png' width = '70%;'></div><div class = 'column'><img src = 'usneg/9000.bmp' width = '100%;'></div></div>","null","neg","CS","CS","4","category4/CS10.png","","","","",""
"","html-keyboard-response","79","369881","0.0-6.0-6.0-0.10","gcbg94pk6w","one_one","1","indirect_first","0","ss070902","0","21","1","1","3","1","","0","1","0","null","","","<div class = 'row'><div class = 'column'><img src = 'category3/CS6.png' width = '70%;'></div><div class = 'column'><img src = 'usneg/9342.bmp' width = '100%;'></div></div>","null","neg","CS","CS","3","category3/CS6.png","","","","",""
"","html-keyboard-response","80","372387","0.0-6.0-6.0-0.11","gcbg94pk6w","one_one","1","indirect_first","0","ss070902","0","21","1","1","3","1","","0","1","0","null","","","<div class = 'row'><div class = 'column'><img src = 'uspos/8461.bmp' width = '100%;'></div><div class = 'column'><img src = 'category2/CS2.png' width = '70%;'></div></div>","null","pos","CS","CS","2","category2/CS2.png","","","","",""
"","html-keyboard-response","81","374906","0.0-6.0-6.0-0.12","gcbg94pk6w","one_one","1","indirect_first","0","ss070902","0","21","1","1","3","1","","0","1","0","null","","","<div class = 'row'><div class = 'column'><img src = 'uspos/1460.bmp' width = '100%;'></div><div class = 'column'><img src = 'category1/CS10.png' width = '70%;'></div></div>","null","pos","CS","CS","1","category1/CS10.png","","","","",""
"","html-keyboard-response","82","377461","0.0-6.0-6.0-0.13","gcbg94pk6w","one_one","1","indirect_first","0","ss070902","0","21","1","1","3","1","","0","1","0","null","","","<div class = 'row'><div class = 'column'><img src = 'category3/CS6.png' width = '70%;'></div><div class = 'column'><img src = 'usneg/9342.bmp' width = '100%;'></div></div>","null","neg","CS","CS","3","category3/CS6.png","","","","",""
"","html-keyboard-response","83","379976","0.0-6.0-6.0-0.14","gcbg94pk6w","one_one","1","indirect_first","0","ss070902","0","21","1","1","3","1","","0","1","0","null","","","<div class = 'row'><div class = 'column'><img src = 'uspos/1460.bmp' width = '100%;'></div><div class = 'column'><img src = 'category1/CS10.png' width = '70%;'></div></div>","null","pos","CS","CS","1","category1/CS10.png","","","","",""
"","html-keyboard-response","84","382498","0.0-6.0-6.0-0.15","gcbg94pk6w","one_one","1","indirect_first","0","ss070902","0","21","1","1","3","1","","0","1","0","null","","","<div class = 'row'><div class = 'column'><img src = 'category2/CS2.png' width = '70%;'></div><div class = 'column'><img src = 'uspos/8461.bmp' width = '100%;'></div></div>","null","pos","CS","CS","2","category2/CS2.png","","","","",""
"","html-keyboard-response","85","385050","0.0-6.0-6.0-0.16","gcbg94pk6w","one_one","1","indirect_first","0","ss070902","0","21","1","1","3","1","","0","1","0","null","","","<div class = 'row'><div class = 'column'><img src = 'usneg/9000.bmp' width = '100%;'></div><div class = 'column'><img src = 'category4/CS10.png' width = '70%;'></div></div>","null","neg","CS","CS","4","category4/CS10.png","","","","",""
"","html-keyboard-response","86","387593","0.0-6.0-6.0-0.17","gcbg94pk6w","one_one","1","indirect_first","0","ss070902","0","21","1","1","3","1","","0","1","0","null","","","<div class = 'row'><div class = 'column'><img src = 'uspos/8461.bmp' width = '100%;'></div><div class = 'column'><img src = 'category2/CS2.png' width = '70%;'></div></div>","null","pos","CS","CS","2","category2/CS2.png","","","","",""
"","html-keyboard-response","87","390112","0.0-6.0-6.0-0.18","gcbg94pk6w","one_one","1","indirect_first","0","ss070902","0","21","1","1","3","1","","0","1","0","null","","","<div class = 'row'><div class = 'column'><img src = 'category4/CS10.png' width = '70%;'></div><div class = 'column'><img src = 'usneg/9000.bmp' width = '100%;'></div></div>","null","neg","CS","CS","4","category4/CS10.png","","","","",""
"","html-keyboard-response","88","392664","0.0-6.0-6.0-0.19","gcbg94pk6w","one_one","1","indirect_first","0","ss070902","0","21","1","1","3","1","","0","1","0","null","","","<div class = 'row'><div class = 'column'><img src = 'category1/CS10.png' width = '70%;'></div><div class = 'column'><img src = 'uspos/1460.bmp' width = '100%;'></div></div>","null","pos","CS","CS","1","category1/CS10.png","","","","",""
"","html-keyboard-response","89","454563","0.0-7.0","gcbg94pk6w","one_one","1","indirect_first","0","ss070902","0","21","1","1","3","1","","0","1","0","61388.32499994896","","","<p>Sie sehen nun die chinesischen Zeichen nur ganz kurz. Danach sehen Sie die jeweilige Aussprache der Zeichen als Silbe auf dem Bildschrim. Ihre Aufgabe ist es, für jede Silbe anzugeben, ob diese etwas angenehmes, oder unangenehmes bedeuten könnte. Verlassen Sie sich hier vor allem auf Ihre Intuition.<br><br>Die Zeichen werden nur zur Orientierung dargestellt, beachten Sie sie deshalb nicht. Konzentrieren Sie sich vor allem auf die Silben. <br>Reagieren Sie mit folgenden zwei Tasten: <br><br><b>'D' </b> wenn die Silbe etwas <b>unangenehmes</b> bedeuten könnte. <br><b>'K'</b> wenn die Silbe etwas <b>angenehmes</b> bedeuten könnte. <br><br>Bitte legen Sie nun den Zeigefinger der linken Hand auf die Taste 'D' und den Zeigefinger der rechten Hand auf die Taste 'K'. <br>Reagieren Sie auf jede Silbe so schnell wie möglich. Uns interessiert Ihre spontane Reaktion. <br> <br> <br>Drücken Sie 'D' oder 'K', um die nächste Aufgabe zu starten. </p>","75","","","","","","","","","",""
"","html-keyboard-response","90","457586","0.0-8.0-0.0","gcbg94pk6w","one_one","1","indirect_first","0","ss070902","0","21","1","1","3","1","","0","1","0","null","","","<div style=""font-size:60px;"">+</div>","null","","","","","","","","","",""
"","html-keyboard-response","91","457684","0.0-8.0-1.0","gcbg94pk6w","one_one","1","indirect_first","0","ss070902","0","21","1","1","3","1","","0","1","0","null","","","<img src = 'category4/CS9.png' width = '100%;'>","null","","","","","","","","","",""
"","html-keyboard-response","92","457943","0.0-8.0-2.0","gcbg94pk6w","one_one","1","indirect_first","0","ss070902","0","21","1","1","3","1","","0","1","0","null","","","<img src = 'targets/43.png' width = '100%;'>","null","","","","","","","","","",""
"","html-keyboard-response","93","463725","0.0-8.0-3.0","gcbg94pk6w","one_one","1","indirect_first","0","ss070902","0","21","1","1","3","1","","0","1","0","5780.0549999810755","","","<img src = 'targets/mask.png' width = '100%;'>","68","neg","GS","GSold","4","category4/CS9.png","targets/43.png","0","indirect","0",""
"","html-keyboard-response","94","465259","0.0-8.0-0.1","gcbg94pk6w","one_one","1","indirect_first","0","ss070902","0","21","1","1","3","1","","0","1","0","null","","","<div style=""font-size:60px;"">+</div>","null","","","","","","","","","",""
"","html-keyboard-response","95","465357","0.0-8.0-1.1","gcbg94pk6w","one_one","1","indirect_first","0","ss070902","0","21","1","1","3","1","","0","1","0","null","","","<img src = 'category1/CS1.png' width = '100%;'>","null","","","","","","","","","",""
"","html-keyboard-response","96","465617","0.0-8.0-2.1","gcbg94pk6w","one_one","1","indirect_first","0","ss070902","0","21","1","1","3","1","","0","1","0","null","","","<img src = 'targets/12.png' width = '100%;'>","null","","","","","","","","","",""
"","html-keyboard-response","97","468090","0.0-8.0-3.1","gcbg94pk6w","one_one","1","indirect_first","0","ss070902","0","21","1","1","3","1","","0","1","0","2471.034999936819","","","<img src = 'targets/mask.png' width = '100%;'>","75","pos","GS","GSold","1","category1/CS1.png","targets/12.png","1","indirect","1",""
"","html-keyboard-response","98","469626","0.0-8.0-0.2","gcbg94pk6w","one_one","1","indirect_first","0","ss070902","0","21","1","1","3","1","","0","1","0","null","","","<div style=""font-size:60px;"">+</div>","null","","","","","","","","","",""
"","html-keyboard-response","99","469723","0.0-8.0-1.2","gcbg94pk6w","one_one","1","indirect_first","0","ss070902","0","21","1","1","3","1","","0","1","0","null","","","<img src = 'category3/CS7.png' width = '100%;'>","null","","","","","","","","","",""
"","html-keyboard-response","100","469982","0.0-8.0-2.2","gcbg94pk6w","one_one","1","indirect_first","0","ss070902","0","21","1","1","3","1","","0","1","0","null","","","<img src = 'targets/44.png' width = '100%;'>","null","","","","","","","","","",""
"","html-keyboard-response","101","471539","0.0-8.0-3.2","gcbg94pk6w","one_one","1","indirect_first","0","ss070902","0","21","1","1","3","1","","0","1","0","1523.9900001324713","","","<img src = 'targets/mask.png' width = '100%;'>","68","neg","GS","GSold","3","category3/CS7.png","targets/44.png","0","indirect","2",""
"","html-keyboard-response","102","473079","0.0-8.0-0.3","gcbg94pk6w","one_one","1","indirect_first","0","ss070902","0","21","1","1","3","1","","0","1","0","null","","","<div style=""font-size:60px;"">+</div>","null","","","","","","","","","",""
"","html-keyboard-response","103","473172","0.0-8.0-1.3","gcbg94pk6w","one_one","1","indirect_first","0","ss070902","0","21","1","1","3","1","","0","1","0","null","","","<img src = 'category1/CS8.png' width = '100%;'>","null","","","","","","","","","",""
"","html-keyboard-response","104","473439","0.0-8.0-2.3","gcbg94pk6w","one_one","1","indirect_first","0","ss070902","0","21","1","1","3","1","","0","1","0","null","","","<img src = 'targets/14.png' width = '100%;'>","null","","","","","","","","","",""
"","html-keyboard-response","105","475804","0.0-8.0-3.3","gcbg94pk6w","one_one","1","indirect_first","0","ss070902","0","21","1","1","3","1","","0","1","0","2332.9449999146163","","","<img src = 'targets/mask.png' width = '100%;'>","75","pos","GS","GSold","1","category1/CS8.png","targets/14.png","1","indirect","3",""
"","html-keyboard-response","106","477339","0.0-8.0-0.4","gcbg94pk6w","one_one","1","indirect_first","0","ss070902","0","21","1","1","3","1","","0","1","0","null","","","<div style=""font-size:60px;"">+</div>","null","","","","","","","","","",""
"","html-keyboard-response","107","477436","0.0-8.0-1.4","gcbg94pk6w","one_one","1","indirect_first","0","ss070902","0","21","1","1","3","1","","0","1","0","null","","","<img src = 'category2/CS1.png' width = '100%;'>","null","","","","","","","","","",""
"","html-keyboard-response","108","477695","0.0-8.0-2.4","gcbg94pk6w","one_one","1","indirect_first","0","ss070902","0","21","1","1","3","1","","0","1","0","null","","","<img src = 'targets/19.png' width = '100%;'>","null","","","","","","","","","",""
"","html-keyboard-response","109","482740","0.0-8.0-3.4","gcbg94pk6w","one_one","1","indirect_first","0","ss070902","0","21","1","1","3","1","","0","1","0","5041.5749999228865","","","<img src = 'targets/mask.png' width = '100%;'>","68","pos","GS","GSold","2","category2/CS1.png","targets/19.png","0","indirect","4",""
"","html-keyboard-response","110","484270","0.0-8.0-0.5","gcbg94pk6w","one_one","1","indirect_first","0","ss070902","0","21","1","1","3","1","","0","1","0","null","","","<div style=""font-size:60px;"">+</div>","null","","","","","","","","","",""
"","html-keyboard-response","111","484370","0.0-8.0-1.5","gcbg94pk6w","one_one","1","indirect_first","0","ss070902","0","21","1","1","3","1","","0","1","0","null","","","<img src = 'category4/CS5.png' width = '100%;'>","null","","","","","","","","","",""
"","html-keyboard-response","112","484637","0.0-8.0-2.5","gcbg94pk6w","one_one","1","indirect_first","0","ss070902","0","21","1","1","3","1","","0","1","0","null","","","<img src = 'targets/25.png' width = '100%;'>","null","","","","","","","","","",""
"","html-keyboard-response","113","487583","0.0-8.0-3.5","gcbg94pk6w","one_one","1","indirect_first","0","ss070902","0","21","1","1","3","1","","0","1","0","2937.1700000483543","","","<img src = 'targets/mask.png' width = '100%;'>","75","neg","GS","GSold","4","category4/CS5.png","targets/25.png","1","indirect","5",""
"","html-keyboard-response","114","489087","0.0-8.0-0.6","gcbg94pk6w","one_one","1","indirect_first","0","ss070902","0","21","1","1","3","1","","0","1","0","null","","","<div style=""font-size:60px;"">+</div>","null","","","","","","","","","",""
"","html-keyboard-response","115","489184","0.0-8.0-1.6","gcbg94pk6w","one_one","1","indirect_first","0","ss070902","0","21","1","1","3","1","","0","1","0","null","","","<img src = 'category3/CS8.png' width = '100%;'>","null","","","","","","","","","",""
"","html-keyboard-response","116","489438","0.0-8.0-2.6","gcbg94pk6w","one_one","1","indirect_first","0","ss070902","0","21","1","1","3","1","","0","1","0","null","","","<img src = 'targets/28.png' width = '100%;'>","null","","","","","","","","","",""
"","html-keyboard-response","117","490434","0.0-8.0-3.6","gcbg94pk6w","one_one","1","indirect_first","0","ss070902","0","21","1","1","3","1","","0","1","0","993.8250000122935","","","<img src = 'targets/mask.png' width = '100%;'>","75","neg","GS","GSold","3","category3/CS8.png","targets/28.png","1","indirect","6",""
"","html-keyboard-response","118","491945","0.0-8.0-0.7","gcbg94pk6w","one_one","1","indirect_first","0","ss070902","0","21","1","1","3","1","","0","1","0","null","","","<div style=""font-size:60px;"">+</div>","null","","","","","","","","","",""
"","html-keyboard-response","119","492043","0.0-8.0-1.7","gcbg94pk6w","one_one","1","indirect_first","0","ss070902","0","21","1","1","3","1","","0","1","0","null","","","<img src = 'category4/CS10.png' width = '100%;'>","null","","","","","","","","","",""
"","html-keyboard-response","120","492309","0.0-8.0-2.7","gcbg94pk6w","one_one","1","indirect_first","0","ss070902","0","21","1","1","3","1","","0","1","0","null","","","<img src = 'targets/2.png' width = '100%;'>","null","","","","","","","","","",""
"","html-keyboard-response","121","496494","0.0-8.0-3.7","gcbg94pk6w","one_one","1","indirect_first","0","ss070902","0","21","1","1","3","1","","0","1","0","4165.414999937639","","","<img src = 'targets/mask.png' width = '100%;'>","75","neg","CS","CS","4","category4/CS10.png","targets/2.png","1","indirect","7",""
"","html-keyboard-response","122","498006","0.0-8.0-0.8","gcbg94pk6w","one_one","1","indirect_first","0","ss070902","0","21","1","1","3","1","","0","1","0","null","","","<div style=""font-size:60px;"">+</div>","null","","","","","","","","","",""
"","html-keyboard-response","123","498104","0.0-8.0-1.8","gcbg94pk6w","one_one","1","indirect_first","0","ss070902","0","21","1","1","3","1","","0","1","0","null","","","<img src = 'category1/CS10.png' width = '100%;'>","null","","","","","","","","","",""
"","html-keyboard-response","124","498363","0.0-8.0-2.8","gcbg94pk6w","one_one","1","indirect_first","0","ss070902","0","21","1","1","3","1","","0","1","0","null","","","<img src = 'targets/8.png' width = '100%;'>","null","","","","","","","","","",""
"","html-keyboard-response","125","501926","0.0-8.0-3.8","gcbg94pk6w","one_one","1","indirect_first","0","ss070902","0","21","1","1","3","1","","0","1","0","3550.9349999483675","","","<img src = 'targets/mask.png' width = '100%;'>","75","pos","CS","CS","1","category1/CS10.png","targets/8.png","1","indirect","8",""
"","html-keyboard-response","126","503481","0.0-8.0-0.9","gcbg94pk6w","one_one","1","indirect_first","0","ss070902","0","21","1","1","3","1","","0","1","0","null","","","<div style=""font-size:60px;"">+</div>","null","","","","","","","","","",""
"","html-keyboard-response","127","503578","0.0-8.0-1.9","gcbg94pk6w","one_one","1","indirect_first","0","ss070902","0","21","1","1","3","1","","0","1","0","null","","","<img src = 'category2/CS7.png' width = '100%;'>","null","","","","","","","","","",""
"","html-keyboard-response","128","503835","0.0-8.0-2.9","gcbg94pk6w","one_one","1","indirect_first","0","ss070902","0","21","1","1","3","1","","0","1","0","null","","","<img src = 'targets/42.png' width = '100%;'>","null","","","","","","","","","",""
"","html-keyboard-response","129","504645","0.0-8.0-3.9","gcbg94pk6w","one_one","1","indirect_first","0","ss070902","0","21","1","1","3","1","","0","1","0","807.425000006333","","","<img src = 'targets/mask.png' width = '100%;'>","68","pos","GS","GSold","2","category2/CS7.png","targets/42.png","0","indirect","9",""
"","html-keyboard-response","130","506164","0.0-8.0-0.10","gcbg94pk6w","one_one","1","indirect_first","0","ss070902","0","21","1","1","3","1","","0","1","0","null","","","<div style=""font-size:60px;"">+</div>","null","","","","","","","","","",""
"","html-keyboard-response","131","506262","0.0-8.0-1.10","gcbg94pk6w","one_one","1","indirect_first","0","ss070902","0","21","1","1","3","1","","0","1","0","null","","","<img src = 'category3/CS5.png' width = '100%;'>","null","","","","","","","","","",""
"","html-keyboard-response","132","506527","0.0-8.0-2.10","gcbg94pk6w","one_one","1","indirect_first","0","ss070902","0","21","1","1","3","1","","0","1","0","null","","","<img src = 'targets/27.png' width = '100%;'>","null","","","","","","","","","",""
"","html-keyboard-response","133","508402","0.0-8.0-3.10","gcbg94pk6w","one_one","1","indirect_first","0","ss070902","0","21","1","1","3","1","","0","1","0","1850.0500000081956","","","<img src = 'targets/mask.png' width = '100%;'>","75","neg","GS","GSold","3","category3/CS5.png","targets/27.png","1","indirect","10",""
"","html-keyboard-response","134","509923","0.0-8.0-0.11","gcbg94pk6w","one_one","1","indirect_first","0","ss070902","0","21","1","1","3","1","","0","1","0","null","","","<div style=""font-size:60px;"">+</div>","null","","","","","","","","","",""
"","html-keyboard-response","135","510019","0.0-8.0-1.11","gcbg94pk6w","one_one","1","indirect_first","0","ss070902","0","21","1","1","3","1","","0","1","0","null","","","<img src = 'category2/CS5.png' width = '100%;'>","null","","","","","","","","","",""
"","html-keyboard-response","136","510285","0.0-8.0-2.11","gcbg94pk6w","one_one","1","indirect_first","0","ss070902","0","21","1","1","3","1","","0","1","0","null","","","<img src = 'targets/45.png' width = '100%;'>","null","","","","","","","","","",""
"","html-keyboard-response","137","513633","0.0-8.0-3.11","gcbg94pk6w","one_one","1","indirect_first","0","ss070902","0","21","1","1","3","1","","0","1","0","3316.340000135824","","","<img src = 'targets/mask.png' width = '100%;'>","68","pos","GS","GSold","2","category2/CS5.png","targets/45.png","0","indirect","11",""
"","html-keyboard-response","138","515144","0.0-8.0-0.12","gcbg94pk6w","one_one","1","indirect_first","0","ss070902","0","21","1","1","3","1","","0","1","0","null","","","<div style=""font-size:60px;"">+</div>","null","","","","","","","","","",""
"","html-keyboard-response","139","515243","0.0-8.0-1.12","gcbg94pk6w","one_one","1","indirect_first","0","ss070902","0","21","1","1","3","1","","0","1","0","null","","","<img src = 'category2/CS2.png' width = '100%;'>","null","","","","","","","","","",""
"","html-keyboard-response","140","515508","0.0-8.0-2.12","gcbg94pk6w","one_one","1","indirect_first","0","ss070902","0","21","1","1","3","1","","0","1","0","null","","","<img src = 'targets/37.png' width = '100%;'>","null","","","","","","","","","",""
"","html-keyboard-response","141","517194","0.0-8.0-3.12","gcbg94pk6w","one_one","1","indirect_first","0","ss070902","0","21","1","1","3","1","","0","1","0","1684.1200001072139","","","<img src = 'targets/mask.png' width = '100%;'>","68","pos","CS","CS","2","category2/CS2.png","targets/37.png","0","indirect","12",""
"","html-keyboard-response","142","518727","0.0-8.0-0.13","gcbg94pk6w","one_one","1","indirect_first","0","ss070902","0","21","1","1","3","1","","0","1","0","null","","","<div style=""font-size:60px;"">+</div>","null","","","","","","","","","",""
"","html-keyboard-response","143","518820","0.0-8.0-1.13","gcbg94pk6w","one_one","1","indirect_first","0","ss070902","0","21","1","1","3","1","","0","1","0","null","","","<img src = 'category1/CS5.png' width = '100%;'>","null","","","","","","","","","",""
"","html-keyboard-response","144","519087","0.0-8.0-2.13","gcbg94pk6w","one_one","1","indirect_first","0","ss070902","0","21","1","1","3","1","","0","1","0","null","","","<img src = 'targets/16.png' width = '100%;'>","null","","","","","","","","","",""
"","html-keyboard-response","145","522868","0.0-8.0-3.13","gcbg94pk6w","one_one","1","indirect_first","0","ss070902","0","21","1","1","3","1","","0","1","0","3778.4349999856204","","","<img src = 'targets/mask.png' width = '100%;'>","75","pos","GS","GSold","1","category1/CS5.png","targets/16.png","1","indirect","13",""
"","html-keyboard-response","146","524388","0.0-8.0-0.14","gcbg94pk6w","one_one","1","indirect_first","0","ss070902","0","21","1","1","3","1","","0","1","0","null","","","<div style=""font-size:60px;"">+</div>","null","","","","","","","","","",""
"","html-keyboard-response","147","524485","0.0-8.0-1.14","gcbg94pk6w","one_one","1","indirect_first","0","ss070902","0","21","1","1","3","1","","0","1","0","null","","","<img src = 'category4/CS8.png' width = '100%;'>","null","","","","","","","","","",""
"","html-keyboard-response","148","524746","0.0-8.0-2.14","gcbg94pk6w","one_one","1","indirect_first","0","ss070902","0","21","1","1","3","1","","0","1","0","null","","","<img src = 'targets/23.png' width = '100%;'>","null","","","","","","","","","",""
"","html-keyboard-response","149","526205","0.0-8.0-3.14","gcbg94pk6w","one_one","1","indirect_first","0","ss070902","0","21","1","1","3","1","","0","1","0","1456.7199999000877","","","<img src = 'targets/mask.png' width = '100%;'>","75","neg","GS","GSold","4","category4/CS8.png","targets/23.png","1","indirect","14",""
"","html-keyboard-response","150","527756","0.0-8.0-0.15","gcbg94pk6w","one_one","1","indirect_first","0","ss070902","0","21","1","1","3","1","","0","1","0","null","","","<div style=""font-size:60px;"">+</div>","null","","","","","","","","","",""
"","html-keyboard-response","151","527848","0.0-8.0-1.15","gcbg94pk6w","one_one","1","indirect_first","0","ss070902","0","21","1","1","3","1","","0","1","0","null","","","<img src = 'category3/CS6.png' width = '100%;'>","null","","","","","","","","","",""
"","html-keyboard-response","152","528114","0.0-8.0-2.15","gcbg94pk6w","one_one","1","indirect_first","0","ss070902","0","21","1","1","3","1","","0","1","0","null","","","<img src = 'targets/38.png' width = '100%;'>","null","","","","","","","","","",""
"","html-keyboard-response","153","528785","0.0-8.0-3.15","gcbg94pk6w","one_one","1","indirect_first","0","ss070902","0","21","1","1","3","1","","0","1","0","669.2599998787045","","","<img src = 'targets/mask.png' width = '100%;'>","68","neg","CS","CS","3","category3/CS6.png","targets/38.png","0","indirect","15",""
"","survey-html-form","154","540086","0.0-9.0","gcbg94pk6w","one_one","1","indirect_first","0","ss070902","0","21","1","1","3","1","","0","1","0","10793.134999927133","","{}","","","","","","","","","","","",""
"","html-keyboard-response","155","543105","0.0-10.0-0.0","gcbg94pk6w","one_one","1","indirect_first","0","ss070902","0","21","1","1","3","1","","0","1","0","null","","","<div style=""font-size:60px;"">+</div>","null","","","","","","","","","",""
"","html-keyboard-response","156","543202","0.0-10.0-1.0","gcbg94pk6w","one_one","1","indirect_first","0","ss070902","0","21","1","1","3","1","","0","1","0","null","","","<img src = 'category1/ma.png' width = '100%;'>","null","","","","","","","","","",""
"","html-keyboard-response","157","543460","0.0-10.0-2.0","gcbg94pk6w","one_one","1","indirect_first","0","ss070902","0","21","1","1","3","1","","0","1","0","null","","","<img src = 'targets/11.png' width = '100%;'>","null","","","","","","","","","",""
"","html-keyboard-response","158","544933","0.0-10.0-3.0","gcbg94pk6w","one_one","1","indirect_first","0","ss070902","0","21","1","1","3","1","","0","1","0","1470.8700000774115","","","<img src = 'targets/mask.png' width = '100%;'>","75","pos","GS","abstract","1","category1/ma.png","targets/11.png","1","indirect","16",""
"","html-keyboard-response","159","546483","0.0-10.0-0.1","gcbg94pk6w","one_one","1","indirect_first","0","ss070902","0","21","1","1","3","1","","0","1","0","null","","","<div style=""font-size:60px;"">+</div>","null","","","","","","","","","",""
"","html-keyboard-response","160","546581","0.0-10.0-1.1","gcbg94pk6w","one_one","1","indirect_first","0","ss070902","0","21","1","1","3","1","","0","1","0","null","","","<img src = 'category2/GS3.png' width = '100%;'>","null","","","","","","","","","",""
"","html-keyboard-response","161","546839","0.0-10.0-2.1","gcbg94pk6w","one_one","1","indirect_first","0","ss070902","0","21","1","1","3","1","","0","1","0","null","","","<img src = 'targets/47.png' width = '100%;'>","null","","","","","","","","","",""
"","html-keyboard-response","162","550310","0.0-10.0-3.1","gcbg94pk6w","one_one","1","indirect_first","0","ss070902","0","21","1","1","3","1","","0","1","0","3468.9750000834465","","","<img src = 'targets/mask.png' width = '100%;'>","68","pos","GS","GSnew","2","category2/GS3.png","targets/47.png","0","indirect","17",""
"","html-keyboard-response","163","551846","0.0-10.0-0.2","gcbg94pk6w","one_one","1","indirect_first","0","ss070902","0","21","1","1","3","1","","0","1","0","null","","","<div style=""font-size:60px;"">+</div>","null","","","","","","","","","",""
"","html-keyboard-response","164","551946","0.0-10.0-1.2","gcbg94pk6w","one_one","1","indirect_first","0","ss070902","0","21","1","1","3","1","","0","1","0","null","","","<img src = 'category3/GS3.png' width = '100%;'>","null","","","","","","","","","",""
"","html-keyboard-response","165","552208","0.0-10.0-2.2","gcbg94pk6w","one_one","1","indirect_first","0","ss070902","0","21","1","1","3","1","","0","1","0","null","","","<img src = 'targets/35.png' width = '100%;'>","null","","","","","","","","","",""
"","html-keyboard-response","166","552907","0.0-10.0-3.2","gcbg94pk6w","one_one","1","indirect_first","0","ss070902","0","21","1","1","3","1","","0","1","0","697.0599999185652","","","<img src = 'targets/mask.png' width = '100%;'>","68","neg","GS","GSnew","3","category3/GS3.png","targets/35.png","0","indirect","18",""
"","html-keyboard-response","167","554420","0.0-10.0-0.3","gcbg94pk6w","one_one","1","indirect_first","0","ss070902","0","21","1","1","3","1","","0","1","0","null","","","<div style=""font-size:60px;"">+</div>","null","","","","","","","","","",""
"","html-keyboard-response","168","554517","0.0-10.0-1.3","gcbg94pk6w","one_one","1","indirect_first","0","ss070902","0","21","1","1","3","1","","0","1","0","null","","","<img src = 'category2/men.png' width = '100%;'>","null","","","","","","","","","",""
"","html-keyboard-response","169","554778","0.0-10.0-2.3","gcbg94pk6w","one_one","1","indirect_first","0","ss070902","0","21","1","1","3","1","","0","1","0","null","","","<img src = 'targets/7.png' width = '100%;'>","null","","","","","","","","","",""
"","html-keyboard-response","170","555948","0.0-10.0-3.3","gcbg94pk6w","one_one","1","indirect_first","0","ss070902","0","21","1","1","3","1","","0","1","0","1142.2749999910593","","","<img src = 'targets/mask.png' width = '100%;'>","68","pos","GS","abstract","2","category2/men.png","targets/7.png","0","indirect","19",""
"","html-keyboard-response","171","557457","0.0-10.0-0.4","gcbg94pk6w","one_one","1","indirect_first","0","ss070902","0","21","1","1","3","1","","0","1","0","null","","","<div style=""font-size:60px;"">+</div>","null","","","","","","","","","",""
"","html-keyboard-response","172","557551","0.0-10.0-1.4","gcbg94pk6w","one_one","1","indirect_first","0","ss070902","0","21","1","1","3","1","","0","1","0","null","","","<img src = 'category4/GS3.png' width = '100%;'>","null","","","","","","","","","",""
"","html-keyboard-response","173","557810","0.0-10.0-2.4","gcbg94pk6w","one_one","1","indirect_first","0","ss070902","0","21","1","1","3","1","","0","1","0","null","","","<img src = 'targets/32.png' width = '100%;'>","null","","","","","","","","","",""
"","html-keyboard-response","174","558763","0.0-10.0-3.4","gcbg94pk6w","one_one","1","indirect_first","0","ss070902","0","21","1","1","3","1","","0","1","0","923.9450001623482","","","<img src = 'targets/mask.png' width = '100%;'>","75","neg","GS","GSnew","4","category4/GS3.png","targets/32.png","1","indirect","20",""
"","html-keyboard-response","175","560309","0.0-10.0-0.5","gcbg94pk6w","one_one","1","indirect_first","0","ss070902","0","21","1","1","3","1","","0","1","0","null","","","<div style=""font-size:60px;"">+</div>","null","","","","","","","","","",""
"","html-keyboard-response","176","560405","0.0-10.0-1.5","gcbg94pk6w","one_one","1","indirect_first","0","ss070902","0","21","1","1","3","1","","0","1","0","null","","","<img src = 'category4/lin.png' width = '100%;'>","null","","","","","","","","","",""
"","html-keyboard-response","177","560680","0.0-10.0-2.5","gcbg94pk6w","one_one","1","indirect_first","0","ss070902","0","21","1","1","3","1","","0","1","0","null","","","<img src = 'targets/10.png' width = '100%;'>","null","","","","","","","","","",""
"","html-keyboard-response","178","561971","0.0-10.0-3.5","gcbg94pk6w","one_one","1","indirect_first","0","ss070902","0","21","1","1","3","1","","0","1","0","1289.4599998835474","","","<img src = 'targets/mask.png' width = '100%;'>","75","neg","GS","abstract","4","category4/lin.png","targets/10.png","1","indirect","21",""
"","html-keyboard-response","179","563476","0.0-10.0-0.6","gcbg94pk6w","one_one","1","indirect_first","0","ss070902","0","21","1","1","3","1","","0","1","0","null","","","<div style=""font-size:60px;"">+</div>","null","","","","","","","","","",""
"","html-keyboard-response","180","563570","0.0-10.0-1.6","gcbg94pk6w","one_one","1","indirect_first","0","ss070902","0","21","1","1","3","1","","0","1","0","null","","","<img src = 'category1/GS3.png' width = '100%;'>","null","","","","","","","","","",""
"","html-keyboard-response","181","563873","0.0-10.0-2.6","gcbg94pk6w","one_one","1","indirect_first","0","ss070902","0","21","1","1","3","1","","0","1","0","null","","","<img src = 'targets/24.png' width = '100%;'>","null","","","","","","","","","",""
"","html-keyboard-response","182","564491","0.0-10.0-3.6","gcbg94pk6w","one_one","1","indirect_first","0","ss070902","0","21","1","1","3","1","","0","1","0","616.3050001487136","","","<img src = 'targets/mask.png' width = '100%;'>","68","pos","GS","GSnew","1","category1/GS3.png","targets/24.png","0","indirect","22",""
"","html-keyboard-response","183","566034","0.0-10.0-0.7","gcbg94pk6w","one_one","1","indirect_first","0","ss070902","0","21","1","1","3","1","","0","1","0","null","","","<div style=""font-size:60px;"">+</div>","null","","","","","","","","","",""
"","html-keyboard-response","184","566133","0.0-10.0-1.7","gcbg94pk6w","one_one","1","indirect_first","0","ss070902","0","21","1","1","3","1","","0","1","0","null","","","<img src = 'category2/GS1.png' width = '100%;'>","null","","","","","","","","","",""
"","html-keyboard-response","185","566386","0.0-10.0-2.7","gcbg94pk6w","one_one","1","indirect_first","0","ss070902","0","21","1","1","3","1","","0","1","0","null","","","<img src = 'targets/13.png' width = '100%;'>","null","","","","","","","","","",""
"","html-keyboard-response","186","568029","0.0-10.0-3.7","gcbg94pk6w","one_one","1","indirect_first","0","ss070902","0","21","1","1","3","1","","0","1","0","1640.8949999604374","","","<img src = 'targets/mask.png' width = '100%;'>","68","pos","GS","GSnew","2","category2/GS1.png","targets/13.png","0","indirect","23",""
"","html-keyboard-response","187","569540","0.0-10.0-0.8","gcbg94pk6w","one_one","1","indirect_first","0","ss070902","0","21","1","1","3","1","","0","1","0","null","","","<div style=""font-size:60px;"">+</div>","null","","","","","","","","","",""
"","html-keyboard-response","188","569637","0.0-10.0-1.8","gcbg94pk6w","one_one","1","indirect_first","0","ss070902","0","21","1","1","3","1","","0","1","0","null","","","<img src = 'category1/GS1.png' width = '100%;'>","null","","","","","","","","","",""
"","html-keyboard-response","189","569897","0.0-10.0-2.8","gcbg94pk6w","one_one","1","indirect_first","0","ss070902","0","21","1","1","3","1","","0","1","0","null","","","<img src = 'targets/18.png' width = '100%;'>","null","","","","","","","","","",""
"","html-keyboard-response","190","570873","0.0-10.0-3.8","gcbg94pk6w","one_one","1","indirect_first","0","ss070902","0","21","1","1","3","1","","0","1","0","949.460000032559","","","<img src = 'targets/mask.png' width = '100%;'>","68","pos","GS","GSnew","1","category1/GS1.png","targets/18.png","0","indirect","24",""
"","html-keyboard-response","191","572415","0.0-10.0-0.9","gcbg94pk6w","one_one","1","indirect_first","0","ss070902","0","21","1","1","3","1","","0","1","0","null","","","<div style=""font-size:60px;"">+</div>","null","","","","","","","","","",""
"","html-keyboard-response","192","572515","0.0-10.0-1.9","gcbg94pk6w","one_one","1","indirect_first","0","ss070902","0","21","1","1","3","1","","0","1","0","null","","","<img src = 'category2/GS2.png' width = '100%;'>","null","","","","","","","","","",""
"","html-keyboard-response","193","572779","0.0-10.0-2.9","gcbg94pk6w","one_one","1","indirect_first","0","ss070902","0","21","1","1","3","1","","0","1","0","null","","","<img src = 'targets/15.png' width = '100%;'>","null","","","","","","","","","",""
"","html-keyboard-response","194","573807","0.0-10.0-3.9","gcbg94pk6w","one_one","1","indirect_first","0","ss070902","0","21","1","1","3","1","","0","1","0","1025.4849998746067","","","<img src = 'targets/mask.png' width = '100%;'>","68","pos","GS","GSnew","2","category2/GS2.png","targets/15.png","0","indirect","25",""
"","html-keyboard-response","195","575354","0.0-10.0-0.10","gcbg94pk6w","one_one","1","indirect_first","0","ss070902","0","21","1","1","3","1","","0","1","0","null","","","<div style=""font-size:60px;"">+</div>","null","","","","","","","","","",""
"","html-keyboard-response","196","575451","0.0-10.0-1.10","gcbg94pk6w","one_one","1","indirect_first","0","ss070902","0","21","1","1","3","1","","0","1","0","null","","","<img src = 'category3/wang.png' width = '100%;'>","null","","","","","","","","","",""
"","html-keyboard-response","197","575720","0.0-10.0-2.10","gcbg94pk6w","one_one","1","indirect_first","0","ss070902","0","21","1","1","3","1","","0","1","0","null","","","<img src = 'targets/22.png' width = '100%;'>","null","","","","","","","","","",""
"","html-keyboard-response","198","577675","0.0-10.0-3.10","gcbg94pk6w","one_one","1","indirect_first","0","ss070902","0","21","1","1","3","1","","0","1","0","1927.82499990426","","","<img src = 'targets/mask.png' width = '100%;'>","75","neg","GS","abstract","3","category3/wang.png","targets/22.png","1","indirect","26",""
"","html-keyboard-response","199","579240","0.0-10.0-0.11","gcbg94pk6w","one_one","1","indirect_first","0","ss070902","0","21","1","1","3","1","","0","1","0","null","","","<div style=""font-size:60px;"">+</div>","null","","","","","","","","","",""
"","html-keyboard-response","200","579333","0.0-10.0-1.11","gcbg94pk6w","one_one","1","indirect_first","0","ss070902","0","21","1","1","3","1","","0","1","0","null","","","<img src = 'category3/GS2.png' width = '100%;'>","null","","","","","","","","","",""
"","html-keyboard-response","201","579602","0.0-10.0-2.11","gcbg94pk6w","one_one","1","indirect_first","0","ss070902","0","21","1","1","3","1","","0","1","0","null","","","<img src = 'targets/34.png' width = '100%;'>","null","","","","","","","","","",""
"","html-keyboard-response","202","580259","0.0-10.0-3.11","gcbg94pk6w","one_one","1","indirect_first","0","ss070902","0","21","1","1","3","1","","0","1","0","636.6449999623001","","","<img src = 'targets/mask.png' width = '100%;'>","68","neg","GS","GSnew","3","category3/GS2.png","targets/34.png","0","indirect","27",""
"","html-keyboard-response","203","581793","0.0-10.0-0.12","gcbg94pk6w","one_one","1","indirect_first","0","ss070902","0","21","1","1","3","1","","0","1","0","null","","","<div style=""font-size:60px;"">+</div>","null","","","","","","","","","",""
"","html-keyboard-response","204","581898","0.0-10.0-1.12","gcbg94pk6w","one_one","1","indirect_first","0","ss070902","0","21","1","1","3","1","","0","1","0","null","","","<img src = 'category4/GS1.png' width = '100%;'>","null","","","","","","","","","",""
"","html-keyboard-response","205","582156","0.0-10.0-2.12","gcbg94pk6w","one_one","1","indirect_first","0","ss070902","0","21","1","1","3","1","","0","1","0","null","","","<img src = 'targets/1.png' width = '100%;'>","null","","","","","","","","","",""
"","html-keyboard-response","206","582949","0.0-10.0-3.12","gcbg94pk6w","one_one","1","indirect_first","0","ss070902","0","21","1","1","3","1","","0","1","0","759.495000122115","","","<img src = 'targets/mask.png' width = '100%;'>","75","neg","GS","GSnew","4","category4/GS1.png","targets/1.png","1","indirect","28",""
"","html-keyboard-response","207","584462","0.0-10.0-0.13","gcbg94pk6w","one_one","1","indirect_first","0","ss070902","0","21","1","1","3","1","","0","1","0","null","","","<div style=""font-size:60px;"">+</div>","null","","","","","","","","","",""
"","html-keyboard-response","208","584556","0.0-10.0-1.13","gcbg94pk6w","one_one","1","indirect_first","0","ss070902","0","21","1","1","3","1","","0","1","0","null","","","<img src = 'category1/GS2.png' width = '100%;'>","null","","","","","","","","","",""
"","html-keyboard-response","209","584815","0.0-10.0-2.13","gcbg94pk6w","one_one","1","indirect_first","0","ss070902","0","21","1","1","3","1","","0","1","0","null","","","<img src = 'targets/29.png' width = '100%;'>","null","","","","","","","","","",""
"","html-keyboard-response","210","586171","0.0-10.0-3.13","gcbg94pk6w","one_one","1","indirect_first","0","ss070902","0","21","1","1","3","1","","0","1","0","1354.920000070706","","","<img src = 'targets/mask.png' width = '100%;'>","75","pos","GS","GSnew","1","category1/GS2.png","targets/29.png","1","indirect","29",""
"","html-keyboard-response","211","587690","0.0-10.0-0.14","gcbg94pk6w","one_one","1","indirect_first","0","ss070902","0","21","1","1","3","1","","0","1","0","null","","","<div style=""font-size:60px;"">+</div>","null","","","","","","","","","",""
"","html-keyboard-response","212","587783","0.0-10.0-1.14","gcbg94pk6w","one_one","1","indirect_first","0","ss070902","0","21","1","1","3","1","","0","1","0","null","","","<img src = 'category4/GS2.png' width = '100%;'>","null","","","","","","","","","",""
"","html-keyboard-response","213","588047","0.0-10.0-2.14","gcbg94pk6w","one_one","1","indirect_first","0","ss070902","0","21","1","1","3","1","","0","1","0","null","","","<img src = 'targets/30.png' width = '100%;'>","null","","","","","","","","","",""
"","html-keyboard-response","214","588879","0.0-10.0-3.14","gcbg94pk6w","one_one","1","indirect_first","0","ss070902","0","21","1","1","3","1","","0","1","0","829.314999980852","","","<img src = 'targets/mask.png' width = '100%;'>","75","neg","GS","GSnew","4","category4/GS2.png","targets/30.png","1","indirect","30",""
"","html-keyboard-response","215","590386","0.0-10.0-0.15","gcbg94pk6w","one_one","1","indirect_first","0","ss070902","0","21","1","1","3","1","","0","1","0","null","","","<div style=""font-size:60px;"">+</div>","null","","","","","","","","","",""
"","html-keyboard-response","216","590479","0.0-10.0-1.15","gcbg94pk6w","one_one","1","indirect_first","0","ss070902","0","21","1","1","3","1","","0","1","0","null","","","<img src = 'category3/GS1.png' width = '100%;'>","null","","","","","","","","","",""
"","html-keyboard-response","217","590746","0.0-10.0-2.15","gcbg94pk6w","one_one","1","indirect_first","0","ss070902","0","21","1","1","3","1","","0","1","0","null","","","<img src = 'targets/9.png' width = '100%;'>","null","","","","","","","","","",""
"","html-keyboard-response","218","591195","0.0-10.0-3.15","gcbg94pk6w","one_one","1","indirect_first","0","ss070902","0","21","1","1","3","1","","0","1","0","413.32499985583127","","","<img src = 'targets/mask.png' width = '100%;'>","68","neg","GS","GSnew","3","category3/GS1.png","targets/9.png","0","indirect","31",""
"","survey-html-form","219","600865","0.0-11.0","gcbg94pk6w","one_one","1","indirect_first","0","ss070902","0","21","1","1","3","1","","0","1","0","9137.180000077933","","{}","","","","","","","","","","","",""
"","image-slider-response","220","612320","0.0-12.0-0.0","gcbg94pk6w","one_one","1","indirect_first","0","ss070902","0","21","1","1","3","1","","0","1","0","9441.430000122637","","","","","pos","GS","abstract","1","category1/ma.png","targets/11.png","","direct","","75"
"","image-slider-response","221","619195","0.0-12.0-0.1","gcbg94pk6w","one_one","1","indirect_first","0","ss070902","0","21","1","1","3","1","","0","1","0","6871.615000069141","","","","","neg","GS","GSold","4","category4/CS8.png","targets/23.png","","direct","","61"
"","image-slider-response","222","624146","0.0-12.0-0.2","gcbg94pk6w","one_one","1","indirect_first","0","ss070902","0","21","1","1","3","1","","0","1","0","4948.514999821782","","","","","neg","GS","GSnew","3","category3/GS1.png","targets/9.png","","direct","","-77"
"","image-slider-response","223","629473","0.0-12.0-0.3","gcbg94pk6w","one_one","1","indirect_first","0","ss070902","0","21","1","1","3","1","","0","1","0","5323.240000056103","","","","","neg","GS","GSold","3","category3/CS7.png","targets/44.png","","direct","","-96"
"","image-slider-response","224","634225","0.0-12.0-0.4","gcbg94pk6w","one_one","1","indirect_first","0","ss070902","0","21","1","1","3","1","","0","1","0","4749.249999877065","","","","","neg","CS","CS","4","category4/CS10.png","targets/2.png","","direct","","-48"
"","image-slider-response","225","639211","0.0-12.0-0.5","gcbg94pk6w","one_one","1","indirect_first","0","ss070902","0","21","1","1","3","1","","0","1","0","4982.345000142232","","","","","neg","GS","GSold","4","category4/CS5.png","targets/25.png","","direct","","-37"
"","image-slider-response","226","643415","0.0-12.0-0.6","gcbg94pk6w","one_one","1","indirect_first","0","ss070902","0","21","1","1","3","1","","0","1","0","4199.945000000298","","","","","neg","GS","abstract","4","category4/lin.png","targets/10.png","","direct","","-16"
"","image-slider-response","227","649799","0.0-12.0-0.7","gcbg94pk6w","one_one","1","indirect_first","0","ss070902","0","21","1","1","3","1","","0","1","0","6381.210000021383","","","","","neg","GS","GSnew","3","category3/GS2.png","targets/34.png","","direct","","-39"
"","image-slider-response","228","653546","0.0-12.0-0.8","gcbg94pk6w","one_one","1","indirect_first","0","ss070902","0","21","1","1","3","1","","0","1","0","3743.3700000401586","","","","","pos","GS","GSnew","1","category1/GS3.png","targets/24.png","","direct","","69"
"","image-slider-response","229","658801","0.0-12.0-0.9","gcbg94pk6w","one_one","1","indirect_first","0","ss070902","0","21","1","1","3","1","","0","1","0","5252.1200000774115","","","","","pos","GS","GSold","1","category1/CS1.png","targets/12.png","","direct","","77"
"","image-slider-response","230","662191","0.0-12.0-0.10","gcbg94pk6w","one_one","1","indirect_first","0","ss070902","0","21","1","1","3","1","","0","1","0","3387.159999925643","","","","","pos","GS","GSnew","1","category1/GS1.png","targets/18.png","","direct","","63"
"","image-slider-response","231","668289","0.0-12.0-0.11","gcbg94pk6w","one_one","1","indirect_first","0","ss070902","0","21","1","1","3","1","","0","1","0","6095.590000040829","","","","","neg","GS","GSnew","4","category4/GS2.png","targets/30.png","","direct","","33"
"","image-slider-response","232","674569","0.0-12.0-0.12","gcbg94pk6w","one_one","1","indirect_first","0","ss070902","0","21","1","1","3","1","","0","1","0","6276.689999969676","","","","","neg","GS","abstract","3","category3/wang.png","targets/22.png","","direct","","-35"
"","image-slider-response","233","678251","0.0-12.0-0.13","gcbg94pk6w","one_one","1","indirect_first","0","ss070902","0","21","1","1","3","1","","0","1","0","3677.7250000741333","","","","","pos","GS","GSnew","2","category2/GS2.png","targets/15.png","","direct","","-22"
"","image-slider-response","234","681823","0.0-12.0-0.14","gcbg94pk6w","one_one","1","indirect_first","0","ss070902","0","21","1","1","3","1","","0","1","0","3570.045000175014","","","","","pos","GS","GSold","1","category1/CS8.png","targets/14.png","","direct","","45"
"","image-slider-response","235","687171","0.0-12.0-0.15","gcbg94pk6w","one_one","1","indirect_first","0","ss070902","0","21","1","1","3","1","","0","1","0","5344.664999982342","","","","","pos","GS","GSnew","2","category2/GS1.png","targets/13.png","","direct","","-13"
"","image-slider-response","236","692103","0.0-12.0-0.16","gcbg94pk6w","one_one","1","indirect_first","0","ss070902","0","21","1","1","3","1","","0","1","0","4928.559999912977","","","","","pos","GS","GSold","2","category2/CS7.png","targets/42.png","","direct","","-32"
"","image-slider-response","237","697916","0.0-12.0-0.17","gcbg94pk6w","one_one","1","indirect_first","0","ss070902","0","21","1","1","3","1","","0","1","0","5809.330000076443","","","","","pos","CS","CS","1","category1/CS10.png","targets/8.png","","direct","","31"
"","image-slider-response","238","701238","0.0-12.0-0.18","gcbg94pk6w","one_one","1","indirect_first","0","ss070902","0","21","1","1","3","1","","0","1","0","3318.2449999731034","","","","","pos","CS","CS","2","category2/CS2.png","targets/37.png","","direct","","-31"
"","image-slider-response","239","706699","0.0-12.0-0.19","gcbg94pk6w","one_one","1","indirect_first","0","ss070902","0","21","1","1","3","1","","0","1","0","5457.350000040606","","","","","pos","GS","abstract","2","category2/men.png","targets/7.png","","direct","","-12"
"","image-slider-response","240","710719","0.0-12.0-0.20","gcbg94pk6w","one_one","1","indirect_first","0","ss070902","0","21","1","1","3","1","","0","1","0","4017.330000177026","","","","","pos","GS","GSnew","1","category1/GS2.png","targets/29.png","","direct","","26"
"","image-slider-response","241","714775","0.0-12.0-0.21","gcbg94pk6w","one_one","1","indirect_first","0","ss070902","0","21","1","1","3","1","","0","1","0","4053.200000198558","","","","","neg","CS","CS","3","category3/CS6.png","targets/38.png","","direct","","-82"
"","image-slider-response","242","718933","0.0-12.0-0.22","gcbg94pk6w","one_one","1","indirect_first","0","ss070902","0","21","1","1","3","1","","0","1","0","4155.060000019148","","","","","pos","GS","GSold","2","category2/CS5.png","targets/45.png","","direct","","-5"
"","image-slider-response","243","724102","0.0-12.0-0.23","gcbg94pk6w","one_one","1","indirect_first","0","ss070902","0","21","1","1","3","1","","0","1","0","5166.049999883398","","","","","pos","GS","GSold","2","category2/CS1.png","targets/19.png","","direct","","-28"
"","image-slider-response","244","728730","0.0-12.0-0.24","gcbg94pk6w","one_one","1","indirect_first","0","ss070902","0","21","1","1","3","1","","0","1","0","4624.099999899045","","","","","neg","GS","GSnew","4","category4/GS3.png","targets/32.png","","direct","","-30"
"","image-slider-response","245","735980","0.0-12.0-0.25","gcbg94pk6w","one_one","1","indirect_first","0","ss070902","0","21","1","1","3","1","","0","1","0","7246.270000003278","","","","","neg","GS","GSold","3","category3/CS8.png","targets/28.png","","direct","","43"
"","image-slider-response","246","739701","0.0-12.0-0.26","gcbg94pk6w","one_one","1","indirect_first","0","ss070902","0","21","1","1","3","1","","0","1","0","3718.0699999444187","","","","","neg","GS","GSnew","3","category3/GS3.png","targets/35.png","","direct","","-44"
"","image-slider-response","247","743433","0.0-12.0-0.27","gcbg94pk6w","one_one","1","indirect_first","0","ss070902","0","21","1","1","3","1","","0","1","0","3728.2000000122935","","","","","neg","GS","GSnew","4","category4/GS1.png","targets/1.png","","direct","","-22"
"","image-slider-response","248","750575","0.0-12.0-0.28","gcbg94pk6w","one_one","1","indirect_first","0","ss070902","0","21","1","1","3","1","","0","1","0","7138.985000085086","","","","","pos","GS","GSnew","2","category2/GS3.png","targets/47.png","","direct","","37"
"","image-slider-response","249","757837","0.0-12.0-0.29","gcbg94pk6w","one_one","1","indirect_first","0","ss070902","0","21","1","1","3","1","","0","1","0","7265.35000000149","","","","","pos","GS","GSold","1","category1/CS5.png","targets/16.png","","direct","","-4"
"","image-slider-response","250","761635","0.0-12.0-0.30","gcbg94pk6w","one_one","1","indirect_first","0","ss070902","0","21","1","1","3","1","","0","1","0","3794.749999884516","","","","","neg","GS","GSold","3","category3/CS5.png","targets/27.png","","direct","","-44"
"","image-slider-response","251","766863","0.0-12.0-0.31","gcbg94pk6w","one_one","1","indirect_first","0","ss070902","0","21","1","1","3","1","","0","1","0","5224.775000009686","","","","","neg","GS","GSold","4","category4/CS9.png","targets/43.png","","direct","","-21"
"","survey-html-form","252","771728","0.0-13.0","gcbg94pk6w","one_one","1","indirect_first","0","ss070902","0","21","1","1","3","1","","0","1","0","4862.770000007004","","{}","","","","","","","","","","","",""
"","image-slider-response","253","779368","0.0-14.0-0.0","gcbg94pk6w","one_one","1","indirect_first","0","ss070902","0","21","1","1","3","1","","0","1","0","6634.895000141114","","","","","neg","All","all","3","category3/wang_all.png","","","all","","-26"
"","image-slider-response","254","785699","0.0-14.0-0.1","gcbg94pk6w","one_one","1","indirect_first","0","ss070902","0","21","1","1","3","1","","0","1","0","6327.180000022054","","","","","pos","All","all","1","category1/ma_all.png","","","all","","-24"
"","image-slider-response","255","789763","0.0-14.0-0.2","gcbg94pk6w","one_one","1","indirect_first","0","ss070902","0","21","1","1","3","1","","0","1","0","4061.754999915138","","","","","neg","All","all","4","category4/lin_all.png","","","all","","48"
"","image-slider-response","256","794468","0.0-14.0-0.3","gcbg94pk6w","one_one","1","indirect_first","0","ss070902","0","21","1","1","3","1","","0","1","0","4701.755000045523","","","","","pos","All","all","2","category2/men_all.png","","","all","","-24"
"","survey-text","257","797515","0.0-15.0","gcbg94pk6w","one_one","1","indirect_first","0","ss070902","0","21","1","1","3","1","","0","1","0","3025.7599998731166","","{""comment"":""""}","","","","","","","","","","","",""
"","survey-html-form","258","857854","0.0-16.0","gcbg94pk6w","one_one","1","indirect_first","0","ss070902","0","21","1","1","3","1","","0","1","0","60332.12999999523","","{""hinschauen"":""0"",""ablenkung"":""1"",""gewissenhaft"":""0""}","","","","","","","","","","","",""
