"success","trial_type","trial_index","time_elapsed","internal_node_id","subject","condition","condition_code","measure","measure_code","codeword","gender","age","education","chinese","fach","handedness","comment","hinschauen","ablenkung","gewissenhaft","rt","url","responses","stimulus","key_press","val","type","type_specific","category","cs_selected","response","target","task","indirect","nr_pres"
"true","fullscreen","0","3650","0.0-0.0","5a9e9r3ws2","many_one","0","direct_first","1","el03rg27","0","20","1","1","3","1","","0","1","0","","","","","","","","","","","","","","",""
"","external-html","1","13658","0.0-1.0","5a9e9r3ws2","many_one","0","direct_first","1","el03rg27","0","20","1","1","3","1","","0","1","0","9954","text/information.html","","","","","","","","","","","","",""
"","external-html","2","28007","0.0-2.0","5a9e9r3ws2","many_one","0","direct_first","1","el03rg27","0","20","1","1","3","1","","0","1","0","14281","text/consent.html","","","","","","","","","","","","",""
"","survey-html-form","3","106805","0.0-3.0","5a9e9r3ws2","many_one","0","direct_first","1","el03rg27","0","20","1","1","3","1","","0","1","0","78793","","{""codeword_enter"":""el03rg27""}","","","","","","","","","","","",""
"","survey-html-form","4","130628","0.0-4.0","5a9e9r3ws2","many_one","0","direct_first","1","el03rg27","0","20","1","1","3","1","","0","1","0","23818","","{""age"":""20"",""education"":""1"",""subject"":""3"",""gender"":""0"",""handedness"":""1"",""chinese"":""1""}","","","","","","","","","","","",""
"","survey-html-form","5","132294","0.0-5.0","5a9e9r3ws2","many_one","0","direct_first","1","el03rg27","0","20","1","1","3","1","","0","1","0","1664","","{}","","","","","","","","","","","",""
"","html-keyboard-response","6","136305","0.0-6.0-0.0-0.0","5a9e9r3ws2","many_one","0","direct_first","1","el03rg27","0","20","1","1","3","1","","0","1","0","null","","","<div class = 'row'><div class = 'column'><img src = 'uspos/5600.bmp' width = '100%;'></div><div class = 'column'><img src = 'category1/CS6.png' width = '70%;'></div></div>","null","pos","CS","CS","1","category1/CS6.png","","","","",""
"","html-keyboard-response","7","138822","0.0-6.0-0.0-0.1","5a9e9r3ws2","many_one","0","direct_first","1","el03rg27","0","20","1","1","3","1","","0","1","0","null","","","<div class = 'row'><div class = 'column'><img src = 'category1/CS10.png' width = '70%;'></div><div class = 'column'><img src = 'uspos/7325.bmp' width = '100%;'></div></div>","null","pos","CS","CS","1","category1/CS10.png","","","","",""
"","html-keyboard-response","8","141352","0.0-6.0-0.0-0.2","5a9e9r3ws2","many_one","0","direct_first","1","el03rg27","0","20","1","1","3","1","","0","1","0","null","","","<div class = 'row'><div class = 'column'><img src = 'uspos/2150.bmp' width = '100%;'></div><div class = 'column'><img src = 'category2/CS2.png' width = '70%;'></div></div>","null","pos","CS","CS","2","category2/CS2.png","","","","",""
"","html-keyboard-response","9","143861","0.0-6.0-0.0-0.3","5a9e9r3ws2","many_one","0","direct_first","1","el03rg27","0","20","1","1","3","1","","0","1","0","null","","","<div class = 'row'><div class = 'column'><img src = 'category2/CS3.png' width = '70%;'></div><div class = 'column'><img src = 'uspos/2900.2.bmp' width = '100%;'></div></div>","null","pos","CS","CS","2","category2/CS3.png","","","","",""
"","html-keyboard-response","10","146386","0.0-6.0-0.0-0.4","5a9e9r3ws2","many_one","0","direct_first","1","el03rg27","0","20","1","1","3","1","","0","1","0","null","","","<div class = 'row'><div class = 'column'><img src = 'category1/CS1.png' width = '70%;'></div><div class = 'column'><img src = 'uspos/8490.bmp' width = '100%;'></div></div>","null","pos","CS","CS","1","category1/CS1.png","","","","",""
"","html-keyboard-response","11","148901","0.0-6.0-0.0-0.5","5a9e9r3ws2","many_one","0","direct_first","1","el03rg27","0","20","1","1","3","1","","0","1","0","null","","","<div class = 'row'><div class = 'column'><img src = 'usneg/3181.bmp' width = '100%;'></div><div class = 'column'><img src = 'category3/CS3.png' width = '70%;'></div></div>","null","neg","CS","CS","3","category3/CS3.png","","","","",""
"","html-keyboard-response","12","151425","0.0-6.0-0.0-0.6","5a9e9r3ws2","many_one","0","direct_first","1","el03rg27","0","20","1","1","3","1","","0","1","0","null","","","<div class = 'row'><div class = 'column'><img src = 'category4/CS10.png' width = '70%;'></div><div class = 'column'><img src = 'usneg/7380.bmp' width = '100%;'></div></div>","null","neg","CS","CS","4","category4/CS10.png","","","","",""
"","html-keyboard-response","13","153948","0.0-6.0-0.0-0.7","5a9e9r3ws2","many_one","0","direct_first","1","el03rg27","0","20","1","1","3","1","","0","1","0","null","","","<div class = 'row'><div class = 'column'><img src = 'usneg/2900.bmp' width = '100%;'></div><div class = 'column'><img src = 'category4/CS6.png' width = '70%;'></div></div>","null","neg","CS","CS","4","category4/CS6.png","","","","",""
"","html-keyboard-response","14","156478","0.0-6.0-0.0-0.8","5a9e9r3ws2","many_one","0","direct_first","1","el03rg27","0","20","1","1","3","1","","0","1","0","null","","","<div class = 'row'><div class = 'column'><img src = 'usneg/9000.bmp' width = '100%;'></div><div class = 'column'><img src = 'category3/CS2.png' width = '70%;'></div></div>","null","neg","CS","CS","3","category3/CS2.png","","","","",""
"","html-keyboard-response","15","159005","0.0-6.0-0.0-0.9","5a9e9r3ws2","many_one","0","direct_first","1","el03rg27","0","20","1","1","3","1","","0","1","0","null","","","<div class = 'row'><div class = 'column'><img src = 'category1/CS8.png' width = '70%;'></div><div class = 'column'><img src = 'uspos/4599.bmp' width = '100%;'></div></div>","null","pos","CS","CS","1","category1/CS8.png","","","","",""
"","html-keyboard-response","16","161537","0.0-6.0-0.0-0.10","5a9e9r3ws2","many_one","0","direct_first","1","el03rg27","0","20","1","1","3","1","","0","1","0","null","","","<div class = 'row'><div class = 'column'><img src = 'category3/CS7.png' width = '70%;'></div><div class = 'column'><img src = 'usneg/9560.bmp' width = '100%;'></div></div>","null","neg","CS","CS","3","category3/CS7.png","","","","",""
"","html-keyboard-response","17","164059","0.0-6.0-0.0-0.11","5a9e9r3ws2","many_one","0","direct_first","1","el03rg27","0","20","1","1","3","1","","0","1","0","null","","","<div class = 'row'><div class = 'column'><img src = 'category2/CS6.png' width = '70%;'></div><div class = 'column'><img src = 'uspos/2208.bmp' width = '100%;'></div></div>","null","pos","CS","CS","2","category2/CS6.png","","","","",""
"","html-keyboard-response","18","166571","0.0-6.0-0.0-0.12","5a9e9r3ws2","many_one","0","direct_first","1","el03rg27","0","20","1","1","3","1","","0","1","0","null","","","<div class = 'row'><div class = 'column'><img src = 'category1/CS2.png' width = '70%;'></div><div class = 'column'><img src = 'uspos/5831.bmp' width = '100%;'></div></div>","null","pos","CS","CS","1","category1/CS2.png","","","","",""
"","html-keyboard-response","19","169093","0.0-6.0-0.0-0.13","5a9e9r3ws2","many_one","0","direct_first","1","el03rg27","0","20","1","1","3","1","","0","1","0","null","","","<div class = 'row'><div class = 'column'><img src = 'category4/CS4.png' width = '70%;'></div><div class = 'column'><img src = 'usneg/3160.bmp' width = '100%;'></div></div>","null","neg","CS","CS","4","category4/CS4.png","","","","",""
"","html-keyboard-response","20","171614","0.0-6.0-0.0-0.14","5a9e9r3ws2","many_one","0","direct_first","1","el03rg27","0","20","1","1","3","1","","0","1","0","null","","","<div class = 'row'><div class = 'column'><img src = 'category4/CS1.png' width = '70%;'></div><div class = 'column'><img src = 'usneg/1280.bmp' width = '100%;'></div></div>","null","neg","CS","CS","4","category4/CS1.png","","","","",""
"","html-keyboard-response","21","174125","0.0-6.0-0.0-0.15","5a9e9r3ws2","many_one","0","direct_first","1","el03rg27","0","20","1","1","3","1","","0","1","0","null","","","<div class = 'row'><div class = 'column'><img src = 'category2/CS7.png' width = '70%;'></div><div class = 'column'><img src = 'uspos/8190.bmp' width = '100%;'></div></div>","null","pos","CS","CS","2","category2/CS7.png","","","","",""
"","html-keyboard-response","22","176645","0.0-6.0-0.0-0.16","5a9e9r3ws2","many_one","0","direct_first","1","el03rg27","0","20","1","1","3","1","","0","1","0","null","","","<div class = 'row'><div class = 'column'><img src = 'category2/CS1.png' width = '70%;'></div><div class = 'column'><img src = 'uspos/2030.bmp' width = '100%;'></div></div>","null","pos","CS","CS","2","category2/CS1.png","","","","",""
"","html-keyboard-response","23","179172","0.0-6.0-0.0-0.17","5a9e9r3ws2","many_one","0","direct_first","1","el03rg27","0","20","1","1","3","1","","0","1","0","null","","","<div class = 'row'><div class = 'column'><img src = 'category4/CS7.png' width = '70%;'></div><div class = 'column'><img src = 'usneg/8485.bmp' width = '100%;'></div></div>","null","neg","CS","CS","4","category4/CS7.png","","","","",""
"","html-keyboard-response","24","181697","0.0-6.0-0.0-0.18","5a9e9r3ws2","many_one","0","direct_first","1","el03rg27","0","20","1","1","3","1","","0","1","0","null","","","<div class = 'row'><div class = 'column'><img src = 'category3/CS4.png' width = '70%;'></div><div class = 'column'><img src = 'usneg/9041.bmp' width = '100%;'></div></div>","null","neg","CS","CS","3","category3/CS4.png","","","","",""
"","html-keyboard-response","25","184210","0.0-6.0-0.0-0.19","5a9e9r3ws2","many_one","0","direct_first","1","el03rg27","0","20","1","1","3","1","","0","1","0","null","","","<div class = 'row'><div class = 'column'><img src = 'category3/CS10.png' width = '70%;'></div><div class = 'column'><img src = 'usneg/9181.bmp' width = '100%;'></div></div>","null","neg","CS","CS","3","category3/CS10.png","","","","",""
"","survey-html-form","26","198071","0.0-6.0-1.0","5a9e9r3ws2","many_one","0","direct_first","1","el03rg27","0","20","1","1","3","1","","0","1","0","13346","","{}","","","","","","","","","","","",""
"","html-keyboard-response","27","202099","0.0-6.0-2.0-0.0","5a9e9r3ws2","many_one","0","direct_first","1","el03rg27","0","20","1","1","3","1","","0","1","0","null","","","<div class = 'row'><div class = 'column'><img src = 'uspos/2900.2.bmp' width = '100%;'></div><div class = 'column'><img src = 'category2/CS3.png' width = '70%;'></div></div>","null","pos","CS","CS","2","category2/CS3.png","","","","",""
"","html-keyboard-response","28","204620","0.0-6.0-2.0-0.1","5a9e9r3ws2","many_one","0","direct_first","1","el03rg27","0","20","1","1","3","1","","0","1","0","null","","","<div class = 'row'><div class = 'column'><img src = 'category3/CS10.png' width = '70%;'></div><div class = 'column'><img src = 'usneg/9181.bmp' width = '100%;'></div></div>","null","neg","CS","CS","3","category3/CS10.png","","","","",""
"","html-keyboard-response","29","207148","0.0-6.0-2.0-0.2","5a9e9r3ws2","many_one","0","direct_first","1","el03rg27","0","20","1","1","3","1","","0","1","0","null","","","<div class = 'row'><div class = 'column'><img src = 'uspos/5831.bmp' width = '100%;'></div><div class = 'column'><img src = 'category1/CS2.png' width = '70%;'></div></div>","null","pos","CS","CS","1","category1/CS2.png","","","","",""
"","html-keyboard-response","30","209668","0.0-6.0-2.0-0.3","5a9e9r3ws2","many_one","0","direct_first","1","el03rg27","0","20","1","1","3","1","","0","1","0","null","","","<div class = 'row'><div class = 'column'><img src = 'usneg/3181.bmp' width = '100%;'></div><div class = 'column'><img src = 'category3/CS3.png' width = '70%;'></div></div>","null","neg","CS","CS","3","category3/CS3.png","","","","",""
"","html-keyboard-response","31","212189","0.0-6.0-2.0-0.4","5a9e9r3ws2","many_one","0","direct_first","1","el03rg27","0","20","1","1","3","1","","0","1","0","null","","","<div class = 'row'><div class = 'column'><img src = 'usneg/2900.bmp' width = '100%;'></div><div class = 'column'><img src = 'category4/CS6.png' width = '70%;'></div></div>","null","neg","CS","CS","4","category4/CS6.png","","","","",""
"","html-keyboard-response","32","214712","0.0-6.0-2.0-0.5","5a9e9r3ws2","many_one","0","direct_first","1","el03rg27","0","20","1","1","3","1","","0","1","0","null","","","<div class = 'row'><div class = 'column'><img src = 'category2/CS6.png' width = '70%;'></div><div class = 'column'><img src = 'uspos/2208.bmp' width = '100%;'></div></div>","null","pos","CS","CS","2","category2/CS6.png","","","","",""
"","html-keyboard-response","33","217238","0.0-6.0-2.0-0.6","5a9e9r3ws2","many_one","0","direct_first","1","el03rg27","0","20","1","1","3","1","","0","1","0","null","","","<div class = 'row'><div class = 'column'><img src = 'uspos/2030.bmp' width = '100%;'></div><div class = 'column'><img src = 'category2/CS1.png' width = '70%;'></div></div>","null","pos","CS","CS","2","category2/CS1.png","","","","",""
"","html-keyboard-response","34","219757","0.0-6.0-2.0-0.7","5a9e9r3ws2","many_one","0","direct_first","1","el03rg27","0","20","1","1","3","1","","0","1","0","null","","","<div class = 'row'><div class = 'column'><img src = 'category4/CS1.png' width = '70%;'></div><div class = 'column'><img src = 'usneg/1280.bmp' width = '100%;'></div></div>","null","neg","CS","CS","4","category4/CS1.png","","","","",""
"","html-keyboard-response","35","222282","0.0-6.0-2.0-0.8","5a9e9r3ws2","many_one","0","direct_first","1","el03rg27","0","20","1","1","3","1","","0","1","0","null","","","<div class = 'row'><div class = 'column'><img src = 'uspos/2150.bmp' width = '100%;'></div><div class = 'column'><img src = 'category2/CS2.png' width = '70%;'></div></div>","null","pos","CS","CS","2","category2/CS2.png","","","","",""
"","html-keyboard-response","36","224806","0.0-6.0-2.0-0.9","5a9e9r3ws2","many_one","0","direct_first","1","el03rg27","0","20","1","1","3","1","","0","1","0","null","","","<div class = 'row'><div class = 'column'><img src = 'category1/CS10.png' width = '70%;'></div><div class = 'column'><img src = 'uspos/7325.bmp' width = '100%;'></div></div>","null","pos","CS","CS","1","category1/CS10.png","","","","",""
"","html-keyboard-response","37","227320","0.0-6.0-2.0-0.10","5a9e9r3ws2","many_one","0","direct_first","1","el03rg27","0","20","1","1","3","1","","0","1","0","null","","","<div class = 'row'><div class = 'column'><img src = 'uspos/8190.bmp' width = '100%;'></div><div class = 'column'><img src = 'category2/CS7.png' width = '70%;'></div></div>","null","pos","CS","CS","2","category2/CS7.png","","","","",""
"","html-keyboard-response","38","229845","0.0-6.0-2.0-0.11","5a9e9r3ws2","many_one","0","direct_first","1","el03rg27","0","20","1","1","3","1","","0","1","0","null","","","<div class = 'row'><div class = 'column'><img src = 'category1/CS1.png' width = '70%;'></div><div class = 'column'><img src = 'uspos/8490.bmp' width = '100%;'></div></div>","null","pos","CS","CS","1","category1/CS1.png","","","","",""
"","html-keyboard-response","39","232366","0.0-6.0-2.0-0.12","5a9e9r3ws2","many_one","0","direct_first","1","el03rg27","0","20","1","1","3","1","","0","1","0","null","","","<div class = 'row'><div class = 'column'><img src = 'usneg/9041.bmp' width = '100%;'></div><div class = 'column'><img src = 'category3/CS4.png' width = '70%;'></div></div>","null","neg","CS","CS","3","category3/CS4.png","","","","",""
"","html-keyboard-response","40","234894","0.0-6.0-2.0-0.13","5a9e9r3ws2","many_one","0","direct_first","1","el03rg27","0","20","1","1","3","1","","0","1","0","null","","","<div class = 'row'><div class = 'column'><img src = 'usneg/8485.bmp' width = '100%;'></div><div class = 'column'><img src = 'category4/CS7.png' width = '70%;'></div></div>","null","neg","CS","CS","4","category4/CS7.png","","","","",""
"","html-keyboard-response","41","237415","0.0-6.0-2.0-0.14","5a9e9r3ws2","many_one","0","direct_first","1","el03rg27","0","20","1","1","3","1","","0","1","0","null","","","<div class = 'row'><div class = 'column'><img src = 'usneg/7380.bmp' width = '100%;'></div><div class = 'column'><img src = 'category4/CS10.png' width = '70%;'></div></div>","null","neg","CS","CS","4","category4/CS10.png","","","","",""
"","html-keyboard-response","42","239941","0.0-6.0-2.0-0.15","5a9e9r3ws2","many_one","0","direct_first","1","el03rg27","0","20","1","1","3","1","","0","1","0","null","","","<div class = 'row'><div class = 'column'><img src = 'category4/CS4.png' width = '70%;'></div><div class = 'column'><img src = 'usneg/3160.bmp' width = '100%;'></div></div>","null","neg","CS","CS","4","category4/CS4.png","","","","",""
"","html-keyboard-response","43","242445","0.0-6.0-2.0-0.16","5a9e9r3ws2","many_one","0","direct_first","1","el03rg27","0","20","1","1","3","1","","0","1","0","null","","","<div class = 'row'><div class = 'column'><img src = 'category3/CS2.png' width = '70%;'></div><div class = 'column'><img src = 'usneg/9000.bmp' width = '100%;'></div></div>","null","neg","CS","CS","3","category3/CS2.png","","","","",""
"","html-keyboard-response","44","244961","0.0-6.0-2.0-0.17","5a9e9r3ws2","many_one","0","direct_first","1","el03rg27","0","20","1","1","3","1","","0","1","0","null","","","<div class = 'row'><div class = 'column'><img src = 'category1/CS8.png' width = '70%;'></div><div class = 'column'><img src = 'uspos/4599.bmp' width = '100%;'></div></div>","null","pos","CS","CS","1","category1/CS8.png","","","","",""
"","html-keyboard-response","45","247475","0.0-6.0-2.0-0.18","5a9e9r3ws2","many_one","0","direct_first","1","el03rg27","0","20","1","1","3","1","","0","1","0","null","","","<div class = 'row'><div class = 'column'><img src = 'uspos/5600.bmp' width = '100%;'></div><div class = 'column'><img src = 'category1/CS6.png' width = '70%;'></div></div>","null","pos","CS","CS","1","category1/CS6.png","","","","",""
"","html-keyboard-response","46","249983","0.0-6.0-2.0-0.19","5a9e9r3ws2","many_one","0","direct_first","1","el03rg27","0","20","1","1","3","1","","0","1","0","null","","","<div class = 'row'><div class = 'column'><img src = 'usneg/9560.bmp' width = '100%;'></div><div class = 'column'><img src = 'category3/CS7.png' width = '70%;'></div></div>","null","neg","CS","CS","3","category3/CS7.png","","","","",""
"","survey-html-form","47","263630","0.0-6.0-3.0","5a9e9r3ws2","many_one","0","direct_first","1","el03rg27","0","20","1","1","3","1","","0","1","0","13130","","{}","","","","","","","","","","","",""
"","html-keyboard-response","48","267643","0.0-6.0-4.0-0.0","5a9e9r3ws2","many_one","0","direct_first","1","el03rg27","0","20","1","1","3","1","","0","1","0","null","","","<div class = 'row'><div class = 'column'><img src = 'uspos/4599.bmp' width = '100%;'></div><div class = 'column'><img src = 'category1/CS8.png' width = '70%;'></div></div>","null","pos","CS","CS","1","category1/CS8.png","","","","",""
"","html-keyboard-response","49","270157","0.0-6.0-4.0-0.1","5a9e9r3ws2","many_one","0","direct_first","1","el03rg27","0","20","1","1","3","1","","0","1","0","null","","","<div class = 'row'><div class = 'column'><img src = 'usneg/1280.bmp' width = '100%;'></div><div class = 'column'><img src = 'category4/CS1.png' width = '70%;'></div></div>","null","neg","CS","CS","4","category4/CS1.png","","","","",""
"","html-keyboard-response","50","272669","0.0-6.0-4.0-0.2","5a9e9r3ws2","many_one","0","direct_first","1","el03rg27","0","20","1","1","3","1","","0","1","0","null","","","<div class = 'row'><div class = 'column'><img src = 'category3/CS3.png' width = '70%;'></div><div class = 'column'><img src = 'usneg/3181.bmp' width = '100%;'></div></div>","null","neg","CS","CS","3","category3/CS3.png","","","","",""
"","html-keyboard-response","51","275195","0.0-6.0-4.0-0.3","5a9e9r3ws2","many_one","0","direct_first","1","el03rg27","0","20","1","1","3","1","","0","1","0","null","","","<div class = 'row'><div class = 'column'><img src = 'category3/CS10.png' width = '70%;'></div><div class = 'column'><img src = 'usneg/9181.bmp' width = '100%;'></div></div>","null","neg","CS","CS","3","category3/CS10.png","","","","",""
"","html-keyboard-response","52","277718","0.0-6.0-4.0-0.4","5a9e9r3ws2","many_one","0","direct_first","1","el03rg27","0","20","1","1","3","1","","0","1","0","null","","","<div class = 'row'><div class = 'column'><img src = 'category1/CS10.png' width = '70%;'></div><div class = 'column'><img src = 'uspos/7325.bmp' width = '100%;'></div></div>","null","pos","CS","CS","1","category1/CS10.png","","","","",""
"","html-keyboard-response","53","280238","0.0-6.0-4.0-0.5","5a9e9r3ws2","many_one","0","direct_first","1","el03rg27","0","20","1","1","3","1","","0","1","0","null","","","<div class = 'row'><div class = 'column'><img src = 'category2/CS1.png' width = '70%;'></div><div class = 'column'><img src = 'uspos/2030.bmp' width = '100%;'></div></div>","null","pos","CS","CS","2","category2/CS1.png","","","","",""
"","html-keyboard-response","54","282759","0.0-6.0-4.0-0.6","5a9e9r3ws2","many_one","0","direct_first","1","el03rg27","0","20","1","1","3","1","","0","1","0","null","","","<div class = 'row'><div class = 'column'><img src = 'category2/CS6.png' width = '70%;'></div><div class = 'column'><img src = 'uspos/2208.bmp' width = '100%;'></div></div>","null","pos","CS","CS","2","category2/CS6.png","","","","",""
"","html-keyboard-response","55","285284","0.0-6.0-4.0-0.7","5a9e9r3ws2","many_one","0","direct_first","1","el03rg27","0","20","1","1","3","1","","0","1","0","null","","","<div class = 'row'><div class = 'column'><img src = 'category4/CS6.png' width = '70%;'></div><div class = 'column'><img src = 'usneg/2900.bmp' width = '100%;'></div></div>","null","neg","CS","CS","4","category4/CS6.png","","","","",""
"","html-keyboard-response","56","287799","0.0-6.0-4.0-0.8","5a9e9r3ws2","many_one","0","direct_first","1","el03rg27","0","20","1","1","3","1","","0","1","0","null","","","<div class = 'row'><div class = 'column'><img src = 'usneg/9041.bmp' width = '100%;'></div><div class = 'column'><img src = 'category3/CS4.png' width = '70%;'></div></div>","null","neg","CS","CS","3","category3/CS4.png","","","","",""
"","html-keyboard-response","57","290324","0.0-6.0-4.0-0.9","5a9e9r3ws2","many_one","0","direct_first","1","el03rg27","0","20","1","1","3","1","","0","1","0","null","","","<div class = 'row'><div class = 'column'><img src = 'usneg/3160.bmp' width = '100%;'></div><div class = 'column'><img src = 'category4/CS4.png' width = '70%;'></div></div>","null","neg","CS","CS","4","category4/CS4.png","","","","",""
"","html-keyboard-response","58","292837","0.0-6.0-4.0-0.10","5a9e9r3ws2","many_one","0","direct_first","1","el03rg27","0","20","1","1","3","1","","0","1","0","null","","","<div class = 'row'><div class = 'column'><img src = 'uspos/2150.bmp' width = '100%;'></div><div class = 'column'><img src = 'category2/CS2.png' width = '70%;'></div></div>","null","pos","CS","CS","2","category2/CS2.png","","","","",""
"","html-keyboard-response","59","295365","0.0-6.0-4.0-0.11","5a9e9r3ws2","many_one","0","direct_first","1","el03rg27","0","20","1","1","3","1","","0","1","0","null","","","<div class = 'row'><div class = 'column'><img src = 'category1/CS2.png' width = '70%;'></div><div class = 'column'><img src = 'uspos/5831.bmp' width = '100%;'></div></div>","null","pos","CS","CS","1","category1/CS2.png","","","","",""
"","html-keyboard-response","60","297891","0.0-6.0-4.0-0.12","5a9e9r3ws2","many_one","0","direct_first","1","el03rg27","0","20","1","1","3","1","","0","1","0","null","","","<div class = 'row'><div class = 'column'><img src = 'category2/CS7.png' width = '70%;'></div><div class = 'column'><img src = 'uspos/8190.bmp' width = '100%;'></div></div>","null","pos","CS","CS","2","category2/CS7.png","","","","",""
"","html-keyboard-response","61","300398","0.0-6.0-4.0-0.13","5a9e9r3ws2","many_one","0","direct_first","1","el03rg27","0","20","1","1","3","1","","0","1","0","null","","","<div class = 'row'><div class = 'column'><img src = 'category2/CS3.png' width = '70%;'></div><div class = 'column'><img src = 'uspos/2900.2.bmp' width = '100%;'></div></div>","null","pos","CS","CS","2","category2/CS3.png","","","","",""
"","html-keyboard-response","62","302926","0.0-6.0-4.0-0.14","5a9e9r3ws2","many_one","0","direct_first","1","el03rg27","0","20","1","1","3","1","","0","1","0","null","","","<div class = 'row'><div class = 'column'><img src = 'category4/CS10.png' width = '70%;'></div><div class = 'column'><img src = 'usneg/7380.bmp' width = '100%;'></div></div>","null","neg","CS","CS","4","category4/CS10.png","","","","",""
"","html-keyboard-response","63","305430","0.0-6.0-4.0-0.15","5a9e9r3ws2","many_one","0","direct_first","1","el03rg27","0","20","1","1","3","1","","0","1","0","null","","","<div class = 'row'><div class = 'column'><img src = 'category1/CS6.png' width = '70%;'></div><div class = 'column'><img src = 'uspos/5600.bmp' width = '100%;'></div></div>","null","pos","CS","CS","1","category1/CS6.png","","","","",""
"","html-keyboard-response","64","307942","0.0-6.0-4.0-0.16","5a9e9r3ws2","many_one","0","direct_first","1","el03rg27","0","20","1","1","3","1","","0","1","0","null","","","<div class = 'row'><div class = 'column'><img src = 'category3/CS7.png' width = '70%;'></div><div class = 'column'><img src = 'usneg/9560.bmp' width = '100%;'></div></div>","null","neg","CS","CS","3","category3/CS7.png","","","","",""
"","html-keyboard-response","65","310467","0.0-6.0-4.0-0.17","5a9e9r3ws2","many_one","0","direct_first","1","el03rg27","0","20","1","1","3","1","","0","1","0","null","","","<div class = 'row'><div class = 'column'><img src = 'uspos/8490.bmp' width = '100%;'></div><div class = 'column'><img src = 'category1/CS1.png' width = '70%;'></div></div>","null","pos","CS","CS","1","category1/CS1.png","","","","",""
"","html-keyboard-response","66","312989","0.0-6.0-4.0-0.18","5a9e9r3ws2","many_one","0","direct_first","1","el03rg27","0","20","1","1","3","1","","0","1","0","null","","","<div class = 'row'><div class = 'column'><img src = 'usneg/8485.bmp' width = '100%;'></div><div class = 'column'><img src = 'category4/CS7.png' width = '70%;'></div></div>","null","neg","CS","CS","4","category4/CS7.png","","","","",""
"","html-keyboard-response","67","315499","0.0-6.0-4.0-0.19","5a9e9r3ws2","many_one","0","direct_first","1","el03rg27","0","20","1","1","3","1","","0","1","0","null","","","<div class = 'row'><div class = 'column'><img src = 'category3/CS2.png' width = '70%;'></div><div class = 'column'><img src = 'usneg/9000.bmp' width = '100%;'></div></div>","null","neg","CS","CS","3","category3/CS2.png","","","","",""
"","survey-html-form","68","326512","0.0-6.0-5.0","5a9e9r3ws2","many_one","0","direct_first","1","el03rg27","0","20","1","1","3","1","","0","1","0","10498","","{}","","","","","","","","","","","",""
"","html-keyboard-response","69","330520","0.0-6.0-6.0-0.0","5a9e9r3ws2","many_one","0","direct_first","1","el03rg27","0","20","1","1","3","1","","0","1","0","null","","","<div class = 'row'><div class = 'column'><img src = 'uspos/5831.bmp' width = '100%;'></div><div class = 'column'><img src = 'category1/CS2.png' width = '70%;'></div></div>","null","pos","CS","CS","1","category1/CS2.png","","","","",""
"","html-keyboard-response","70","333038","0.0-6.0-6.0-0.1","5a9e9r3ws2","many_one","0","direct_first","1","el03rg27","0","20","1","1","3","1","","0","1","0","null","","","<div class = 'row'><div class = 'column'><img src = 'category1/CS8.png' width = '70%;'></div><div class = 'column'><img src = 'uspos/4599.bmp' width = '100%;'></div></div>","null","pos","CS","CS","1","category1/CS8.png","","","","",""
"","html-keyboard-response","71","335553","0.0-6.0-6.0-0.2","5a9e9r3ws2","many_one","0","direct_first","1","el03rg27","0","20","1","1","3","1","","0","1","0","null","","","<div class = 'row'><div class = 'column'><img src = 'category3/CS10.png' width = '70%;'></div><div class = 'column'><img src = 'usneg/9181.bmp' width = '100%;'></div></div>","null","neg","CS","CS","3","category3/CS10.png","","","","",""
"","html-keyboard-response","72","338061","0.0-6.0-6.0-0.3","5a9e9r3ws2","many_one","0","direct_first","1","el03rg27","0","20","1","1","3","1","","0","1","0","null","","","<div class = 'row'><div class = 'column'><img src = 'category4/CS10.png' width = '70%;'></div><div class = 'column'><img src = 'usneg/7380.bmp' width = '100%;'></div></div>","null","neg","CS","CS","4","category4/CS10.png","","","","",""
"","html-keyboard-response","73","340582","0.0-6.0-6.0-0.4","5a9e9r3ws2","many_one","0","direct_first","1","el03rg27","0","20","1","1","3","1","","0","1","0","null","","","<div class = 'row'><div class = 'column'><img src = 'usneg/9041.bmp' width = '100%;'></div><div class = 'column'><img src = 'category3/CS4.png' width = '70%;'></div></div>","null","neg","CS","CS","3","category3/CS4.png","","","","",""
"","html-keyboard-response","74","343099","0.0-6.0-6.0-0.5","5a9e9r3ws2","many_one","0","direct_first","1","el03rg27","0","20","1","1","3","1","","0","1","0","null","","","<div class = 'row'><div class = 'column'><img src = 'category3/CS2.png' width = '70%;'></div><div class = 'column'><img src = 'usneg/9000.bmp' width = '100%;'></div></div>","null","neg","CS","CS","3","category3/CS2.png","","","","",""
"","html-keyboard-response","75","345615","0.0-6.0-6.0-0.6","5a9e9r3ws2","many_one","0","direct_first","1","el03rg27","0","20","1","1","3","1","","0","1","0","null","","","<div class = 'row'><div class = 'column'><img src = 'category2/CS7.png' width = '70%;'></div><div class = 'column'><img src = 'uspos/8190.bmp' width = '100%;'></div></div>","null","pos","CS","CS","2","category2/CS7.png","","","","",""
"","html-keyboard-response","76","348130","0.0-6.0-6.0-0.7","5a9e9r3ws2","many_one","0","direct_first","1","el03rg27","0","20","1","1","3","1","","0","1","0","null","","","<div class = 'row'><div class = 'column'><img src = 'uspos/2030.bmp' width = '100%;'></div><div class = 'column'><img src = 'category2/CS1.png' width = '70%;'></div></div>","null","pos","CS","CS","2","category2/CS1.png","","","","",""
"","html-keyboard-response","77","350649","0.0-6.0-6.0-0.8","5a9e9r3ws2","many_one","0","direct_first","1","el03rg27","0","20","1","1","3","1","","0","1","0","null","","","<div class = 'row'><div class = 'column'><img src = 'category1/CS10.png' width = '70%;'></div><div class = 'column'><img src = 'uspos/7325.bmp' width = '100%;'></div></div>","null","pos","CS","CS","1","category1/CS10.png","","","","",""
"","html-keyboard-response","78","353174","0.0-6.0-6.0-0.9","5a9e9r3ws2","many_one","0","direct_first","1","el03rg27","0","20","1","1","3","1","","0","1","0","null","","","<div class = 'row'><div class = 'column'><img src = 'category3/CS3.png' width = '70%;'></div><div class = 'column'><img src = 'usneg/3181.bmp' width = '100%;'></div></div>","null","neg","CS","CS","3","category3/CS3.png","","","","",""
"","html-keyboard-response","79","355692","0.0-6.0-6.0-0.10","5a9e9r3ws2","many_one","0","direct_first","1","el03rg27","0","20","1","1","3","1","","0","1","0","null","","","<div class = 'row'><div class = 'column'><img src = 'usneg/2900.bmp' width = '100%;'></div><div class = 'column'><img src = 'category4/CS6.png' width = '70%;'></div></div>","null","neg","CS","CS","4","category4/CS6.png","","","","",""
"","html-keyboard-response","80","358220","0.0-6.0-6.0-0.11","5a9e9r3ws2","many_one","0","direct_first","1","el03rg27","0","20","1","1","3","1","","0","1","0","null","","","<div class = 'row'><div class = 'column'><img src = 'usneg/1280.bmp' width = '100%;'></div><div class = 'column'><img src = 'category4/CS1.png' width = '70%;'></div></div>","null","neg","CS","CS","4","category4/CS1.png","","","","",""
"","html-keyboard-response","81","360742","0.0-6.0-6.0-0.12","5a9e9r3ws2","many_one","0","direct_first","1","el03rg27","0","20","1","1","3","1","","0","1","0","null","","","<div class = 'row'><div class = 'column'><img src = 'category2/CS2.png' width = '70%;'></div><div class = 'column'><img src = 'uspos/2150.bmp' width = '100%;'></div></div>","null","pos","CS","CS","2","category2/CS2.png","","","","",""
"","html-keyboard-response","82","363253","0.0-6.0-6.0-0.13","5a9e9r3ws2","many_one","0","direct_first","1","el03rg27","0","20","1","1","3","1","","0","1","0","null","","","<div class = 'row'><div class = 'column'><img src = 'usneg/8485.bmp' width = '100%;'></div><div class = 'column'><img src = 'category4/CS7.png' width = '70%;'></div></div>","null","neg","CS","CS","4","category4/CS7.png","","","","",""
"","html-keyboard-response","83","365775","0.0-6.0-6.0-0.14","5a9e9r3ws2","many_one","0","direct_first","1","el03rg27","0","20","1","1","3","1","","0","1","0","null","","","<div class = 'row'><div class = 'column'><img src = 'category3/CS7.png' width = '70%;'></div><div class = 'column'><img src = 'usneg/9560.bmp' width = '100%;'></div></div>","null","neg","CS","CS","3","category3/CS7.png","","","","",""
"","html-keyboard-response","84","368296","0.0-6.0-6.0-0.15","5a9e9r3ws2","many_one","0","direct_first","1","el03rg27","0","20","1","1","3","1","","0","1","0","null","","","<div class = 'row'><div class = 'column'><img src = 'category1/CS6.png' width = '70%;'></div><div class = 'column'><img src = 'uspos/5600.bmp' width = '100%;'></div></div>","null","pos","CS","CS","1","category1/CS6.png","","","","",""
"","html-keyboard-response","85","370819","0.0-6.0-6.0-0.16","5a9e9r3ws2","many_one","0","direct_first","1","el03rg27","0","20","1","1","3","1","","0","1","0","null","","","<div class = 'row'><div class = 'column'><img src = 'category2/CS3.png' width = '70%;'></div><div class = 'column'><img src = 'uspos/2900.2.bmp' width = '100%;'></div></div>","null","pos","CS","CS","2","category2/CS3.png","","","","",""
"","html-keyboard-response","86","373320","0.0-6.0-6.0-0.17","5a9e9r3ws2","many_one","0","direct_first","1","el03rg27","0","20","1","1","3","1","","0","1","0","null","","","<div class = 'row'><div class = 'column'><img src = 'uspos/8490.bmp' width = '100%;'></div><div class = 'column'><img src = 'category1/CS1.png' width = '70%;'></div></div>","null","pos","CS","CS","1","category1/CS1.png","","","","",""
"","html-keyboard-response","87","375837","0.0-6.0-6.0-0.18","5a9e9r3ws2","many_one","0","direct_first","1","el03rg27","0","20","1","1","3","1","","0","1","0","null","","","<div class = 'row'><div class = 'column'><img src = 'usneg/3160.bmp' width = '100%;'></div><div class = 'column'><img src = 'category4/CS4.png' width = '70%;'></div></div>","null","neg","CS","CS","4","category4/CS4.png","","","","",""
"","html-keyboard-response","88","378349","0.0-6.0-6.0-0.19","5a9e9r3ws2","many_one","0","direct_first","1","el03rg27","0","20","1","1","3","1","","0","1","0","null","","","<div class = 'row'><div class = 'column'><img src = 'category2/CS6.png' width = '70%;'></div><div class = 'column'><img src = 'uspos/2208.bmp' width = '100%;'></div></div>","null","pos","CS","CS","2","category2/CS6.png","","","","",""
"","survey-html-form","89","390775","0.0-7.0","5a9e9r3ws2","many_one","0","direct_first","1","el03rg27","0","20","1","1","3","1","","0","1","0","11911","","{}","","","","","","","","","","","",""
"","image-slider-response","90","407075","0.0-8.0-0.0","5a9e9r3ws2","many_one","0","direct_first","1","el03rg27","0","20","1","1","3","1","","0","1","0","14285","","","","","neg","CS","CS","4","category4/CS4.png","-54","targets/2.png","direct","",""
"","image-slider-response","91","416159","0.0-8.0-0.1","5a9e9r3ws2","many_one","0","direct_first","1","el03rg27","0","20","1","1","3","1","","0","1","0","9082","","","","","pos","GS","GSnew","1","category1/GS3.png","-9","targets/6.png","direct","",""
"","image-slider-response","92","421001","0.0-8.0-0.2","5a9e9r3ws2","many_one","0","direct_first","1","el03rg27","0","20","1","1","3","1","","0","1","0","4839","","","","","pos","GS","GSold","2","category2/CS4.png","100","targets/41.png","direct","",""
"","image-slider-response","93","425838","0.0-8.0-0.3","5a9e9r3ws2","many_one","0","direct_first","1","el03rg27","0","20","1","1","3","1","","0","1","0","4831","","","","","pos","GS","abstract","2","category2/men.png","50","targets/18.png","direct","",""
"","image-slider-response","94","432574","0.0-8.0-0.4","5a9e9r3ws2","many_one","0","direct_first","1","el03rg27","0","20","1","1","3","1","","0","1","0","6734","","","","","neg","CS","CS","3","category3/CS7.png","-29","targets/33.png","direct","",""
"","image-slider-response","95","436109","0.0-8.0-0.5","5a9e9r3ws2","many_one","0","direct_first","1","el03rg27","0","20","1","1","3","1","","0","1","0","3529","","","","","pos","CS","CS","2","category2/CS6.png","56","targets/43.png","direct","",""
"","image-slider-response","96","440483","0.0-8.0-0.6","5a9e9r3ws2","many_one","0","direct_first","1","el03rg27","0","20","1","1","3","1","","0","1","0","4372","","","","","pos","GS","GSnew","2","category2/GS1.png","41","targets/36.png","direct","",""
"","image-slider-response","97","445264","0.0-8.0-0.7","5a9e9r3ws2","many_one","0","direct_first","1","el03rg27","0","20","1","1","3","1","","0","1","0","4778","","","","","pos","GS","GSold","2","category2/CS8.png","31","targets/9.png","direct","",""
"","image-slider-response","98","449333","0.0-8.0-0.8","5a9e9r3ws2","many_one","0","direct_first","1","el03rg27","0","20","1","1","3","1","","0","1","0","4066","","","","","pos","GS","GSnew","2","category2/GS3.png","40","targets/45.png","direct","",""
"","image-slider-response","99","454761","0.0-8.0-0.9","5a9e9r3ws2","many_one","0","direct_first","1","el03rg27","0","20","1","1","3","1","","0","1","0","5424","","","","","pos","CS","CS","2","category2/CS1.png","-54","targets/14.png","direct","",""
"","image-slider-response","100","459173","0.0-8.0-0.10","5a9e9r3ws2","many_one","0","direct_first","1","el03rg27","0","20","1","1","3","1","","0","1","0","4409","","","","","neg","GS","GSnew","3","category3/GS2.png","-53","targets/26.png","direct","",""
"","image-slider-response","101","463977","0.0-8.0-0.11","5a9e9r3ws2","many_one","0","direct_first","1","el03rg27","0","20","1","1","3","1","","0","1","0","4801","","","","","neg","CS","CS","3","category3/CS3.png","-83","targets/12.png","direct","",""
"","image-slider-response","102","468003","0.0-8.0-0.12","5a9e9r3ws2","many_one","0","direct_first","1","el03rg27","0","20","1","1","3","1","","0","1","0","4024","","","","","neg","CS","CS","3","category3/CS4.png","-82","targets/39.png","direct","",""
"","image-slider-response","103","474218","0.0-8.0-0.13","5a9e9r3ws2","many_one","0","direct_first","1","el03rg27","0","20","1","1","3","1","","0","1","0","6212","","","","","pos","GS","GSold","1","category1/CS4.png","87","targets/40.png","direct","",""
"","image-slider-response","104","478053","0.0-8.0-0.14","5a9e9r3ws2","many_one","0","direct_first","1","el03rg27","0","20","1","1","3","1","","0","1","0","3833","","","","","pos","GS","GSold","1","category1/CS9.png","56","targets/15.png","direct","",""
"","image-slider-response","105","481348","0.0-8.0-0.15","5a9e9r3ws2","many_one","0","direct_first","1","el03rg27","0","20","1","1","3","1","","0","1","0","3290","","","","","neg","GS","GSnew","3","category3/GS1.png","-78","targets/5.png","direct","",""
"","image-slider-response","106","484190","0.0-8.0-0.16","5a9e9r3ws2","many_one","0","direct_first","1","el03rg27","0","20","1","1","3","1","","0","1","0","2840","","","","","neg","GS","GSold","3","category3/CS1.png","-100","targets/30.png","direct","",""
"","image-slider-response","107","489216","0.0-8.0-0.17","5a9e9r3ws2","many_one","0","direct_first","1","el03rg27","0","20","1","1","3","1","","0","1","0","5025","","","","","neg","GS","GSold","4","category4/CS5.png","19","targets/10.png","direct","",""
"","image-slider-response","108","497067","0.0-8.0-0.18","5a9e9r3ws2","many_one","0","direct_first","1","el03rg27","0","20","1","1","3","1","","0","1","0","7848","","","","","neg","GS","GSnew","4","category4/GS3.png","-60","targets/13.png","direct","",""
"","image-slider-response","109","501642","0.0-8.0-0.19","5a9e9r3ws2","many_one","0","direct_first","1","el03rg27","0","20","1","1","3","1","","0","1","0","4573","","","","","pos","GS","GSnew","1","category1/GS1.png","-51","targets/42.png","direct","",""
"","image-slider-response","110","505253","0.0-8.0-0.20","5a9e9r3ws2","many_one","0","direct_first","1","el03rg27","0","20","1","1","3","1","","0","1","0","3607","","","","","pos","CS","CS","1","category1/CS8.png","-67","targets/28.png","direct","",""
"","image-slider-response","111","509550","0.0-8.0-0.21","5a9e9r3ws2","many_one","0","direct_first","1","el03rg27","0","20","1","1","3","1","","0","1","0","4294","","","","","neg","GS","GSold","4","category4/CS3.png","-81","targets/22.png","direct","",""
"","image-slider-response","112","512713","0.0-8.0-0.22","5a9e9r3ws2","many_one","0","direct_first","1","el03rg27","0","20","1","1","3","1","","0","1","0","3161","","","","","neg","CS","CS","3","category3/CS10.png","-100","targets/32.png","direct","",""
"","image-slider-response","113","515935","0.0-8.0-0.23","5a9e9r3ws2","many_one","0","direct_first","1","el03rg27","0","20","1","1","3","1","","0","1","0","3217","","","","","neg","GS","GSold","4","category4/CS2.png","-51","targets/7.png","direct","",""
"","image-slider-response","114","519431","0.0-8.0-0.24","5a9e9r3ws2","many_one","0","direct_first","1","el03rg27","0","20","1","1","3","1","","0","1","0","3492","","","","","pos","GS","GSold","1","category1/CS3.png","25","targets/27.png","direct","",""
"","image-slider-response","115","524460","0.0-8.0-0.25","5a9e9r3ws2","many_one","0","direct_first","1","el03rg27","0","20","1","1","3","1","","0","1","0","5027","","","","","neg","GS","GSnew","3","category3/GS3.png","-100","targets/21.png","direct","",""
"","image-slider-response","116","527639","0.0-8.0-0.26","5a9e9r3ws2","many_one","0","direct_first","1","el03rg27","0","20","1","1","3","1","","0","1","0","3176","","","","","pos","GS","GSnew","2","category2/GS2.png","22","targets/35.png","direct","",""
"","image-slider-response","117","530837","0.0-8.0-0.27","5a9e9r3ws2","many_one","0","direct_first","1","el03rg27","0","20","1","1","3","1","","0","1","0","3196","","","","","pos","CS","CS","1","category1/CS6.png","23","targets/3.png","direct","",""
"","image-slider-response","118","534345","0.0-8.0-0.28","5a9e9r3ws2","many_one","0","direct_first","1","el03rg27","0","20","1","1","3","1","","0","1","0","3505","","","","","pos","CS","CS","1","category1/CS1.png","66","targets/25.png","direct","",""
"","image-slider-response","119","537194","0.0-8.0-0.29","5a9e9r3ws2","many_one","0","direct_first","1","el03rg27","0","20","1","1","3","1","","0","1","0","2849","","","","","neg","CS","CS","3","category3/CS2.png","-100","targets/23.png","direct","",""
"","image-slider-response","120","540305","0.0-8.0-0.30","5a9e9r3ws2","many_one","0","direct_first","1","el03rg27","0","20","1","1","3","1","","0","1","0","3106","","","","","neg","GS","abstract","3","category3/wang.png","-100","targets/1.png","direct","",""
"","image-slider-response","121","543733","0.0-8.0-0.31","5a9e9r3ws2","many_one","0","direct_first","1","el03rg27","0","20","1","1","3","1","","0","1","0","3426","","","","","neg","GS","GSold","3","category3/CS6.png","-100","targets/16.png","direct","",""
"","image-slider-response","122","547108","0.0-8.0-0.32","5a9e9r3ws2","many_one","0","direct_first","1","el03rg27","0","20","1","1","3","1","","0","1","0","3371","","","","","pos","GS","GSold","2","category2/CS9.png","-14","targets/17.png","direct","",""
"","image-slider-response","123","549878","0.0-8.0-0.33","5a9e9r3ws2","many_one","0","direct_first","1","el03rg27","0","20","1","1","3","1","","0","1","0","2767","","","","","pos","GS","abstract","1","category1/ma.png","27","targets/38.png","direct","",""
"","image-slider-response","124","552650","0.0-8.0-0.34","5a9e9r3ws2","many_one","0","direct_first","1","el03rg27","0","20","1","1","3","1","","0","1","0","2769","","","","","neg","GS","abstract","4","category4/lin.png","25","targets/24.png","direct","",""
"","image-slider-response","125","556080","0.0-8.0-0.35","5a9e9r3ws2","many_one","0","direct_first","1","el03rg27","0","20","1","1","3","1","","0","1","0","3428","","","","","pos","CS","CS","2","category2/CS2.png","11","targets/34.png","direct","",""
"","image-slider-response","126","558687","0.0-8.0-0.36","5a9e9r3ws2","many_one","0","direct_first","1","el03rg27","0","20","1","1","3","1","","0","1","0","2605","","","","","neg","CS","CS","4","category4/CS10.png","18","targets/46.png","direct","",""
"","image-slider-response","127","561523","0.0-8.0-0.37","5a9e9r3ws2","many_one","0","direct_first","1","el03rg27","0","20","1","1","3","1","","0","1","0","2834","","","","","pos","CS","CS","2","category2/CS7.png","51","targets/37.png","direct","",""
"","image-slider-response","128","565585","0.0-8.0-0.38","5a9e9r3ws2","many_one","0","direct_first","1","el03rg27","0","20","1","1","3","1","","0","1","0","4058","","","","","pos","CS","CS","1","category1/CS2.png","31","targets/47.png","direct","",""
"","image-slider-response","129","568434","0.0-8.0-0.39","5a9e9r3ws2","many_one","0","direct_first","1","el03rg27","0","20","1","1","3","1","","0","1","0","2848","","","","","neg","CS","CS","4","category4/CS7.png","-27","targets/11.png","direct","",""
"","image-slider-response","130","571319","0.0-8.0-0.40","5a9e9r3ws2","many_one","0","direct_first","1","el03rg27","0","20","1","1","3","1","","0","1","0","2881","","","","","neg","CS","CS","4","category4/CS1.png","-14","targets/29.png","direct","",""
"","image-slider-response","131","575281","0.0-8.0-0.41","5a9e9r3ws2","many_one","0","direct_first","1","el03rg27","0","20","1","1","3","1","","0","1","0","3959","","","","","pos","CS","CS","1","category1/CS10.png","47","targets/4.png","direct","",""
"","image-slider-response","132","579624","0.0-8.0-0.42","5a9e9r3ws2","many_one","0","direct_first","1","el03rg27","0","20","1","1","3","1","","0","1","0","4341","","","","","pos","GS","GSnew","1","category1/GS2.png","-39","targets/31.png","direct","",""
"","image-slider-response","133","583081","0.0-8.0-0.43","5a9e9r3ws2","many_one","0","direct_first","1","el03rg27","0","20","1","1","3","1","","0","1","0","3453","","","","","neg","GS","GSold","3","category3/CS5.png","-98","targets/20.png","direct","",""
"","image-slider-response","134","586379","0.0-8.0-0.44","5a9e9r3ws2","many_one","0","direct_first","1","el03rg27","0","20","1","1","3","1","","0","1","0","3296","","","","","pos","CS","CS","2","category2/CS3.png","20","targets/44.png","direct","",""
"","image-slider-response","135","589168","0.0-8.0-0.45","5a9e9r3ws2","many_one","0","direct_first","1","el03rg27","0","20","1","1","3","1","","0","1","0","2787","","","","","neg","CS","CS","4","category4/CS6.png","10","targets/48.png","direct","",""
"","image-slider-response","136","592360","0.0-8.0-0.46","5a9e9r3ws2","many_one","0","direct_first","1","el03rg27","0","20","1","1","3","1","","0","1","0","3189","","","","","neg","GS","GSnew","4","category4/GS1.png","-40","targets/8.png","direct","",""
"","image-slider-response","137","595205","0.0-8.0-0.47","5a9e9r3ws2","many_one","0","direct_first","1","el03rg27","0","20","1","1","3","1","","0","1","0","2840","","","","","neg","GS","GSnew","4","category4/GS2.png","-37","targets/19.png","direct","",""
"","html-keyboard-response","138","609904","0.0-9.0","5a9e9r3ws2","many_one","0","direct_first","1","el03rg27","0","20","1","1","3","1","","0","1","0","14696","","","<p>Sie sehen nun die chinesischen Zeichen nur ganz kurz. Danach sehen Sie die jeweilige Aussprache der Zeichen als Silbe auf dem Bildschrim. Ihre Aufgabe ist es, für jede Silbe anzugeben, ob diese etwas angenehmes, oder unangenehmes bedeuten könnte. Verlassen Sie sich hier vor allem auf Ihre Intuition.<br><br>Die Zeichen werden nur zur Orientierung dargestellt, beachten Sie sie deshalb nicht. Konzentrieren Sie sich vor allem auf die Silben. <br>Reagieren Sie mit folgenden zwei Tasten: <br><br><b>'D' </b> wenn die Silbe etwas <b>unangenehmes</b> bedeuten könnte. <br><b>'K'</b> wenn die Silbe etwas <b>angenehmes</b> bedeuten könnte. <br><br>Bitte legen Sie nun den Zeigefinger der linken Hand auf die Taste 'D' und den Zeigefinger der rechten Hand auf die Taste 'K'. <br>Reagieren Sie auf jede Silbe so schnell wie möglich. Uns interessiert Ihre spontane Reaktion. <br> <br> <br>Drücken Sie 'D' oder 'K', um die nächste Aufgabe zu starten. </p>","68","","","","","","","","","",""
"","html-keyboard-response","139","612915","0.0-10.0-0.0","5a9e9r3ws2","many_one","0","direct_first","1","el03rg27","0","20","1","1","3","1","","0","1","0","null","","","<div style=""font-size:60px;"">+</div>","null","","","","","","","","","",""
"","html-keyboard-response","140","613009","0.0-10.0-1.0","5a9e9r3ws2","many_one","0","direct_first","1","el03rg27","0","20","1","1","3","1","","0","1","0","null","","","<img src = 'category3/CS7.png' width = '100%;'>","null","","","","","","","","","",""
"","html-keyboard-response","141","613274","0.0-10.0-2.0","5a9e9r3ws2","many_one","0","direct_first","1","el03rg27","0","20","1","1","3","1","","0","1","0","null","","","<img src = 'targets/33.png' width = '100%;'>","null","","","","","","","","","",""
"","html-keyboard-response","142","613280","0.0-10.0-3.0","5a9e9r3ws2","many_one","0","direct_first","1","el03rg27","0","20","1","1","3","1","","0","1","0","4","","","<img src = 'targets/mask.png' width = '100%;'>","68","neg","CS","CS","3","category3/CS7.png","","targets/33.png","indirect","0","0"
"","html-keyboard-response","143","614799","0.0-10.0-0.1","5a9e9r3ws2","many_one","0","direct_first","1","el03rg27","0","20","1","1","3","1","","0","1","0","null","","","<div style=""font-size:60px;"">+</div>","null","","","","","","","","","",""
"","html-keyboard-response","144","614891","0.0-10.0-1.1","5a9e9r3ws2","many_one","0","direct_first","1","el03rg27","0","20","1","1","3","1","","0","1","0","null","","","<img src = 'category2/CS7.png' width = '100%;'>","null","","","","","","","","","",""
"","html-keyboard-response","145","615168","0.0-10.0-2.1","5a9e9r3ws2","many_one","0","direct_first","1","el03rg27","0","20","1","1","3","1","","0","1","0","null","","","<img src = 'targets/37.png' width = '100%;'>","null","","","","","","","","","",""
"","html-keyboard-response","146","617580","0.0-10.0-3.1","5a9e9r3ws2","many_one","0","direct_first","1","el03rg27","0","20","1","1","3","1","","0","1","0","2411","","","<img src = 'targets/mask.png' width = '100%;'>","68","pos","CS","CS","2","category2/CS7.png","","targets/37.png","indirect","0","1"
"","html-keyboard-response","147","619106","0.0-10.0-0.2","5a9e9r3ws2","many_one","0","direct_first","1","el03rg27","0","20","1","1","3","1","","0","1","0","null","","","<div style=""font-size:60px;"">+</div>","null","","","","","","","","","",""
"","html-keyboard-response","148","619199","0.0-10.0-1.2","5a9e9r3ws2","many_one","0","direct_first","1","el03rg27","0","20","1","1","3","1","","0","1","0","null","","","<img src = 'category2/CS2.png' width = '100%;'>","null","","","","","","","","","",""
"","html-keyboard-response","149","619478","0.0-10.0-2.2","5a9e9r3ws2","many_one","0","direct_first","1","el03rg27","0","20","1","1","3","1","","0","1","0","null","","","<img src = 'targets/34.png' width = '100%;'>","null","","","","","","","","","",""
"","html-keyboard-response","150","622867","0.0-10.0-3.2","5a9e9r3ws2","many_one","0","direct_first","1","el03rg27","0","20","1","1","3","1","","0","1","0","3388","","","<img src = 'targets/mask.png' width = '100%;'>","75","pos","CS","CS","2","category2/CS2.png","","targets/34.png","indirect","1","2"
"","html-keyboard-response","151","624382","0.0-10.0-0.3","5a9e9r3ws2","many_one","0","direct_first","1","el03rg27","0","20","1","1","3","1","","0","1","0","null","","","<div style=""font-size:60px;"">+</div>","null","","","","","","","","","",""
"","html-keyboard-response","152","624475","0.0-10.0-1.3","5a9e9r3ws2","many_one","0","direct_first","1","el03rg27","0","20","1","1","3","1","","0","1","0","null","","","<img src = 'category3/CS3.png' width = '100%;'>","null","","","","","","","","","",""
"","html-keyboard-response","153","624741","0.0-10.0-2.3","5a9e9r3ws2","many_one","0","direct_first","1","el03rg27","0","20","1","1","3","1","","0","1","0","null","","","<img src = 'targets/12.png' width = '100%;'>","null","","","","","","","","","",""
"","html-keyboard-response","154","625260","0.0-10.0-3.3","5a9e9r3ws2","many_one","0","direct_first","1","el03rg27","0","20","1","1","3","1","","0","1","0","519","","","<img src = 'targets/mask.png' width = '100%;'>","75","neg","CS","CS","3","category3/CS3.png","","targets/12.png","indirect","1","3"
"","html-keyboard-response","155","626779","0.0-10.0-0.4","5a9e9r3ws2","many_one","0","direct_first","1","el03rg27","0","20","1","1","3","1","","0","1","0","null","","","<div style=""font-size:60px;"">+</div>","null","","","","","","","","","",""
"","html-keyboard-response","156","626875","0.0-10.0-1.4","5a9e9r3ws2","many_one","0","direct_first","1","el03rg27","0","20","1","1","3","1","","0","1","0","null","","","<img src = 'category1/CS1.png' width = '100%;'>","null","","","","","","","","","",""
"","html-keyboard-response","157","627142","0.0-10.0-2.4","5a9e9r3ws2","many_one","0","direct_first","1","el03rg27","0","20","1","1","3","1","","0","1","0","null","","","<img src = 'targets/25.png' width = '100%;'>","null","","","","","","","","","",""
"","html-keyboard-response","158","627903","0.0-10.0-3.4","5a9e9r3ws2","many_one","0","direct_first","1","el03rg27","0","20","1","1","3","1","","0","1","0","760","","","<img src = 'targets/mask.png' width = '100%;'>","68","pos","CS","CS","1","category1/CS1.png","","targets/25.png","indirect","0","4"
"","html-keyboard-response","159","629419","0.0-10.0-0.5","5a9e9r3ws2","many_one","0","direct_first","1","el03rg27","0","20","1","1","3","1","","0","1","0","null","","","<div style=""font-size:60px;"">+</div>","null","","","","","","","","","",""
"","html-keyboard-response","160","629511","0.0-10.0-1.5","5a9e9r3ws2","many_one","0","direct_first","1","el03rg27","0","20","1","1","3","1","","0","1","0","null","","","<img src = 'category4/CS10.png' width = '100%;'>","null","","","","","","","","","",""
"","html-keyboard-response","161","629788","0.0-10.0-2.5","5a9e9r3ws2","many_one","0","direct_first","1","el03rg27","0","20","1","1","3","1","","0","1","0","null","","","<img src = 'targets/46.png' width = '100%;'>","null","","","","","","","","","",""
"","html-keyboard-response","162","630805","0.0-10.0-3.5","5a9e9r3ws2","many_one","0","direct_first","1","el03rg27","0","20","1","1","3","1","","0","1","0","1015","","","<img src = 'targets/mask.png' width = '100%;'>","68","neg","CS","CS","4","category4/CS10.png","","targets/46.png","indirect","0","5"
"","html-keyboard-response","163","632323","0.0-10.0-0.6","5a9e9r3ws2","many_one","0","direct_first","1","el03rg27","0","20","1","1","3","1","","0","1","0","null","","","<div style=""font-size:60px;"">+</div>","null","","","","","","","","","",""
"","html-keyboard-response","164","632416","0.0-10.0-1.6","5a9e9r3ws2","many_one","0","direct_first","1","el03rg27","0","20","1","1","3","1","","0","1","0","null","","","<img src = 'category1/CS4.png' width = '100%;'>","null","","","","","","","","","",""
"","html-keyboard-response","165","632682","0.0-10.0-2.6","5a9e9r3ws2","many_one","0","direct_first","1","el03rg27","0","20","1","1","3","1","","0","1","0","null","","","<img src = 'targets/40.png' width = '100%;'>","null","","","","","","","","","",""
"","html-keyboard-response","166","633304","0.0-10.0-3.6","5a9e9r3ws2","many_one","0","direct_first","1","el03rg27","0","20","1","1","3","1","","0","1","0","620","","","<img src = 'targets/mask.png' width = '100%;'>","75","pos","GS","GSold","1","category1/CS4.png","","targets/40.png","indirect","1","6"
"","html-keyboard-response","167","634811","0.0-10.0-0.7","5a9e9r3ws2","many_one","0","direct_first","1","el03rg27","0","20","1","1","3","1","","0","1","0","null","","","<div style=""font-size:60px;"">+</div>","null","","","","","","","","","",""
"","html-keyboard-response","168","634904","0.0-10.0-1.7","5a9e9r3ws2","many_one","0","direct_first","1","el03rg27","0","20","1","1","3","1","","0","1","0","null","","","<img src = 'category1/CS10.png' width = '100%;'>","null","","","","","","","","","",""
"","html-keyboard-response","169","635158","0.0-10.0-2.7","5a9e9r3ws2","many_one","0","direct_first","1","el03rg27","0","20","1","1","3","1","","0","1","0","null","","","<img src = 'targets/4.png' width = '100%;'>","null","","","","","","","","","",""
"","html-keyboard-response","170","636693","0.0-10.0-3.7","5a9e9r3ws2","many_one","0","direct_first","1","el03rg27","0","20","1","1","3","1","","0","1","0","1534","","","<img src = 'targets/mask.png' width = '100%;'>","75","pos","CS","CS","1","category1/CS10.png","","targets/4.png","indirect","1","7"
"","html-keyboard-response","171","638208","0.0-10.0-0.8","5a9e9r3ws2","many_one","0","direct_first","1","el03rg27","0","20","1","1","3","1","","0","1","0","null","","","<div style=""font-size:60px;"">+</div>","null","","","","","","","","","",""
"","html-keyboard-response","172","638301","0.0-10.0-1.8","5a9e9r3ws2","many_one","0","direct_first","1","el03rg27","0","20","1","1","3","1","","0","1","0","null","","","<img src = 'category3/CS10.png' width = '100%;'>","null","","","","","","","","","",""
"","html-keyboard-response","173","638582","0.0-10.0-2.8","5a9e9r3ws2","many_one","0","direct_first","1","el03rg27","0","20","1","1","3","1","","0","1","0","null","","","<img src = 'targets/32.png' width = '100%;'>","null","","","","","","","","","",""
"","html-keyboard-response","174","639071","0.0-10.0-3.8","5a9e9r3ws2","many_one","0","direct_first","1","el03rg27","0","20","1","1","3","1","","0","1","0","488","","","<img src = 'targets/mask.png' width = '100%;'>","68","neg","CS","CS","3","category3/CS10.png","","targets/32.png","indirect","0","8"
"","html-keyboard-response","175","640594","0.0-10.0-0.9","5a9e9r3ws2","many_one","0","direct_first","1","el03rg27","0","20","1","1","3","1","","0","1","0","null","","","<div style=""font-size:60px;"">+</div>","null","","","","","","","","","",""
"","html-keyboard-response","176","640688","0.0-10.0-1.9","5a9e9r3ws2","many_one","0","direct_first","1","el03rg27","0","20","1","1","3","1","","0","1","0","null","","","<img src = 'category4/CS2.png' width = '100%;'>","null","","","","","","","","","",""
"","html-keyboard-response","177","640968","0.0-10.0-2.9","5a9e9r3ws2","many_one","0","direct_first","1","el03rg27","0","20","1","1","3","1","","0","1","0","null","","","<img src = 'targets/7.png' width = '100%;'>","null","","","","","","","","","",""
"","html-keyboard-response","178","641635","0.0-10.0-3.9","5a9e9r3ws2","many_one","0","direct_first","1","el03rg27","0","20","1","1","3","1","","0","1","0","666","","","<img src = 'targets/mask.png' width = '100%;'>","75","neg","GS","GSold","4","category4/CS2.png","","targets/7.png","indirect","1","9"
"","html-keyboard-response","179","643149","0.0-10.0-0.10","5a9e9r3ws2","many_one","0","direct_first","1","el03rg27","0","20","1","1","3","1","","0","1","0","null","","","<div style=""font-size:60px;"">+</div>","null","","","","","","","","","",""
"","html-keyboard-response","180","643244","0.0-10.0-1.10","5a9e9r3ws2","many_one","0","direct_first","1","el03rg27","0","20","1","1","3","1","","0","1","0","null","","","<img src = 'category3/CS2.png' width = '100%;'>","null","","","","","","","","","",""
"","html-keyboard-response","181","643509","0.0-10.0-2.10","5a9e9r3ws2","many_one","0","direct_first","1","el03rg27","0","20","1","1","3","1","","0","1","0","null","","","<img src = 'targets/23.png' width = '100%;'>","null","","","","","","","","","",""
"","html-keyboard-response","182","644012","0.0-10.0-3.10","5a9e9r3ws2","many_one","0","direct_first","1","el03rg27","0","20","1","1","3","1","","0","1","0","502","","","<img src = 'targets/mask.png' width = '100%;'>","68","neg","CS","CS","3","category3/CS2.png","","targets/23.png","indirect","0","10"
"","html-keyboard-response","183","645525","0.0-10.0-0.11","5a9e9r3ws2","many_one","0","direct_first","1","el03rg27","0","20","1","1","3","1","","0","1","0","null","","","<div style=""font-size:60px;"">+</div>","null","","","","","","","","","",""
"","html-keyboard-response","184","645618","0.0-10.0-1.11","5a9e9r3ws2","many_one","0","direct_first","1","el03rg27","0","20","1","1","3","1","","0","1","0","null","","","<img src = 'category4/CS3.png' width = '100%;'>","null","","","","","","","","","",""
"","html-keyboard-response","185","645875","0.0-10.0-2.11","5a9e9r3ws2","many_one","0","direct_first","1","el03rg27","0","20","1","1","3","1","","0","1","0","null","","","<img src = 'targets/22.png' width = '100%;'>","null","","","","","","","","","",""
"","html-keyboard-response","186","646543","0.0-10.0-3.11","5a9e9r3ws2","many_one","0","direct_first","1","el03rg27","0","20","1","1","3","1","","0","1","0","668","","","<img src = 'targets/mask.png' width = '100%;'>","75","neg","GS","GSold","4","category4/CS3.png","","targets/22.png","indirect","1","11"
"","html-keyboard-response","187","648050","0.0-10.0-0.12","5a9e9r3ws2","many_one","0","direct_first","1","el03rg27","0","20","1","1","3","1","","0","1","0","null","","","<div style=""font-size:60px;"">+</div>","null","","","","","","","","","",""
"","html-keyboard-response","188","648144","0.0-10.0-1.12","5a9e9r3ws2","many_one","0","direct_first","1","el03rg27","0","20","1","1","3","1","","0","1","0","null","","","<img src = 'category4/CS6.png' width = '100%;'>","null","","","","","","","","","",""
"","html-keyboard-response","189","648411","0.0-10.0-2.12","5a9e9r3ws2","many_one","0","direct_first","1","el03rg27","0","20","1","1","3","1","","0","1","0","null","","","<img src = 'targets/48.png' width = '100%;'>","null","","","","","","","","","",""
"","html-keyboard-response","190","649357","0.0-10.0-3.12","5a9e9r3ws2","many_one","0","direct_first","1","el03rg27","0","20","1","1","3","1","","0","1","0","945","","","<img src = 'targets/mask.png' width = '100%;'>","75","neg","CS","CS","4","category4/CS6.png","","targets/48.png","indirect","1","12"
"","html-keyboard-response","191","650878","0.0-10.0-0.13","5a9e9r3ws2","many_one","0","direct_first","1","el03rg27","0","20","1","1","3","1","","0","1","0","null","","","<div style=""font-size:60px;"">+</div>","null","","","","","","","","","",""
"","html-keyboard-response","192","650974","0.0-10.0-1.13","5a9e9r3ws2","many_one","0","direct_first","1","el03rg27","0","20","1","1","3","1","","0","1","0","null","","","<img src = 'category4/CS1.png' width = '100%;'>","null","","","","","","","","","",""
"","html-keyboard-response","193","651243","0.0-10.0-2.13","5a9e9r3ws2","many_one","0","direct_first","1","el03rg27","0","20","1","1","3","1","","0","1","0","null","","","<img src = 'targets/29.png' width = '100%;'>","null","","","","","","","","","",""
"","html-keyboard-response","194","652530","0.0-10.0-3.13","5a9e9r3ws2","many_one","0","direct_first","1","el03rg27","0","20","1","1","3","1","","0","1","0","1287","","","<img src = 'targets/mask.png' width = '100%;'>","75","neg","CS","CS","4","category4/CS1.png","","targets/29.png","indirect","1","13"
"","html-keyboard-response","195","654042","0.0-10.0-0.14","5a9e9r3ws2","many_one","0","direct_first","1","el03rg27","0","20","1","1","3","1","","0","1","0","null","","","<div style=""font-size:60px;"">+</div>","null","","","","","","","","","",""
"","html-keyboard-response","196","654137","0.0-10.0-1.14","5a9e9r3ws2","many_one","0","direct_first","1","el03rg27","0","20","1","1","3","1","","0","1","0","null","","","<img src = 'category3/CS4.png' width = '100%;'>","null","","","","","","","","","",""
"","html-keyboard-response","197","654391","0.0-10.0-2.14","5a9e9r3ws2","many_one","0","direct_first","1","el03rg27","0","20","1","1","3","1","","0","1","0","null","","","<img src = 'targets/39.png' width = '100%;'>","null","","","","","","","","","",""
"","html-keyboard-response","198","654723","0.0-10.0-3.14","5a9e9r3ws2","many_one","0","direct_first","1","el03rg27","0","20","1","1","3","1","","0","1","0","331","","","<img src = 'targets/mask.png' width = '100%;'>","68","neg","CS","CS","3","category3/CS4.png","","targets/39.png","indirect","0","14"
"","html-keyboard-response","199","656235","0.0-10.0-0.15","5a9e9r3ws2","many_one","0","direct_first","1","el03rg27","0","20","1","1","3","1","","0","1","0","null","","","<div style=""font-size:60px;"">+</div>","null","","","","","","","","","",""
"","html-keyboard-response","200","656331","0.0-10.0-1.15","5a9e9r3ws2","many_one","0","direct_first","1","el03rg27","0","20","1","1","3","1","","0","1","0","null","","","<img src = 'category1/CS8.png' width = '100%;'>","null","","","","","","","","","",""
"","html-keyboard-response","201","656584","0.0-10.0-2.15","5a9e9r3ws2","many_one","0","direct_first","1","el03rg27","0","20","1","1","3","1","","0","1","0","null","","","<img src = 'targets/28.png' width = '100%;'>","null","","","","","","","","","",""
"","html-keyboard-response","202","657136","0.0-10.0-3.15","5a9e9r3ws2","many_one","0","direct_first","1","el03rg27","0","20","1","1","3","1","","0","1","0","553","","","<img src = 'targets/mask.png' width = '100%;'>","68","pos","CS","CS","1","category1/CS8.png","","targets/28.png","indirect","0","15"
"","html-keyboard-response","203","658653","0.0-10.0-0.16","5a9e9r3ws2","many_one","0","direct_first","1","el03rg27","0","20","1","1","3","1","","0","1","0","null","","","<div style=""font-size:60px;"">+</div>","null","","","","","","","","","",""
"","html-keyboard-response","204","658747","0.0-10.0-1.16","5a9e9r3ws2","many_one","0","direct_first","1","el03rg27","0","20","1","1","3","1","","0","1","0","null","","","<img src = 'category4/CS5.png' width = '100%;'>","null","","","","","","","","","",""
"","html-keyboard-response","205","659027","0.0-10.0-2.16","5a9e9r3ws2","many_one","0","direct_first","1","el03rg27","0","20","1","1","3","1","","0","1","0","null","","","<img src = 'targets/10.png' width = '100%;'>","null","","","","","","","","","",""
"","html-keyboard-response","206","659456","0.0-10.0-3.16","5a9e9r3ws2","many_one","0","direct_first","1","el03rg27","0","20","1","1","3","1","","0","1","0","428","","","<img src = 'targets/mask.png' width = '100%;'>","75","neg","GS","GSold","4","category4/CS5.png","","targets/10.png","indirect","1","16"
"","html-keyboard-response","207","660974","0.0-10.0-0.17","5a9e9r3ws2","many_one","0","direct_first","1","el03rg27","0","20","1","1","3","1","","0","1","0","null","","","<div style=""font-size:60px;"">+</div>","null","","","","","","","","","",""
"","html-keyboard-response","208","661067","0.0-10.0-1.17","5a9e9r3ws2","many_one","0","direct_first","1","el03rg27","0","20","1","1","3","1","","0","1","0","null","","","<img src = 'category4/CS7.png' width = '100%;'>","null","","","","","","","","","",""
"","html-keyboard-response","209","661322","0.0-10.0-2.17","5a9e9r3ws2","many_one","0","direct_first","1","el03rg27","0","20","1","1","3","1","","0","1","0","null","","","<img src = 'targets/11.png' width = '100%;'>","null","","","","","","","","","",""
"","html-keyboard-response","210","661719","0.0-10.0-3.17","5a9e9r3ws2","many_one","0","direct_first","1","el03rg27","0","20","1","1","3","1","","0","1","0","396","","","<img src = 'targets/mask.png' width = '100%;'>","75","neg","CS","CS","4","category4/CS7.png","","targets/11.png","indirect","1","17"
"","html-keyboard-response","211","663231","0.0-10.0-0.18","5a9e9r3ws2","many_one","0","direct_first","1","el03rg27","0","20","1","1","3","1","","0","1","0","null","","","<div style=""font-size:60px;"">+</div>","null","","","","","","","","","",""
"","html-keyboard-response","212","663324","0.0-10.0-1.18","5a9e9r3ws2","many_one","0","direct_first","1","el03rg27","0","20","1","1","3","1","","0","1","0","null","","","<img src = 'category2/CS3.png' width = '100%;'>","null","","","","","","","","","",""
"","html-keyboard-response","213","663603","0.0-10.0-2.18","5a9e9r3ws2","many_one","0","direct_first","1","el03rg27","0","20","1","1","3","1","","0","1","0","null","","","<img src = 'targets/44.png' width = '100%;'>","null","","","","","","","","","",""
"","html-keyboard-response","214","664549","0.0-10.0-3.18","5a9e9r3ws2","many_one","0","direct_first","1","el03rg27","0","20","1","1","3","1","","0","1","0","946","","","<img src = 'targets/mask.png' width = '100%;'>","68","pos","CS","CS","2","category2/CS3.png","","targets/44.png","indirect","0","18"
"","html-keyboard-response","215","666075","0.0-10.0-0.19","5a9e9r3ws2","many_one","0","direct_first","1","el03rg27","0","20","1","1","3","1","","0","1","0","null","","","<div style=""font-size:60px;"">+</div>","null","","","","","","","","","",""
"","html-keyboard-response","216","666169","0.0-10.0-1.19","5a9e9r3ws2","many_one","0","direct_first","1","el03rg27","0","20","1","1","3","1","","0","1","0","null","","","<img src = 'category4/CS4.png' width = '100%;'>","null","","","","","","","","","",""
"","html-keyboard-response","217","666434","0.0-10.0-2.19","5a9e9r3ws2","many_one","0","direct_first","1","el03rg27","0","20","1","1","3","1","","0","1","0","null","","","<img src = 'targets/2.png' width = '100%;'>","null","","","","","","","","","",""
"","html-keyboard-response","218","667011","0.0-10.0-3.19","5a9e9r3ws2","many_one","0","direct_first","1","el03rg27","0","20","1","1","3","1","","0","1","0","575","","","<img src = 'targets/mask.png' width = '100%;'>","75","neg","CS","CS","4","category4/CS4.png","","targets/2.png","indirect","1","19"
"","html-keyboard-response","219","668537","0.0-10.0-0.20","5a9e9r3ws2","many_one","0","direct_first","1","el03rg27","0","20","1","1","3","1","","0","1","0","null","","","<div style=""font-size:60px;"">+</div>","null","","","","","","","","","",""
"","html-keyboard-response","220","668629","0.0-10.0-1.20","5a9e9r3ws2","many_one","0","direct_first","1","el03rg27","0","20","1","1","3","1","","0","1","0","null","","","<img src = 'category2/CS6.png' width = '100%;'>","null","","","","","","","","","",""
"","html-keyboard-response","221","668895","0.0-10.0-2.20","5a9e9r3ws2","many_one","0","direct_first","1","el03rg27","0","20","1","1","3","1","","0","1","0","null","","","<img src = 'targets/43.png' width = '100%;'>","null","","","","","","","","","",""
"","html-keyboard-response","222","669255","0.0-10.0-3.20","5a9e9r3ws2","many_one","0","direct_first","1","el03rg27","0","20","1","1","3","1","","0","1","0","359","","","<img src = 'targets/mask.png' width = '100%;'>","68","pos","CS","CS","2","category2/CS6.png","","targets/43.png","indirect","0","20"
"","html-keyboard-response","223","670775","0.0-10.0-0.21","5a9e9r3ws2","many_one","0","direct_first","1","el03rg27","0","20","1","1","3","1","","0","1","0","null","","","<div style=""font-size:60px;"">+</div>","null","","","","","","","","","",""
"","html-keyboard-response","224","670868","0.0-10.0-1.21","5a9e9r3ws2","many_one","0","direct_first","1","el03rg27","0","20","1","1","3","1","","0","1","0","null","","","<img src = 'category1/CS2.png' width = '100%;'>","null","","","","","","","","","",""
"","html-keyboard-response","225","671134","0.0-10.0-2.21","5a9e9r3ws2","many_one","0","direct_first","1","el03rg27","0","20","1","1","3","1","","0","1","0","null","","","<img src = 'targets/47.png' width = '100%;'>","null","","","","","","","","","",""
"","html-keyboard-response","226","671398","0.0-10.0-3.21","5a9e9r3ws2","many_one","0","direct_first","1","el03rg27","0","20","1","1","3","1","","0","1","0","263","","","<img src = 'targets/mask.png' width = '100%;'>","75","pos","CS","CS","1","category1/CS2.png","","targets/47.png","indirect","1","21"
"","html-keyboard-response","227","672927","0.0-10.0-0.22","5a9e9r3ws2","many_one","0","direct_first","1","el03rg27","0","20","1","1","3","1","","0","1","0","null","","","<div style=""font-size:60px;"">+</div>","null","","","","","","","","","",""
"","html-keyboard-response","228","673021","0.0-10.0-1.22","5a9e9r3ws2","many_one","0","direct_first","1","el03rg27","0","20","1","1","3","1","","0","1","0","null","","","<img src = 'category2/CS1.png' width = '100%;'>","null","","","","","","","","","",""
"","html-keyboard-response","229","673301","0.0-10.0-2.22","5a9e9r3ws2","many_one","0","direct_first","1","el03rg27","0","20","1","1","3","1","","0","1","0","null","","","<img src = 'targets/14.png' width = '100%;'>","null","","","","","","","","","",""
"","html-keyboard-response","230","673449","0.0-10.0-3.22","5a9e9r3ws2","many_one","0","direct_first","1","el03rg27","0","20","1","1","3","1","","0","1","0","148","","","<img src = 'targets/mask.png' width = '100%;'>","68","pos","CS","CS","2","category2/CS1.png","","targets/14.png","indirect","0","22"
"","html-keyboard-response","231","674968","0.0-10.0-0.23","5a9e9r3ws2","many_one","0","direct_first","1","el03rg27","0","20","1","1","3","1","","0","1","0","null","","","<div style=""font-size:60px;"">+</div>","null","","","","","","","","","",""
"","html-keyboard-response","232","675063","0.0-10.0-1.23","5a9e9r3ws2","many_one","0","direct_first","1","el03rg27","0","20","1","1","3","1","","0","1","0","null","","","<img src = 'category1/CS6.png' width = '100%;'>","null","","","","","","","","","",""
"","html-keyboard-response","233","675332","0.0-10.0-2.23","5a9e9r3ws2","many_one","0","direct_first","1","el03rg27","0","20","1","1","3","1","","0","1","0","null","","","<img src = 'targets/3.png' width = '100%;'>","null","","","","","","","","","",""
"","html-keyboard-response","234","675511","0.0-10.0-3.23","5a9e9r3ws2","many_one","0","direct_first","1","el03rg27","0","20","1","1","3","1","","0","1","0","179","","","<img src = 'targets/mask.png' width = '100%;'>","68","pos","CS","CS","1","category1/CS6.png","","targets/3.png","indirect","0","23"
"","survey-html-form","235","693397","0.0-11.0","5a9e9r3ws2","many_one","0","direct_first","1","el03rg27","0","20","1","1","3","1","","0","1","0","17382","","{}","","","","","","","","","","","",""
"","html-keyboard-response","236","696410","0.0-12.0-0.0","5a9e9r3ws2","many_one","0","direct_first","1","el03rg27","0","20","1","1","3","1","","0","1","0","null","","","<div style=""font-size:60px;"">+</div>","null","","","","","","","","","",""
"","html-keyboard-response","237","696504","0.0-12.0-1.0","5a9e9r3ws2","many_one","0","direct_first","1","el03rg27","0","20","1","1","3","1","","0","1","0","null","","","<img src = 'category1/GS2.png' width = '100%;'>","null","","","","","","","","","",""
"","html-keyboard-response","238","696770","0.0-12.0-2.0","5a9e9r3ws2","many_one","0","direct_first","1","el03rg27","0","20","1","1","3","1","","0","1","0","null","","","<img src = 'targets/31.png' width = '100%;'>","null","","","","","","","","","",""
"","html-keyboard-response","239","699798","0.0-12.0-3.0","5a9e9r3ws2","many_one","0","direct_first","1","el03rg27","0","20","1","1","3","1","","0","1","0","3026","","","<img src = 'targets/mask.png' width = '100%;'>","75","pos","GS","GSnew","1","category1/GS2.png","","targets/31.png","indirect","1","24"
"","html-keyboard-response","240","701316","0.0-12.0-0.1","5a9e9r3ws2","many_one","0","direct_first","1","el03rg27","0","20","1","1","3","1","","0","1","0","null","","","<div style=""font-size:60px;"">+</div>","null","","","","","","","","","",""
"","html-keyboard-response","241","701410","0.0-12.0-1.1","5a9e9r3ws2","many_one","0","direct_first","1","el03rg27","0","20","1","1","3","1","","0","1","0","null","","","<img src = 'category1/CS3.png' width = '100%;'>","null","","","","","","","","","",""
"","html-keyboard-response","242","701675","0.0-12.0-2.1","5a9e9r3ws2","many_one","0","direct_first","1","el03rg27","0","20","1","1","3","1","","0","1","0","null","","","<img src = 'targets/27.png' width = '100%;'>","null","","","","","","","","","",""
"","html-keyboard-response","243","702707","0.0-12.0-3.1","5a9e9r3ws2","many_one","0","direct_first","1","el03rg27","0","20","1","1","3","1","","0","1","0","1031","","","<img src = 'targets/mask.png' width = '100%;'>","75","pos","GS","GSold","1","category1/CS3.png","","targets/27.png","indirect","1","25"
"","html-keyboard-response","244","704229","0.0-12.0-0.2","5a9e9r3ws2","many_one","0","direct_first","1","el03rg27","0","20","1","1","3","1","","0","1","0","null","","","<div style=""font-size:60px;"">+</div>","null","","","","","","","","","",""
"","html-keyboard-response","245","704323","0.0-12.0-1.2","5a9e9r3ws2","many_one","0","direct_first","1","el03rg27","0","20","1","1","3","1","","0","1","0","null","","","<img src = 'category3/GS2.png' width = '100%;'>","null","","","","","","","","","",""
"","html-keyboard-response","246","704601","0.0-12.0-2.2","5a9e9r3ws2","many_one","0","direct_first","1","el03rg27","0","20","1","1","3","1","","0","1","0","null","","","<img src = 'targets/26.png' width = '100%;'>","null","","","","","","","","","",""
"","html-keyboard-response","247","705596","0.0-12.0-3.2","5a9e9r3ws2","many_one","0","direct_first","1","el03rg27","0","20","1","1","3","1","","0","1","0","993","","","<img src = 'targets/mask.png' width = '100%;'>","75","neg","GS","GSnew","3","category3/GS2.png","","targets/26.png","indirect","1","26"
"","html-keyboard-response","248","707117","0.0-12.0-0.3","5a9e9r3ws2","many_one","0","direct_first","1","el03rg27","0","20","1","1","3","1","","0","1","0","null","","","<div style=""font-size:60px;"">+</div>","null","","","","","","","","","",""
"","html-keyboard-response","249","707210","0.0-12.0-1.3","5a9e9r3ws2","many_one","0","direct_first","1","el03rg27","0","20","1","1","3","1","","0","1","0","null","","","<img src = 'category2/CS8.png' width = '100%;'>","null","","","","","","","","","",""
"","html-keyboard-response","250","707464","0.0-12.0-2.3","5a9e9r3ws2","many_one","0","direct_first","1","el03rg27","0","20","1","1","3","1","","0","1","0","null","","","<img src = 'targets/9.png' width = '100%;'>","null","","","","","","","","","",""
"","html-keyboard-response","251","708223","0.0-12.0-3.3","5a9e9r3ws2","many_one","0","direct_first","1","el03rg27","0","20","1","1","3","1","","0","1","0","758","","","<img src = 'targets/mask.png' width = '100%;'>","68","pos","GS","GSold","2","category2/CS8.png","","targets/9.png","indirect","0","27"
"","html-keyboard-response","252","709749","0.0-12.0-0.4","5a9e9r3ws2","many_one","0","direct_first","1","el03rg27","0","20","1","1","3","1","","0","1","0","null","","","<div style=""font-size:60px;"">+</div>","null","","","","","","","","","",""
"","html-keyboard-response","253","709844","0.0-12.0-1.4","5a9e9r3ws2","many_one","0","direct_first","1","el03rg27","0","20","1","1","3","1","","0","1","0","null","","","<img src = 'category3/CS6.png' width = '100%;'>","null","","","","","","","","","",""
"","html-keyboard-response","254","710125","0.0-12.0-2.4","5a9e9r3ws2","many_one","0","direct_first","1","el03rg27","0","20","1","1","3","1","","0","1","0","null","","","<img src = 'targets/16.png' width = '100%;'>","null","","","","","","","","","",""
"","html-keyboard-response","255","713120","0.0-12.0-3.4","5a9e9r3ws2","many_one","0","direct_first","1","el03rg27","0","20","1","1","3","1","","0","1","0","2996","","","<img src = 'targets/mask.png' width = '100%;'>","68","neg","GS","GSold","3","category3/CS6.png","","targets/16.png","indirect","0","28"
"","html-keyboard-response","256","714631","0.0-12.0-0.5","5a9e9r3ws2","many_one","0","direct_first","1","el03rg27","0","20","1","1","3","1","","0","1","0","null","","","<div style=""font-size:60px;"">+</div>","null","","","","","","","","","",""
"","html-keyboard-response","257","714724","0.0-12.0-1.5","5a9e9r3ws2","many_one","0","direct_first","1","el03rg27","0","20","1","1","3","1","","0","1","0","null","","","<img src = 'category3/GS1.png' width = '100%;'>","null","","","","","","","","","",""
"","html-keyboard-response","258","714989","0.0-12.0-2.5","5a9e9r3ws2","many_one","0","direct_first","1","el03rg27","0","20","1","1","3","1","","0","1","0","null","","","<img src = 'targets/5.png' width = '100%;'>","null","","","","","","","","","",""
"","html-keyboard-response","259","715851","0.0-12.0-3.5","5a9e9r3ws2","many_one","0","direct_first","1","el03rg27","0","20","1","1","3","1","","0","1","0","861","","","<img src = 'targets/mask.png' width = '100%;'>","68","neg","GS","GSnew","3","category3/GS1.png","","targets/5.png","indirect","0","29"
"","html-keyboard-response","260","717378","0.0-12.0-0.6","5a9e9r3ws2","many_one","0","direct_first","1","el03rg27","0","20","1","1","3","1","","0","1","0","null","","","<div style=""font-size:60px;"">+</div>","null","","","","","","","","","",""
"","html-keyboard-response","261","717473","0.0-12.0-1.6","5a9e9r3ws2","many_one","0","direct_first","1","el03rg27","0","20","1","1","3","1","","0","1","0","null","","","<img src = 'category3/wang.png' width = '100%;'>","null","","","","","","","","","",""
"","html-keyboard-response","262","717750","0.0-12.0-2.6","5a9e9r3ws2","many_one","0","direct_first","1","el03rg27","0","20","1","1","3","1","","0","1","0","null","","","<img src = 'targets/1.png' width = '100%;'>","null","","","","","","","","","",""
"","html-keyboard-response","263","719374","0.0-12.0-3.6","5a9e9r3ws2","many_one","0","direct_first","1","el03rg27","0","20","1","1","3","1","","0","1","0","1622","","","<img src = 'targets/mask.png' width = '100%;'>","68","neg","GS","abstract","3","category3/wang.png","","targets/1.png","indirect","0","30"
"","html-keyboard-response","264","720896","0.0-12.0-0.7","5a9e9r3ws2","many_one","0","direct_first","1","el03rg27","0","20","1","1","3","1","","0","1","0","null","","","<div style=""font-size:60px;"">+</div>","null","","","","","","","","","",""
"","html-keyboard-response","265","720991","0.0-12.0-1.7","5a9e9r3ws2","many_one","0","direct_first","1","el03rg27","0","20","1","1","3","1","","0","1","0","null","","","<img src = 'category3/CS1.png' width = '100%;'>","null","","","","","","","","","",""
"","html-keyboard-response","266","721271","0.0-12.0-2.7","5a9e9r3ws2","many_one","0","direct_first","1","el03rg27","0","20","1","1","3","1","","0","1","0","null","","","<img src = 'targets/30.png' width = '100%;'>","null","","","","","","","","","",""
"","html-keyboard-response","267","722310","0.0-12.0-3.7","5a9e9r3ws2","many_one","0","direct_first","1","el03rg27","0","20","1","1","3","1","","0","1","0","1037","","","<img src = 'targets/mask.png' width = '100%;'>","75","neg","GS","GSold","3","category3/CS1.png","","targets/30.png","indirect","1","31"
"","html-keyboard-response","268","723823","0.0-12.0-0.8","5a9e9r3ws2","many_one","0","direct_first","1","el03rg27","0","20","1","1","3","1","","0","1","0","null","","","<div style=""font-size:60px;"">+</div>","null","","","","","","","","","",""
"","html-keyboard-response","269","723917","0.0-12.0-1.8","5a9e9r3ws2","many_one","0","direct_first","1","el03rg27","0","20","1","1","3","1","","0","1","0","null","","","<img src = 'category1/ma.png' width = '100%;'>","null","","","","","","","","","",""
"","html-keyboard-response","270","724197","0.0-12.0-2.8","5a9e9r3ws2","many_one","0","direct_first","1","el03rg27","0","20","1","1","3","1","","0","1","0","null","","","<img src = 'targets/38.png' width = '100%;'>","null","","","","","","","","","",""
"","html-keyboard-response","271","724869","0.0-12.0-3.8","5a9e9r3ws2","many_one","0","direct_first","1","el03rg27","0","20","1","1","3","1","","0","1","0","671","","","<img src = 'targets/mask.png' width = '100%;'>","75","pos","GS","abstract","1","category1/ma.png","","targets/38.png","indirect","1","32"
"","html-keyboard-response","272","726380","0.0-12.0-0.9","5a9e9r3ws2","many_one","0","direct_first","1","el03rg27","0","20","1","1","3","1","","0","1","0","null","","","<div style=""font-size:60px;"">+</div>","null","","","","","","","","","",""
"","html-keyboard-response","273","726473","0.0-12.0-1.9","5a9e9r3ws2","many_one","0","direct_first","1","el03rg27","0","20","1","1","3","1","","0","1","0","null","","","<img src = 'category1/GS3.png' width = '100%;'>","null","","","","","","","","","",""
"","html-keyboard-response","274","726753","0.0-12.0-2.9","5a9e9r3ws2","many_one","0","direct_first","1","el03rg27","0","20","1","1","3","1","","0","1","0","null","","","<img src = 'targets/6.png' width = '100%;'>","null","","","","","","","","","",""
"","html-keyboard-response","275","728769","0.0-12.0-3.9","5a9e9r3ws2","many_one","0","direct_first","1","el03rg27","0","20","1","1","3","1","","0","1","0","2015","","","<img src = 'targets/mask.png' width = '100%;'>","68","pos","GS","GSnew","1","category1/GS3.png","","targets/6.png","indirect","0","33"
"","html-keyboard-response","276","730285","0.0-12.0-0.10","5a9e9r3ws2","many_one","0","direct_first","1","el03rg27","0","20","1","1","3","1","","0","1","0","null","","","<div style=""font-size:60px;"">+</div>","null","","","","","","","","","",""
"","html-keyboard-response","277","730379","0.0-12.0-1.10","5a9e9r3ws2","many_one","0","direct_first","1","el03rg27","0","20","1","1","3","1","","0","1","0","null","","","<img src = 'category4/GS1.png' width = '100%;'>","null","","","","","","","","","",""
"","html-keyboard-response","278","730645","0.0-12.0-2.10","5a9e9r3ws2","many_one","0","direct_first","1","el03rg27","0","20","1","1","3","1","","0","1","0","null","","","<img src = 'targets/8.png' width = '100%;'>","null","","","","","","","","","",""
"","html-keyboard-response","279","731056","0.0-12.0-3.10","5a9e9r3ws2","many_one","0","direct_first","1","el03rg27","0","20","1","1","3","1","","0","1","0","410","","","<img src = 'targets/mask.png' width = '100%;'>","75","neg","GS","GSnew","4","category4/GS1.png","","targets/8.png","indirect","1","34"
"","html-keyboard-response","280","732570","0.0-12.0-0.11","5a9e9r3ws2","many_one","0","direct_first","1","el03rg27","0","20","1","1","3","1","","0","1","0","null","","","<div style=""font-size:60px;"">+</div>","null","","","","","","","","","",""
"","html-keyboard-response","281","732664","0.0-12.0-1.11","5a9e9r3ws2","many_one","0","direct_first","1","el03rg27","0","20","1","1","3","1","","0","1","0","null","","","<img src = 'category2/CS9.png' width = '100%;'>","null","","","","","","","","","",""
"","html-keyboard-response","282","732931","0.0-12.0-2.11","5a9e9r3ws2","many_one","0","direct_first","1","el03rg27","0","20","1","1","3","1","","0","1","0","null","","","<img src = 'targets/17.png' width = '100%;'>","null","","","","","","","","","",""
"","html-keyboard-response","283","733933","0.0-12.0-3.11","5a9e9r3ws2","many_one","0","direct_first","1","el03rg27","0","20","1","1","3","1","","0","1","0","1002","","","<img src = 'targets/mask.png' width = '100%;'>","75","pos","GS","GSold","2","category2/CS9.png","","targets/17.png","indirect","1","35"
"","html-keyboard-response","284","735441","0.0-12.0-0.12","5a9e9r3ws2","many_one","0","direct_first","1","el03rg27","0","20","1","1","3","1","","0","1","0","null","","","<div style=""font-size:60px;"">+</div>","null","","","","","","","","","",""
"","html-keyboard-response","285","735537","0.0-12.0-1.12","5a9e9r3ws2","many_one","0","direct_first","1","el03rg27","0","20","1","1","3","1","","0","1","0","null","","","<img src = 'category2/CS4.png' width = '100%;'>","null","","","","","","","","","",""
"","html-keyboard-response","286","735816","0.0-12.0-2.12","5a9e9r3ws2","many_one","0","direct_first","1","el03rg27","0","20","1","1","3","1","","0","1","0","null","","","<img src = 'targets/41.png' width = '100%;'>","null","","","","","","","","","",""
"","html-keyboard-response","287","736603","0.0-12.0-3.12","5a9e9r3ws2","many_one","0","direct_first","1","el03rg27","0","20","1","1","3","1","","0","1","0","787","","","<img src = 'targets/mask.png' width = '100%;'>","68","pos","GS","GSold","2","category2/CS4.png","","targets/41.png","indirect","0","36"
"","html-keyboard-response","288","738113","0.0-12.0-0.13","5a9e9r3ws2","many_one","0","direct_first","1","el03rg27","0","20","1","1","3","1","","0","1","0","null","","","<div style=""font-size:60px;"">+</div>","null","","","","","","","","","",""
"","html-keyboard-response","289","738205","0.0-12.0-1.13","5a9e9r3ws2","many_one","0","direct_first","1","el03rg27","0","20","1","1","3","1","","0","1","0","null","","","<img src = 'category2/GS1.png' width = '100%;'>","null","","","","","","","","","",""
"","html-keyboard-response","290","738471","0.0-12.0-2.13","5a9e9r3ws2","many_one","0","direct_first","1","el03rg27","0","20","1","1","3","1","","0","1","0","null","","","<img src = 'targets/36.png' width = '100%;'>","null","","","","","","","","","",""
"","html-keyboard-response","291","739277","0.0-12.0-3.13","5a9e9r3ws2","many_one","0","direct_first","1","el03rg27","0","20","1","1","3","1","","0","1","0","805","","","<img src = 'targets/mask.png' width = '100%;'>","68","pos","GS","GSnew","2","category2/GS1.png","","targets/36.png","indirect","0","37"
"","html-keyboard-response","292","740803","0.0-12.0-0.14","5a9e9r3ws2","many_one","0","direct_first","1","el03rg27","0","20","1","1","3","1","","0","1","0","null","","","<div style=""font-size:60px;"">+</div>","null","","","","","","","","","",""
"","html-keyboard-response","293","740897","0.0-12.0-1.14","5a9e9r3ws2","many_one","0","direct_first","1","el03rg27","0","20","1","1","3","1","","0","1","0","null","","","<img src = 'category1/CS9.png' width = '100%;'>","null","","","","","","","","","",""
"","html-keyboard-response","294","741162","0.0-12.0-2.14","5a9e9r3ws2","many_one","0","direct_first","1","el03rg27","0","20","1","1","3","1","","0","1","0","null","","","<img src = 'targets/15.png' width = '100%;'>","null","","","","","","","","","",""
"","html-keyboard-response","295","742907","0.0-12.0-3.14","5a9e9r3ws2","many_one","0","direct_first","1","el03rg27","0","20","1","1","3","1","","0","1","0","1744","","","<img src = 'targets/mask.png' width = '100%;'>","68","pos","GS","GSold","1","category1/CS9.png","","targets/15.png","indirect","0","38"
"","html-keyboard-response","296","744428","0.0-12.0-0.15","5a9e9r3ws2","many_one","0","direct_first","1","el03rg27","0","20","1","1","3","1","","0","1","0","null","","","<div style=""font-size:60px;"">+</div>","null","","","","","","","","","",""
"","html-keyboard-response","297","744522","0.0-12.0-1.15","5a9e9r3ws2","many_one","0","direct_first","1","el03rg27","0","20","1","1","3","1","","0","1","0","null","","","<img src = 'category2/men.png' width = '100%;'>","null","","","","","","","","","",""
"","html-keyboard-response","298","744803","0.0-12.0-2.15","5a9e9r3ws2","many_one","0","direct_first","1","el03rg27","0","20","1","1","3","1","","0","1","0","null","","","<img src = 'targets/18.png' width = '100%;'>","null","","","","","","","","","",""
"","html-keyboard-response","299","745533","0.0-12.0-3.15","5a9e9r3ws2","many_one","0","direct_first","1","el03rg27","0","20","1","1","3","1","","0","1","0","730","","","<img src = 'targets/mask.png' width = '100%;'>","68","pos","GS","abstract","2","category2/men.png","","targets/18.png","indirect","0","39"
"","html-keyboard-response","300","747060","0.0-12.0-0.16","5a9e9r3ws2","many_one","0","direct_first","1","el03rg27","0","20","1","1","3","1","","0","1","0","null","","","<div style=""font-size:60px;"">+</div>","null","","","","","","","","","",""
"","html-keyboard-response","301","747153","0.0-12.0-1.16","5a9e9r3ws2","many_one","0","direct_first","1","el03rg27","0","20","1","1","3","1","","0","1","0","null","","","<img src = 'category3/GS3.png' width = '100%;'>","null","","","","","","","","","",""
"","html-keyboard-response","302","747417","0.0-12.0-2.16","5a9e9r3ws2","many_one","0","direct_first","1","el03rg27","0","20","1","1","3","1","","0","1","0","null","","","<img src = 'targets/21.png' width = '100%;'>","null","","","","","","","","","",""
"","html-keyboard-response","303","748535","0.0-12.0-3.16","5a9e9r3ws2","many_one","0","direct_first","1","el03rg27","0","20","1","1","3","1","","0","1","0","1117","","","<img src = 'targets/mask.png' width = '100%;'>","68","neg","GS","GSnew","3","category3/GS3.png","","targets/21.png","indirect","0","40"
"","html-keyboard-response","304","750051","0.0-12.0-0.17","5a9e9r3ws2","many_one","0","direct_first","1","el03rg27","0","20","1","1","3","1","","0","1","0","null","","","<div style=""font-size:60px;"">+</div>","null","","","","","","","","","",""
"","html-keyboard-response","305","750146","0.0-12.0-1.17","5a9e9r3ws2","many_one","0","direct_first","1","el03rg27","0","20","1","1","3","1","","0","1","0","null","","","<img src = 'category2/GS2.png' width = '100%;'>","null","","","","","","","","","",""
"","html-keyboard-response","306","750424","0.0-12.0-2.17","5a9e9r3ws2","many_one","0","direct_first","1","el03rg27","0","20","1","1","3","1","","0","1","0","null","","","<img src = 'targets/35.png' width = '100%;'>","null","","","","","","","","","",""
"","html-keyboard-response","307","751458","0.0-12.0-3.17","5a9e9r3ws2","many_one","0","direct_first","1","el03rg27","0","20","1","1","3","1","","0","1","0","1034","","","<img src = 'targets/mask.png' width = '100%;'>","75","pos","GS","GSnew","2","category2/GS2.png","","targets/35.png","indirect","1","41"
"","html-keyboard-response","308","752977","0.0-12.0-0.18","5a9e9r3ws2","many_one","0","direct_first","1","el03rg27","0","20","1","1","3","1","","0","1","0","null","","","<div style=""font-size:60px;"">+</div>","null","","","","","","","","","",""
"","html-keyboard-response","309","753070","0.0-12.0-1.18","5a9e9r3ws2","many_one","0","direct_first","1","el03rg27","0","20","1","1","3","1","","0","1","0","null","","","<img src = 'category4/lin.png' width = '100%;'>","null","","","","","","","","","",""
"","html-keyboard-response","310","753321","0.0-12.0-2.18","5a9e9r3ws2","many_one","0","direct_first","1","el03rg27","0","20","1","1","3","1","","0","1","0","null","","","<img src = 'targets/24.png' width = '100%;'>","null","","","","","","","","","",""
"","html-keyboard-response","311","754231","0.0-12.0-3.18","5a9e9r3ws2","many_one","0","direct_first","1","el03rg27","0","20","1","1","3","1","","0","1","0","906","","","<img src = 'targets/mask.png' width = '100%;'>","75","neg","GS","abstract","4","category4/lin.png","","targets/24.png","indirect","1","42"
"","html-keyboard-response","312","755745","0.0-12.0-0.19","5a9e9r3ws2","many_one","0","direct_first","1","el03rg27","0","20","1","1","3","1","","0","1","0","null","","","<div style=""font-size:60px;"">+</div>","null","","","","","","","","","",""
"","html-keyboard-response","313","755837","0.0-12.0-1.19","5a9e9r3ws2","many_one","0","direct_first","1","el03rg27","0","20","1","1","3","1","","0","1","0","null","","","<img src = 'category4/GS3.png' width = '100%;'>","null","","","","","","","","","",""
"","html-keyboard-response","314","756104","0.0-12.0-2.19","5a9e9r3ws2","many_one","0","direct_first","1","el03rg27","0","20","1","1","3","1","","0","1","0","null","","","<img src = 'targets/13.png' width = '100%;'>","null","","","","","","","","","",""
"","html-keyboard-response","315","756813","0.0-12.0-3.19","5a9e9r3ws2","many_one","0","direct_first","1","el03rg27","0","20","1","1","3","1","","0","1","0","708","","","<img src = 'targets/mask.png' width = '100%;'>","75","neg","GS","GSnew","4","category4/GS3.png","","targets/13.png","indirect","1","43"
"","html-keyboard-response","316","758333","0.0-12.0-0.20","5a9e9r3ws2","many_one","0","direct_first","1","el03rg27","0","20","1","1","3","1","","0","1","0","null","","","<div style=""font-size:60px;"">+</div>","null","","","","","","","","","",""
"","html-keyboard-response","317","758427","0.0-12.0-1.20","5a9e9r3ws2","many_one","0","direct_first","1","el03rg27","0","20","1","1","3","1","","0","1","0","null","","","<img src = 'category3/CS5.png' width = '100%;'>","null","","","","","","","","","",""
"","html-keyboard-response","318","758705","0.0-12.0-2.20","5a9e9r3ws2","many_one","0","direct_first","1","el03rg27","0","20","1","1","3","1","","0","1","0","null","","","<img src = 'targets/20.png' width = '100%;'>","null","","","","","","","","","",""
"","html-keyboard-response","319","759138","0.0-12.0-3.20","5a9e9r3ws2","many_one","0","direct_first","1","el03rg27","0","20","1","1","3","1","","0","1","0","431","","","<img src = 'targets/mask.png' width = '100%;'>","68","neg","GS","GSold","3","category3/CS5.png","","targets/20.png","indirect","0","44"
"","html-keyboard-response","320","760648","0.0-12.0-0.21","5a9e9r3ws2","many_one","0","direct_first","1","el03rg27","0","20","1","1","3","1","","0","1","0","null","","","<div style=""font-size:60px;"">+</div>","null","","","","","","","","","",""
"","html-keyboard-response","321","760743","0.0-12.0-1.21","5a9e9r3ws2","many_one","0","direct_first","1","el03rg27","0","20","1","1","3","1","","0","1","0","null","","","<img src = 'category2/GS3.png' width = '100%;'>","null","","","","","","","","","",""
"","html-keyboard-response","322","761022","0.0-12.0-2.21","5a9e9r3ws2","many_one","0","direct_first","1","el03rg27","0","20","1","1","3","1","","0","1","0","null","","","<img src = 'targets/45.png' width = '100%;'>","null","","","","","","","","","",""
"","html-keyboard-response","323","764066","0.0-12.0-3.21","5a9e9r3ws2","many_one","0","direct_first","1","el03rg27","0","20","1","1","3","1","","0","1","0","3043","","","<img src = 'targets/mask.png' width = '100%;'>","75","pos","GS","GSnew","2","category2/GS3.png","","targets/45.png","indirect","1","45"
"","html-keyboard-response","324","765595","0.0-12.0-0.22","5a9e9r3ws2","many_one","0","direct_first","1","el03rg27","0","20","1","1","3","1","","0","1","0","null","","","<div style=""font-size:60px;"">+</div>","null","","","","","","","","","",""
"","html-keyboard-response","325","765688","0.0-12.0-1.22","5a9e9r3ws2","many_one","0","direct_first","1","el03rg27","0","20","1","1","3","1","","0","1","0","null","","","<img src = 'category4/GS2.png' width = '100%;'>","null","","","","","","","","","",""
"","html-keyboard-response","326","765955","0.0-12.0-2.22","5a9e9r3ws2","many_one","0","direct_first","1","el03rg27","0","20","1","1","3","1","","0","1","0","null","","","<img src = 'targets/19.png' width = '100%;'>","null","","","","","","","","","",""
"","html-keyboard-response","327","767976","0.0-12.0-3.22","5a9e9r3ws2","many_one","0","direct_first","1","el03rg27","0","20","1","1","3","1","","0","1","0","2021","","","<img src = 'targets/mask.png' width = '100%;'>","68","neg","GS","GSnew","4","category4/GS2.png","","targets/19.png","indirect","0","46"
"","html-keyboard-response","328","769496","0.0-12.0-0.23","5a9e9r3ws2","many_one","0","direct_first","1","el03rg27","0","20","1","1","3","1","","0","1","0","null","","","<div style=""font-size:60px;"">+</div>","null","","","","","","","","","",""
"","html-keyboard-response","329","769588","0.0-12.0-1.23","5a9e9r3ws2","many_one","0","direct_first","1","el03rg27","0","20","1","1","3","1","","0","1","0","null","","","<img src = 'category1/GS1.png' width = '100%;'>","null","","","","","","","","","",""
"","html-keyboard-response","330","769869","0.0-12.0-2.23","5a9e9r3ws2","many_one","0","direct_first","1","el03rg27","0","20","1","1","3","1","","0","1","0","null","","","<img src = 'targets/42.png' width = '100%;'>","null","","","","","","","","","",""
"","html-keyboard-response","331","770406","0.0-12.0-3.23","5a9e9r3ws2","many_one","0","direct_first","1","el03rg27","0","20","1","1","3","1","","0","1","0","537","","","<img src = 'targets/mask.png' width = '100%;'>","68","pos","GS","GSnew","1","category1/GS1.png","","targets/42.png","indirect","0","47"
"","survey-html-form","332","775068","0.0-13.0","5a9e9r3ws2","many_one","0","direct_first","1","el03rg27","0","20","1","1","3","1","","0","1","0","4149","","{}","","","","","","","","","","","",""
