"success","trial_type","trial_index","time_elapsed","internal_node_id","subject","condition","condition_code","measure","measure_code","codeword","gender","age","education","chinese","fach","handedness","comment","hinschauen","ablenkung","gewissenhaft","rt","url","responses","stimulus","key_press","val","type","type_specific","category","cs_selected","response","target","task","indirect","nr_pres"
"true","fullscreen","0","10128","0.0-0.0","wv2933l494","one_one","1","direct_first","1","ER03WE05","0","26","1","1","3","1","","0","1","0","","","","","","","","","","","","","","",""
"","external-html","1","35501","0.0-1.0","wv2933l494","one_one","1","direct_first","1","ER03WE05","0","26","1","1","3","1","","0","1","0","25274.49500000148","text/information.html","","","","","","","","","","","","",""
"","external-html","2","42664","0.0-2.0","wv2933l494","one_one","1","direct_first","1","ER03WE05","0","26","1","1","3","1","","0","1","0","7076.854999999341","text/consent.html","","","","","","","","","","","","",""
"","survey-html-form","3","82406","0.0-3.0","wv2933l494","one_one","1","direct_first","1","ER03WE05","0","26","1","1","3","1","","0","1","0","39735.47999999937","","{""codeword_enter"":""ER03WE05""}","","","","","","","","","","","",""
"","survey-html-form","4","104323","0.0-4.0","wv2933l494","one_one","1","direct_first","1","ER03WE05","0","26","1","1","3","1","","0","1","0","21909.449999999197","","{""age"":""26"",""education"":""1"",""subject"":""3"",""gender"":""0"",""handedness"":""1"",""chinese"":""1""}","","","","","","","","","","","",""
"","survey-html-form","5","112182","0.0-5.0","wv2933l494","one_one","1","direct_first","1","ER03WE05","0","26","1","1","3","1","","0","1","0","7854.409999999916","","{}","","","","","","","","","","","",""
"","html-keyboard-response","6","116231","0.0-6.0-0.0-0.0","wv2933l494","one_one","1","direct_first","1","ER03WE05","0","26","1","1","3","1","","0","1","0","null","","","<div class = 'row'><div class = 'column'><img src = 'usneg/9340.bmp' width = '100%;'></div><div class = 'column'><img src = 'category2/CS7.png' width = '70%;'></div></div>","null","neg","CS","CS","2","category2/CS7.png","","","","",""
"","html-keyboard-response","7","118762","0.0-6.0-0.0-0.1","wv2933l494","one_one","1","direct_first","1","ER03WE05","0","26","1","1","3","1","","0","1","0","null","","","<div class = 'row'><div class = 'column'><img src = 'uspos/8080.bmp' width = '100%;'></div><div class = 'column'><img src = 'category1/CS9.png' width = '70%;'></div></div>","null","pos","CS","CS","1","category1/CS9.png","","","","",""
"","html-keyboard-response","8","121295","0.0-6.0-0.0-0.2","wv2933l494","one_one","1","direct_first","1","ER03WE05","0","26","1","1","3","1","","0","1","0","null","","","<div class = 'row'><div class = 'column'><img src = 'category4/CS8.png' width = '70%;'></div><div class = 'column'><img src = 'uspos/5831.bmp' width = '100%;'></div></div>","null","pos","CS","CS","4","category4/CS8.png","","","","",""
"","html-keyboard-response","9","123824","0.0-6.0-0.0-0.3","wv2933l494","one_one","1","direct_first","1","ER03WE05","0","26","1","1","3","1","","0","1","0","null","","","<div class = 'row'><div class = 'column'><img src = 'usneg/9181.bmp' width = '100%;'></div><div class = 'column'><img src = 'category3/CS3.png' width = '70%;'></div></div>","null","neg","CS","CS","3","category3/CS3.png","","","","",""
"","html-keyboard-response","10","126355","0.0-6.0-0.0-0.4","wv2933l494","one_one","1","direct_first","1","ER03WE05","0","26","1","1","3","1","","0","1","0","null","","","<div class = 'row'><div class = 'column'><img src = 'category2/CS7.png' width = '70%;'></div><div class = 'column'><img src = 'usneg/9340.bmp' width = '100%;'></div></div>","null","neg","CS","CS","2","category2/CS7.png","","","","",""
"","html-keyboard-response","11","128888","0.0-6.0-0.0-0.5","wv2933l494","one_one","1","direct_first","1","ER03WE05","0","26","1","1","3","1","","0","1","0","null","","","<div class = 'row'><div class = 'column'><img src = 'category4/CS8.png' width = '70%;'></div><div class = 'column'><img src = 'uspos/5831.bmp' width = '100%;'></div></div>","null","pos","CS","CS","4","category4/CS8.png","","","","",""
"","html-keyboard-response","12","131417","0.0-6.0-0.0-0.6","wv2933l494","one_one","1","direct_first","1","ER03WE05","0","26","1","1","3","1","","0","1","0","null","","","<div class = 'row'><div class = 'column'><img src = 'category3/CS3.png' width = '70%;'></div><div class = 'column'><img src = 'usneg/9181.bmp' width = '100%;'></div></div>","null","neg","CS","CS","3","category3/CS3.png","","","","",""
"","html-keyboard-response","13","133951","0.0-6.0-0.0-0.7","wv2933l494","one_one","1","direct_first","1","ER03WE05","0","26","1","1","3","1","","0","1","0","null","","","<div class = 'row'><div class = 'column'><img src = 'category1/CS9.png' width = '70%;'></div><div class = 'column'><img src = 'uspos/8080.bmp' width = '100%;'></div></div>","null","pos","CS","CS","1","category1/CS9.png","","","","",""
"","html-keyboard-response","14","136480","0.0-6.0-0.0-0.8","wv2933l494","one_one","1","direct_first","1","ER03WE05","0","26","1","1","3","1","","0","1","0","null","","","<div class = 'row'><div class = 'column'><img src = 'usneg/9340.bmp' width = '100%;'></div><div class = 'column'><img src = 'category2/CS7.png' width = '70%;'></div></div>","null","neg","CS","CS","2","category2/CS7.png","","","","",""
"","html-keyboard-response","15","139012","0.0-6.0-0.0-0.9","wv2933l494","one_one","1","direct_first","1","ER03WE05","0","26","1","1","3","1","","0","1","0","null","","","<div class = 'row'><div class = 'column'><img src = 'uspos/8080.bmp' width = '100%;'></div><div class = 'column'><img src = 'category1/CS9.png' width = '70%;'></div></div>","null","pos","CS","CS","1","category1/CS9.png","","","","",""
"","html-keyboard-response","16","141545","0.0-6.0-0.0-0.10","wv2933l494","one_one","1","direct_first","1","ER03WE05","0","26","1","1","3","1","","0","1","0","null","","","<div class = 'row'><div class = 'column'><img src = 'category3/CS3.png' width = '70%;'></div><div class = 'column'><img src = 'usneg/9181.bmp' width = '100%;'></div></div>","null","neg","CS","CS","3","category3/CS3.png","","","","",""
"","html-keyboard-response","17","144075","0.0-6.0-0.0-0.11","wv2933l494","one_one","1","direct_first","1","ER03WE05","0","26","1","1","3","1","","0","1","0","null","","","<div class = 'row'><div class = 'column'><img src = 'category2/CS7.png' width = '70%;'></div><div class = 'column'><img src = 'usneg/9340.bmp' width = '100%;'></div></div>","null","neg","CS","CS","2","category2/CS7.png","","","","",""
"","html-keyboard-response","18","146606","0.0-6.0-0.0-0.12","wv2933l494","one_one","1","direct_first","1","ER03WE05","0","26","1","1","3","1","","0","1","0","null","","","<div class = 'row'><div class = 'column'><img src = 'usneg/9181.bmp' width = '100%;'></div><div class = 'column'><img src = 'category3/CS3.png' width = '70%;'></div></div>","null","neg","CS","CS","3","category3/CS3.png","","","","",""
"","html-keyboard-response","19","149138","0.0-6.0-0.0-0.13","wv2933l494","one_one","1","direct_first","1","ER03WE05","0","26","1","1","3","1","","0","1","0","null","","","<div class = 'row'><div class = 'column'><img src = 'uspos/5831.bmp' width = '100%;'></div><div class = 'column'><img src = 'category4/CS8.png' width = '70%;'></div></div>","null","pos","CS","CS","4","category4/CS8.png","","","","",""
"","html-keyboard-response","20","151669","0.0-6.0-0.0-0.14","wv2933l494","one_one","1","direct_first","1","ER03WE05","0","26","1","1","3","1","","0","1","0","null","","","<div class = 'row'><div class = 'column'><img src = 'category1/CS9.png' width = '70%;'></div><div class = 'column'><img src = 'uspos/8080.bmp' width = '100%;'></div></div>","null","pos","CS","CS","1","category1/CS9.png","","","","",""
"","html-keyboard-response","21","154204","0.0-6.0-0.0-0.15","wv2933l494","one_one","1","direct_first","1","ER03WE05","0","26","1","1","3","1","","0","1","0","null","","","<div class = 'row'><div class = 'column'><img src = 'category4/CS8.png' width = '70%;'></div><div class = 'column'><img src = 'uspos/5831.bmp' width = '100%;'></div></div>","null","pos","CS","CS","4","category4/CS8.png","","","","",""
"","html-keyboard-response","22","156732","0.0-6.0-0.0-0.16","wv2933l494","one_one","1","direct_first","1","ER03WE05","0","26","1","1","3","1","","0","1","0","null","","","<div class = 'row'><div class = 'column'><img src = 'uspos/8080.bmp' width = '100%;'></div><div class = 'column'><img src = 'category1/CS9.png' width = '70%;'></div></div>","null","pos","CS","CS","1","category1/CS9.png","","","","",""
"","html-keyboard-response","23","159263","0.0-6.0-0.0-0.17","wv2933l494","one_one","1","direct_first","1","ER03WE05","0","26","1","1","3","1","","0","1","0","null","","","<div class = 'row'><div class = 'column'><img src = 'usneg/9181.bmp' width = '100%;'></div><div class = 'column'><img src = 'category3/CS3.png' width = '70%;'></div></div>","null","neg","CS","CS","3","category3/CS3.png","","","","",""
"","html-keyboard-response","24","161795","0.0-6.0-0.0-0.18","wv2933l494","one_one","1","direct_first","1","ER03WE05","0","26","1","1","3","1","","0","1","0","null","","","<div class = 'row'><div class = 'column'><img src = 'category4/CS8.png' width = '70%;'></div><div class = 'column'><img src = 'uspos/5831.bmp' width = '100%;'></div></div>","null","pos","CS","CS","4","category4/CS8.png","","","","",""
"","html-keyboard-response","25","164325","0.0-6.0-0.0-0.19","wv2933l494","one_one","1","direct_first","1","ER03WE05","0","26","1","1","3","1","","0","1","0","null","","","<div class = 'row'><div class = 'column'><img src = 'usneg/9340.bmp' width = '100%;'></div><div class = 'column'><img src = 'category2/CS7.png' width = '70%;'></div></div>","null","neg","CS","CS","2","category2/CS7.png","","","","",""
"","survey-html-form","26","167154","0.0-6.0-1.0","wv2933l494","one_one","1","direct_first","1","ER03WE05","0","26","1","1","3","1","","0","1","0","2309.894999998505","","{}","","","","","","","","","","","",""
"","html-keyboard-response","27","171173","0.0-6.0-2.0-0.0","wv2933l494","one_one","1","direct_first","1","ER03WE05","0","26","1","1","3","1","","0","1","0","null","","","<div class = 'row'><div class = 'column'><img src = 'category4/CS8.png' width = '70%;'></div><div class = 'column'><img src = 'uspos/5831.bmp' width = '100%;'></div></div>","null","pos","CS","CS","4","category4/CS8.png","","","","",""
"","html-keyboard-response","28","173702","0.0-6.0-2.0-0.1","wv2933l494","one_one","1","direct_first","1","ER03WE05","0","26","1","1","3","1","","0","1","0","null","","","<div class = 'row'><div class = 'column'><img src = 'category3/CS3.png' width = '70%;'></div><div class = 'column'><img src = 'usneg/9181.bmp' width = '100%;'></div></div>","null","neg","CS","CS","3","category3/CS3.png","","","","",""
"","html-keyboard-response","29","176235","0.0-6.0-2.0-0.2","wv2933l494","one_one","1","direct_first","1","ER03WE05","0","26","1","1","3","1","","0","1","0","null","","","<div class = 'row'><div class = 'column'><img src = 'category1/CS9.png' width = '70%;'></div><div class = 'column'><img src = 'uspos/8080.bmp' width = '100%;'></div></div>","null","pos","CS","CS","1","category1/CS9.png","","","","",""
"","html-keyboard-response","30","178765","0.0-6.0-2.0-0.3","wv2933l494","one_one","1","direct_first","1","ER03WE05","0","26","1","1","3","1","","0","1","0","null","","","<div class = 'row'><div class = 'column'><img src = 'usneg/9181.bmp' width = '100%;'></div><div class = 'column'><img src = 'category3/CS3.png' width = '70%;'></div></div>","null","neg","CS","CS","3","category3/CS3.png","","","","",""
"","html-keyboard-response","31","181296","0.0-6.0-2.0-0.4","wv2933l494","one_one","1","direct_first","1","ER03WE05","0","26","1","1","3","1","","0","1","0","null","","","<div class = 'row'><div class = 'column'><img src = 'category4/CS8.png' width = '70%;'></div><div class = 'column'><img src = 'uspos/5831.bmp' width = '100%;'></div></div>","null","pos","CS","CS","4","category4/CS8.png","","","","",""
"","html-keyboard-response","32","183830","0.0-6.0-2.0-0.5","wv2933l494","one_one","1","direct_first","1","ER03WE05","0","26","1","1","3","1","","0","1","0","null","","","<div class = 'row'><div class = 'column'><img src = 'uspos/8080.bmp' width = '100%;'></div><div class = 'column'><img src = 'category1/CS9.png' width = '70%;'></div></div>","null","pos","CS","CS","1","category1/CS9.png","","","","",""
"","html-keyboard-response","33","186359","0.0-6.0-2.0-0.6","wv2933l494","one_one","1","direct_first","1","ER03WE05","0","26","1","1","3","1","","0","1","0","null","","","<div class = 'row'><div class = 'column'><img src = 'category3/CS3.png' width = '70%;'></div><div class = 'column'><img src = 'usneg/9181.bmp' width = '100%;'></div></div>","null","neg","CS","CS","3","category3/CS3.png","","","","",""
"","html-keyboard-response","34","188890","0.0-6.0-2.0-0.7","wv2933l494","one_one","1","direct_first","1","ER03WE05","0","26","1","1","3","1","","0","1","0","null","","","<div class = 'row'><div class = 'column'><img src = 'category4/CS8.png' width = '70%;'></div><div class = 'column'><img src = 'uspos/5831.bmp' width = '100%;'></div></div>","null","pos","CS","CS","4","category4/CS8.png","","","","",""
"","html-keyboard-response","35","191422","0.0-6.0-2.0-0.8","wv2933l494","one_one","1","direct_first","1","ER03WE05","0","26","1","1","3","1","","0","1","0","null","","","<div class = 'row'><div class = 'column'><img src = 'usneg/9340.bmp' width = '100%;'></div><div class = 'column'><img src = 'category2/CS7.png' width = '70%;'></div></div>","null","neg","CS","CS","2","category2/CS7.png","","","","",""
"","html-keyboard-response","36","193953","0.0-6.0-2.0-0.9","wv2933l494","one_one","1","direct_first","1","ER03WE05","0","26","1","1","3","1","","0","1","0","null","","","<div class = 'row'><div class = 'column'><img src = 'category3/CS3.png' width = '70%;'></div><div class = 'column'><img src = 'usneg/9181.bmp' width = '100%;'></div></div>","null","neg","CS","CS","3","category3/CS3.png","","","","",""
"","html-keyboard-response","37","196484","0.0-6.0-2.0-0.10","wv2933l494","one_one","1","direct_first","1","ER03WE05","0","26","1","1","3","1","","0","1","0","null","","","<div class = 'row'><div class = 'column'><img src = 'category1/CS9.png' width = '70%;'></div><div class = 'column'><img src = 'uspos/8080.bmp' width = '100%;'></div></div>","null","pos","CS","CS","1","category1/CS9.png","","","","",""
"","html-keyboard-response","38","199017","0.0-6.0-2.0-0.11","wv2933l494","one_one","1","direct_first","1","ER03WE05","0","26","1","1","3","1","","0","1","0","null","","","<div class = 'row'><div class = 'column'><img src = 'category2/CS7.png' width = '70%;'></div><div class = 'column'><img src = 'usneg/9340.bmp' width = '100%;'></div></div>","null","neg","CS","CS","2","category2/CS7.png","","","","",""
"","html-keyboard-response","39","201547","0.0-6.0-2.0-0.12","wv2933l494","one_one","1","direct_first","1","ER03WE05","0","26","1","1","3","1","","0","1","0","null","","","<div class = 'row'><div class = 'column'><img src = 'usneg/9181.bmp' width = '100%;'></div><div class = 'column'><img src = 'category3/CS3.png' width = '70%;'></div></div>","null","neg","CS","CS","3","category3/CS3.png","","","","",""
"","html-keyboard-response","40","204079","0.0-6.0-2.0-0.13","wv2933l494","one_one","1","direct_first","1","ER03WE05","0","26","1","1","3","1","","0","1","0","null","","","<div class = 'row'><div class = 'column'><img src = 'uspos/5831.bmp' width = '100%;'></div><div class = 'column'><img src = 'category4/CS8.png' width = '70%;'></div></div>","null","pos","CS","CS","4","category4/CS8.png","","","","",""
"","html-keyboard-response","41","206615","0.0-6.0-2.0-0.14","wv2933l494","one_one","1","direct_first","1","ER03WE05","0","26","1","1","3","1","","0","1","0","null","","","<div class = 'row'><div class = 'column'><img src = 'usneg/9340.bmp' width = '100%;'></div><div class = 'column'><img src = 'category2/CS7.png' width = '70%;'></div></div>","null","neg","CS","CS","2","category2/CS7.png","","","","",""
"","html-keyboard-response","42","209142","0.0-6.0-2.0-0.15","wv2933l494","one_one","1","direct_first","1","ER03WE05","0","26","1","1","3","1","","0","1","0","null","","","<div class = 'row'><div class = 'column'><img src = 'uspos/8080.bmp' width = '100%;'></div><div class = 'column'><img src = 'category1/CS9.png' width = '70%;'></div></div>","null","pos","CS","CS","1","category1/CS9.png","","","","",""
"","html-keyboard-response","43","211675","0.0-6.0-2.0-0.16","wv2933l494","one_one","1","direct_first","1","ER03WE05","0","26","1","1","3","1","","0","1","0","null","","","<div class = 'row'><div class = 'column'><img src = 'uspos/5831.bmp' width = '100%;'></div><div class = 'column'><img src = 'category4/CS8.png' width = '70%;'></div></div>","null","pos","CS","CS","4","category4/CS8.png","","","","",""
"","html-keyboard-response","44","214205","0.0-6.0-2.0-0.17","wv2933l494","one_one","1","direct_first","1","ER03WE05","0","26","1","1","3","1","","0","1","0","null","","","<div class = 'row'><div class = 'column'><img src = 'category2/CS7.png' width = '70%;'></div><div class = 'column'><img src = 'usneg/9340.bmp' width = '100%;'></div></div>","null","neg","CS","CS","2","category2/CS7.png","","","","",""
"","html-keyboard-response","45","216735","0.0-6.0-2.0-0.18","wv2933l494","one_one","1","direct_first","1","ER03WE05","0","26","1","1","3","1","","0","1","0","null","","","<div class = 'row'><div class = 'column'><img src = 'uspos/8080.bmp' width = '100%;'></div><div class = 'column'><img src = 'category1/CS9.png' width = '70%;'></div></div>","null","pos","CS","CS","1","category1/CS9.png","","","","",""
"","html-keyboard-response","46","219254","0.0-6.0-2.0-0.19","wv2933l494","one_one","1","direct_first","1","ER03WE05","0","26","1","1","3","1","","0","1","0","null","","","<div class = 'row'><div class = 'column'><img src = 'usneg/9340.bmp' width = '100%;'></div><div class = 'column'><img src = 'category2/CS7.png' width = '70%;'></div></div>","null","neg","CS","CS","2","category2/CS7.png","","","","",""
"","survey-html-form","47","221345","0.0-6.0-3.0","wv2933l494","one_one","1","direct_first","1","ER03WE05","0","26","1","1","3","1","","0","1","0","1573.2250000000931","","{}","","","","","","","","","","","",""
"","html-keyboard-response","48","225364","0.0-6.0-4.0-0.0","wv2933l494","one_one","1","direct_first","1","ER03WE05","0","26","1","1","3","1","","0","1","0","null","","","<div class = 'row'><div class = 'column'><img src = 'category3/CS3.png' width = '70%;'></div><div class = 'column'><img src = 'usneg/9181.bmp' width = '100%;'></div></div>","null","neg","CS","CS","3","category3/CS3.png","","","","",""
"","html-keyboard-response","49","227894","0.0-6.0-4.0-0.1","wv2933l494","one_one","1","direct_first","1","ER03WE05","0","26","1","1","3","1","","0","1","0","null","","","<div class = 'row'><div class = 'column'><img src = 'uspos/8080.bmp' width = '100%;'></div><div class = 'column'><img src = 'category1/CS9.png' width = '70%;'></div></div>","null","pos","CS","CS","1","category1/CS9.png","","","","",""
"","html-keyboard-response","50","230426","0.0-6.0-4.0-0.2","wv2933l494","one_one","1","direct_first","1","ER03WE05","0","26","1","1","3","1","","0","1","0","null","","","<div class = 'row'><div class = 'column'><img src = 'usneg/9181.bmp' width = '100%;'></div><div class = 'column'><img src = 'category3/CS3.png' width = '70%;'></div></div>","null","neg","CS","CS","3","category3/CS3.png","","","","",""
"","html-keyboard-response","51","232957","0.0-6.0-4.0-0.3","wv2933l494","one_one","1","direct_first","1","ER03WE05","0","26","1","1","3","1","","0","1","0","null","","","<div class = 'row'><div class = 'column'><img src = 'category4/CS8.png' width = '70%;'></div><div class = 'column'><img src = 'uspos/5831.bmp' width = '100%;'></div></div>","null","pos","CS","CS","4","category4/CS8.png","","","","",""
"","html-keyboard-response","52","235487","0.0-6.0-4.0-0.4","wv2933l494","one_one","1","direct_first","1","ER03WE05","0","26","1","1","3","1","","0","1","0","null","","","<div class = 'row'><div class = 'column'><img src = 'usneg/9340.bmp' width = '100%;'></div><div class = 'column'><img src = 'category2/CS7.png' width = '70%;'></div></div>","null","neg","CS","CS","2","category2/CS7.png","","","","",""
"","html-keyboard-response","53","238019","0.0-6.0-4.0-0.5","wv2933l494","one_one","1","direct_first","1","ER03WE05","0","26","1","1","3","1","","0","1","0","null","","","<div class = 'row'><div class = 'column'><img src = 'category4/CS8.png' width = '70%;'></div><div class = 'column'><img src = 'uspos/5831.bmp' width = '100%;'></div></div>","null","pos","CS","CS","4","category4/CS8.png","","","","",""
"","html-keyboard-response","54","240550","0.0-6.0-4.0-0.6","wv2933l494","one_one","1","direct_first","1","ER03WE05","0","26","1","1","3","1","","0","1","0","null","","","<div class = 'row'><div class = 'column'><img src = 'category3/CS3.png' width = '70%;'></div><div class = 'column'><img src = 'usneg/9181.bmp' width = '100%;'></div></div>","null","neg","CS","CS","3","category3/CS3.png","","","","",""
"","html-keyboard-response","55","243081","0.0-6.0-4.0-0.7","wv2933l494","one_one","1","direct_first","1","ER03WE05","0","26","1","1","3","1","","0","1","0","null","","","<div class = 'row'><div class = 'column'><img src = 'uspos/8080.bmp' width = '100%;'></div><div class = 'column'><img src = 'category1/CS9.png' width = '70%;'></div></div>","null","pos","CS","CS","1","category1/CS9.png","","","","",""
"","html-keyboard-response","56","245613","0.0-6.0-4.0-0.8","wv2933l494","one_one","1","direct_first","1","ER03WE05","0","26","1","1","3","1","","0","1","0","null","","","<div class = 'row'><div class = 'column'><img src = 'usneg/9181.bmp' width = '100%;'></div><div class = 'column'><img src = 'category3/CS3.png' width = '70%;'></div></div>","null","neg","CS","CS","3","category3/CS3.png","","","","",""
"","html-keyboard-response","57","248145","0.0-6.0-4.0-0.9","wv2933l494","one_one","1","direct_first","1","ER03WE05","0","26","1","1","3","1","","0","1","0","null","","","<div class = 'row'><div class = 'column'><img src = 'category2/CS7.png' width = '70%;'></div><div class = 'column'><img src = 'usneg/9340.bmp' width = '100%;'></div></div>","null","neg","CS","CS","2","category2/CS7.png","","","","",""
"","html-keyboard-response","58","250676","0.0-6.0-4.0-0.10","wv2933l494","one_one","1","direct_first","1","ER03WE05","0","26","1","1","3","1","","0","1","0","null","","","<div class = 'row'><div class = 'column'><img src = 'category1/CS9.png' width = '70%;'></div><div class = 'column'><img src = 'uspos/8080.bmp' width = '100%;'></div></div>","null","pos","CS","CS","1","category1/CS9.png","","","","",""
"","html-keyboard-response","59","253193","0.0-6.0-4.0-0.11","wv2933l494","one_one","1","direct_first","1","ER03WE05","0","26","1","1","3","1","","0","1","0","null","","","<div class = 'row'><div class = 'column'><img src = 'uspos/5831.bmp' width = '100%;'></div><div class = 'column'><img src = 'category4/CS8.png' width = '70%;'></div></div>","null","pos","CS","CS","4","category4/CS8.png","","","","",""
"","html-keyboard-response","60","255723","0.0-6.0-4.0-0.12","wv2933l494","one_one","1","direct_first","1","ER03WE05","0","26","1","1","3","1","","0","1","0","null","","","<div class = 'row'><div class = 'column'><img src = 'category2/CS7.png' width = '70%;'></div><div class = 'column'><img src = 'usneg/9340.bmp' width = '100%;'></div></div>","null","neg","CS","CS","2","category2/CS7.png","","","","",""
"","html-keyboard-response","61","258254","0.0-6.0-4.0-0.13","wv2933l494","one_one","1","direct_first","1","ER03WE05","0","26","1","1","3","1","","0","1","0","null","","","<div class = 'row'><div class = 'column'><img src = 'uspos/8080.bmp' width = '100%;'></div><div class = 'column'><img src = 'category1/CS9.png' width = '70%;'></div></div>","null","pos","CS","CS","1","category1/CS9.png","","","","",""
"","html-keyboard-response","62","260767","0.0-6.0-4.0-0.14","wv2933l494","one_one","1","direct_first","1","ER03WE05","0","26","1","1","3","1","","0","1","0","null","","","<div class = 'row'><div class = 'column'><img src = 'category3/CS3.png' width = '70%;'></div><div class = 'column'><img src = 'usneg/9181.bmp' width = '100%;'></div></div>","null","neg","CS","CS","3","category3/CS3.png","","","","",""
"","html-keyboard-response","63","263278","0.0-6.0-4.0-0.15","wv2933l494","one_one","1","direct_first","1","ER03WE05","0","26","1","1","3","1","","0","1","0","null","","","<div class = 'row'><div class = 'column'><img src = 'usneg/9340.bmp' width = '100%;'></div><div class = 'column'><img src = 'category2/CS7.png' width = '70%;'></div></div>","null","neg","CS","CS","2","category2/CS7.png","","","","",""
"","html-keyboard-response","64","265784","0.0-6.0-4.0-0.16","wv2933l494","one_one","1","direct_first","1","ER03WE05","0","26","1","1","3","1","","0","1","0","null","","","<div class = 'row'><div class = 'column'><img src = 'category4/CS8.png' width = '70%;'></div><div class = 'column'><img src = 'uspos/5831.bmp' width = '100%;'></div></div>","null","pos","CS","CS","4","category4/CS8.png","","","","",""
"","html-keyboard-response","65","268291","0.0-6.0-4.0-0.17","wv2933l494","one_one","1","direct_first","1","ER03WE05","0","26","1","1","3","1","","0","1","0","null","","","<div class = 'row'><div class = 'column'><img src = 'uspos/8080.bmp' width = '100%;'></div><div class = 'column'><img src = 'category1/CS9.png' width = '70%;'></div></div>","null","pos","CS","CS","1","category1/CS9.png","","","","",""
"","html-keyboard-response","66","270812","0.0-6.0-4.0-0.18","wv2933l494","one_one","1","direct_first","1","ER03WE05","0","26","1","1","3","1","","0","1","0","null","","","<div class = 'row'><div class = 'column'><img src = 'uspos/5831.bmp' width = '100%;'></div><div class = 'column'><img src = 'category4/CS8.png' width = '70%;'></div></div>","null","pos","CS","CS","4","category4/CS8.png","","","","",""
"","html-keyboard-response","67","273341","0.0-6.0-4.0-0.19","wv2933l494","one_one","1","direct_first","1","ER03WE05","0","26","1","1","3","1","","0","1","0","null","","","<div class = 'row'><div class = 'column'><img src = 'category2/CS7.png' width = '70%;'></div><div class = 'column'><img src = 'usneg/9340.bmp' width = '100%;'></div></div>","null","neg","CS","CS","2","category2/CS7.png","","","","",""
"","survey-html-form","68","275404","0.0-6.0-5.0","wv2933l494","one_one","1","direct_first","1","ER03WE05","0","26","1","1","3","1","","0","1","0","1544.7449999992969","","{}","","","","","","","","","","","",""
"","html-keyboard-response","69","279438","0.0-6.0-6.0-0.0","wv2933l494","one_one","1","direct_first","1","ER03WE05","0","26","1","1","3","1","","0","1","0","null","","","<div class = 'row'><div class = 'column'><img src = 'usneg/9181.bmp' width = '100%;'></div><div class = 'column'><img src = 'category3/CS3.png' width = '70%;'></div></div>","null","neg","CS","CS","3","category3/CS3.png","","","","",""
"","html-keyboard-response","70","281969","0.0-6.0-6.0-0.1","wv2933l494","one_one","1","direct_first","1","ER03WE05","0","26","1","1","3","1","","0","1","0","null","","","<div class = 'row'><div class = 'column'><img src = 'uspos/8080.bmp' width = '100%;'></div><div class = 'column'><img src = 'category1/CS9.png' width = '70%;'></div></div>","null","pos","CS","CS","1","category1/CS9.png","","","","",""
"","html-keyboard-response","71","284499","0.0-6.0-6.0-0.2","wv2933l494","one_one","1","direct_first","1","ER03WE05","0","26","1","1","3","1","","0","1","0","null","","","<div class = 'row'><div class = 'column'><img src = 'usneg/9340.bmp' width = '100%;'></div><div class = 'column'><img src = 'category2/CS7.png' width = '70%;'></div></div>","null","neg","CS","CS","2","category2/CS7.png","","","","",""
"","html-keyboard-response","72","287032","0.0-6.0-6.0-0.3","wv2933l494","one_one","1","direct_first","1","ER03WE05","0","26","1","1","3","1","","0","1","0","null","","","<div class = 'row'><div class = 'column'><img src = 'usneg/9181.bmp' width = '100%;'></div><div class = 'column'><img src = 'category3/CS3.png' width = '70%;'></div></div>","null","neg","CS","CS","3","category3/CS3.png","","","","",""
"","html-keyboard-response","73","289562","0.0-6.0-6.0-0.4","wv2933l494","one_one","1","direct_first","1","ER03WE05","0","26","1","1","3","1","","0","1","0","null","","","<div class = 'row'><div class = 'column'><img src = 'category4/CS8.png' width = '70%;'></div><div class = 'column'><img src = 'uspos/5831.bmp' width = '100%;'></div></div>","null","pos","CS","CS","4","category4/CS8.png","","","","",""
"","html-keyboard-response","74","292096","0.0-6.0-6.0-0.5","wv2933l494","one_one","1","direct_first","1","ER03WE05","0","26","1","1","3","1","","0","1","0","null","","","<div class = 'row'><div class = 'column'><img src = 'usneg/9340.bmp' width = '100%;'></div><div class = 'column'><img src = 'category2/CS7.png' width = '70%;'></div></div>","null","neg","CS","CS","2","category2/CS7.png","","","","",""
"","html-keyboard-response","75","294625","0.0-6.0-6.0-0.6","wv2933l494","one_one","1","direct_first","1","ER03WE05","0","26","1","1","3","1","","0","1","0","null","","","<div class = 'row'><div class = 'column'><img src = 'uspos/8080.bmp' width = '100%;'></div><div class = 'column'><img src = 'category1/CS9.png' width = '70%;'></div></div>","null","pos","CS","CS","1","category1/CS9.png","","","","",""
"","html-keyboard-response","76","297158","0.0-6.0-6.0-0.7","wv2933l494","one_one","1","direct_first","1","ER03WE05","0","26","1","1","3","1","","0","1","0","null","","","<div class = 'row'><div class = 'column'><img src = 'usneg/9181.bmp' width = '100%;'></div><div class = 'column'><img src = 'category3/CS3.png' width = '70%;'></div></div>","null","neg","CS","CS","3","category3/CS3.png","","","","",""
"","html-keyboard-response","77","299690","0.0-6.0-6.0-0.8","wv2933l494","one_one","1","direct_first","1","ER03WE05","0","26","1","1","3","1","","0","1","0","null","","","<div class = 'row'><div class = 'column'><img src = 'usneg/9340.bmp' width = '100%;'></div><div class = 'column'><img src = 'category2/CS7.png' width = '70%;'></div></div>","null","neg","CS","CS","2","category2/CS7.png","","","","",""
"","html-keyboard-response","78","302220","0.0-6.0-6.0-0.9","wv2933l494","one_one","1","direct_first","1","ER03WE05","0","26","1","1","3","1","","0","1","0","null","","","<div class = 'row'><div class = 'column'><img src = 'uspos/5831.bmp' width = '100%;'></div><div class = 'column'><img src = 'category4/CS8.png' width = '70%;'></div></div>","null","pos","CS","CS","4","category4/CS8.png","","","","",""
"","html-keyboard-response","79","304753","0.0-6.0-6.0-0.10","wv2933l494","one_one","1","direct_first","1","ER03WE05","0","26","1","1","3","1","","0","1","0","null","","","<div class = 'row'><div class = 'column'><img src = 'category2/CS7.png' width = '70%;'></div><div class = 'column'><img src = 'usneg/9340.bmp' width = '100%;'></div></div>","null","neg","CS","CS","2","category2/CS7.png","","","","",""
"","html-keyboard-response","80","307284","0.0-6.0-6.0-0.11","wv2933l494","one_one","1","direct_first","1","ER03WE05","0","26","1","1","3","1","","0","1","0","null","","","<div class = 'row'><div class = 'column'><img src = 'category1/CS9.png' width = '70%;'></div><div class = 'column'><img src = 'uspos/8080.bmp' width = '100%;'></div></div>","null","pos","CS","CS","1","category1/CS9.png","","","","",""
"","html-keyboard-response","81","309815","0.0-6.0-6.0-0.12","wv2933l494","one_one","1","direct_first","1","ER03WE05","0","26","1","1","3","1","","0","1","0","null","","","<div class = 'row'><div class = 'column'><img src = 'usneg/9181.bmp' width = '100%;'></div><div class = 'column'><img src = 'category3/CS3.png' width = '70%;'></div></div>","null","neg","CS","CS","3","category3/CS3.png","","","","",""
"","html-keyboard-response","82","312346","0.0-6.0-6.0-0.13","wv2933l494","one_one","1","direct_first","1","ER03WE05","0","26","1","1","3","1","","0","1","0","null","","","<div class = 'row'><div class = 'column'><img src = 'uspos/5831.bmp' width = '100%;'></div><div class = 'column'><img src = 'category4/CS8.png' width = '70%;'></div></div>","null","pos","CS","CS","4","category4/CS8.png","","","","",""
"","html-keyboard-response","83","314877","0.0-6.0-6.0-0.14","wv2933l494","one_one","1","direct_first","1","ER03WE05","0","26","1","1","3","1","","0","1","0","null","","","<div class = 'row'><div class = 'column'><img src = 'category1/CS9.png' width = '70%;'></div><div class = 'column'><img src = 'uspos/8080.bmp' width = '100%;'></div></div>","null","pos","CS","CS","1","category1/CS9.png","","","","",""
"","html-keyboard-response","84","317408","0.0-6.0-6.0-0.15","wv2933l494","one_one","1","direct_first","1","ER03WE05","0","26","1","1","3","1","","0","1","0","null","","","<div class = 'row'><div class = 'column'><img src = 'usneg/9181.bmp' width = '100%;'></div><div class = 'column'><img src = 'category3/CS3.png' width = '70%;'></div></div>","null","neg","CS","CS","3","category3/CS3.png","","","","",""
"","html-keyboard-response","85","319940","0.0-6.0-6.0-0.16","wv2933l494","one_one","1","direct_first","1","ER03WE05","0","26","1","1","3","1","","0","1","0","null","","","<div class = 'row'><div class = 'column'><img src = 'usneg/9340.bmp' width = '100%;'></div><div class = 'column'><img src = 'category2/CS7.png' width = '70%;'></div></div>","null","neg","CS","CS","2","category2/CS7.png","","","","",""
"","html-keyboard-response","86","322473","0.0-6.0-6.0-0.17","wv2933l494","one_one","1","direct_first","1","ER03WE05","0","26","1","1","3","1","","0","1","0","null","","","<div class = 'row'><div class = 'column'><img src = 'uspos/5831.bmp' width = '100%;'></div><div class = 'column'><img src = 'category4/CS8.png' width = '70%;'></div></div>","null","pos","CS","CS","4","category4/CS8.png","","","","",""
"","html-keyboard-response","87","325002","0.0-6.0-6.0-0.18","wv2933l494","one_one","1","direct_first","1","ER03WE05","0","26","1","1","3","1","","0","1","0","null","","","<div class = 'row'><div class = 'column'><img src = 'uspos/8080.bmp' width = '100%;'></div><div class = 'column'><img src = 'category1/CS9.png' width = '70%;'></div></div>","null","pos","CS","CS","1","category1/CS9.png","","","","",""
"","html-keyboard-response","88","327534","0.0-6.0-6.0-0.19","wv2933l494","one_one","1","direct_first","1","ER03WE05","0","26","1","1","3","1","","0","1","0","null","","","<div class = 'row'><div class = 'column'><img src = 'category4/CS8.png' width = '70%;'></div><div class = 'column'><img src = 'uspos/5831.bmp' width = '100%;'></div></div>","null","pos","CS","CS","4","category4/CS8.png","","","","",""
"","survey-html-form","89","335758","0.0-7.0","wv2933l494","one_one","1","direct_first","1","ER03WE05","0","26","1","1","3","1","","0","1","0","7706.874999999884","","{}","","","","","","","","","","","",""
"","image-slider-response","90","356719","0.0-8.0-0.0","wv2933l494","one_one","1","direct_first","1","ER03WE05","0","26","1","1","3","1","","0","1","0","18954.48500000208","","","","","neg","GS","GSold","2","category2/CS3.png","-11","targets/23.png","direct","",""
"","image-slider-response","91","363553","0.0-8.0-0.1","wv2933l494","one_one","1","direct_first","1","ER03WE05","0","26","1","1","3","1","","0","1","0","6830.1399999982095","","","","","pos","GS","GSold","1","category1/CS7.png","-74","targets/47.png","direct","",""
"","image-slider-response","92","369228","0.0-8.0-0.2","wv2933l494","one_one","1","direct_first","1","ER03WE05","0","26","1","1","3","1","","0","1","0","5671.354999998584","","","","","pos","GS","GSnew","1","category1/GS1.png","-62","targets/24.png","direct","",""
"","image-slider-response","93","380080","0.0-8.0-0.3","wv2933l494","one_one","1","direct_first","1","ER03WE05","0","26","1","1","3","1","","0","1","0","10847.230000003008","","","","","neg","GS","GSold","3","category3/CS1.png","-59","targets/15.png","direct","",""
"","image-slider-response","94","386480","0.0-8.0-0.4","wv2933l494","one_one","1","direct_first","1","ER03WE05","0","26","1","1","3","1","","0","1","0","6394.860000000335","","","","","pos","GS","GSnew","1","category1/GS2.png","-6","targets/17.png","direct","",""
"","image-slider-response","95","391553","0.0-8.0-0.5","wv2933l494","one_one","1","direct_first","1","ER03WE05","0","26","1","1","3","1","","0","1","0","5069.469999998575","","","","","neg","GS","GSnew","2","category2/GS3.png","9","targets/22.png","direct","",""
"","image-slider-response","96","395353","0.0-8.0-0.6","wv2933l494","one_one","1","direct_first","1","ER03WE05","0","26","1","1","3","1","","0","1","0","3796.734999999928","","","","","pos","GS","GSnew","1","category1/GS3.png","18","targets/18.png","direct","",""
"","image-slider-response","97","400668","0.0-8.0-0.7","wv2933l494","one_one","1","direct_first","1","ER03WE05","0","26","1","1","3","1","","0","1","0","5312.004999999772","","","","","neg","GS","GSnew","2","category2/GS2.png","3","targets/5.png","direct","",""
"","image-slider-response","98","403971","0.0-8.0-0.8","wv2933l494","one_one","1","direct_first","1","ER03WE05","0","26","1","1","3","1","","0","1","0","3298.870000002382","","","","","neg","GS","GSnew","2","category2/GS1.png","5","targets/42.png","direct","",""
"","image-slider-response","99","407258","0.0-8.0-0.9","wv2933l494","one_one","1","direct_first","1","ER03WE05","0","26","1","1","3","1","","0","1","0","3283.5199999972247","","","","","pos","GS","GSold","4","category4/CS7.png","49","targets/32.png","direct","",""
"","image-slider-response","100","410818","0.0-8.0-0.10","wv2933l494","one_one","1","direct_first","1","ER03WE05","0","26","1","1","3","1","","0","1","0","3555.1500000001397","","","","","pos","CS","CS","4","category4/CS8.png","37","targets/9.png","direct","",""
"","image-slider-response","101","418488","0.0-8.0-0.11","wv2933l494","one_one","1","direct_first","1","ER03WE05","0","26","1","1","3","1","","0","1","0","7665.894999998272","","","","","neg","GS","GSnew","3","category3/GS2.png","-10","targets/41.png","direct","",""
"","image-slider-response","102","421916","0.0-8.0-0.12","wv2933l494","one_one","1","direct_first","1","ER03WE05","0","26","1","1","3","1","","0","1","0","3420.760000000824","","","","","pos","GS","GSold","4","category4/CS10.png","41","targets/16.png","direct","",""
"","image-slider-response","103","425217","0.0-8.0-0.13","wv2933l494","one_one","1","direct_first","1","ER03WE05","0","26","1","1","3","1","","0","1","0","3297.6799999996438","","","","","neg","GS","GSnew","3","category3/GS3.png","-48","targets/8.png","direct","",""
"","image-slider-response","104","429809","0.0-8.0-0.14","wv2933l494","one_one","1","direct_first","1","ER03WE05","0","26","1","1","3","1","","0","1","0","4586.240000000515","","","","","neg","GS","GSold","3","category3/CS6.png","-11","targets/11.png","direct","",""
"","image-slider-response","105","432851","0.0-8.0-0.15","wv2933l494","one_one","1","direct_first","1","ER03WE05","0","26","1","1","3","1","","0","1","0","3037.820000001404","","","","","pos","GS","abstract","4","category4/lin.png","45","targets/44.png","direct","",""
"","image-slider-response","106","436083","0.0-8.0-0.16","wv2933l494","one_one","1","direct_first","1","ER03WE05","0","26","1","1","3","1","","0","1","0","3228.299999998824","","","","","neg","GS","abstract","3","category3/wang.png","-45","targets/35.png","direct","",""
"","image-slider-response","107","441049","0.0-8.0-0.17","wv2933l494","one_one","1","direct_first","1","ER03WE05","0","26","1","1","3","1","","0","1","0","4962.429999999586","","","","","neg","CS","CS","2","category2/CS7.png","-5","targets/12.png","direct","",""
"","image-slider-response","108","445539","0.0-8.0-0.18","wv2933l494","one_one","1","direct_first","1","ER03WE05","0","26","1","1","3","1","","0","1","0","4486.9200000030105","","","","","neg","GS","abstract","2","category2/men.png","-23","targets/39.png","direct","",""
"","image-slider-response","109","449181","0.0-8.0-0.19","wv2933l494","one_one","1","direct_first","1","ER03WE05","0","26","1","1","3","1","","0","1","0","3636.5750000004773","","","","","pos","GS","GSnew","4","category4/GS1.png","48","targets/4.png","direct","",""
"","image-slider-response","110","456239","0.0-8.0-0.20","wv2933l494","one_one","1","direct_first","1","ER03WE05","0","26","1","1","3","1","","0","1","0","7053.980000000622","","","","","neg","GS","GSold","2","category2/CS5.png","-43","targets/20.png","direct","",""
"","image-slider-response","111","459284","0.0-8.0-0.21","wv2933l494","one_one","1","direct_first","1","ER03WE05","0","26","1","1","3","1","","0","1","0","3041.349999999511","","","","","neg","CS","CS","3","category3/CS3.png","-38","targets/46.png","direct","",""
"","image-slider-response","112","461987","0.0-8.0-0.22","wv2933l494","one_one","1","direct_first","1","ER03WE05","0","26","1","1","3","1","","0","1","0","2698.240000001504","","","","","neg","GS","GSold","3","category3/CS9.png","-13","targets/14.png","direct","",""
"","image-slider-response","113","465900","0.0-8.0-0.23","wv2933l494","one_one","1","direct_first","1","ER03WE05","0","26","1","1","3","1","","0","1","0","3910.3050000012736","","","","","pos","GS","GSold","1","category1/CS8.png","49","targets/1.png","direct","",""
"","image-slider-response","114","475613","0.0-8.0-0.24","wv2933l494","one_one","1","direct_first","1","ER03WE05","0","26","1","1","3","1","","0","1","0","9709.169999998237","","","","","pos","CS","CS","1","category1/CS9.png","8","targets/13.png","direct","",""
"","image-slider-response","115","478635","0.0-8.0-0.25","wv2933l494","one_one","1","direct_first","1","ER03WE05","0","26","1","1","3","1","","0","1","0","3016.8200000007055","","","","","pos","GS","GSnew","4","category4/GS2.png","-29","targets/33.png","direct","",""
"","image-slider-response","116","482065","0.0-8.0-0.26","wv2933l494","one_one","1","direct_first","1","ER03WE05","0","26","1","1","3","1","","0","1","0","3427.1850000004633","","","","","pos","GS","GSold","4","category4/CS9.png","40","targets/48.png","direct","",""
"","image-slider-response","117","487254","0.0-8.0-0.27","wv2933l494","one_one","1","direct_first","1","ER03WE05","0","26","1","1","3","1","","0","1","0","5184.520000002522","","","","","pos","GS","GSnew","4","category4/GS3.png","16","targets/29.png","direct","",""
"","image-slider-response","118","491931","0.0-8.0-0.28","wv2933l494","one_one","1","direct_first","1","ER03WE05","0","26","1","1","3","1","","0","1","0","4673.5049999988405","","","","","pos","GS","abstract","1","category1/ma.png","18","targets/3.png","direct","",""
"","image-slider-response","119","495832","0.0-8.0-0.29","wv2933l494","one_one","1","direct_first","1","ER03WE05","0","26","1","1","3","1","","0","1","0","3896.8800000002375","","","","","neg","GS","GSnew","3","category3/GS1.png","-43","targets/38.png","direct","",""
"","image-slider-response","120","499412","0.0-8.0-0.30","wv2933l494","one_one","1","direct_first","1","ER03WE05","0","26","1","1","3","1","","0","1","0","3575.3850000000675","","","","","pos","GS","GSold","1","category1/CS10.png","-24","targets/36.png","direct","",""
"","image-slider-response","121","503218","0.0-8.0-0.31","wv2933l494","one_one","1","direct_first","1","ER03WE05","0","26","1","1","3","1","","0","1","0","3802.690000000468","","","","","neg","GS","GSold","2","category2/CS6.png","-17","targets/37.png","direct","",""
"","html-keyboard-response","122","533381","0.0-9.0","wv2933l494","one_one","1","direct_first","1","ER03WE05","0","26","1","1","3","1","","0","1","0","30159.139999999665","","","<p>Sie sehen nun die chinesischen Zeichen nur ganz kurz. Danach sehen Sie die jeweilige Aussprache der Zeichen als Silbe auf dem Bildschrim. Ihre Aufgabe ist es, für jede Silbe anzugeben, ob diese etwas angenehmes, oder unangenehmes bedeuten könnte. Verlassen Sie sich hier vor allem auf Ihre Intuition.<br><br>Die Zeichen werden nur zur Orientierung dargestellt, beachten Sie sie deshalb nicht. Konzentrieren Sie sich vor allem auf die Silben. <br>Reagieren Sie mit folgenden zwei Tasten: <br><br><b>'D' </b> wenn die Silbe etwas <b>unangenehmes</b> bedeuten könnte. <br><b>'K'</b> wenn die Silbe etwas <b>angenehmes</b> bedeuten könnte. <br><br>Bitte legen Sie nun den Zeigefinger der linken Hand auf die Taste 'D' und den Zeigefinger der rechten Hand auf die Taste 'K'. <br>Reagieren Sie auf jede Silbe so schnell wie möglich. Uns interessiert Ihre spontane Reaktion. <br> <br> <br>Drücken Sie 'D' oder 'K', um die nächste Aufgabe zu starten. </p>","68","","","","","","","","","",""
"","html-keyboard-response","123","536406","0.0-10.0-0.0","wv2933l494","one_one","1","direct_first","1","ER03WE05","0","26","1","1","3","1","","0","1","0","null","","","<div style=""font-size:60px;"">+</div>","null","","","","","","","","","",""
"","html-keyboard-response","124","536501","0.0-10.0-1.0","wv2933l494","one_one","1","direct_first","1","ER03WE05","0","26","1","1","3","1","","0","1","0","null","","","<img src = 'category1/CS10.png' width = '100%;'>","null","","","","","","","","","",""
"","html-keyboard-response","125","536766","0.0-10.0-2.0","wv2933l494","one_one","1","direct_first","1","ER03WE05","0","26","1","1","3","1","","0","1","0","null","","","<img src = 'targets/36.png' width = '100%;'>","null","","","","","","","","","",""
"","html-keyboard-response","126","541034","0.0-10.0-3.0","wv2933l494","one_one","1","direct_first","1","ER03WE05","0","26","1","1","3","1","","0","1","0","4275.300000001094","","","<img src = 'targets/mask.png' width = '100%;'>","68","pos","GS","GSold","1","category1/CS10.png","","targets/36.png","indirect","0","0"
"","html-keyboard-response","127","542555","0.0-10.0-0.1","wv2933l494","one_one","1","direct_first","1","ER03WE05","0","26","1","1","3","1","","0","1","0","null","","","<div style=""font-size:60px;"">+</div>","null","","","","","","","","","",""
"","html-keyboard-response","128","542649","0.0-10.0-1.1","wv2933l494","one_one","1","direct_first","1","ER03WE05","0","26","1","1","3","1","","0","1","0","null","","","<img src = 'category3/CS6.png' width = '100%;'>","null","","","","","","","","","",""
"","html-keyboard-response","129","542914","0.0-10.0-2.1","wv2933l494","one_one","1","direct_first","1","ER03WE05","0","26","1","1","3","1","","0","1","0","null","","","<img src = 'targets/11.png' width = '100%;'>","null","","","","","","","","","",""
"","html-keyboard-response","130","545738","0.0-10.0-3.1","wv2933l494","one_one","1","direct_first","1","ER03WE05","0","26","1","1","3","1","","0","1","0","2821.299999999581","","","<img src = 'targets/mask.png' width = '100%;'>","68","neg","GS","GSold","3","category3/CS6.png","","targets/11.png","indirect","0","1"
"","html-keyboard-response","131","547269","0.0-10.0-0.2","wv2933l494","one_one","1","direct_first","1","ER03WE05","0","26","1","1","3","1","","0","1","0","null","","","<div style=""font-size:60px;"">+</div>","null","","","","","","","","","",""
"","html-keyboard-response","132","547362","0.0-10.0-1.2","wv2933l494","one_one","1","direct_first","1","ER03WE05","0","26","1","1","3","1","","0","1","0","null","","","<img src = 'category2/CS7.png' width = '100%;'>","null","","","","","","","","","",""
"","html-keyboard-response","133","547627","0.0-10.0-2.2","wv2933l494","one_one","1","direct_first","1","ER03WE05","0","26","1","1","3","1","","0","1","0","null","","","<img src = 'targets/12.png' width = '100%;'>","null","","","","","","","","","",""
"","html-keyboard-response","134","549419","0.0-10.0-3.2","wv2933l494","one_one","1","direct_first","1","ER03WE05","0","26","1","1","3","1","","0","1","0","1788.0450000010896","","","<img src = 'targets/mask.png' width = '100%;'>","75","neg","CS","CS","2","category2/CS7.png","","targets/12.png","indirect","1","2"
"","html-keyboard-response","135","550949","0.0-10.0-0.3","wv2933l494","one_one","1","direct_first","1","ER03WE05","0","26","1","1","3","1","","0","1","0","null","","","<div style=""font-size:60px;"">+</div>","null","","","","","","","","","",""
"","html-keyboard-response","136","551043","0.0-10.0-1.3","wv2933l494","one_one","1","direct_first","1","ER03WE05","0","26","1","1","3","1","","0","1","0","null","","","<img src = 'category1/CS8.png' width = '100%;'>","null","","","","","","","","","",""
"","html-keyboard-response","137","551308","0.0-10.0-2.3","wv2933l494","one_one","1","direct_first","1","ER03WE05","0","26","1","1","3","1","","0","1","0","null","","","<img src = 'targets/1.png' width = '100%;'>","null","","","","","","","","","",""
"","html-keyboard-response","138","553122","0.0-10.0-3.3","wv2933l494","one_one","1","direct_first","1","ER03WE05","0","26","1","1","3","1","","0","1","0","1811.0300000008428","","","<img src = 'targets/mask.png' width = '100%;'>","75","pos","GS","GSold","1","category1/CS8.png","","targets/1.png","indirect","1","3"
"","html-keyboard-response","139","554645","0.0-10.0-0.4","wv2933l494","one_one","1","direct_first","1","ER03WE05","0","26","1","1","3","1","","0","1","0","null","","","<div style=""font-size:60px;"">+</div>","null","","","","","","","","","",""
"","html-keyboard-response","140","554740","0.0-10.0-1.4","wv2933l494","one_one","1","direct_first","1","ER03WE05","0","26","1","1","3","1","","0","1","0","null","","","<img src = 'category1/CS7.png' width = '100%;'>","null","","","","","","","","","",""
"","html-keyboard-response","141","555007","0.0-10.0-2.4","wv2933l494","one_one","1","direct_first","1","ER03WE05","0","26","1","1","3","1","","0","1","0","null","","","<img src = 'targets/47.png' width = '100%;'>","null","","","","","","","","","",""
"","html-keyboard-response","142","557156","0.0-10.0-3.4","wv2933l494","one_one","1","direct_first","1","ER03WE05","0","26","1","1","3","1","","0","1","0","2144.9250000005122","","","<img src = 'targets/mask.png' width = '100%;'>","75","pos","GS","GSold","1","category1/CS7.png","","targets/47.png","indirect","1","4"
"","html-keyboard-response","143","558677","0.0-10.0-0.5","wv2933l494","one_one","1","direct_first","1","ER03WE05","0","26","1","1","3","1","","0","1","0","null","","","<div style=""font-size:60px;"">+</div>","null","","","","","","","","","",""
"","html-keyboard-response","144","558772","0.0-10.0-1.5","wv2933l494","one_one","1","direct_first","1","ER03WE05","0","26","1","1","3","1","","0","1","0","null","","","<img src = 'category2/CS6.png' width = '100%;'>","null","","","","","","","","","",""
"","html-keyboard-response","145","559035","0.0-10.0-2.5","wv2933l494","one_one","1","direct_first","1","ER03WE05","0","26","1","1","3","1","","0","1","0","null","","","<img src = 'targets/37.png' width = '100%;'>","null","","","","","","","","","",""
"","html-keyboard-response","146","560997","0.0-10.0-3.5","wv2933l494","one_one","1","direct_first","1","ER03WE05","0","26","1","1","3","1","","0","1","0","1958.1949999991339","","","<img src = 'targets/mask.png' width = '100%;'>","68","neg","GS","GSold","2","category2/CS6.png","","targets/37.png","indirect","0","5"
"","html-keyboard-response","147","562523","0.0-10.0-0.6","wv2933l494","one_one","1","direct_first","1","ER03WE05","0","26","1","1","3","1","","0","1","0","null","","","<div style=""font-size:60px;"">+</div>","null","","","","","","","","","",""
"","html-keyboard-response","148","562617","0.0-10.0-1.6","wv2933l494","one_one","1","direct_first","1","ER03WE05","0","26","1","1","3","1","","0","1","0","null","","","<img src = 'category3/CS3.png' width = '100%;'>","null","","","","","","","","","",""
"","html-keyboard-response","149","562882","0.0-10.0-2.6","wv2933l494","one_one","1","direct_first","1","ER03WE05","0","26","1","1","3","1","","0","1","0","null","","","<img src = 'targets/46.png' width = '100%;'>","null","","","","","","","","","",""
"","html-keyboard-response","150","565698","0.0-10.0-3.6","wv2933l494","one_one","1","direct_first","1","ER03WE05","0","26","1","1","3","1","","0","1","0","2811.999999998021","","","<img src = 'targets/mask.png' width = '100%;'>","68","neg","CS","CS","3","category3/CS3.png","","targets/46.png","indirect","0","6"
"","html-keyboard-response","151","567220","0.0-10.0-0.7","wv2933l494","one_one","1","direct_first","1","ER03WE05","0","26","1","1","3","1","","0","1","0","null","","","<div style=""font-size:60px;"">+</div>","null","","","","","","","","","",""
"","html-keyboard-response","152","567314","0.0-10.0-1.7","wv2933l494","one_one","1","direct_first","1","ER03WE05","0","26","1","1","3","1","","0","1","0","null","","","<img src = 'category2/CS5.png' width = '100%;'>","null","","","","","","","","","",""
"","html-keyboard-response","153","567578","0.0-10.0-2.7","wv2933l494","one_one","1","direct_first","1","ER03WE05","0","26","1","1","3","1","","0","1","0","null","","","<img src = 'targets/20.png' width = '100%;'>","null","","","","","","","","","",""
"","html-keyboard-response","154","570266","0.0-10.0-3.7","wv2933l494","one_one","1","direct_first","1","ER03WE05","0","26","1","1","3","1","","0","1","0","2683.9749999998603","","","<img src = 'targets/mask.png' width = '100%;'>","75","neg","GS","GSold","2","category2/CS5.png","","targets/20.png","indirect","1","7"
"","html-keyboard-response","155","571783","0.0-10.0-0.8","wv2933l494","one_one","1","direct_first","1","ER03WE05","0","26","1","1","3","1","","0","1","0","null","","","<div style=""font-size:60px;"">+</div>","null","","","","","","","","","",""
"","html-keyboard-response","156","571877","0.0-10.0-1.8","wv2933l494","one_one","1","direct_first","1","ER03WE05","0","26","1","1","3","1","","0","1","0","null","","","<img src = 'category3/CS1.png' width = '100%;'>","null","","","","","","","","","",""
"","html-keyboard-response","157","572141","0.0-10.0-2.8","wv2933l494","one_one","1","direct_first","1","ER03WE05","0","26","1","1","3","1","","0","1","0","null","","","<img src = 'targets/15.png' width = '100%;'>","null","","","","","","","","","",""
"","html-keyboard-response","158","575336","0.0-10.0-3.8","wv2933l494","one_one","1","direct_first","1","ER03WE05","0","26","1","1","3","1","","0","1","0","3191.3749999984866","","","<img src = 'targets/mask.png' width = '100%;'>","75","neg","GS","GSold","3","category3/CS1.png","","targets/15.png","indirect","1","8"
"","html-keyboard-response","159","576863","0.0-10.0-0.9","wv2933l494","one_one","1","direct_first","1","ER03WE05","0","26","1","1","3","1","","0","1","0","null","","","<div style=""font-size:60px;"">+</div>","null","","","","","","","","","",""
"","html-keyboard-response","160","576956","0.0-10.0-1.9","wv2933l494","one_one","1","direct_first","1","ER03WE05","0","26","1","1","3","1","","0","1","0","null","","","<img src = 'category4/CS8.png' width = '100%;'>","null","","","","","","","","","",""
"","html-keyboard-response","161","577222","0.0-10.0-2.9","wv2933l494","one_one","1","direct_first","1","ER03WE05","0","26","1","1","3","1","","0","1","0","null","","","<img src = 'targets/9.png' width = '100%;'>","null","","","","","","","","","",""
"","html-keyboard-response","162","579377","0.0-10.0-3.9","wv2933l494","one_one","1","direct_first","1","ER03WE05","0","26","1","1","3","1","","0","1","0","2151.805000001332","","","<img src = 'targets/mask.png' width = '100%;'>","75","pos","CS","CS","4","category4/CS8.png","","targets/9.png","indirect","1","9"
"","html-keyboard-response","163","580895","0.0-10.0-0.10","wv2933l494","one_one","1","direct_first","1","ER03WE05","0","26","1","1","3","1","","0","1","0","null","","","<div style=""font-size:60px;"">+</div>","null","","","","","","","","","",""
"","html-keyboard-response","164","580987","0.0-10.0-1.10","wv2933l494","one_one","1","direct_first","1","ER03WE05","0","26","1","1","3","1","","0","1","0","null","","","<img src = 'category4/CS9.png' width = '100%;'>","null","","","","","","","","","",""
"","html-keyboard-response","165","581253","0.0-10.0-2.10","wv2933l494","one_one","1","direct_first","1","ER03WE05","0","26","1","1","3","1","","0","1","0","null","","","<img src = 'targets/48.png' width = '100%;'>","null","","","","","","","","","",""
"","html-keyboard-response","166","582799","0.0-10.0-3.10","wv2933l494","one_one","1","direct_first","1","ER03WE05","0","26","1","1","3","1","","0","1","0","1543.874999999418","","","<img src = 'targets/mask.png' width = '100%;'>","75","pos","GS","GSold","4","category4/CS9.png","","targets/48.png","indirect","1","10"
"","html-keyboard-response","167","584324","0.0-10.0-0.11","wv2933l494","one_one","1","direct_first","1","ER03WE05","0","26","1","1","3","1","","0","1","0","null","","","<div style=""font-size:60px;"">+</div>","null","","","","","","","","","",""
"","html-keyboard-response","168","584418","0.0-10.0-1.11","wv2933l494","one_one","1","direct_first","1","ER03WE05","0","26","1","1","3","1","","0","1","0","null","","","<img src = 'category1/CS9.png' width = '100%;'>","null","","","","","","","","","",""
"","html-keyboard-response","169","584682","0.0-10.0-2.11","wv2933l494","one_one","1","direct_first","1","ER03WE05","0","26","1","1","3","1","","0","1","0","null","","","<img src = 'targets/13.png' width = '100%;'>","null","","","","","","","","","",""
"","html-keyboard-response","170","589484","0.0-10.0-3.11","wv2933l494","one_one","1","direct_first","1","ER03WE05","0","26","1","1","3","1","","0","1","0","4798.0349999998","","","<img src = 'targets/mask.png' width = '100%;'>","68","pos","CS","CS","1","category1/CS9.png","","targets/13.png","indirect","0","11"
"","html-keyboard-response","171","591002","0.0-10.0-0.12","wv2933l494","one_one","1","direct_first","1","ER03WE05","0","26","1","1","3","1","","0","1","0","null","","","<div style=""font-size:60px;"">+</div>","null","","","","","","","","","",""
"","html-keyboard-response","172","591095","0.0-10.0-1.12","wv2933l494","one_one","1","direct_first","1","ER03WE05","0","26","1","1","3","1","","0","1","0","null","","","<img src = 'category2/CS3.png' width = '100%;'>","null","","","","","","","","","",""
"","html-keyboard-response","173","591361","0.0-10.0-2.12","wv2933l494","one_one","1","direct_first","1","ER03WE05","0","26","1","1","3","1","","0","1","0","null","","","<img src = 'targets/23.png' width = '100%;'>","null","","","","","","","","","",""
"","html-keyboard-response","174","592257","0.0-10.0-3.12","wv2933l494","one_one","1","direct_first","1","ER03WE05","0","26","1","1","3","1","","0","1","0","891.574999997858","","","<img src = 'targets/mask.png' width = '100%;'>","68","neg","GS","GSold","2","category2/CS3.png","","targets/23.png","indirect","0","12"
"","html-keyboard-response","175","593767","0.0-10.0-0.13","wv2933l494","one_one","1","direct_first","1","ER03WE05","0","26","1","1","3","1","","0","1","0","null","","","<div style=""font-size:60px;"">+</div>","null","","","","","","","","","",""
"","html-keyboard-response","176","593876","0.0-10.0-1.13","wv2933l494","one_one","1","direct_first","1","ER03WE05","0","26","1","1","3","1","","0","1","0","null","","","<img src = 'category4/CS7.png' width = '100%;'>","null","","","","","","","","","",""
"","html-keyboard-response","177","594141","0.0-10.0-2.13","wv2933l494","one_one","1","direct_first","1","ER03WE05","0","26","1","1","3","1","","0","1","0","null","","","<img src = 'targets/32.png' width = '100%;'>","null","","","","","","","","","",""
"","html-keyboard-response","178","595161","0.0-10.0-3.13","wv2933l494","one_one","1","direct_first","1","ER03WE05","0","26","1","1","3","1","","0","1","0","1016.4650000006659","","","<img src = 'targets/mask.png' width = '100%;'>","68","pos","GS","GSold","4","category4/CS7.png","","targets/32.png","indirect","0","13"
"","html-keyboard-response","179","596681","0.0-10.0-0.14","wv2933l494","one_one","1","direct_first","1","ER03WE05","0","26","1","1","3","1","","0","1","0","null","","","<div style=""font-size:60px;"">+</div>","null","","","","","","","","","",""
"","html-keyboard-response","180","596774","0.0-10.0-1.14","wv2933l494","one_one","1","direct_first","1","ER03WE05","0","26","1","1","3","1","","0","1","0","null","","","<img src = 'category3/CS9.png' width = '100%;'>","null","","","","","","","","","",""
"","html-keyboard-response","181","597039","0.0-10.0-2.14","wv2933l494","one_one","1","direct_first","1","ER03WE05","0","26","1","1","3","1","","0","1","0","null","","","<img src = 'targets/14.png' width = '100%;'>","null","","","","","","","","","",""
"","html-keyboard-response","182","598063","0.0-10.0-3.14","wv2933l494","one_one","1","direct_first","1","ER03WE05","0","26","1","1","3","1","","0","1","0","1020.0399999994552","","","<img src = 'targets/mask.png' width = '100%;'>","68","neg","GS","GSold","3","category3/CS9.png","","targets/14.png","indirect","0","14"
"","html-keyboard-response","183","599581","0.0-10.0-0.15","wv2933l494","one_one","1","direct_first","1","ER03WE05","0","26","1","1","3","1","","0","1","0","null","","","<div style=""font-size:60px;"">+</div>","null","","","","","","","","","",""
"","html-keyboard-response","184","599689","0.0-10.0-1.15","wv2933l494","one_one","1","direct_first","1","ER03WE05","0","26","1","1","3","1","","0","1","0","null","","","<img src = 'category4/CS10.png' width = '100%;'>","null","","","","","","","","","",""
"","html-keyboard-response","185","599955","0.0-10.0-2.15","wv2933l494","one_one","1","direct_first","1","ER03WE05","0","26","1","1","3","1","","0","1","0","null","","","<img src = 'targets/16.png' width = '100%;'>","null","","","","","","","","","",""
"","html-keyboard-response","186","601263","0.0-10.0-3.15","wv2933l494","one_one","1","direct_first","1","ER03WE05","0","26","1","1","3","1","","0","1","0","1291.9849999998696","","","<img src = 'targets/mask.png' width = '100%;'>","68","pos","GS","GSold","4","category4/CS10.png","","targets/16.png","indirect","0","15"
"","survey-html-form","187","605301","0.0-11.0","wv2933l494","one_one","1","direct_first","1","ER03WE05","0","26","1","1","3","1","","0","1","0","3528.1700000013225","","{}","","","","","","","","","","","",""
"","html-keyboard-response","188","608317","0.0-12.0-0.0","wv2933l494","one_one","1","direct_first","1","ER03WE05","0","26","1","1","3","1","","0","1","0","null","","","<div style=""font-size:60px;"">+</div>","null","","","","","","","","","",""
"","html-keyboard-response","189","608411","0.0-12.0-1.0","wv2933l494","one_one","1","direct_first","1","ER03WE05","0","26","1","1","3","1","","0","1","0","null","","","<img src = 'category4/GS3.png' width = '100%;'>","null","","","","","","","","","",""
"","html-keyboard-response","190","608676","0.0-12.0-2.0","wv2933l494","one_one","1","direct_first","1","ER03WE05","0","26","1","1","3","1","","0","1","0","null","","","<img src = 'targets/29.png' width = '100%;'>","null","","","","","","","","","",""
"","html-keyboard-response","191","610011","0.0-12.0-3.0","wv2933l494","one_one","1","direct_first","1","ER03WE05","0","26","1","1","3","1","","0","1","0","1331.9599999996135","","","<img src = 'targets/mask.png' width = '100%;'>","75","pos","GS","GSnew","4","category4/GS3.png","","targets/29.png","indirect","1","16"
"","html-keyboard-response","192","611533","0.0-12.0-0.1","wv2933l494","one_one","1","direct_first","1","ER03WE05","0","26","1","1","3","1","","0","1","0","null","","","<div style=""font-size:60px;"">+</div>","null","","","","","","","","","",""
"","html-keyboard-response","193","611641","0.0-12.0-1.1","wv2933l494","one_one","1","direct_first","1","ER03WE05","0","26","1","1","3","1","","0","1","0","null","","","<img src = 'category2/GS1.png' width = '100%;'>","null","","","","","","","","","",""
"","html-keyboard-response","194","611908","0.0-12.0-2.1","wv2933l494","one_one","1","direct_first","1","ER03WE05","0","26","1","1","3","1","","0","1","0","null","","","<img src = 'targets/42.png' width = '100%;'>","null","","","","","","","","","",""
"","html-keyboard-response","195","612783","0.0-12.0-3.1","wv2933l494","one_one","1","direct_first","1","ER03WE05","0","26","1","1","3","1","","0","1","0","872.8950000003679","","","<img src = 'targets/mask.png' width = '100%;'>","75","neg","GS","GSnew","2","category2/GS1.png","","targets/42.png","indirect","1","17"
"","html-keyboard-response","196","614299","0.0-12.0-0.2","wv2933l494","one_one","1","direct_first","1","ER03WE05","0","26","1","1","3","1","","0","1","0","null","","","<div style=""font-size:60px;"">+</div>","null","","","","","","","","","",""
"","html-keyboard-response","197","614406","0.0-12.0-1.2","wv2933l494","one_one","1","direct_first","1","ER03WE05","0","26","1","1","3","1","","0","1","0","null","","","<img src = 'category2/GS2.png' width = '100%;'>","null","","","","","","","","","",""
"","html-keyboard-response","198","614671","0.0-12.0-2.2","wv2933l494","one_one","1","direct_first","1","ER03WE05","0","26","1","1","3","1","","0","1","0","null","","","<img src = 'targets/5.png' width = '100%;'>","null","","","","","","","","","",""
"","html-keyboard-response","199","615503","0.0-12.0-3.2","wv2933l494","one_one","1","direct_first","1","ER03WE05","0","26","1","1","3","1","","0","1","0","828.1349999996601","","","<img src = 'targets/mask.png' width = '100%;'>","75","neg","GS","GSnew","2","category2/GS2.png","","targets/5.png","indirect","1","18"
"","html-keyboard-response","200","617029","0.0-12.0-0.3","wv2933l494","one_one","1","direct_first","1","ER03WE05","0","26","1","1","3","1","","0","1","0","null","","","<div style=""font-size:60px;"">+</div>","null","","","","","","","","","",""
"","html-keyboard-response","201","617123","0.0-12.0-1.3","wv2933l494","one_one","1","direct_first","1","ER03WE05","0","26","1","1","3","1","","0","1","0","null","","","<img src = 'category1/GS2.png' width = '100%;'>","null","","","","","","","","","",""
"","html-keyboard-response","202","617388","0.0-12.0-2.3","wv2933l494","one_one","1","direct_first","1","ER03WE05","0","26","1","1","3","1","","0","1","0","null","","","<img src = 'targets/17.png' width = '100%;'>","null","","","","","","","","","",""
"","html-keyboard-response","203","618712","0.0-12.0-3.3","wv2933l494","one_one","1","direct_first","1","ER03WE05","0","26","1","1","3","1","","0","1","0","1320.4150000020163","","","<img src = 'targets/mask.png' width = '100%;'>","68","pos","GS","GSnew","1","category1/GS2.png","","targets/17.png","indirect","0","19"
"","html-keyboard-response","204","620242","0.0-12.0-0.4","wv2933l494","one_one","1","direct_first","1","ER03WE05","0","26","1","1","3","1","","0","1","0","null","","","<div style=""font-size:60px;"">+</div>","null","","","","","","","","","",""
"","html-keyboard-response","205","620336","0.0-12.0-1.4","wv2933l494","one_one","1","direct_first","1","ER03WE05","0","26","1","1","3","1","","0","1","0","null","","","<img src = 'category4/GS1.png' width = '100%;'>","null","","","","","","","","","",""
"","html-keyboard-response","206","620601","0.0-12.0-2.4","wv2933l494","one_one","1","direct_first","1","ER03WE05","0","26","1","1","3","1","","0","1","0","null","","","<img src = 'targets/4.png' width = '100%;'>","null","","","","","","","","","",""
"","html-keyboard-response","207","621290","0.0-12.0-3.4","wv2933l494","one_one","1","direct_first","1","ER03WE05","0","26","1","1","3","1","","0","1","0","686.6250000020955","","","<img src = 'targets/mask.png' width = '100%;'>","68","pos","GS","GSnew","4","category4/GS1.png","","targets/4.png","indirect","0","20"
"","html-keyboard-response","208","622809","0.0-12.0-0.5","wv2933l494","one_one","1","direct_first","1","ER03WE05","0","26","1","1","3","1","","0","1","0","null","","","<div style=""font-size:60px;"">+</div>","null","","","","","","","","","",""
"","html-keyboard-response","209","622916","0.0-12.0-1.5","wv2933l494","one_one","1","direct_first","1","ER03WE05","0","26","1","1","3","1","","0","1","0","null","","","<img src = 'category2/men.png' width = '100%;'>","null","","","","","","","","","",""
"","html-keyboard-response","210","623182","0.0-12.0-2.5","wv2933l494","one_one","1","direct_first","1","ER03WE05","0","26","1","1","3","1","","0","1","0","null","","","<img src = 'targets/39.png' width = '100%;'>","null","","","","","","","","","",""
"","html-keyboard-response","211","624710","0.0-12.0-3.5","wv2933l494","one_one","1","direct_first","1","ER03WE05","0","26","1","1","3","1","","0","1","0","1524.3649999974295","","","<img src = 'targets/mask.png' width = '100%;'>","68","neg","GS","abstract","2","category2/men.png","","targets/39.png","indirect","0","21"
"","html-keyboard-response","212","626240","0.0-12.0-0.6","wv2933l494","one_one","1","direct_first","1","ER03WE05","0","26","1","1","3","1","","0","1","0","null","","","<div style=""font-size:60px;"">+</div>","null","","","","","","","","","",""
"","html-keyboard-response","213","626348","0.0-12.0-1.6","wv2933l494","one_one","1","direct_first","1","ER03WE05","0","26","1","1","3","1","","0","1","0","null","","","<img src = 'category4/GS2.png' width = '100%;'>","null","","","","","","","","","",""
"","html-keyboard-response","214","626613","0.0-12.0-2.6","wv2933l494","one_one","1","direct_first","1","ER03WE05","0","26","1","1","3","1","","0","1","0","null","","","<img src = 'targets/33.png' width = '100%;'>","null","","","","","","","","","",""
"","html-keyboard-response","215","628758","0.0-12.0-3.6","wv2933l494","one_one","1","direct_first","1","ER03WE05","0","26","1","1","3","1","","0","1","0","2141.0399999986403","","","<img src = 'targets/mask.png' width = '100%;'>","75","pos","GS","GSnew","4","category4/GS2.png","","targets/33.png","indirect","1","22"
"","html-keyboard-response","216","630287","0.0-12.0-0.7","wv2933l494","one_one","1","direct_first","1","ER03WE05","0","26","1","1","3","1","","0","1","0","null","","","<div style=""font-size:60px;"">+</div>","null","","","","","","","","","",""
"","html-keyboard-response","217","630394","0.0-12.0-1.7","wv2933l494","one_one","1","direct_first","1","ER03WE05","0","26","1","1","3","1","","0","1","0","null","","","<img src = 'category3/GS3.png' width = '100%;'>","null","","","","","","","","","",""
"","html-keyboard-response","218","630659","0.0-12.0-2.7","wv2933l494","one_one","1","direct_first","1","ER03WE05","0","26","1","1","3","1","","0","1","0","null","","","<img src = 'targets/8.png' width = '100%;'>","null","","","","","","","","","",""
"","html-keyboard-response","219","632174","0.0-12.0-3.7","wv2933l494","one_one","1","direct_first","1","ER03WE05","0","26","1","1","3","1","","0","1","0","1512.650000000489","","","<img src = 'targets/mask.png' width = '100%;'>","75","neg","GS","GSnew","3","category3/GS3.png","","targets/8.png","indirect","1","23"
"","html-keyboard-response","220","633683","0.0-12.0-0.8","wv2933l494","one_one","1","direct_first","1","ER03WE05","0","26","1","1","3","1","","0","1","0","null","","","<div style=""font-size:60px;"">+</div>","null","","","","","","","","","",""
"","html-keyboard-response","221","633776","0.0-12.0-1.8","wv2933l494","one_one","1","direct_first","1","ER03WE05","0","26","1","1","3","1","","0","1","0","null","","","<img src = 'category2/GS3.png' width = '100%;'>","null","","","","","","","","","",""
"","html-keyboard-response","222","634039","0.0-12.0-2.8","wv2933l494","one_one","1","direct_first","1","ER03WE05","0","26","1","1","3","1","","0","1","0","null","","","<img src = 'targets/22.png' width = '100%;'>","null","","","","","","","","","",""
"","html-keyboard-response","223","638215","0.0-12.0-3.8","wv2933l494","one_one","1","direct_first","1","ER03WE05","0","26","1","1","3","1","","0","1","0","4172.23499999824","","","<img src = 'targets/mask.png' width = '100%;'>","75","neg","GS","GSnew","2","category2/GS3.png","","targets/22.png","indirect","1","24"
"","html-keyboard-response","224","639728","0.0-12.0-0.9","wv2933l494","one_one","1","direct_first","1","ER03WE05","0","26","1","1","3","1","","0","1","0","null","","","<div style=""font-size:60px;"">+</div>","null","","","","","","","","","",""
"","html-keyboard-response","225","639836","0.0-12.0-1.9","wv2933l494","one_one","1","direct_first","1","ER03WE05","0","26","1","1","3","1","","0","1","0","null","","","<img src = 'category3/GS2.png' width = '100%;'>","null","","","","","","","","","",""
"","html-keyboard-response","226","640102","0.0-12.0-2.9","wv2933l494","one_one","1","direct_first","1","ER03WE05","0","26","1","1","3","1","","0","1","0","null","","","<img src = 'targets/41.png' width = '100%;'>","null","","","","","","","","","",""
"","html-keyboard-response","227","640944","0.0-12.0-3.9","wv2933l494","one_one","1","direct_first","1","ER03WE05","0","26","1","1","3","1","","0","1","0","838.4499999992549","","","<img src = 'targets/mask.png' width = '100%;'>","75","neg","GS","GSnew","3","category3/GS2.png","","targets/41.png","indirect","1","25"
"","html-keyboard-response","228","642458","0.0-12.0-0.10","wv2933l494","one_one","1","direct_first","1","ER03WE05","0","26","1","1","3","1","","0","1","0","null","","","<div style=""font-size:60px;"">+</div>","null","","","","","","","","","",""
"","html-keyboard-response","229","642553","0.0-12.0-1.10","wv2933l494","one_one","1","direct_first","1","ER03WE05","0","26","1","1","3","1","","0","1","0","null","","","<img src = 'category3/wang.png' width = '100%;'>","null","","","","","","","","","",""
"","html-keyboard-response","230","642816","0.0-12.0-2.10","wv2933l494","one_one","1","direct_first","1","ER03WE05","0","26","1","1","3","1","","0","1","0","null","","","<img src = 'targets/35.png' width = '100%;'>","null","","","","","","","","","",""
"","html-keyboard-response","231","645794","0.0-12.0-3.10","wv2933l494","one_one","1","direct_first","1","ER03WE05","0","26","1","1","3","1","","0","1","0","2974.5350000011967","","","<img src = 'targets/mask.png' width = '100%;'>","75","neg","GS","abstract","3","category3/wang.png","","targets/35.png","indirect","1","26"
"","html-keyboard-response","232","647308","0.0-12.0-0.11","wv2933l494","one_one","1","direct_first","1","ER03WE05","0","26","1","1","3","1","","0","1","0","null","","","<div style=""font-size:60px;"">+</div>","null","","","","","","","","","",""
"","html-keyboard-response","233","647414","0.0-12.0-1.11","wv2933l494","one_one","1","direct_first","1","ER03WE05","0","26","1","1","3","1","","0","1","0","null","","","<img src = 'category3/GS1.png' width = '100%;'>","null","","","","","","","","","",""
"","html-keyboard-response","234","647679","0.0-12.0-2.11","wv2933l494","one_one","1","direct_first","1","ER03WE05","0","26","1","1","3","1","","0","1","0","null","","","<img src = 'targets/38.png' width = '100%;'>","null","","","","","","","","","",""
"","html-keyboard-response","235","650311","0.0-12.0-3.11","wv2933l494","one_one","1","direct_first","1","ER03WE05","0","26","1","1","3","1","","0","1","0","2628.17500000156","","","<img src = 'targets/mask.png' width = '100%;'>","75","neg","GS","GSnew","3","category3/GS1.png","","targets/38.png","indirect","1","27"
"","html-keyboard-response","236","651834","0.0-12.0-0.12","wv2933l494","one_one","1","direct_first","1","ER03WE05","0","26","1","1","3","1","","0","1","0","null","","","<div style=""font-size:60px;"">+</div>","null","","","","","","","","","",""
"","html-keyboard-response","237","651928","0.0-12.0-1.12","wv2933l494","one_one","1","direct_first","1","ER03WE05","0","26","1","1","3","1","","0","1","0","null","","","<img src = 'category1/GS3.png' width = '100%;'>","null","","","","","","","","","",""
"","html-keyboard-response","238","652193","0.0-12.0-2.12","wv2933l494","one_one","1","direct_first","1","ER03WE05","0","26","1","1","3","1","","0","1","0","null","","","<img src = 'targets/18.png' width = '100%;'>","null","","","","","","","","","",""
"","html-keyboard-response","239","653162","0.0-12.0-3.12","wv2933l494","one_one","1","direct_first","1","ER03WE05","0","26","1","1","3","1","","0","1","0","965.4150000023656","","","<img src = 'targets/mask.png' width = '100%;'>","68","pos","GS","GSnew","1","category1/GS3.png","","targets/18.png","indirect","0","28"
"","html-keyboard-response","240","654681","0.0-12.0-0.13","wv2933l494","one_one","1","direct_first","1","ER03WE05","0","26","1","1","3","1","","0","1","0","null","","","<div style=""font-size:60px;"">+</div>","null","","","","","","","","","",""
"","html-keyboard-response","241","654779","0.0-12.0-1.13","wv2933l494","one_one","1","direct_first","1","ER03WE05","0","26","1","1","3","1","","0","1","0","null","","","<img src = 'category4/lin.png' width = '100%;'>","null","","","","","","","","","",""
"","html-keyboard-response","242","655040","0.0-12.0-2.13","wv2933l494","one_one","1","direct_first","1","ER03WE05","0","26","1","1","3","1","","0","1","0","null","","","<img src = 'targets/44.png' width = '100%;'>","null","","","","","","","","","",""
"","html-keyboard-response","243","655936","0.0-12.0-3.13","wv2933l494","one_one","1","direct_first","1","ER03WE05","0","26","1","1","3","1","","0","1","0","892.5049999998882","","","<img src = 'targets/mask.png' width = '100%;'>","68","pos","GS","abstract","4","category4/lin.png","","targets/44.png","indirect","0","29"
"","html-keyboard-response","244","657466","0.0-12.0-0.14","wv2933l494","one_one","1","direct_first","1","ER03WE05","0","26","1","1","3","1","","0","1","0","null","","","<div style=""font-size:60px;"">+</div>","null","","","","","","","","","",""
"","html-keyboard-response","245","657560","0.0-12.0-1.14","wv2933l494","one_one","1","direct_first","1","ER03WE05","0","26","1","1","3","1","","0","1","0","null","","","<img src = 'category1/ma.png' width = '100%;'>","null","","","","","","","","","",""
"","html-keyboard-response","246","657822","0.0-12.0-2.14","wv2933l494","one_one","1","direct_first","1","ER03WE05","0","26","1","1","3","1","","0","1","0","null","","","<img src = 'targets/3.png' width = '100%;'>","null","","","","","","","","","",""
"","html-keyboard-response","247","659363","0.0-12.0-3.14","wv2933l494","one_one","1","direct_first","1","ER03WE05","0","26","1","1","3","1","","0","1","0","1538.27000000095","","","<img src = 'targets/mask.png' width = '100%;'>","68","pos","GS","abstract","1","category1/ma.png","","targets/3.png","indirect","0","30"
"","html-keyboard-response","248","660894","0.0-12.0-0.15","wv2933l494","one_one","1","direct_first","1","ER03WE05","0","26","1","1","3","1","","0","1","0","null","","","<div style=""font-size:60px;"">+</div>","null","","","","","","","","","",""
"","html-keyboard-response","249","660988","0.0-12.0-1.15","wv2933l494","one_one","1","direct_first","1","ER03WE05","0","26","1","1","3","1","","0","1","0","null","","","<img src = 'category1/GS1.png' width = '100%;'>","null","","","","","","","","","",""
"","html-keyboard-response","250","661252","0.0-12.0-2.15","wv2933l494","one_one","1","direct_first","1","ER03WE05","0","26","1","1","3","1","","0","1","0","null","","","<img src = 'targets/24.png' width = '100%;'>","null","","","","","","","","","",""
"","html-keyboard-response","251","664233","0.0-12.0-3.15","wv2933l494","one_one","1","direct_first","1","ER03WE05","0","26","1","1","3","1","","0","1","0","2979.2149999993853","","","<img src = 'targets/mask.png' width = '100%;'>","75","pos","GS","GSnew","1","category1/GS1.png","","targets/24.png","indirect","1","31"
"","survey-html-form","252","668253","0.0-13.0","wv2933l494","one_one","1","direct_first","1","ER03WE05","0","26","1","1","3","1","","0","1","0","3511.95000000007","","{}","","","","","","","","","","","",""
"","image-slider-response","253","674057","0.0-14.0-0.0","wv2933l494","one_one","1","direct_first","1","ER03WE05","0","26","1","1","3","1","","0","1","0","4795.149999998161","","","","","neg","All","all","3","category3/wang_all.png","-53","","all","",""
"","image-slider-response","254","683302","0.0-14.0-0.1","wv2933l494","one_one","1","direct_first","1","ER03WE05","0","26","1","1","3","1","","0","1","0","9241.715000000084","","","","","neg","All","all","2","category2/men_all.png","-6","","all","",""
"","image-slider-response","255","689371","0.0-14.0-0.2","wv2933l494","one_one","1","direct_first","1","ER03WE05","0","26","1","1","3","1","","0","1","0","6065.774999999092","","","","","pos","All","all","1","category1/ma_all.png","-18","","all","",""
"","image-slider-response","256","693272","0.0-14.0-0.3","wv2933l494","one_one","1","direct_first","1","ER03WE05","0","26","1","1","3","1","","0","1","0","3898.780000003171","","","","","pos","All","all","4","category4/lin_all.png","24","","all","",""
"","survey-text","257","696117","0.0-15.0","wv2933l494","one_one","1","direct_first","1","ER03WE05","0","26","1","1","3","1","","0","1","0","2829.5699999979697","","{""comment"":""""}","","","","","","","","","","","",""
"","survey-html-form","258","711072","0.0-16.0","wv2933l494","one_one","1","direct_first","1","ER03WE05","0","26","1","1","3","1","","0","1","0","14950.039999999688","","{""hinschauen"":""0"",""ablenkung"":""1"",""gewissenhaft"":""0""}","","","","","","","","","","","",""
