"success","trial_type","trial_index","time_elapsed","internal_node_id","subject","condition","condition_code","measure","measure_code","codeword","gender","age","education","chinese","fach","handedness","comment","hinschauen","ablenkung","gewissenhaft","rt","url","responses","stimulus","key_press","val","type","type_specific","category","cs_selected","target","indirect","task","nr_pres","response"
"true","fullscreen","0","4900","0.0-0.0","bgz1uj2y37","many_one","0","indirect_first","0","ER05AS01","0","22","1","1","3","1","Ich hatte das Gefühl, dass gerade Linien eher etwas negatives bedeuten und geschwungene Linien etwas positives. ","0","1","0","","","","","","","","","","","","","","",""
"","external-html","1","31581","0.0-1.0","bgz1uj2y37","many_one","0","indirect_first","0","ER05AS01","0","22","1","1","3","1","Ich hatte das Gefühl, dass gerade Linien eher etwas negatives bedeuten und geschwungene Linien etwas positives. ","0","1","0","26617.785000009462","text/information.html","","","","","","","","","","","","",""
"","external-html","2","46200","0.0-2.0","bgz1uj2y37","many_one","0","indirect_first","0","ER05AS01","0","22","1","1","3","1","Ich hatte das Gefühl, dass gerade Linien eher etwas negatives bedeuten und geschwungene Linien etwas positives. ","0","1","0","14364.825000055134","text/consent.html","","","","","","","","","","","","",""
"","survey-html-form","3","88414","0.0-3.0","bgz1uj2y37","many_one","0","indirect_first","0","ER05AS01","0","22","1","1","3","1","Ich hatte das Gefühl, dass gerade Linien eher etwas negatives bedeuten und geschwungene Linien etwas positives. ","0","1","0","42195.1649999246","","{""codeword_enter"":""ER05AS01""}","","","","","","","","","","","",""
"","survey-html-form","4","114019","0.0-4.0","bgz1uj2y37","many_one","0","indirect_first","0","ER05AS01","0","22","1","1","3","1","Ich hatte das Gefühl, dass gerade Linien eher etwas negatives bedeuten und geschwungene Linien etwas positives. ","0","1","0","25567.07500014454","","{""age"":""22"",""education"":""1"",""subject"":""3"",""gender"":""0"",""handedness"":""1"",""chinese"":""1""}","","","","","","","","","","","",""
"","survey-html-form","5","119236","0.0-5.0","bgz1uj2y37","many_one","0","indirect_first","0","ER05AS01","0","22","1","1","3","1","Ich hatte das Gefühl, dass gerade Linien eher etwas negatives bedeuten und geschwungene Linien etwas positives. ","0","1","0","5201.60000002943","","{}","","","","","","","","","","","",""
"","html-keyboard-response","6","123262","0.0-6.0-0.0-0.0","bgz1uj2y37","many_one","0","indirect_first","0","ER05AS01","0","22","1","1","3","1","Ich hatte das Gefühl, dass gerade Linien eher etwas negatives bedeuten und geschwungene Linien etwas positives. ","0","1","0","null","","","<div class = 'row'><div class = 'column'><img src = 'usneg/9041.bmp' width = '100%;'></div><div class = 'column'><img src = 'category3/CS7.png' width = '70%;'></div></div>","null","neg","CS","CS","3","category3/CS7.png","","","","",""
"","html-keyboard-response","7","125799","0.0-6.0-0.0-0.1","bgz1uj2y37","many_one","0","indirect_first","0","ER05AS01","0","22","1","1","3","1","Ich hatte das Gefühl, dass gerade Linien eher etwas negatives bedeuten und geschwungene Linien etwas positives. ","0","1","0","null","","","<div class = 'row'><div class = 'column'><img src = 'usneg/9280.bmp' width = '100%;'></div><div class = 'column'><img src = 'category2/CS6.png' width = '70%;'></div></div>","null","neg","CS","CS","2","category2/CS6.png","","","","",""
"","html-keyboard-response","8","128319","0.0-6.0-0.0-0.2","bgz1uj2y37","many_one","0","indirect_first","0","ER05AS01","0","22","1","1","3","1","Ich hatte das Gefühl, dass gerade Linien eher etwas negatives bedeuten und geschwungene Linien etwas positives. ","0","1","0","null","","","<div class = 'row'><div class = 'column'><img src = 'usneg/9182.bmp' width = '100%;'></div><div class = 'column'><img src = 'category2/CS10.png' width = '70%;'></div></div>","null","neg","CS","CS","2","category2/CS10.png","","","","",""
"","html-keyboard-response","9","130843","0.0-6.0-0.0-0.3","bgz1uj2y37","many_one","0","indirect_first","0","ER05AS01","0","22","1","1","3","1","Ich hatte das Gefühl, dass gerade Linien eher etwas negatives bedeuten und geschwungene Linien etwas positives. ","0","1","0","null","","","<div class = 'row'><div class = 'column'><img src = 'usneg/9000.bmp' width = '100%;'></div><div class = 'column'><img src = 'category3/CS9.png' width = '70%;'></div></div>","null","neg","CS","CS","3","category3/CS9.png","","","","",""
"","html-keyboard-response","10","133355","0.0-6.0-0.0-0.4","bgz1uj2y37","many_one","0","indirect_first","0","ER05AS01","0","22","1","1","3","1","Ich hatte das Gefühl, dass gerade Linien eher etwas negatives bedeuten und geschwungene Linien etwas positives. ","0","1","0","null","","","<div class = 'row'><div class = 'column'><img src = 'uspos/5600.bmp' width = '100%;'></div><div class = 'column'><img src = 'category1/CS10.png' width = '70%;'></div></div>","null","pos","CS","CS","1","category1/CS10.png","","","","",""
"","html-keyboard-response","11","135877","0.0-6.0-0.0-0.5","bgz1uj2y37","many_one","0","indirect_first","0","ER05AS01","0","22","1","1","3","1","Ich hatte das Gefühl, dass gerade Linien eher etwas negatives bedeuten und geschwungene Linien etwas positives. ","0","1","0","null","","","<div class = 'row'><div class = 'column'><img src = 'uspos/1710.bmp' width = '100%;'></div><div class = 'column'><img src = 'category1/CS5.png' width = '70%;'></div></div>","null","pos","CS","CS","1","category1/CS5.png","","","","",""
"","html-keyboard-response","12","138388","0.0-6.0-0.0-0.6","bgz1uj2y37","many_one","0","indirect_first","0","ER05AS01","0","22","1","1","3","1","Ich hatte das Gefühl, dass gerade Linien eher etwas negatives bedeuten und geschwungene Linien etwas positives. ","0","1","0","null","","","<div class = 'row'><div class = 'column'><img src = 'category1/CS4.png' width = '70%;'></div><div class = 'column'><img src = 'uspos/2040.bmp' width = '100%;'></div></div>","null","pos","CS","CS","1","category1/CS4.png","","","","",""
"","html-keyboard-response","13","140899","0.0-6.0-0.0-0.7","bgz1uj2y37","many_one","0","indirect_first","0","ER05AS01","0","22","1","1","3","1","Ich hatte das Gefühl, dass gerade Linien eher etwas negatives bedeuten und geschwungene Linien etwas positives. ","0","1","0","null","","","<div class = 'row'><div class = 'column'><img src = 'uspos/5830.bmp' width = '100%;'></div><div class = 'column'><img src = 'category1/CS1.png' width = '70%;'></div></div>","null","pos","CS","CS","1","category1/CS1.png","","","","",""
"","html-keyboard-response","14","143419","0.0-6.0-0.0-0.8","bgz1uj2y37","many_one","0","indirect_first","0","ER05AS01","0","22","1","1","3","1","Ich hatte das Gefühl, dass gerade Linien eher etwas negatives bedeuten und geschwungene Linien etwas positives. ","0","1","0","null","","","<div class = 'row'><div class = 'column'><img src = 'usneg/7380.bmp' width = '100%;'></div><div class = 'column'><img src = 'category2/CS4.png' width = '70%;'></div></div>","null","neg","CS","CS","2","category2/CS4.png","","","","",""
"","html-keyboard-response","15","145958","0.0-6.0-0.0-0.9","bgz1uj2y37","many_one","0","indirect_first","0","ER05AS01","0","22","1","1","3","1","Ich hatte das Gefühl, dass gerade Linien eher etwas negatives bedeuten und geschwungene Linien etwas positives. ","0","1","0","null","","","<div class = 'row'><div class = 'column'><img src = 'category4/CS5.png' width = '70%;'></div><div class = 'column'><img src = 'uspos/5831.bmp' width = '100%;'></div></div>","null","pos","CS","CS","4","category4/CS5.png","","","","",""
"","html-keyboard-response","16","148482","0.0-6.0-0.0-0.10","bgz1uj2y37","many_one","0","indirect_first","0","ER05AS01","0","22","1","1","3","1","Ich hatte das Gefühl, dass gerade Linien eher etwas negatives bedeuten und geschwungene Linien etwas positives. ","0","1","0","null","","","<div class = 'row'><div class = 'column'><img src = 'usneg/9520.bmp' width = '100%;'></div><div class = 'column'><img src = 'category2/CS9.png' width = '70%;'></div></div>","null","neg","CS","CS","2","category2/CS9.png","","","","",""
"","html-keyboard-response","17","151019","0.0-6.0-0.0-0.11","bgz1uj2y37","many_one","0","indirect_first","0","ER05AS01","0","22","1","1","3","1","Ich hatte das Gefühl, dass gerade Linien eher etwas negatives bedeuten und geschwungene Linien etwas positives. ","0","1","0","null","","","<div class = 'row'><div class = 'column'><img src = 'category2/CS1.png' width = '70%;'></div><div class = 'column'><img src = 'usneg/9342.bmp' width = '100%;'></div></div>","null","neg","CS","CS","2","category2/CS1.png","","","","",""
"","html-keyboard-response","18","153533","0.0-6.0-0.0-0.12","bgz1uj2y37","many_one","0","indirect_first","0","ER05AS01","0","22","1","1","3","1","Ich hatte das Gefühl, dass gerade Linien eher etwas negatives bedeuten und geschwungene Linien etwas positives. ","0","1","0","null","","","<div class = 'row'><div class = 'column'><img src = 'category4/CS3.png' width = '70%;'></div><div class = 'column'><img src = 'uspos/8461.bmp' width = '100%;'></div></div>","null","pos","CS","CS","4","category4/CS3.png","","","","",""
"","html-keyboard-response","19","156061","0.0-6.0-0.0-0.13","bgz1uj2y37","many_one","0","indirect_first","0","ER05AS01","0","22","1","1","3","1","Ich hatte das Gefühl, dass gerade Linien eher etwas negatives bedeuten und geschwungene Linien etwas positives. ","0","1","0","null","","","<div class = 'row'><div class = 'column'><img src = 'category4/CS4.png' width = '70%;'></div><div class = 'column'><img src = 'uspos/5621.bmp' width = '100%;'></div></div>","null","pos","CS","CS","4","category4/CS4.png","","","","",""
"","html-keyboard-response","20","158581","0.0-6.0-0.0-0.14","bgz1uj2y37","many_one","0","indirect_first","0","ER05AS01","0","22","1","1","3","1","Ich hatte das Gefühl, dass gerade Linien eher etwas negatives bedeuten und geschwungene Linien etwas positives. ","0","1","0","null","","","<div class = 'row'><div class = 'column'><img src = 'category3/CS1.png' width = '70%;'></div><div class = 'column'><img src = 'usneg/6212.bmp' width = '100%;'></div></div>","null","neg","CS","CS","3","category3/CS1.png","","","","",""
"","html-keyboard-response","21","161113","0.0-6.0-0.0-0.15","bgz1uj2y37","many_one","0","indirect_first","0","ER05AS01","0","22","1","1","3","1","Ich hatte das Gefühl, dass gerade Linien eher etwas negatives bedeuten und geschwungene Linien etwas positives. ","0","1","0","null","","","<div class = 'row'><div class = 'column'><img src = 'category3/CS8.png' width = '70%;'></div><div class = 'column'><img src = 'usneg/9340.bmp' width = '100%;'></div></div>","null","neg","CS","CS","3","category3/CS8.png","","","","",""
"","html-keyboard-response","22","163630","0.0-6.0-0.0-0.16","bgz1uj2y37","many_one","0","indirect_first","0","ER05AS01","0","22","1","1","3","1","Ich hatte das Gefühl, dass gerade Linien eher etwas negatives bedeuten und geschwungene Linien etwas positives. ","0","1","0","null","","","<div class = 'row'><div class = 'column'><img src = 'category1/CS2.png' width = '70%;'></div><div class = 'column'><img src = 'uspos/2030.bmp' width = '100%;'></div></div>","null","pos","CS","CS","1","category1/CS2.png","","","","",""
"","html-keyboard-response","23","166153","0.0-6.0-0.0-0.17","bgz1uj2y37","many_one","0","indirect_first","0","ER05AS01","0","22","1","1","3","1","Ich hatte das Gefühl, dass gerade Linien eher etwas negatives bedeuten und geschwungene Linien etwas positives. ","0","1","0","null","","","<div class = 'row'><div class = 'column'><img src = 'category4/CS6.png' width = '70%;'></div><div class = 'column'><img src = 'uspos/8490.bmp' width = '100%;'></div></div>","null","pos","CS","CS","4","category4/CS6.png","","","","",""
"","html-keyboard-response","24","168665","0.0-6.0-0.0-0.18","bgz1uj2y37","many_one","0","indirect_first","0","ER05AS01","0","22","1","1","3","1","Ich hatte das Gefühl, dass gerade Linien eher etwas negatives bedeuten und geschwungene Linien etwas positives. ","0","1","0","null","","","<div class = 'row'><div class = 'column'><img src = 'category4/CS8.png' width = '70%;'></div><div class = 'column'><img src = 'uspos/1463.bmp' width = '100%;'></div></div>","null","pos","CS","CS","4","category4/CS8.png","","","","",""
"","html-keyboard-response","25","171175","0.0-6.0-0.0-0.19","bgz1uj2y37","many_one","0","indirect_first","0","ER05AS01","0","22","1","1","3","1","Ich hatte das Gefühl, dass gerade Linien eher etwas negatives bedeuten und geschwungene Linien etwas positives. ","0","1","0","null","","","<div class = 'row'><div class = 'column'><img src = 'category3/CS2.png' width = '70%;'></div><div class = 'column'><img src = 'usneg/2900.bmp' width = '100%;'></div></div>","null","neg","CS","CS","3","category3/CS2.png","","","","",""
"","survey-html-form","26","173750","0.0-6.0-1.0","bgz1uj2y37","many_one","0","indirect_first","0","ER05AS01","0","22","1","1","3","1","Ich hatte das Gefühl, dass gerade Linien eher etwas negatives bedeuten und geschwungene Linien etwas positives. ","0","1","0","2068.904999876395","","{}","","","","","","","","","","","",""
"","html-keyboard-response","27","177781","0.0-6.0-2.0-0.0","bgz1uj2y37","many_one","0","indirect_first","0","ER05AS01","0","22","1","1","3","1","Ich hatte das Gefühl, dass gerade Linien eher etwas negatives bedeuten und geschwungene Linien etwas positives. ","0","1","0","null","","","<div class = 'row'><div class = 'column'><img src = 'category2/CS10.png' width = '70%;'></div><div class = 'column'><img src = 'usneg/9182.bmp' width = '100%;'></div></div>","null","neg","CS","CS","2","category2/CS10.png","","","","",""
"","html-keyboard-response","28","180313","0.0-6.0-2.0-0.1","bgz1uj2y37","many_one","0","indirect_first","0","ER05AS01","0","22","1","1","3","1","Ich hatte das Gefühl, dass gerade Linien eher etwas negatives bedeuten und geschwungene Linien etwas positives. ","0","1","0","null","","","<div class = 'row'><div class = 'column'><img src = 'category2/CS9.png' width = '70%;'></div><div class = 'column'><img src = 'usneg/9520.bmp' width = '100%;'></div></div>","null","neg","CS","CS","2","category2/CS9.png","","","","",""
"","html-keyboard-response","29","182824","0.0-6.0-2.0-0.2","bgz1uj2y37","many_one","0","indirect_first","0","ER05AS01","0","22","1","1","3","1","Ich hatte das Gefühl, dass gerade Linien eher etwas negatives bedeuten und geschwungene Linien etwas positives. ","0","1","0","null","","","<div class = 'row'><div class = 'column'><img src = 'category4/CS6.png' width = '70%;'></div><div class = 'column'><img src = 'uspos/8490.bmp' width = '100%;'></div></div>","null","pos","CS","CS","4","category4/CS6.png","","","","",""
"","html-keyboard-response","30","185336","0.0-6.0-2.0-0.3","bgz1uj2y37","many_one","0","indirect_first","0","ER05AS01","0","22","1","1","3","1","Ich hatte das Gefühl, dass gerade Linien eher etwas negatives bedeuten und geschwungene Linien etwas positives. ","0","1","0","null","","","<div class = 'row'><div class = 'column'><img src = 'uspos/5621.bmp' width = '100%;'></div><div class = 'column'><img src = 'category4/CS4.png' width = '70%;'></div></div>","null","pos","CS","CS","4","category4/CS4.png","","","","",""
"","html-keyboard-response","31","187855","0.0-6.0-2.0-0.4","bgz1uj2y37","many_one","0","indirect_first","0","ER05AS01","0","22","1","1","3","1","Ich hatte das Gefühl, dass gerade Linien eher etwas negatives bedeuten und geschwungene Linien etwas positives. ","0","1","0","null","","","<div class = 'row'><div class = 'column'><img src = 'uspos/1463.bmp' width = '100%;'></div><div class = 'column'><img src = 'category4/CS8.png' width = '70%;'></div></div>","null","pos","CS","CS","4","category4/CS8.png","","","","",""
"","html-keyboard-response","32","190378","0.0-6.0-2.0-0.5","bgz1uj2y37","many_one","0","indirect_first","0","ER05AS01","0","22","1","1","3","1","Ich hatte das Gefühl, dass gerade Linien eher etwas negatives bedeuten und geschwungene Linien etwas positives. ","0","1","0","null","","","<div class = 'row'><div class = 'column'><img src = 'usneg/9342.bmp' width = '100%;'></div><div class = 'column'><img src = 'category2/CS1.png' width = '70%;'></div></div>","null","neg","CS","CS","2","category2/CS1.png","","","","",""
"","html-keyboard-response","33","192911","0.0-6.0-2.0-0.6","bgz1uj2y37","many_one","0","indirect_first","0","ER05AS01","0","22","1","1","3","1","Ich hatte das Gefühl, dass gerade Linien eher etwas negatives bedeuten und geschwungene Linien etwas positives. ","0","1","0","null","","","<div class = 'row'><div class = 'column'><img src = 'category3/CS2.png' width = '70%;'></div><div class = 'column'><img src = 'usneg/2900.bmp' width = '100%;'></div></div>","null","neg","CS","CS","3","category3/CS2.png","","","","",""
"","html-keyboard-response","34","195432","0.0-6.0-2.0-0.7","bgz1uj2y37","many_one","0","indirect_first","0","ER05AS01","0","22","1","1","3","1","Ich hatte das Gefühl, dass gerade Linien eher etwas negatives bedeuten und geschwungene Linien etwas positives. ","0","1","0","null","","","<div class = 'row'><div class = 'column'><img src = 'category2/CS6.png' width = '70%;'></div><div class = 'column'><img src = 'usneg/9280.bmp' width = '100%;'></div></div>","null","neg","CS","CS","2","category2/CS6.png","","","","",""
"","html-keyboard-response","35","197943","0.0-6.0-2.0-0.8","bgz1uj2y37","many_one","0","indirect_first","0","ER05AS01","0","22","1","1","3","1","Ich hatte das Gefühl, dass gerade Linien eher etwas negatives bedeuten und geschwungene Linien etwas positives. ","0","1","0","null","","","<div class = 'row'><div class = 'column'><img src = 'category3/CS8.png' width = '70%;'></div><div class = 'column'><img src = 'usneg/9340.bmp' width = '100%;'></div></div>","null","neg","CS","CS","3","category3/CS8.png","","","","",""
"","html-keyboard-response","36","200453","0.0-6.0-2.0-0.9","bgz1uj2y37","many_one","0","indirect_first","0","ER05AS01","0","22","1","1","3","1","Ich hatte das Gefühl, dass gerade Linien eher etwas negatives bedeuten und geschwungene Linien etwas positives. ","0","1","0","null","","","<div class = 'row'><div class = 'column'><img src = 'uspos/5831.bmp' width = '100%;'></div><div class = 'column'><img src = 'category4/CS5.png' width = '70%;'></div></div>","null","pos","CS","CS","4","category4/CS5.png","","","","",""
"","html-keyboard-response","37","202974","0.0-6.0-2.0-0.10","bgz1uj2y37","many_one","0","indirect_first","0","ER05AS01","0","22","1","1","3","1","Ich hatte das Gefühl, dass gerade Linien eher etwas negatives bedeuten und geschwungene Linien etwas positives. ","0","1","0","null","","","<div class = 'row'><div class = 'column'><img src = 'category1/CS2.png' width = '70%;'></div><div class = 'column'><img src = 'uspos/2030.bmp' width = '100%;'></div></div>","null","pos","CS","CS","1","category1/CS2.png","","","","",""
"","html-keyboard-response","38","205485","0.0-6.0-2.0-0.11","bgz1uj2y37","many_one","0","indirect_first","0","ER05AS01","0","22","1","1","3","1","Ich hatte das Gefühl, dass gerade Linien eher etwas negatives bedeuten und geschwungene Linien etwas positives. ","0","1","0","null","","","<div class = 'row'><div class = 'column'><img src = 'uspos/5830.bmp' width = '100%;'></div><div class = 'column'><img src = 'category1/CS1.png' width = '70%;'></div></div>","null","pos","CS","CS","1","category1/CS1.png","","","","",""
"","html-keyboard-response","39","207995","0.0-6.0-2.0-0.12","bgz1uj2y37","many_one","0","indirect_first","0","ER05AS01","0","22","1","1","3","1","Ich hatte das Gefühl, dass gerade Linien eher etwas negatives bedeuten und geschwungene Linien etwas positives. ","0","1","0","null","","","<div class = 'row'><div class = 'column'><img src = 'category1/CS4.png' width = '70%;'></div><div class = 'column'><img src = 'uspos/2040.bmp' width = '100%;'></div></div>","null","pos","CS","CS","1","category1/CS4.png","","","","",""
"","html-keyboard-response","40","210507","0.0-6.0-2.0-0.13","bgz1uj2y37","many_one","0","indirect_first","0","ER05AS01","0","22","1","1","3","1","Ich hatte das Gefühl, dass gerade Linien eher etwas negatives bedeuten und geschwungene Linien etwas positives. ","0","1","0","null","","","<div class = 'row'><div class = 'column'><img src = 'category3/CS7.png' width = '70%;'></div><div class = 'column'><img src = 'usneg/9041.bmp' width = '100%;'></div></div>","null","neg","CS","CS","3","category3/CS7.png","","","","",""
"","html-keyboard-response","41","213017","0.0-6.0-2.0-0.14","bgz1uj2y37","many_one","0","indirect_first","0","ER05AS01","0","22","1","1","3","1","Ich hatte das Gefühl, dass gerade Linien eher etwas negatives bedeuten und geschwungene Linien etwas positives. ","0","1","0","null","","","<div class = 'row'><div class = 'column'><img src = 'usneg/9000.bmp' width = '100%;'></div><div class = 'column'><img src = 'category3/CS9.png' width = '70%;'></div></div>","null","neg","CS","CS","3","category3/CS9.png","","","","",""
"","html-keyboard-response","42","215537","0.0-6.0-2.0-0.15","bgz1uj2y37","many_one","0","indirect_first","0","ER05AS01","0","22","1","1","3","1","Ich hatte das Gefühl, dass gerade Linien eher etwas negatives bedeuten und geschwungene Linien etwas positives. ","0","1","0","null","","","<div class = 'row'><div class = 'column'><img src = 'category1/CS10.png' width = '70%;'></div><div class = 'column'><img src = 'uspos/5600.bmp' width = '100%;'></div></div>","null","pos","CS","CS","1","category1/CS10.png","","","","",""
"","html-keyboard-response","43","218076","0.0-6.0-2.0-0.16","bgz1uj2y37","many_one","0","indirect_first","0","ER05AS01","0","22","1","1","3","1","Ich hatte das Gefühl, dass gerade Linien eher etwas negatives bedeuten und geschwungene Linien etwas positives. ","0","1","0","null","","","<div class = 'row'><div class = 'column'><img src = 'category1/CS5.png' width = '70%;'></div><div class = 'column'><img src = 'uspos/1710.bmp' width = '100%;'></div></div>","null","pos","CS","CS","1","category1/CS5.png","","","","",""
"","html-keyboard-response","44","220607","0.0-6.0-2.0-0.17","bgz1uj2y37","many_one","0","indirect_first","0","ER05AS01","0","22","1","1","3","1","Ich hatte das Gefühl, dass gerade Linien eher etwas negatives bedeuten und geschwungene Linien etwas positives. ","0","1","0","null","","","<div class = 'row'><div class = 'column'><img src = 'category2/CS4.png' width = '70%;'></div><div class = 'column'><img src = 'usneg/7380.bmp' width = '100%;'></div></div>","null","neg","CS","CS","2","category2/CS4.png","","","","",""
"","html-keyboard-response","45","223120","0.0-6.0-2.0-0.18","bgz1uj2y37","many_one","0","indirect_first","0","ER05AS01","0","22","1","1","3","1","Ich hatte das Gefühl, dass gerade Linien eher etwas negatives bedeuten und geschwungene Linien etwas positives. ","0","1","0","null","","","<div class = 'row'><div class = 'column'><img src = 'category4/CS3.png' width = '70%;'></div><div class = 'column'><img src = 'uspos/8461.bmp' width = '100%;'></div></div>","null","pos","CS","CS","4","category4/CS3.png","","","","",""
"","html-keyboard-response","46","225631","0.0-6.0-2.0-0.19","bgz1uj2y37","many_one","0","indirect_first","0","ER05AS01","0","22","1","1","3","1","Ich hatte das Gefühl, dass gerade Linien eher etwas negatives bedeuten und geschwungene Linien etwas positives. ","0","1","0","null","","","<div class = 'row'><div class = 'column'><img src = 'usneg/6212.bmp' width = '100%;'></div><div class = 'column'><img src = 'category3/CS1.png' width = '70%;'></div></div>","null","neg","CS","CS","3","category3/CS1.png","","","","",""
"","survey-html-form","47","228599","0.0-6.0-3.0","bgz1uj2y37","many_one","0","indirect_first","0","ER05AS01","0","22","1","1","3","1","Ich hatte das Gefühl, dass gerade Linien eher etwas negatives bedeuten und geschwungene Linien etwas positives. ","0","1","0","2462.63000019826","","{}","","","","","","","","","","","",""
"","html-keyboard-response","48","232618","0.0-6.0-4.0-0.0","bgz1uj2y37","many_one","0","indirect_first","0","ER05AS01","0","22","1","1","3","1","Ich hatte das Gefühl, dass gerade Linien eher etwas negatives bedeuten und geschwungene Linien etwas positives. ","0","1","0","null","","","<div class = 'row'><div class = 'column'><img src = 'category4/CS8.png' width = '70%;'></div><div class = 'column'><img src = 'uspos/1463.bmp' width = '100%;'></div></div>","null","pos","CS","CS","4","category4/CS8.png","","","","",""
"","html-keyboard-response","49","235150","0.0-6.0-4.0-0.1","bgz1uj2y37","many_one","0","indirect_first","0","ER05AS01","0","22","1","1","3","1","Ich hatte das Gefühl, dass gerade Linien eher etwas negatives bedeuten und geschwungene Linien etwas positives. ","0","1","0","null","","","<div class = 'row'><div class = 'column'><img src = 'uspos/1710.bmp' width = '100%;'></div><div class = 'column'><img src = 'category1/CS5.png' width = '70%;'></div></div>","null","pos","CS","CS","1","category1/CS5.png","","","","",""
"","html-keyboard-response","50","237662","0.0-6.0-4.0-0.2","bgz1uj2y37","many_one","0","indirect_first","0","ER05AS01","0","22","1","1","3","1","Ich hatte das Gefühl, dass gerade Linien eher etwas negatives bedeuten und geschwungene Linien etwas positives. ","0","1","0","null","","","<div class = 'row'><div class = 'column'><img src = 'usneg/9182.bmp' width = '100%;'></div><div class = 'column'><img src = 'category2/CS10.png' width = '70%;'></div></div>","null","neg","CS","CS","2","category2/CS10.png","","","","",""
"","html-keyboard-response","51","240183","0.0-6.0-4.0-0.3","bgz1uj2y37","many_one","0","indirect_first","0","ER05AS01","0","22","1","1","3","1","Ich hatte das Gefühl, dass gerade Linien eher etwas negatives bedeuten und geschwungene Linien etwas positives. ","0","1","0","null","","","<div class = 'row'><div class = 'column'><img src = 'category1/CS1.png' width = '70%;'></div><div class = 'column'><img src = 'uspos/5830.bmp' width = '100%;'></div></div>","null","pos","CS","CS","1","category1/CS1.png","","","","",""
"","html-keyboard-response","52","242721","0.0-6.0-4.0-0.4","bgz1uj2y37","many_one","0","indirect_first","0","ER05AS01","0","22","1","1","3","1","Ich hatte das Gefühl, dass gerade Linien eher etwas negatives bedeuten und geschwungene Linien etwas positives. ","0","1","0","null","","","<div class = 'row'><div class = 'column'><img src = 'usneg/9041.bmp' width = '100%;'></div><div class = 'column'><img src = 'category3/CS7.png' width = '70%;'></div></div>","null","neg","CS","CS","3","category3/CS7.png","","","","",""
"","html-keyboard-response","53","245253","0.0-6.0-4.0-0.5","bgz1uj2y37","many_one","0","indirect_first","0","ER05AS01","0","22","1","1","3","1","Ich hatte das Gefühl, dass gerade Linien eher etwas negatives bedeuten und geschwungene Linien etwas positives. ","0","1","0","null","","","<div class = 'row'><div class = 'column'><img src = 'category2/CS1.png' width = '70%;'></div><div class = 'column'><img src = 'usneg/9342.bmp' width = '100%;'></div></div>","null","neg","CS","CS","2","category2/CS1.png","","","","",""
"","html-keyboard-response","54","247778","0.0-6.0-4.0-0.6","bgz1uj2y37","many_one","0","indirect_first","0","ER05AS01","0","22","1","1","3","1","Ich hatte das Gefühl, dass gerade Linien eher etwas negatives bedeuten und geschwungene Linien etwas positives. ","0","1","0","null","","","<div class = 'row'><div class = 'column'><img src = 'usneg/7380.bmp' width = '100%;'></div><div class = 'column'><img src = 'category2/CS4.png' width = '70%;'></div></div>","null","neg","CS","CS","2","category2/CS4.png","","","","",""
"","html-keyboard-response","55","250289","0.0-6.0-4.0-0.7","bgz1uj2y37","many_one","0","indirect_first","0","ER05AS01","0","22","1","1","3","1","Ich hatte das Gefühl, dass gerade Linien eher etwas negatives bedeuten und geschwungene Linien etwas positives. ","0","1","0","null","","","<div class = 'row'><div class = 'column'><img src = 'category3/CS9.png' width = '70%;'></div><div class = 'column'><img src = 'usneg/9000.bmp' width = '100%;'></div></div>","null","neg","CS","CS","3","category3/CS9.png","","","","",""
"","html-keyboard-response","56","252847","0.0-6.0-4.0-0.8","bgz1uj2y37","many_one","0","indirect_first","0","ER05AS01","0","22","1","1","3","1","Ich hatte das Gefühl, dass gerade Linien eher etwas negatives bedeuten und geschwungene Linien etwas positives. ","0","1","0","null","","","<div class = 'row'><div class = 'column'><img src = 'usneg/9280.bmp' width = '100%;'></div><div class = 'column'><img src = 'category2/CS6.png' width = '70%;'></div></div>","null","neg","CS","CS","2","category2/CS6.png","","","","",""
"","html-keyboard-response","57","255387","0.0-6.0-4.0-0.9","bgz1uj2y37","many_one","0","indirect_first","0","ER05AS01","0","22","1","1","3","1","Ich hatte das Gefühl, dass gerade Linien eher etwas negatives bedeuten und geschwungene Linien etwas positives. ","0","1","0","null","","","<div class = 'row'><div class = 'column'><img src = 'category1/CS10.png' width = '70%;'></div><div class = 'column'><img src = 'uspos/5600.bmp' width = '100%;'></div></div>","null","pos","CS","CS","1","category1/CS10.png","","","","",""
"","html-keyboard-response","58","257914","0.0-6.0-4.0-0.10","bgz1uj2y37","many_one","0","indirect_first","0","ER05AS01","0","22","1","1","3","1","Ich hatte das Gefühl, dass gerade Linien eher etwas negatives bedeuten und geschwungene Linien etwas positives. ","0","1","0","null","","","<div class = 'row'><div class = 'column'><img src = 'usneg/9520.bmp' width = '100%;'></div><div class = 'column'><img src = 'category2/CS9.png' width = '70%;'></div></div>","null","neg","CS","CS","2","category2/CS9.png","","","","",""
"","html-keyboard-response","59","260444","0.0-6.0-4.0-0.11","bgz1uj2y37","many_one","0","indirect_first","0","ER05AS01","0","22","1","1","3","1","Ich hatte das Gefühl, dass gerade Linien eher etwas negatives bedeuten und geschwungene Linien etwas positives. ","0","1","0","null","","","<div class = 'row'><div class = 'column'><img src = 'usneg/6212.bmp' width = '100%;'></div><div class = 'column'><img src = 'category3/CS1.png' width = '70%;'></div></div>","null","neg","CS","CS","3","category3/CS1.png","","","","",""
"","html-keyboard-response","60","262956","0.0-6.0-4.0-0.12","bgz1uj2y37","many_one","0","indirect_first","0","ER05AS01","0","22","1","1","3","1","Ich hatte das Gefühl, dass gerade Linien eher etwas negatives bedeuten und geschwungene Linien etwas positives. ","0","1","0","null","","","<div class = 'row'><div class = 'column'><img src = 'uspos/5621.bmp' width = '100%;'></div><div class = 'column'><img src = 'category4/CS4.png' width = '70%;'></div></div>","null","pos","CS","CS","4","category4/CS4.png","","","","",""
"","html-keyboard-response","61","265476","0.0-6.0-4.0-0.13","bgz1uj2y37","many_one","0","indirect_first","0","ER05AS01","0","22","1","1","3","1","Ich hatte das Gefühl, dass gerade Linien eher etwas negatives bedeuten und geschwungene Linien etwas positives. ","0","1","0","null","","","<div class = 'row'><div class = 'column'><img src = 'uspos/8461.bmp' width = '100%;'></div><div class = 'column'><img src = 'category4/CS3.png' width = '70%;'></div></div>","null","pos","CS","CS","4","category4/CS3.png","","","","",""
"","html-keyboard-response","62","267988","0.0-6.0-4.0-0.14","bgz1uj2y37","many_one","0","indirect_first","0","ER05AS01","0","22","1","1","3","1","Ich hatte das Gefühl, dass gerade Linien eher etwas negatives bedeuten und geschwungene Linien etwas positives. ","0","1","0","null","","","<div class = 'row'><div class = 'column'><img src = 'usneg/2900.bmp' width = '100%;'></div><div class = 'column'><img src = 'category3/CS2.png' width = '70%;'></div></div>","null","neg","CS","CS","3","category3/CS2.png","","","","",""
"","html-keyboard-response","63","270500","0.0-6.0-4.0-0.15","bgz1uj2y37","many_one","0","indirect_first","0","ER05AS01","0","22","1","1","3","1","Ich hatte das Gefühl, dass gerade Linien eher etwas negatives bedeuten und geschwungene Linien etwas positives. ","0","1","0","null","","","<div class = 'row'><div class = 'column'><img src = 'category1/CS2.png' width = '70%;'></div><div class = 'column'><img src = 'uspos/2030.bmp' width = '100%;'></div></div>","null","pos","CS","CS","1","category1/CS2.png","","","","",""
"","html-keyboard-response","64","273038","0.0-6.0-4.0-0.16","bgz1uj2y37","many_one","0","indirect_first","0","ER05AS01","0","22","1","1","3","1","Ich hatte das Gefühl, dass gerade Linien eher etwas negatives bedeuten und geschwungene Linien etwas positives. ","0","1","0","null","","","<div class = 'row'><div class = 'column'><img src = 'category4/CS5.png' width = '70%;'></div><div class = 'column'><img src = 'uspos/5831.bmp' width = '100%;'></div></div>","null","pos","CS","CS","4","category4/CS5.png","","","","",""
"","html-keyboard-response","65","275570","0.0-6.0-4.0-0.17","bgz1uj2y37","many_one","0","indirect_first","0","ER05AS01","0","22","1","1","3","1","Ich hatte das Gefühl, dass gerade Linien eher etwas negatives bedeuten und geschwungene Linien etwas positives. ","0","1","0","null","","","<div class = 'row'><div class = 'column'><img src = 'uspos/2040.bmp' width = '100%;'></div><div class = 'column'><img src = 'category1/CS4.png' width = '70%;'></div></div>","null","pos","CS","CS","1","category1/CS4.png","","","","",""
"","html-keyboard-response","66","278093","0.0-6.0-4.0-0.18","bgz1uj2y37","many_one","0","indirect_first","0","ER05AS01","0","22","1","1","3","1","Ich hatte das Gefühl, dass gerade Linien eher etwas negatives bedeuten und geschwungene Linien etwas positives. ","0","1","0","null","","","<div class = 'row'><div class = 'column'><img src = 'uspos/8490.bmp' width = '100%;'></div><div class = 'column'><img src = 'category4/CS6.png' width = '70%;'></div></div>","null","pos","CS","CS","4","category4/CS6.png","","","","",""
"","html-keyboard-response","67","280604","0.0-6.0-4.0-0.19","bgz1uj2y37","many_one","0","indirect_first","0","ER05AS01","0","22","1","1","3","1","Ich hatte das Gefühl, dass gerade Linien eher etwas negatives bedeuten und geschwungene Linien etwas positives. ","0","1","0","null","","","<div class = 'row'><div class = 'column'><img src = 'category3/CS8.png' width = '70%;'></div><div class = 'column'><img src = 'usneg/9340.bmp' width = '100%;'></div></div>","null","neg","CS","CS","3","category3/CS8.png","","","","",""
"","survey-html-form","68","283204","0.0-6.0-5.0","bgz1uj2y37","many_one","0","indirect_first","0","ER05AS01","0","22","1","1","3","1","Ich hatte das Gefühl, dass gerade Linien eher etwas negatives bedeuten und geschwungene Linien etwas positives. ","0","1","0","2081.749999895692","","{}","","","","","","","","","","","",""
"","html-keyboard-response","69","287238","0.0-6.0-6.0-0.0","bgz1uj2y37","many_one","0","indirect_first","0","ER05AS01","0","22","1","1","3","1","Ich hatte das Gefühl, dass gerade Linien eher etwas negatives bedeuten und geschwungene Linien etwas positives. ","0","1","0","null","","","<div class = 'row'><div class = 'column'><img src = 'usneg/9342.bmp' width = '100%;'></div><div class = 'column'><img src = 'category2/CS1.png' width = '70%;'></div></div>","null","neg","CS","CS","2","category2/CS1.png","","","","",""
"","html-keyboard-response","70","289748","0.0-6.0-6.0-0.1","bgz1uj2y37","many_one","0","indirect_first","0","ER05AS01","0","22","1","1","3","1","Ich hatte das Gefühl, dass gerade Linien eher etwas negatives bedeuten und geschwungene Linien etwas positives. ","0","1","0","null","","","<div class = 'row'><div class = 'column'><img src = 'category3/CS2.png' width = '70%;'></div><div class = 'column'><img src = 'usneg/2900.bmp' width = '100%;'></div></div>","null","neg","CS","CS","3","category3/CS2.png","","","","",""
"","html-keyboard-response","71","292261","0.0-6.0-6.0-0.2","bgz1uj2y37","many_one","0","indirect_first","0","ER05AS01","0","22","1","1","3","1","Ich hatte das Gefühl, dass gerade Linien eher etwas negatives bedeuten und geschwungene Linien etwas positives. ","0","1","0","null","","","<div class = 'row'><div class = 'column'><img src = 'uspos/8461.bmp' width = '100%;'></div><div class = 'column'><img src = 'category4/CS3.png' width = '70%;'></div></div>","null","pos","CS","CS","4","category4/CS3.png","","","","",""
"","html-keyboard-response","72","294772","0.0-6.0-6.0-0.3","bgz1uj2y37","many_one","0","indirect_first","0","ER05AS01","0","22","1","1","3","1","Ich hatte das Gefühl, dass gerade Linien eher etwas negatives bedeuten und geschwungene Linien etwas positives. ","0","1","0","null","","","<div class = 'row'><div class = 'column'><img src = 'usneg/9520.bmp' width = '100%;'></div><div class = 'column'><img src = 'category2/CS9.png' width = '70%;'></div></div>","null","neg","CS","CS","2","category2/CS9.png","","","","",""
"","html-keyboard-response","73","297282","0.0-6.0-6.0-0.4","bgz1uj2y37","many_one","0","indirect_first","0","ER05AS01","0","22","1","1","3","1","Ich hatte das Gefühl, dass gerade Linien eher etwas negatives bedeuten und geschwungene Linien etwas positives. ","0","1","0","null","","","<div class = 'row'><div class = 'column'><img src = 'category4/CS4.png' width = '70%;'></div><div class = 'column'><img src = 'uspos/5621.bmp' width = '100%;'></div></div>","null","pos","CS","CS","4","category4/CS4.png","","","","",""
"","html-keyboard-response","74","299793","0.0-6.0-6.0-0.5","bgz1uj2y37","many_one","0","indirect_first","0","ER05AS01","0","22","1","1","3","1","Ich hatte das Gefühl, dass gerade Linien eher etwas negatives bedeuten und geschwungene Linien etwas positives. ","0","1","0","null","","","<div class = 'row'><div class = 'column'><img src = 'uspos/8490.bmp' width = '100%;'></div><div class = 'column'><img src = 'category4/CS6.png' width = '70%;'></div></div>","null","pos","CS","CS","4","category4/CS6.png","","","","",""
"","html-keyboard-response","75","302304","0.0-6.0-6.0-0.6","bgz1uj2y37","many_one","0","indirect_first","0","ER05AS01","0","22","1","1","3","1","Ich hatte das Gefühl, dass gerade Linien eher etwas negatives bedeuten und geschwungene Linien etwas positives. ","0","1","0","null","","","<div class = 'row'><div class = 'column'><img src = 'category3/CS7.png' width = '70%;'></div><div class = 'column'><img src = 'usneg/9041.bmp' width = '100%;'></div></div>","null","neg","CS","CS","3","category3/CS7.png","","","","",""
"","html-keyboard-response","76","304814","0.0-6.0-6.0-0.7","bgz1uj2y37","many_one","0","indirect_first","0","ER05AS01","0","22","1","1","3","1","Ich hatte das Gefühl, dass gerade Linien eher etwas negatives bedeuten und geschwungene Linien etwas positives. ","0","1","0","null","","","<div class = 'row'><div class = 'column'><img src = 'usneg/9182.bmp' width = '100%;'></div><div class = 'column'><img src = 'category2/CS10.png' width = '70%;'></div></div>","null","neg","CS","CS","2","category2/CS10.png","","","","",""
"","html-keyboard-response","77","307353","0.0-6.0-6.0-0.8","bgz1uj2y37","many_one","0","indirect_first","0","ER05AS01","0","22","1","1","3","1","Ich hatte das Gefühl, dass gerade Linien eher etwas negatives bedeuten und geschwungene Linien etwas positives. ","0","1","0","null","","","<div class = 'row'><div class = 'column'><img src = 'category4/CS8.png' width = '70%;'></div><div class = 'column'><img src = 'uspos/1463.bmp' width = '100%;'></div></div>","null","pos","CS","CS","4","category4/CS8.png","","","","",""
"","html-keyboard-response","78","309882","0.0-6.0-6.0-0.9","bgz1uj2y37","many_one","0","indirect_first","0","ER05AS01","0","22","1","1","3","1","Ich hatte das Gefühl, dass gerade Linien eher etwas negatives bedeuten und geschwungene Linien etwas positives. ","0","1","0","null","","","<div class = 'row'><div class = 'column'><img src = 'category1/CS1.png' width = '70%;'></div><div class = 'column'><img src = 'uspos/5830.bmp' width = '100%;'></div></div>","null","pos","CS","CS","1","category1/CS1.png","","","","",""
"","html-keyboard-response","79","312403","0.0-6.0-6.0-0.10","bgz1uj2y37","many_one","0","indirect_first","0","ER05AS01","0","22","1","1","3","1","Ich hatte das Gefühl, dass gerade Linien eher etwas negatives bedeuten und geschwungene Linien etwas positives. ","0","1","0","null","","","<div class = 'row'><div class = 'column'><img src = 'uspos/5600.bmp' width = '100%;'></div><div class = 'column'><img src = 'category1/CS10.png' width = '70%;'></div></div>","null","pos","CS","CS","1","category1/CS10.png","","","","",""
"","html-keyboard-response","80","314914","0.0-6.0-6.0-0.11","bgz1uj2y37","many_one","0","indirect_first","0","ER05AS01","0","22","1","1","3","1","Ich hatte das Gefühl, dass gerade Linien eher etwas negatives bedeuten und geschwungene Linien etwas positives. ","0","1","0","null","","","<div class = 'row'><div class = 'column'><img src = 'category4/CS5.png' width = '70%;'></div><div class = 'column'><img src = 'uspos/5831.bmp' width = '100%;'></div></div>","null","pos","CS","CS","4","category4/CS5.png","","","","",""
"","html-keyboard-response","81","317425","0.0-6.0-6.0-0.12","bgz1uj2y37","many_one","0","indirect_first","0","ER05AS01","0","22","1","1","3","1","Ich hatte das Gefühl, dass gerade Linien eher etwas negatives bedeuten und geschwungene Linien etwas positives. ","0","1","0","null","","","<div class = 'row'><div class = 'column'><img src = 'usneg/9280.bmp' width = '100%;'></div><div class = 'column'><img src = 'category2/CS6.png' width = '70%;'></div></div>","null","neg","CS","CS","2","category2/CS6.png","","","","",""
"","html-keyboard-response","82","319949","0.0-6.0-6.0-0.13","bgz1uj2y37","many_one","0","indirect_first","0","ER05AS01","0","22","1","1","3","1","Ich hatte das Gefühl, dass gerade Linien eher etwas negatives bedeuten und geschwungene Linien etwas positives. ","0","1","0","null","","","<div class = 'row'><div class = 'column'><img src = 'category1/CS5.png' width = '70%;'></div><div class = 'column'><img src = 'uspos/1710.bmp' width = '100%;'></div></div>","null","pos","CS","CS","1","category1/CS5.png","","","","",""
"","html-keyboard-response","83","322459","0.0-6.0-6.0-0.14","bgz1uj2y37","many_one","0","indirect_first","0","ER05AS01","0","22","1","1","3","1","Ich hatte das Gefühl, dass gerade Linien eher etwas negatives bedeuten und geschwungene Linien etwas positives. ","0","1","0","null","","","<div class = 'row'><div class = 'column'><img src = 'usneg/9340.bmp' width = '100%;'></div><div class = 'column'><img src = 'category3/CS8.png' width = '70%;'></div></div>","null","neg","CS","CS","3","category3/CS8.png","","","","",""
"","html-keyboard-response","84","324970","0.0-6.0-6.0-0.15","bgz1uj2y37","many_one","0","indirect_first","0","ER05AS01","0","22","1","1","3","1","Ich hatte das Gefühl, dass gerade Linien eher etwas negatives bedeuten und geschwungene Linien etwas positives. ","0","1","0","null","","","<div class = 'row'><div class = 'column'><img src = 'category1/CS2.png' width = '70%;'></div><div class = 'column'><img src = 'uspos/2030.bmp' width = '100%;'></div></div>","null","pos","CS","CS","1","category1/CS2.png","","","","",""
"","html-keyboard-response","85","327480","0.0-6.0-6.0-0.16","bgz1uj2y37","many_one","0","indirect_first","0","ER05AS01","0","22","1","1","3","1","Ich hatte das Gefühl, dass gerade Linien eher etwas negatives bedeuten und geschwungene Linien etwas positives. ","0","1","0","null","","","<div class = 'row'><div class = 'column'><img src = 'usneg/7380.bmp' width = '100%;'></div><div class = 'column'><img src = 'category2/CS4.png' width = '70%;'></div></div>","null","neg","CS","CS","2","category2/CS4.png","","","","",""
"","html-keyboard-response","86","329995","0.0-6.0-6.0-0.17","bgz1uj2y37","many_one","0","indirect_first","0","ER05AS01","0","22","1","1","3","1","Ich hatte das Gefühl, dass gerade Linien eher etwas negatives bedeuten und geschwungene Linien etwas positives. ","0","1","0","null","","","<div class = 'row'><div class = 'column'><img src = 'usneg/6212.bmp' width = '100%;'></div><div class = 'column'><img src = 'category3/CS1.png' width = '70%;'></div></div>","null","neg","CS","CS","3","category3/CS1.png","","","","",""
"","html-keyboard-response","87","332506","0.0-6.0-6.0-0.18","bgz1uj2y37","many_one","0","indirect_first","0","ER05AS01","0","22","1","1","3","1","Ich hatte das Gefühl, dass gerade Linien eher etwas negatives bedeuten und geschwungene Linien etwas positives. ","0","1","0","null","","","<div class = 'row'><div class = 'column'><img src = 'category3/CS9.png' width = '70%;'></div><div class = 'column'><img src = 'usneg/9000.bmp' width = '100%;'></div></div>","null","neg","CS","CS","3","category3/CS9.png","","","","",""
"","html-keyboard-response","88","335017","0.0-6.0-6.0-0.19","bgz1uj2y37","many_one","0","indirect_first","0","ER05AS01","0","22","1","1","3","1","Ich hatte das Gefühl, dass gerade Linien eher etwas negatives bedeuten und geschwungene Linien etwas positives. ","0","1","0","null","","","<div class = 'row'><div class = 'column'><img src = 'uspos/2040.bmp' width = '100%;'></div><div class = 'column'><img src = 'category1/CS4.png' width = '70%;'></div></div>","null","pos","CS","CS","1","category1/CS4.png","","","","",""
"","html-keyboard-response","89","358635","0.0-7.0","bgz1uj2y37","many_one","0","indirect_first","0","ER05AS01","0","22","1","1","3","1","Ich hatte das Gefühl, dass gerade Linien eher etwas negatives bedeuten und geschwungene Linien etwas positives. ","0","1","0","23108.19000005722","","","<p>Sie sehen nun die chinesischen Zeichen nur ganz kurz. Danach sehen Sie die jeweilige Aussprache der Zeichen als Silbe auf dem Bildschrim. Ihre Aufgabe ist es, für jede Silbe anzugeben, ob diese etwas angenehmes, oder unangenehmes bedeuten könnte. Verlassen Sie sich hier vor allem auf Ihre Intuition.<br><br>Die Zeichen werden nur zur Orientierung dargestellt, beachten Sie sie deshalb nicht. Konzentrieren Sie sich vor allem auf die Silben. <br>Reagieren Sie mit folgenden zwei Tasten: <br><br><b>'D' </b> wenn die Silbe etwas <b>unangenehmes</b> bedeuten könnte. <br><b>'K'</b> wenn die Silbe etwas <b>angenehmes</b> bedeuten könnte. <br><br>Bitte legen Sie nun den Zeigefinger der linken Hand auf die Taste 'D' und den Zeigefinger der rechten Hand auf die Taste 'K'. <br>Reagieren Sie auf jede Silbe so schnell wie möglich. Uns interessiert Ihre spontane Reaktion. <br> <br> <br>Drücken Sie 'D' oder 'K', um die nächste Aufgabe zu starten. </p>","75","","","","","","","","","",""
"","html-keyboard-response","90","361671","0.0-8.0-0.0","bgz1uj2y37","many_one","0","indirect_first","0","ER05AS01","0","22","1","1","3","1","Ich hatte das Gefühl, dass gerade Linien eher etwas negatives bedeuten und geschwungene Linien etwas positives. ","0","1","0","null","","","<div style=""font-size:60px;"">+</div>","null","","","","","","","","","",""
"","html-keyboard-response","91","361771","0.0-8.0-1.0","bgz1uj2y37","many_one","0","indirect_first","0","ER05AS01","0","22","1","1","3","1","Ich hatte das Gefühl, dass gerade Linien eher etwas negatives bedeuten und geschwungene Linien etwas positives. ","0","1","0","null","","","<img src = 'category1/CS1.png' width = '100%;'>","null","","","","","","","","","",""
"","html-keyboard-response","92","362036","0.0-8.0-2.0","bgz1uj2y37","many_one","0","indirect_first","0","ER05AS01","0","22","1","1","3","1","Ich hatte das Gefühl, dass gerade Linien eher etwas negatives bedeuten und geschwungene Linien etwas positives. ","0","1","0","null","","","<img src = 'targets/43.png' width = '100%;'>","null","","","","","","","","","",""
"","html-keyboard-response","93","366146","0.0-8.0-3.0","bgz1uj2y37","many_one","0","indirect_first","0","ER05AS01","0","22","1","1","3","1","Ich hatte das Gefühl, dass gerade Linien eher etwas negatives bedeuten und geschwungene Linien etwas positives. ","0","1","0","4106.2000000383705","","","<img src = 'targets/mask.png' width = '100%;'>","68","pos","CS","CS","1","category1/CS1.png","targets/43.png","0","indirect","0",""
"","html-keyboard-response","94","367680","0.0-8.0-0.1","bgz1uj2y37","many_one","0","indirect_first","0","ER05AS01","0","22","1","1","3","1","Ich hatte das Gefühl, dass gerade Linien eher etwas negatives bedeuten und geschwungene Linien etwas positives. ","0","1","0","null","","","<div style=""font-size:60px;"">+</div>","null","","","","","","","","","",""
"","html-keyboard-response","95","367780","0.0-8.0-1.1","bgz1uj2y37","many_one","0","indirect_first","0","ER05AS01","0","22","1","1","3","1","Ich hatte das Gefühl, dass gerade Linien eher etwas negatives bedeuten und geschwungene Linien etwas positives. ","0","1","0","null","","","<img src = 'category3/CS10.png' width = '100%;'>","null","","","","","","","","","",""
"","html-keyboard-response","96","368044","0.0-8.0-2.1","bgz1uj2y37","many_one","0","indirect_first","0","ER05AS01","0","22","1","1","3","1","Ich hatte das Gefühl, dass gerade Linien eher etwas negatives bedeuten und geschwungene Linien etwas positives. ","0","1","0","null","","","<img src = 'targets/48.png' width = '100%;'>","null","","","","","","","","","",""
"","html-keyboard-response","97","370087","0.0-8.0-3.1","bgz1uj2y37","many_one","0","indirect_first","0","ER05AS01","0","22","1","1","3","1","Ich hatte das Gefühl, dass gerade Linien eher etwas negatives bedeuten und geschwungene Linien etwas positives. ","0","1","0","2039.9199998937547","","","<img src = 'targets/mask.png' width = '100%;'>","68","neg","GS","GSold","3","category3/CS10.png","targets/48.png","0","indirect","1",""
"","html-keyboard-response","98","371617","0.0-8.0-0.2","bgz1uj2y37","many_one","0","indirect_first","0","ER05AS01","0","22","1","1","3","1","Ich hatte das Gefühl, dass gerade Linien eher etwas negatives bedeuten und geschwungene Linien etwas positives. ","0","1","0","null","","","<div style=""font-size:60px;"">+</div>","null","","","","","","","","","",""
"","html-keyboard-response","99","371717","0.0-8.0-1.2","bgz1uj2y37","many_one","0","indirect_first","0","ER05AS01","0","22","1","1","3","1","Ich hatte das Gefühl, dass gerade Linien eher etwas negatives bedeuten und geschwungene Linien etwas positives. ","0","1","0","null","","","<img src = 'category2/CS6.png' width = '100%;'>","null","","","","","","","","","",""
"","html-keyboard-response","100","371991","0.0-8.0-2.2","bgz1uj2y37","many_one","0","indirect_first","0","ER05AS01","0","22","1","1","3","1","Ich hatte das Gefühl, dass gerade Linien eher etwas negatives bedeuten und geschwungene Linien etwas positives. ","0","1","0","null","","","<img src = 'targets/27.png' width = '100%;'>","null","","","","","","","","","",""
"","html-keyboard-response","101","372949","0.0-8.0-3.2","bgz1uj2y37","many_one","0","indirect_first","0","ER05AS01","0","22","1","1","3","1","Ich hatte das Gefühl, dass gerade Linien eher etwas negatives bedeuten und geschwungene Linien etwas positives. ","0","1","0","951.5499998815358","","","<img src = 'targets/mask.png' width = '100%;'>","68","neg","CS","CS","2","category2/CS6.png","targets/27.png","0","indirect","2",""
"","html-keyboard-response","102","374476","0.0-8.0-0.3","bgz1uj2y37","many_one","0","indirect_first","0","ER05AS01","0","22","1","1","3","1","Ich hatte das Gefühl, dass gerade Linien eher etwas negatives bedeuten und geschwungene Linien etwas positives. ","0","1","0","null","","","<div style=""font-size:60px;"">+</div>","null","","","","","","","","","",""
"","html-keyboard-response","103","374577","0.0-8.0-1.3","bgz1uj2y37","many_one","0","indirect_first","0","ER05AS01","0","22","1","1","3","1","Ich hatte das Gefühl, dass gerade Linien eher etwas negatives bedeuten und geschwungene Linien etwas positives. ","0","1","0","null","","","<img src = 'category1/CS2.png' width = '100%;'>","null","","","","","","","","","",""
"","html-keyboard-response","104","374846","0.0-8.0-2.3","bgz1uj2y37","many_one","0","indirect_first","0","ER05AS01","0","22","1","1","3","1","Ich hatte das Gefühl, dass gerade Linien eher etwas negatives bedeuten und geschwungene Linien etwas positives. ","0","1","0","null","","","<img src = 'targets/31.png' width = '100%;'>","null","","","","","","","","","",""
"","html-keyboard-response","105","375442","0.0-8.0-3.3","bgz1uj2y37","many_one","0","indirect_first","0","ER05AS01","0","22","1","1","3","1","Ich hatte das Gefühl, dass gerade Linien eher etwas negatives bedeuten und geschwungene Linien etwas positives. ","0","1","0","593.699999852106","","","<img src = 'targets/mask.png' width = '100%;'>","75","pos","CS","CS","1","category1/CS2.png","targets/31.png","1","indirect","3",""
"","html-keyboard-response","106","376959","0.0-8.0-0.4","bgz1uj2y37","many_one","0","indirect_first","0","ER05AS01","0","22","1","1","3","1","Ich hatte das Gefühl, dass gerade Linien eher etwas negatives bedeuten und geschwungene Linien etwas positives. ","0","1","0","null","","","<div style=""font-size:60px;"">+</div>","null","","","","","","","","","",""
"","html-keyboard-response","107","377064","0.0-8.0-1.4","bgz1uj2y37","many_one","0","indirect_first","0","ER05AS01","0","22","1","1","3","1","Ich hatte das Gefühl, dass gerade Linien eher etwas negatives bedeuten und geschwungene Linien etwas positives. ","0","1","0","null","","","<img src = 'category2/CS4.png' width = '100%;'>","null","","","","","","","","","",""
"","html-keyboard-response","108","377337","0.0-8.0-2.4","bgz1uj2y37","many_one","0","indirect_first","0","ER05AS01","0","22","1","1","3","1","Ich hatte das Gefühl, dass gerade Linien eher etwas negatives bedeuten und geschwungene Linien etwas positives. ","0","1","0","null","","","<img src = 'targets/47.png' width = '100%;'>","null","","","","","","","","","",""
"","html-keyboard-response","109","378042","0.0-8.0-3.4","bgz1uj2y37","many_one","0","indirect_first","0","ER05AS01","0","22","1","1","3","1","Ich hatte das Gefühl, dass gerade Linien eher etwas negatives bedeuten und geschwungene Linien etwas positives. ","0","1","0","702.5099999736995","","","<img src = 'targets/mask.png' width = '100%;'>","75","neg","CS","CS","2","category2/CS4.png","targets/47.png","1","indirect","4",""
"","html-keyboard-response","110","379568","0.0-8.0-0.5","bgz1uj2y37","many_one","0","indirect_first","0","ER05AS01","0","22","1","1","3","1","Ich hatte das Gefühl, dass gerade Linien eher etwas negatives bedeuten und geschwungene Linien etwas positives. ","0","1","0","null","","","<div style=""font-size:60px;"">+</div>","null","","","","","","","","","",""
"","html-keyboard-response","111","379665","0.0-8.0-1.5","bgz1uj2y37","many_one","0","indirect_first","0","ER05AS01","0","22","1","1","3","1","Ich hatte das Gefühl, dass gerade Linien eher etwas negatives bedeuten und geschwungene Linien etwas positives. ","0","1","0","null","","","<img src = 'category4/CS5.png' width = '100%;'>","null","","","","","","","","","",""
"","html-keyboard-response","112","379930","0.0-8.0-2.5","bgz1uj2y37","many_one","0","indirect_first","0","ER05AS01","0","22","1","1","3","1","Ich hatte das Gefühl, dass gerade Linien eher etwas negatives bedeuten und geschwungene Linien etwas positives. ","0","1","0","null","","","<img src = 'targets/6.png' width = '100%;'>","null","","","","","","","","","",""
"","html-keyboard-response","113","380849","0.0-8.0-3.5","bgz1uj2y37","many_one","0","indirect_first","0","ER05AS01","0","22","1","1","3","1","Ich hatte das Gefühl, dass gerade Linien eher etwas negatives bedeuten und geschwungene Linien etwas positives. ","0","1","0","915.294999955222","","","<img src = 'targets/mask.png' width = '100%;'>","75","pos","CS","CS","4","category4/CS5.png","targets/6.png","1","indirect","5",""
"","html-keyboard-response","114","382378","0.0-8.0-0.6","bgz1uj2y37","many_one","0","indirect_first","0","ER05AS01","0","22","1","1","3","1","Ich hatte das Gefühl, dass gerade Linien eher etwas negatives bedeuten und geschwungene Linien etwas positives. ","0","1","0","null","","","<div style=""font-size:60px;"">+</div>","null","","","","","","","","","",""
"","html-keyboard-response","115","382482","0.0-8.0-1.6","bgz1uj2y37","many_one","0","indirect_first","0","ER05AS01","0","22","1","1","3","1","Ich hatte das Gefühl, dass gerade Linien eher etwas negatives bedeuten und geschwungene Linien etwas positives. ","0","1","0","null","","","<img src = 'category1/CS9.png' width = '100%;'>","null","","","","","","","","","",""
"","html-keyboard-response","116","382752","0.0-8.0-2.6","bgz1uj2y37","many_one","0","indirect_first","0","ER05AS01","0","22","1","1","3","1","Ich hatte das Gefühl, dass gerade Linien eher etwas negatives bedeuten und geschwungene Linien etwas positives. ","0","1","0","null","","","<img src = 'targets/44.png' width = '100%;'>","null","","","","","","","","","",""
"","html-keyboard-response","117","383643","0.0-8.0-3.6","bgz1uj2y37","many_one","0","indirect_first","0","ER05AS01","0","22","1","1","3","1","Ich hatte das Gefühl, dass gerade Linien eher etwas negatives bedeuten und geschwungene Linien etwas positives. ","0","1","0","888.160000089556","","","<img src = 'targets/mask.png' width = '100%;'>","68","pos","GS","GSold","1","category1/CS9.png","targets/44.png","0","indirect","6",""
"","html-keyboard-response","118","385169","0.0-8.0-0.7","bgz1uj2y37","many_one","0","indirect_first","0","ER05AS01","0","22","1","1","3","1","Ich hatte das Gefühl, dass gerade Linien eher etwas negatives bedeuten und geschwungene Linien etwas positives. ","0","1","0","null","","","<div style=""font-size:60px;"">+</div>","null","","","","","","","","","",""
"","html-keyboard-response","119","385269","0.0-8.0-1.7","bgz1uj2y37","many_one","0","indirect_first","0","ER05AS01","0","22","1","1","3","1","Ich hatte das Gefühl, dass gerade Linien eher etwas negatives bedeuten und geschwungene Linien etwas positives. ","0","1","0","null","","","<img src = 'category3/CS4.png' width = '100%;'>","null","","","","","","","","","",""
"","html-keyboard-response","120","385543","0.0-8.0-2.7","bgz1uj2y37","many_one","0","indirect_first","0","ER05AS01","0","22","1","1","3","1","Ich hatte das Gefühl, dass gerade Linien eher etwas negatives bedeuten und geschwungene Linien etwas positives. ","0","1","0","null","","","<img src = 'targets/35.png' width = '100%;'>","null","","","","","","","","","",""
"","html-keyboard-response","121","385944","0.0-8.0-3.7","bgz1uj2y37","many_one","0","indirect_first","0","ER05AS01","0","22","1","1","3","1","Ich hatte das Gefühl, dass gerade Linien eher etwas negatives bedeuten und geschwungene Linien etwas positives. ","0","1","0","397.910000057891","","","<img src = 'targets/mask.png' width = '100%;'>","68","neg","GS","GSold","3","category3/CS4.png","targets/35.png","0","indirect","7",""
"","html-keyboard-response","122","387475","0.0-8.0-0.8","bgz1uj2y37","many_one","0","indirect_first","0","ER05AS01","0","22","1","1","3","1","Ich hatte das Gefühl, dass gerade Linien eher etwas negatives bedeuten und geschwungene Linien etwas positives. ","0","1","0","null","","","<div style=""font-size:60px;"">+</div>","null","","","","","","","","","",""
"","html-keyboard-response","123","387575","0.0-8.0-1.8","bgz1uj2y37","many_one","0","indirect_first","0","ER05AS01","0","22","1","1","3","1","Ich hatte das Gefühl, dass gerade Linien eher etwas negatives bedeuten und geschwungene Linien etwas positives. ","0","1","0","null","","","<img src = 'category3/CS8.png' width = '100%;'>","null","","","","","","","","","",""
"","html-keyboard-response","124","387849","0.0-8.0-2.8","bgz1uj2y37","many_one","0","indirect_first","0","ER05AS01","0","22","1","1","3","1","Ich hatte das Gefühl, dass gerade Linien eher etwas negatives bedeuten und geschwungene Linien etwas positives. ","0","1","0","null","","","<img src = 'targets/4.png' width = '100%;'>","null","","","","","","","","","",""
"","html-keyboard-response","125","389973","0.0-8.0-3.8","bgz1uj2y37","many_one","0","indirect_first","0","ER05AS01","0","22","1","1","3","1","Ich hatte das Gefühl, dass gerade Linien eher etwas negatives bedeuten und geschwungene Linien etwas positives. ","0","1","0","2121.3700000662357","","","<img src = 'targets/mask.png' width = '100%;'>","68","neg","CS","CS","3","category3/CS8.png","targets/4.png","0","indirect","8",""
"","html-keyboard-response","126","391484","0.0-8.0-0.9","bgz1uj2y37","many_one","0","indirect_first","0","ER05AS01","0","22","1","1","3","1","Ich hatte das Gefühl, dass gerade Linien eher etwas negatives bedeuten und geschwungene Linien etwas positives. ","0","1","0","null","","","<div style=""font-size:60px;"">+</div>","null","","","","","","","","","",""
"","html-keyboard-response","127","391592","0.0-8.0-1.9","bgz1uj2y37","many_one","0","indirect_first","0","ER05AS01","0","22","1","1","3","1","Ich hatte das Gefühl, dass gerade Linien eher etwas negatives bedeuten und geschwungene Linien etwas positives. ","0","1","0","null","","","<img src = 'category4/CS4.png' width = '100%;'>","null","","","","","","","","","",""
"","html-keyboard-response","128","391865","0.0-8.0-2.9","bgz1uj2y37","many_one","0","indirect_first","0","ER05AS01","0","22","1","1","3","1","Ich hatte das Gefühl, dass gerade Linien eher etwas negatives bedeuten und geschwungene Linien etwas positives. ","0","1","0","null","","","<img src = 'targets/15.png' width = '100%;'>","null","","","","","","","","","",""
"","html-keyboard-response","129","392534","0.0-8.0-3.9","bgz1uj2y37","many_one","0","indirect_first","0","ER05AS01","0","22","1","1","3","1","Ich hatte das Gefühl, dass gerade Linien eher etwas negatives bedeuten und geschwungene Linien etwas positives. ","0","1","0","665.1050001382828","","","<img src = 'targets/mask.png' width = '100%;'>","75","pos","CS","CS","4","category4/CS4.png","targets/15.png","1","indirect","9",""
"","html-keyboard-response","130","394067","0.0-8.0-0.10","bgz1uj2y37","many_one","0","indirect_first","0","ER05AS01","0","22","1","1","3","1","Ich hatte das Gefühl, dass gerade Linien eher etwas negatives bedeuten und geschwungene Linien etwas positives. ","0","1","0","null","","","<div style=""font-size:60px;"">+</div>","null","","","","","","","","","",""
"","html-keyboard-response","131","394167","0.0-8.0-1.10","bgz1uj2y37","many_one","0","indirect_first","0","ER05AS01","0","22","1","1","3","1","Ich hatte das Gefühl, dass gerade Linien eher etwas negatives bedeuten und geschwungene Linien etwas positives. ","0","1","0","null","","","<img src = 'category3/CS6.png' width = '100%;'>","null","","","","","","","","","",""
"","html-keyboard-response","132","394439","0.0-8.0-2.10","bgz1uj2y37","many_one","0","indirect_first","0","ER05AS01","0","22","1","1","3","1","Ich hatte das Gefühl, dass gerade Linien eher etwas negatives bedeuten und geschwungene Linien etwas positives. ","0","1","0","null","","","<img src = 'targets/39.png' width = '100%;'>","null","","","","","","","","","",""
"","html-keyboard-response","133","395600","0.0-8.0-3.10","bgz1uj2y37","many_one","0","indirect_first","0","ER05AS01","0","22","1","1","3","1","Ich hatte das Gefühl, dass gerade Linien eher etwas negatives bedeuten und geschwungene Linien etwas positives. ","0","1","0","1158.2649999763817","","","<img src = 'targets/mask.png' width = '100%;'>","68","neg","GS","GSold","3","category3/CS6.png","targets/39.png","0","indirect","10",""
"","html-keyboard-response","134","397125","0.0-8.0-0.11","bgz1uj2y37","many_one","0","indirect_first","0","ER05AS01","0","22","1","1","3","1","Ich hatte das Gefühl, dass gerade Linien eher etwas negatives bedeuten und geschwungene Linien etwas positives. ","0","1","0","null","","","<div style=""font-size:60px;"">+</div>","null","","","","","","","","","",""
"","html-keyboard-response","135","397221","0.0-8.0-1.11","bgz1uj2y37","many_one","0","indirect_first","0","ER05AS01","0","22","1","1","3","1","Ich hatte das Gefühl, dass gerade Linien eher etwas negatives bedeuten und geschwungene Linien etwas positives. ","0","1","0","null","","","<img src = 'category4/CS3.png' width = '100%;'>","null","","","","","","","","","",""
"","html-keyboard-response","136","397494","0.0-8.0-2.11","bgz1uj2y37","many_one","0","indirect_first","0","ER05AS01","0","22","1","1","3","1","Ich hatte das Gefühl, dass gerade Linien eher etwas negatives bedeuten und geschwungene Linien etwas positives. ","0","1","0","null","","","<img src = 'targets/21.png' width = '100%;'>","null","","","","","","","","","",""
"","html-keyboard-response","137","398231","0.0-8.0-3.11","bgz1uj2y37","many_one","0","indirect_first","0","ER05AS01","0","22","1","1","3","1","Ich hatte das Gefühl, dass gerade Linien eher etwas negatives bedeuten und geschwungene Linien etwas positives. ","0","1","0","734.2799999751151","","","<img src = 'targets/mask.png' width = '100%;'>","75","pos","CS","CS","4","category4/CS3.png","targets/21.png","1","indirect","11",""
"","html-keyboard-response","138","399758","0.0-8.0-0.12","bgz1uj2y37","many_one","0","indirect_first","0","ER05AS01","0","22","1","1","3","1","Ich hatte das Gefühl, dass gerade Linien eher etwas negatives bedeuten und geschwungene Linien etwas positives. ","0","1","0","null","","","<div style=""font-size:60px;"">+</div>","null","","","","","","","","","",""
"","html-keyboard-response","139","399854","0.0-8.0-1.12","bgz1uj2y37","many_one","0","indirect_first","0","ER05AS01","0","22","1","1","3","1","Ich hatte das Gefühl, dass gerade Linien eher etwas negatives bedeuten und geschwungene Linien etwas positives. ","0","1","0","null","","","<img src = 'category3/CS1.png' width = '100%;'>","null","","","","","","","","","",""
"","html-keyboard-response","140","400134","0.0-8.0-2.12","bgz1uj2y37","many_one","0","indirect_first","0","ER05AS01","0","22","1","1","3","1","Ich hatte das Gefühl, dass gerade Linien eher etwas negatives bedeuten und geschwungene Linien etwas positives. ","0","1","0","null","","","<img src = 'targets/37.png' width = '100%;'>","null","","","","","","","","","",""
"","html-keyboard-response","141","400573","0.0-8.0-3.12","bgz1uj2y37","many_one","0","indirect_first","0","ER05AS01","0","22","1","1","3","1","Ich hatte das Gefühl, dass gerade Linien eher etwas negatives bedeuten und geschwungene Linien etwas positives. ","0","1","0","436.6600001230836","","","<img src = 'targets/mask.png' width = '100%;'>","68","neg","CS","CS","3","category3/CS1.png","targets/37.png","0","indirect","12",""
"","html-keyboard-response","142","402081","0.0-8.0-0.13","bgz1uj2y37","many_one","0","indirect_first","0","ER05AS01","0","22","1","1","3","1","Ich hatte das Gefühl, dass gerade Linien eher etwas negatives bedeuten und geschwungene Linien etwas positives. ","0","1","0","null","","","<div style=""font-size:60px;"">+</div>","null","","","","","","","","","",""
"","html-keyboard-response","143","402174","0.0-8.0-1.13","bgz1uj2y37","many_one","0","indirect_first","0","ER05AS01","0","22","1","1","3","1","Ich hatte das Gefühl, dass gerade Linien eher etwas negatives bedeuten und geschwungene Linien etwas positives. ","0","1","0","null","","","<img src = 'category3/CS7.png' width = '100%;'>","null","","","","","","","","","",""
"","html-keyboard-response","144","402454","0.0-8.0-2.13","bgz1uj2y37","many_one","0","indirect_first","0","ER05AS01","0","22","1","1","3","1","Ich hatte das Gefühl, dass gerade Linien eher etwas negatives bedeuten und geschwungene Linien etwas positives. ","0","1","0","null","","","<img src = 'targets/19.png' width = '100%;'>","null","","","","","","","","","",""
"","html-keyboard-response","145","402923","0.0-8.0-3.13","bgz1uj2y37","many_one","0","indirect_first","0","ER05AS01","0","22","1","1","3","1","Ich hatte das Gefühl, dass gerade Linien eher etwas negatives bedeuten und geschwungene Linien etwas positives. ","0","1","0","466.90499992109835","","","<img src = 'targets/mask.png' width = '100%;'>","68","neg","CS","CS","3","category3/CS7.png","targets/19.png","0","indirect","13",""
"","html-keyboard-response","146","404444","0.0-8.0-0.14","bgz1uj2y37","many_one","0","indirect_first","0","ER05AS01","0","22","1","1","3","1","Ich hatte das Gefühl, dass gerade Linien eher etwas negatives bedeuten und geschwungene Linien etwas positives. ","0","1","0","null","","","<div style=""font-size:60px;"">+</div>","null","","","","","","","","","",""
"","html-keyboard-response","147","404544","0.0-8.0-1.14","bgz1uj2y37","many_one","0","indirect_first","0","ER05AS01","0","22","1","1","3","1","Ich hatte das Gefühl, dass gerade Linien eher etwas negatives bedeuten und geschwungene Linien etwas positives. ","0","1","0","null","","","<img src = 'category3/CS9.png' width = '100%;'>","null","","","","","","","","","",""
"","html-keyboard-response","148","404812","0.0-8.0-2.14","bgz1uj2y37","many_one","0","indirect_first","0","ER05AS01","0","22","1","1","3","1","Ich hatte das Gefühl, dass gerade Linien eher etwas negatives bedeuten und geschwungene Linien etwas positives. ","0","1","0","null","","","<img src = 'targets/40.png' width = '100%;'>","null","","","","","","","","","",""
"","html-keyboard-response","149","405075","0.0-8.0-3.14","bgz1uj2y37","many_one","0","indirect_first","0","ER05AS01","0","22","1","1","3","1","Ich hatte das Gefühl, dass gerade Linien eher etwas negatives bedeuten und geschwungene Linien etwas positives. ","0","1","0","260.9449999872595","","","<img src = 'targets/mask.png' width = '100%;'>","68","neg","CS","CS","3","category3/CS9.png","targets/40.png","0","indirect","14",""
"","html-keyboard-response","150","406592","0.0-8.0-0.15","bgz1uj2y37","many_one","0","indirect_first","0","ER05AS01","0","22","1","1","3","1","Ich hatte das Gefühl, dass gerade Linien eher etwas negatives bedeuten und geschwungene Linien etwas positives. ","0","1","0","null","","","<div style=""font-size:60px;"">+</div>","null","","","","","","","","","",""
"","html-keyboard-response","151","406693","0.0-8.0-1.15","bgz1uj2y37","many_one","0","indirect_first","0","ER05AS01","0","22","1","1","3","1","Ich hatte das Gefühl, dass gerade Linien eher etwas negatives bedeuten und geschwungene Linien etwas positives. ","0","1","0","null","","","<img src = 'category2/CS10.png' width = '100%;'>","null","","","","","","","","","",""
"","html-keyboard-response","152","406963","0.0-8.0-2.15","bgz1uj2y37","many_one","0","indirect_first","0","ER05AS01","0","22","1","1","3","1","Ich hatte das Gefühl, dass gerade Linien eher etwas negatives bedeuten und geschwungene Linien etwas positives. ","0","1","0","null","","","<img src = 'targets/25.png' width = '100%;'>","null","","","","","","","","","",""
"","html-keyboard-response","153","407366","0.0-8.0-3.15","bgz1uj2y37","many_one","0","indirect_first","0","ER05AS01","0","22","1","1","3","1","Ich hatte das Gefühl, dass gerade Linien eher etwas negatives bedeuten und geschwungene Linien etwas positives. ","0","1","0","400.6300000473857","","","<img src = 'targets/mask.png' width = '100%;'>","75","neg","CS","CS","2","category2/CS10.png","targets/25.png","1","indirect","15",""
"","html-keyboard-response","154","408895","0.0-8.0-0.16","bgz1uj2y37","many_one","0","indirect_first","0","ER05AS01","0","22","1","1","3","1","Ich hatte das Gefühl, dass gerade Linien eher etwas negatives bedeuten und geschwungene Linien etwas positives. ","0","1","0","null","","","<div style=""font-size:60px;"">+</div>","null","","","","","","","","","",""
"","html-keyboard-response","155","408991","0.0-8.0-1.16","bgz1uj2y37","many_one","0","indirect_first","0","ER05AS01","0","22","1","1","3","1","Ich hatte das Gefühl, dass gerade Linien eher etwas negatives bedeuten und geschwungene Linien etwas positives. ","0","1","0","null","","","<img src = 'category3/CS2.png' width = '100%;'>","null","","","","","","","","","",""
"","html-keyboard-response","156","409260","0.0-8.0-2.16","bgz1uj2y37","many_one","0","indirect_first","0","ER05AS01","0","22","1","1","3","1","Ich hatte das Gefühl, dass gerade Linien eher etwas negatives bedeuten und geschwungene Linien etwas positives. ","0","1","0","null","","","<img src = 'targets/42.png' width = '100%;'>","null","","","","","","","","","",""
"","html-keyboard-response","157","409703","0.0-8.0-3.16","bgz1uj2y37","many_one","0","indirect_first","0","ER05AS01","0","22","1","1","3","1","Ich hatte das Gefühl, dass gerade Linien eher etwas negatives bedeuten und geschwungene Linien etwas positives. ","0","1","0","440.51999994553626","","","<img src = 'targets/mask.png' width = '100%;'>","68","neg","CS","CS","3","category3/CS2.png","targets/42.png","0","indirect","16",""
"","html-keyboard-response","158","411211","0.0-8.0-0.17","bgz1uj2y37","many_one","0","indirect_first","0","ER05AS01","0","22","1","1","3","1","Ich hatte das Gefühl, dass gerade Linien eher etwas negatives bedeuten und geschwungene Linien etwas positives. ","0","1","0","null","","","<div style=""font-size:60px;"">+</div>","null","","","","","","","","","",""
"","html-keyboard-response","159","411310","0.0-8.0-1.17","bgz1uj2y37","many_one","0","indirect_first","0","ER05AS01","0","22","1","1","3","1","Ich hatte das Gefühl, dass gerade Linien eher etwas negatives bedeuten und geschwungene Linien etwas positives. ","0","1","0","null","","","<img src = 'category1/CS5.png' width = '100%;'>","null","","","","","","","","","",""
"","html-keyboard-response","160","411584","0.0-8.0-2.17","bgz1uj2y37","many_one","0","indirect_first","0","ER05AS01","0","22","1","1","3","1","Ich hatte das Gefühl, dass gerade Linien eher etwas negatives bedeuten und geschwungene Linien etwas positives. ","0","1","0","null","","","<img src = 'targets/20.png' width = '100%;'>","null","","","","","","","","","",""
"","html-keyboard-response","161","411815","0.0-8.0-3.17","bgz1uj2y37","many_one","0","indirect_first","0","ER05AS01","0","22","1","1","3","1","Ich hatte das Gefühl, dass gerade Linien eher etwas negatives bedeuten und geschwungene Linien etwas positives. ","0","1","0","228.0699999537319","","","<img src = 'targets/mask.png' width = '100%;'>","75","pos","CS","CS","1","category1/CS5.png","targets/20.png","1","indirect","17",""
"","html-keyboard-response","162","413335","0.0-8.0-0.18","bgz1uj2y37","many_one","0","indirect_first","0","ER05AS01","0","22","1","1","3","1","Ich hatte das Gefühl, dass gerade Linien eher etwas negatives bedeuten und geschwungene Linien etwas positives. ","0","1","0","null","","","<div style=""font-size:60px;"">+</div>","null","","","","","","","","","",""
"","html-keyboard-response","163","413431","0.0-8.0-1.18","bgz1uj2y37","many_one","0","indirect_first","0","ER05AS01","0","22","1","1","3","1","Ich hatte das Gefühl, dass gerade Linien eher etwas negatives bedeuten und geschwungene Linien etwas positives. ","0","1","0","null","","","<img src = 'category2/CS9.png' width = '100%;'>","null","","","","","","","","","",""
"","html-keyboard-response","164","413697","0.0-8.0-2.18","bgz1uj2y37","many_one","0","indirect_first","0","ER05AS01","0","22","1","1","3","1","Ich hatte das Gefühl, dass gerade Linien eher etwas negatives bedeuten und geschwungene Linien etwas positives. ","0","1","0","null","","","<img src = 'targets/1.png' width = '100%;'>","null","","","","","","","","","",""
"","html-keyboard-response","165","414149","0.0-8.0-3.18","bgz1uj2y37","many_one","0","indirect_first","0","ER05AS01","0","22","1","1","3","1","Ich hatte das Gefühl, dass gerade Linien eher etwas negatives bedeuten und geschwungene Linien etwas positives. ","0","1","0","449.9299998860806","","","<img src = 'targets/mask.png' width = '100%;'>","68","neg","CS","CS","2","category2/CS9.png","targets/1.png","0","indirect","18",""
"","html-keyboard-response","166","415683","0.0-8.0-0.19","bgz1uj2y37","many_one","0","indirect_first","0","ER05AS01","0","22","1","1","3","1","Ich hatte das Gefühl, dass gerade Linien eher etwas negatives bedeuten und geschwungene Linien etwas positives. ","0","1","0","null","","","<div style=""font-size:60px;"">+</div>","null","","","","","","","","","",""
"","html-keyboard-response","167","415783","0.0-8.0-1.19","bgz1uj2y37","many_one","0","indirect_first","0","ER05AS01","0","22","1","1","3","1","Ich hatte das Gefühl, dass gerade Linien eher etwas negatives bedeuten und geschwungene Linien etwas positives. ","0","1","0","null","","","<img src = 'category4/CS6.png' width = '100%;'>","null","","","","","","","","","",""
"","html-keyboard-response","168","416054","0.0-8.0-2.19","bgz1uj2y37","many_one","0","indirect_first","0","ER05AS01","0","22","1","1","3","1","Ich hatte das Gefühl, dass gerade Linien eher etwas negatives bedeuten und geschwungene Linien etwas positives. ","0","1","0","null","","","<img src = 'targets/12.png' width = '100%;'>","null","","","","","","","","","",""
"","html-keyboard-response","169","416278","0.0-8.0-3.19","bgz1uj2y37","many_one","0","indirect_first","0","ER05AS01","0","22","1","1","3","1","Ich hatte das Gefühl, dass gerade Linien eher etwas negatives bedeuten und geschwungene Linien etwas positives. ","0","1","0","221.8499998562038","","","<img src = 'targets/mask.png' width = '100%;'>","75","pos","CS","CS","4","category4/CS6.png","targets/12.png","1","indirect","19",""
"","html-keyboard-response","170","417803","0.0-8.0-0.20","bgz1uj2y37","many_one","0","indirect_first","0","ER05AS01","0","22","1","1","3","1","Ich hatte das Gefühl, dass gerade Linien eher etwas negatives bedeuten und geschwungene Linien etwas positives. ","0","1","0","null","","","<div style=""font-size:60px;"">+</div>","null","","","","","","","","","",""
"","html-keyboard-response","171","417903","0.0-8.0-1.20","bgz1uj2y37","many_one","0","indirect_first","0","ER05AS01","0","22","1","1","3","1","Ich hatte das Gefühl, dass gerade Linien eher etwas negatives bedeuten und geschwungene Linien etwas positives. ","0","1","0","null","","","<img src = 'category1/CS4.png' width = '100%;'>","null","","","","","","","","","",""
"","html-keyboard-response","172","418176","0.0-8.0-2.20","bgz1uj2y37","many_one","0","indirect_first","0","ER05AS01","0","22","1","1","3","1","Ich hatte das Gefühl, dass gerade Linien eher etwas negatives bedeuten und geschwungene Linien etwas positives. ","0","1","0","null","","","<img src = 'targets/46.png' width = '100%;'>","null","","","","","","","","","",""
"","html-keyboard-response","173","418426","0.0-8.0-3.20","bgz1uj2y37","many_one","0","indirect_first","0","ER05AS01","0","22","1","1","3","1","Ich hatte das Gefühl, dass gerade Linien eher etwas negatives bedeuten und geschwungene Linien etwas positives. ","0","1","0","247.86000000312924","","","<img src = 'targets/mask.png' width = '100%;'>","75","pos","CS","CS","1","category1/CS4.png","targets/46.png","1","indirect","20",""
"","html-keyboard-response","174","419947","0.0-8.0-0.21","bgz1uj2y37","many_one","0","indirect_first","0","ER05AS01","0","22","1","1","3","1","Ich hatte das Gefühl, dass gerade Linien eher etwas negatives bedeuten und geschwungene Linien etwas positives. ","0","1","0","null","","","<div style=""font-size:60px;"">+</div>","null","","","","","","","","","",""
"","html-keyboard-response","175","420055","0.0-8.0-1.21","bgz1uj2y37","many_one","0","indirect_first","0","ER05AS01","0","22","1","1","3","1","Ich hatte das Gefühl, dass gerade Linien eher etwas negatives bedeuten und geschwungene Linien etwas positives. ","0","1","0","null","","","<img src = 'category2/CS1.png' width = '100%;'>","null","","","","","","","","","",""
"","html-keyboard-response","176","420320","0.0-8.0-2.21","bgz1uj2y37","many_one","0","indirect_first","0","ER05AS01","0","22","1","1","3","1","Ich hatte das Gefühl, dass gerade Linien eher etwas negatives bedeuten und geschwungene Linien etwas positives. ","0","1","0","null","","","<img src = 'targets/45.png' width = '100%;'>","null","","","","","","","","","",""
"","html-keyboard-response","177","420597","0.0-8.0-3.21","bgz1uj2y37","many_one","0","indirect_first","0","ER05AS01","0","22","1","1","3","1","Ich hatte das Gefühl, dass gerade Linien eher etwas negatives bedeuten und geschwungene Linien etwas positives. ","0","1","0","273.9800000563264","","","<img src = 'targets/mask.png' width = '100%;'>","75","neg","CS","CS","2","category2/CS1.png","targets/45.png","1","indirect","21",""
"","html-keyboard-response","178","422121","0.0-8.0-0.22","bgz1uj2y37","many_one","0","indirect_first","0","ER05AS01","0","22","1","1","3","1","Ich hatte das Gefühl, dass gerade Linien eher etwas negatives bedeuten und geschwungene Linien etwas positives. ","0","1","0","null","","","<div style=""font-size:60px;"">+</div>","null","","","","","","","","","",""
"","html-keyboard-response","179","422221","0.0-8.0-1.22","bgz1uj2y37","many_one","0","indirect_first","0","ER05AS01","0","22","1","1","3","1","Ich hatte das Gefühl, dass gerade Linien eher etwas negatives bedeuten und geschwungene Linien etwas positives. ","0","1","0","null","","","<img src = 'category4/CS8.png' width = '100%;'>","null","","","","","","","","","",""
"","html-keyboard-response","180","422481","0.0-8.0-2.22","bgz1uj2y37","many_one","0","indirect_first","0","ER05AS01","0","22","1","1","3","1","Ich hatte das Gefühl, dass gerade Linien eher etwas negatives bedeuten und geschwungene Linien etwas positives. ","0","1","0","null","","","<img src = 'targets/24.png' width = '100%;'>","null","","","","","","","","","",""
"","html-keyboard-response","181","422737","0.0-8.0-3.22","bgz1uj2y37","many_one","0","indirect_first","0","ER05AS01","0","22","1","1","3","1","Ich hatte das Gefühl, dass gerade Linien eher etwas negatives bedeuten und geschwungene Linien etwas positives. ","0","1","0","252.40999995730817","","","<img src = 'targets/mask.png' width = '100%;'>","75","pos","CS","CS","4","category4/CS8.png","targets/24.png","1","indirect","22",""
"","html-keyboard-response","182","424251","0.0-8.0-0.23","bgz1uj2y37","many_one","0","indirect_first","0","ER05AS01","0","22","1","1","3","1","Ich hatte das Gefühl, dass gerade Linien eher etwas negatives bedeuten und geschwungene Linien etwas positives. ","0","1","0","null","","","<div style=""font-size:60px;"">+</div>","null","","","","","","","","","",""
"","html-keyboard-response","183","424357","0.0-8.0-1.23","bgz1uj2y37","many_one","0","indirect_first","0","ER05AS01","0","22","1","1","3","1","Ich hatte das Gefühl, dass gerade Linien eher etwas negatives bedeuten und geschwungene Linien etwas positives. ","0","1","0","null","","","<img src = 'category1/CS10.png' width = '100%;'>","null","","","","","","","","","",""
"","html-keyboard-response","184","424626","0.0-8.0-2.23","bgz1uj2y37","many_one","0","indirect_first","0","ER05AS01","0","22","1","1","3","1","Ich hatte das Gefühl, dass gerade Linien eher etwas negatives bedeuten und geschwungene Linien etwas positives. ","0","1","0","null","","","<img src = 'targets/38.png' width = '100%;'>","null","","","","","","","","","",""
"","html-keyboard-response","185","425444","0.0-8.0-3.23","bgz1uj2y37","many_one","0","indirect_first","0","ER05AS01","0","22","1","1","3","1","Ich hatte das Gefühl, dass gerade Linien eher etwas negatives bedeuten und geschwungene Linien etwas positives. ","0","1","0","815.4200001154095","","","<img src = 'targets/mask.png' width = '100%;'>","75","pos","CS","CS","1","category1/CS10.png","targets/38.png","1","indirect","23",""
"","survey-html-form","186","429102","0.0-9.0","bgz1uj2y37","many_one","0","indirect_first","0","ER05AS01","0","22","1","1","3","1","Ich hatte das Gefühl, dass gerade Linien eher etwas negatives bedeuten und geschwungene Linien etwas positives. ","0","1","0","3141.3450001273304","","{}","","","","","","","","","","","",""
"","html-keyboard-response","187","432137","0.0-10.0-0.0","bgz1uj2y37","many_one","0","indirect_first","0","ER05AS01","0","22","1","1","3","1","Ich hatte das Gefühl, dass gerade Linien eher etwas negatives bedeuten und geschwungene Linien etwas positives. ","0","1","0","null","","","<div style=""font-size:60px;"">+</div>","null","","","","","","","","","",""
"","html-keyboard-response","188","432236","0.0-10.0-1.0","bgz1uj2y37","many_one","0","indirect_first","0","ER05AS01","0","22","1","1","3","1","Ich hatte das Gefühl, dass gerade Linien eher etwas negatives bedeuten und geschwungene Linien etwas positives. ","0","1","0","null","","","<img src = 'category4/GS3.png' width = '100%;'>","null","","","","","","","","","",""
"","html-keyboard-response","189","432505","0.0-10.0-2.0","bgz1uj2y37","many_one","0","indirect_first","0","ER05AS01","0","22","1","1","3","1","Ich hatte das Gefühl, dass gerade Linien eher etwas negatives bedeuten und geschwungene Linien etwas positives. ","0","1","0","null","","","<img src = 'targets/33.png' width = '100%;'>","null","","","","","","","","","",""
"","html-keyboard-response","190","432942","0.0-10.0-3.0","bgz1uj2y37","many_one","0","indirect_first","0","ER05AS01","0","22","1","1","3","1","Ich hatte das Gefühl, dass gerade Linien eher etwas negatives bedeuten und geschwungene Linien etwas positives. ","0","1","0","434.87500003539026","","","<img src = 'targets/mask.png' width = '100%;'>","75","pos","GS","GSnew","4","category4/GS3.png","targets/33.png","1","indirect","24",""
"","html-keyboard-response","191","434463","0.0-10.0-0.1","bgz1uj2y37","many_one","0","indirect_first","0","ER05AS01","0","22","1","1","3","1","Ich hatte das Gefühl, dass gerade Linien eher etwas negatives bedeuten und geschwungene Linien etwas positives. ","0","1","0","null","","","<div style=""font-size:60px;"">+</div>","null","","","","","","","","","",""
"","html-keyboard-response","192","434563","0.0-10.0-1.1","bgz1uj2y37","many_one","0","indirect_first","0","ER05AS01","0","22","1","1","3","1","Ich hatte das Gefühl, dass gerade Linien eher etwas negatives bedeuten und geschwungene Linien etwas positives. ","0","1","0","null","","","<img src = 'category1/GS3.png' width = '100%;'>","null","","","","","","","","","",""
"","html-keyboard-response","193","434834","0.0-10.0-2.1","bgz1uj2y37","many_one","0","indirect_first","0","ER05AS01","0","22","1","1","3","1","Ich hatte das Gefühl, dass gerade Linien eher etwas negatives bedeuten und geschwungene Linien etwas positives. ","0","1","0","null","","","<img src = 'targets/9.png' width = '100%;'>","null","","","","","","","","","",""
"","html-keyboard-response","194","435318","0.0-10.0-3.1","bgz1uj2y37","many_one","0","indirect_first","0","ER05AS01","0","22","1","1","3","1","Ich hatte das Gefühl, dass gerade Linien eher etwas negatives bedeuten und geschwungene Linien etwas positives. ","0","1","0","481.0349999461323","","","<img src = 'targets/mask.png' width = '100%;'>","75","pos","GS","GSnew","1","category1/GS3.png","targets/9.png","1","indirect","25",""
"","html-keyboard-response","195","436825","0.0-10.0-0.2","bgz1uj2y37","many_one","0","indirect_first","0","ER05AS01","0","22","1","1","3","1","Ich hatte das Gefühl, dass gerade Linien eher etwas negatives bedeuten und geschwungene Linien etwas positives. ","0","1","0","null","","","<div style=""font-size:60px;"">+</div>","null","","","","","","","","","",""
"","html-keyboard-response","196","436930","0.0-10.0-1.2","bgz1uj2y37","many_one","0","indirect_first","0","ER05AS01","0","22","1","1","3","1","Ich hatte das Gefühl, dass gerade Linien eher etwas negatives bedeuten und geschwungene Linien etwas positives. ","0","1","0","null","","","<img src = 'category4/GS1.png' width = '100%;'>","null","","","","","","","","","",""
"","html-keyboard-response","197","437203","0.0-10.0-2.2","bgz1uj2y37","many_one","0","indirect_first","0","ER05AS01","0","22","1","1","3","1","Ich hatte das Gefühl, dass gerade Linien eher etwas negatives bedeuten und geschwungene Linien etwas positives. ","0","1","0","null","","","<img src = 'targets/11.png' width = '100%;'>","null","","","","","","","","","",""
"","html-keyboard-response","198","437528","0.0-10.0-3.2","bgz1uj2y37","many_one","0","indirect_first","0","ER05AS01","0","22","1","1","3","1","Ich hatte das Gefühl, dass gerade Linien eher etwas negatives bedeuten und geschwungene Linien etwas positives. ","0","1","0","320.839999942109","","","<img src = 'targets/mask.png' width = '100%;'>","75","pos","GS","GSnew","4","category4/GS1.png","targets/11.png","1","indirect","26",""
"","html-keyboard-response","199","439046","0.0-10.0-0.3","bgz1uj2y37","many_one","0","indirect_first","0","ER05AS01","0","22","1","1","3","1","Ich hatte das Gefühl, dass gerade Linien eher etwas negatives bedeuten und geschwungene Linien etwas positives. ","0","1","0","null","","","<div style=""font-size:60px;"">+</div>","null","","","","","","","","","",""
"","html-keyboard-response","200","439139","0.0-10.0-1.3","bgz1uj2y37","many_one","0","indirect_first","0","ER05AS01","0","22","1","1","3","1","Ich hatte das Gefühl, dass gerade Linien eher etwas negatives bedeuten und geschwungene Linien etwas positives. ","0","1","0","null","","","<img src = 'category2/CS3.png' width = '100%;'>","null","","","","","","","","","",""
"","html-keyboard-response","201","439420","0.0-10.0-2.3","bgz1uj2y37","many_one","0","indirect_first","0","ER05AS01","0","22","1","1","3","1","Ich hatte das Gefühl, dass gerade Linien eher etwas negatives bedeuten und geschwungene Linien etwas positives. ","0","1","0","null","","","<img src = 'targets/26.png' width = '100%;'>","null","","","","","","","","","",""
"","html-keyboard-response","202","439728","0.0-10.0-3.3","bgz1uj2y37","many_one","0","indirect_first","0","ER05AS01","0","22","1","1","3","1","Ich hatte das Gefühl, dass gerade Linien eher etwas negatives bedeuten und geschwungene Linien etwas positives. ","0","1","0","305.82999996840954","","","<img src = 'targets/mask.png' width = '100%;'>","68","neg","GS","GSold","2","category2/CS3.png","targets/26.png","0","indirect","27",""
"","html-keyboard-response","203","441257","0.0-10.0-0.4","bgz1uj2y37","many_one","0","indirect_first","0","ER05AS01","0","22","1","1","3","1","Ich hatte das Gefühl, dass gerade Linien eher etwas negatives bedeuten und geschwungene Linien etwas positives. ","0","1","0","null","","","<div style=""font-size:60px;"">+</div>","null","","","","","","","","","",""
"","html-keyboard-response","204","441361","0.0-10.0-1.4","bgz1uj2y37","many_one","0","indirect_first","0","ER05AS01","0","22","1","1","3","1","Ich hatte das Gefühl, dass gerade Linien eher etwas negatives bedeuten und geschwungene Linien etwas positives. ","0","1","0","null","","","<img src = 'category1/GS1.png' width = '100%;'>","null","","","","","","","","","",""
"","html-keyboard-response","205","441634","0.0-10.0-2.4","bgz1uj2y37","many_one","0","indirect_first","0","ER05AS01","0","22","1","1","3","1","Ich hatte das Gefühl, dass gerade Linien eher etwas negatives bedeuten und geschwungene Linien etwas positives. ","0","1","0","null","","","<img src = 'targets/41.png' width = '100%;'>","null","","","","","","","","","",""
"","html-keyboard-response","206","442032","0.0-10.0-3.4","bgz1uj2y37","many_one","0","indirect_first","0","ER05AS01","0","22","1","1","3","1","Ich hatte das Gefühl, dass gerade Linien eher etwas negatives bedeuten und geschwungene Linien etwas positives. ","0","1","0","394.9049999937415","","","<img src = 'targets/mask.png' width = '100%;'>","75","pos","GS","GSnew","1","category1/GS1.png","targets/41.png","1","indirect","28",""
"","html-keyboard-response","207","443539","0.0-10.0-0.5","bgz1uj2y37","many_one","0","indirect_first","0","ER05AS01","0","22","1","1","3","1","Ich hatte das Gefühl, dass gerade Linien eher etwas negatives bedeuten und geschwungene Linien etwas positives. ","0","1","0","null","","","<div style=""font-size:60px;"">+</div>","null","","","","","","","","","",""
"","html-keyboard-response","208","443641","0.0-10.0-1.5","bgz1uj2y37","many_one","0","indirect_first","0","ER05AS01","0","22","1","1","3","1","Ich hatte das Gefühl, dass gerade Linien eher etwas negatives bedeuten und geschwungene Linien etwas positives. ","0","1","0","null","","","<img src = 'category4/lin.png' width = '100%;'>","null","","","","","","","","","",""
"","html-keyboard-response","209","443915","0.0-10.0-2.5","bgz1uj2y37","many_one","0","indirect_first","0","ER05AS01","0","22","1","1","3","1","Ich hatte das Gefühl, dass gerade Linien eher etwas negatives bedeuten und geschwungene Linien etwas positives. ","0","1","0","null","","","<img src = 'targets/30.png' width = '100%;'>","null","","","","","","","","","",""
"","html-keyboard-response","210","446556","0.0-10.0-3.5","bgz1uj2y37","many_one","0","indirect_first","0","ER05AS01","0","22","1","1","3","1","Ich hatte das Gefühl, dass gerade Linien eher etwas negatives bedeuten und geschwungene Linien etwas positives. ","0","1","0","2637.5750000588596","","","<img src = 'targets/mask.png' width = '100%;'>","75","pos","GS","abstract","4","category4/lin.png","targets/30.png","1","indirect","29",""
"","html-keyboard-response","211","448068","0.0-10.0-0.6","bgz1uj2y37","many_one","0","indirect_first","0","ER05AS01","0","22","1","1","3","1","Ich hatte das Gefühl, dass gerade Linien eher etwas negatives bedeuten und geschwungene Linien etwas positives. ","0","1","0","null","","","<div style=""font-size:60px;"">+</div>","null","","","","","","","","","",""
"","html-keyboard-response","212","448167","0.0-10.0-1.6","bgz1uj2y37","many_one","0","indirect_first","0","ER05AS01","0","22","1","1","3","1","Ich hatte das Gefühl, dass gerade Linien eher etwas negatives bedeuten und geschwungene Linien etwas positives. ","0","1","0","null","","","<img src = 'category2/CS2.png' width = '100%;'>","null","","","","","","","","","",""
"","html-keyboard-response","213","448437","0.0-10.0-2.6","bgz1uj2y37","many_one","0","indirect_first","0","ER05AS01","0","22","1","1","3","1","Ich hatte das Gefühl, dass gerade Linien eher etwas negatives bedeuten und geschwungene Linien etwas positives. ","0","1","0","null","","","<img src = 'targets/17.png' width = '100%;'>","null","","","","","","","","","",""
"","html-keyboard-response","214","448875","0.0-10.0-3.6","bgz1uj2y37","many_one","0","indirect_first","0","ER05AS01","0","22","1","1","3","1","Ich hatte das Gefühl, dass gerade Linien eher etwas negatives bedeuten und geschwungene Linien etwas positives. ","0","1","0","434.17000002227724","","","<img src = 'targets/mask.png' width = '100%;'>","68","neg","GS","GSold","2","category2/CS2.png","targets/17.png","0","indirect","30",""
"","html-keyboard-response","215","450392","0.0-10.0-0.7","bgz1uj2y37","many_one","0","indirect_first","0","ER05AS01","0","22","1","1","3","1","Ich hatte das Gefühl, dass gerade Linien eher etwas negatives bedeuten und geschwungene Linien etwas positives. ","0","1","0","null","","","<div style=""font-size:60px;"">+</div>","null","","","","","","","","","",""
"","html-keyboard-response","216","450496","0.0-10.0-1.7","bgz1uj2y37","many_one","0","indirect_first","0","ER05AS01","0","22","1","1","3","1","Ich hatte das Gefühl, dass gerade Linien eher etwas negatives bedeuten und geschwungene Linien etwas positives. ","0","1","0","null","","","<img src = 'category1/GS2.png' width = '100%;'>","null","","","","","","","","","",""
"","html-keyboard-response","217","450761","0.0-10.0-2.7","bgz1uj2y37","many_one","0","indirect_first","0","ER05AS01","0","22","1","1","3","1","Ich hatte das Gefühl, dass gerade Linien eher etwas negatives bedeuten und geschwungene Linien etwas positives. ","0","1","0","null","","","<img src = 'targets/3.png' width = '100%;'>","null","","","","","","","","","",""
"","html-keyboard-response","218","451220","0.0-10.0-3.7","bgz1uj2y37","many_one","0","indirect_first","0","ER05AS01","0","22","1","1","3","1","Ich hatte das Gefühl, dass gerade Linien eher etwas negatives bedeuten und geschwungene Linien etwas positives. ","0","1","0","456.6599999088794","","","<img src = 'targets/mask.png' width = '100%;'>","75","pos","GS","GSnew","1","category1/GS2.png","targets/3.png","1","indirect","31",""
"","html-keyboard-response","219","452728","0.0-10.0-0.8","bgz1uj2y37","many_one","0","indirect_first","0","ER05AS01","0","22","1","1","3","1","Ich hatte das Gefühl, dass gerade Linien eher etwas negatives bedeuten und geschwungene Linien etwas positives. ","0","1","0","null","","","<div style=""font-size:60px;"">+</div>","null","","","","","","","","","",""
"","html-keyboard-response","220","452832","0.0-10.0-1.8","bgz1uj2y37","many_one","0","indirect_first","0","ER05AS01","0","22","1","1","3","1","Ich hatte das Gefühl, dass gerade Linien eher etwas negatives bedeuten und geschwungene Linien etwas positives. ","0","1","0","null","","","<img src = 'category4/CS9.png' width = '100%;'>","null","","","","","","","","","",""
"","html-keyboard-response","221","453105","0.0-10.0-2.8","bgz1uj2y37","many_one","0","indirect_first","0","ER05AS01","0","22","1","1","3","1","Ich hatte das Gefühl, dass gerade Linien eher etwas negatives bedeuten und geschwungene Linien etwas positives. ","0","1","0","null","","","<img src = 'targets/34.png' width = '100%;'>","null","","","","","","","","","",""
"","html-keyboard-response","222","453568","0.0-10.0-3.8","bgz1uj2y37","many_one","0","indirect_first","0","ER05AS01","0","22","1","1","3","1","Ich hatte das Gefühl, dass gerade Linien eher etwas negatives bedeuten und geschwungene Linien etwas positives. ","0","1","0","460.65500006079674","","","<img src = 'targets/mask.png' width = '100%;'>","68","pos","GS","GSold","4","category4/CS9.png","targets/34.png","0","indirect","32",""
"","html-keyboard-response","223","455094","0.0-10.0-0.9","bgz1uj2y37","many_one","0","indirect_first","0","ER05AS01","0","22","1","1","3","1","Ich hatte das Gefühl, dass gerade Linien eher etwas negatives bedeuten und geschwungene Linien etwas positives. ","0","1","0","null","","","<div style=""font-size:60px;"">+</div>","null","","","","","","","","","",""
"","html-keyboard-response","224","455203","0.0-10.0-1.9","bgz1uj2y37","many_one","0","indirect_first","0","ER05AS01","0","22","1","1","3","1","Ich hatte das Gefühl, dass gerade Linien eher etwas negatives bedeuten und geschwungene Linien etwas positives. ","0","1","0","null","","","<img src = 'category2/men.png' width = '100%;'>","null","","","","","","","","","",""
"","html-keyboard-response","225","455476","0.0-10.0-2.9","bgz1uj2y37","many_one","0","indirect_first","0","ER05AS01","0","22","1","1","3","1","Ich hatte das Gefühl, dass gerade Linien eher etwas negatives bedeuten und geschwungene Linien etwas positives. ","0","1","0","null","","","<img src = 'targets/32.png' width = '100%;'>","null","","","","","","","","","",""
"","html-keyboard-response","226","456535","0.0-10.0-3.9","bgz1uj2y37","many_one","0","indirect_first","0","ER05AS01","0","22","1","1","3","1","Ich hatte das Gefühl, dass gerade Linien eher etwas negatives bedeuten und geschwungene Linien etwas positives. ","0","1","0","1056.7899998277426","","","<img src = 'targets/mask.png' width = '100%;'>","68","neg","GS","abstract","2","category2/men.png","targets/32.png","0","indirect","33",""
"","html-keyboard-response","227","458052","0.0-10.0-0.10","bgz1uj2y37","many_one","0","indirect_first","0","ER05AS01","0","22","1","1","3","1","Ich hatte das Gefühl, dass gerade Linien eher etwas negatives bedeuten und geschwungene Linien etwas positives. ","0","1","0","null","","","<div style=""font-size:60px;"">+</div>","null","","","","","","","","","",""
"","html-keyboard-response","228","458154","0.0-10.0-1.10","bgz1uj2y37","many_one","0","indirect_first","0","ER05AS01","0","22","1","1","3","1","Ich hatte das Gefühl, dass gerade Linien eher etwas negatives bedeuten und geschwungene Linien etwas positives. ","0","1","0","null","","","<img src = 'category4/GS2.png' width = '100%;'>","null","","","","","","","","","",""
"","html-keyboard-response","229","458411","0.0-10.0-2.10","bgz1uj2y37","many_one","0","indirect_first","0","ER05AS01","0","22","1","1","3","1","Ich hatte das Gefühl, dass gerade Linien eher etwas negatives bedeuten und geschwungene Linien etwas positives. ","0","1","0","null","","","<img src = 'targets/2.png' width = '100%;'>","null","","","","","","","","","",""
