"success","trial_type","trial_index","time_elapsed","internal_node_id","subject","condition","condition_code","measure","measure_code","codeword","gender","age","education","chinese","fach","handedness","comment","hinschauen","ablenkung","gewissenhaft","rt","url","responses","stimulus","key_press","val","type","type_specific","category","cs_selected","target","indirect","task","nr_pres","response"
"true","fullscreen","0","5492","0.0-0.0","2aj9uo7pfl","many_one","0","indirect_first","0","er05ns23","1","69","1","1","3","1","teilnahme war o.k. ich ging davon aus, dass manche zeichen-bestandteile eine positive oder negative bedeutung hatten.","0","1","0","","","","","","","","","","","","","","",""
"","external-html","1","43862","0.0-1.0","2aj9uo7pfl","many_one","0","indirect_first","0","er05ns23","1","69","1","1","3","1","teilnahme war o.k. ich ging davon aus, dass manche zeichen-bestandteile eine positive oder negative bedeutung hatten.","0","1","0","38244.17000007816","text/information.html","","","","","","","","","","","","",""
"","external-html","2","56454","0.0-2.0","2aj9uo7pfl","many_one","0","indirect_first","0","er05ns23","1","69","1","1","3","1","teilnahme war o.k. ich ging davon aus, dass manche zeichen-bestandteile eine positive oder negative bedeutung hatten.","0","1","0","12534.070000052452","text/consent.html","","","","","","","","","","","","",""
"","survey-html-form","3","124006","0.0-3.0","2aj9uo7pfl","many_one","0","indirect_first","0","er05ns23","1","69","1","1","3","1","teilnahme war o.k. ich ging davon aus, dass manche zeichen-bestandteile eine positive oder negative bedeutung hatten.","0","1","0","67549.9950000085","","{""codeword_enter"":""er05ns23""}","","","","","","","","","","","",""
"","survey-html-form","4","157815","0.0-4.0","2aj9uo7pfl","many_one","0","indirect_first","0","er05ns23","1","69","1","1","3","1","teilnahme war o.k. ich ging davon aus, dass manche zeichen-bestandteile eine positive oder negative bedeutung hatten.","0","1","0","33804.4350000564","","{""age"":""69"",""education"":""1"",""subject"":""3"",""gender"":""1"",""handedness"":""1"",""chinese"":""1""}","","","","","","","","","","","",""
"","survey-html-form","5","170104","0.0-5.0","2aj9uo7pfl","many_one","0","indirect_first","0","er05ns23","1","69","1","1","3","1","teilnahme war o.k. ich ging davon aus, dass manche zeichen-bestandteile eine positive oder negative bedeutung hatten.","0","1","0","12289.154999889433","","{}","","","","","","","","","","","",""
"","html-keyboard-response","6","174124","0.0-6.0-0.0-0.0","2aj9uo7pfl","many_one","0","indirect_first","0","er05ns23","1","69","1","1","3","1","teilnahme war o.k. ich ging davon aus, dass manche zeichen-bestandteile eine positive oder negative bedeutung hatten.","0","1","0","null","","","<div class = 'row'><div class = 'column'><img src = 'usneg/9340.bmp' width = '100%;'></div><div class = 'column'><img src = 'category4/CS3.png' width = '70%;'></div></div>","null","neg","CS","CS","4","category4/CS3.png","","","","",""
"","html-keyboard-response","7","176651","0.0-6.0-0.0-0.1","2aj9uo7pfl","many_one","0","indirect_first","0","er05ns23","1","69","1","1","3","1","teilnahme war o.k. ich ging davon aus, dass manche zeichen-bestandteile eine positive oder negative bedeutung hatten.","0","1","0","null","","","<div class = 'row'><div class = 'column'><img src = 'category4/CS8.png' width = '70%;'></div><div class = 'column'><img src = 'usneg/6212.bmp' width = '100%;'></div></div>","null","neg","CS","CS","4","category4/CS8.png","","","","",""
"","html-keyboard-response","8","179168","0.0-6.0-0.0-0.2","2aj9uo7pfl","many_one","0","indirect_first","0","er05ns23","1","69","1","1","3","1","teilnahme war o.k. ich ging davon aus, dass manche zeichen-bestandteile eine positive oder negative bedeutung hatten.","0","1","0","null","","","<div class = 'row'><div class = 'column'><img src = 'uspos/1710.bmp' width = '100%;'></div><div class = 'column'><img src = 'category1/CS2.png' width = '70%;'></div></div>","null","pos","CS","CS","1","category1/CS2.png","","","","",""
"","html-keyboard-response","9","181687","0.0-6.0-0.0-0.3","2aj9uo7pfl","many_one","0","indirect_first","0","er05ns23","1","69","1","1","3","1","teilnahme war o.k. ich ging davon aus, dass manche zeichen-bestandteile eine positive oder negative bedeutung hatten.","0","1","0","null","","","<div class = 'row'><div class = 'column'><img src = 'uspos/8461.bmp' width = '100%;'></div><div class = 'column'><img src = 'category1/CS10.png' width = '70%;'></div></div>","null","pos","CS","CS","1","category1/CS10.png","","","","",""
"","html-keyboard-response","10","184205","0.0-6.0-0.0-0.4","2aj9uo7pfl","many_one","0","indirect_first","0","er05ns23","1","69","1","1","3","1","teilnahme war o.k. ich ging davon aus, dass manche zeichen-bestandteile eine positive oder negative bedeutung hatten.","0","1","0","null","","","<div class = 'row'><div class = 'column'><img src = 'uspos/5760.bmp' width = '100%;'></div><div class = 'column'><img src = 'category2/CS5.png' width = '70%;'></div></div>","null","pos","CS","CS","2","category2/CS5.png","","","","",""
"","html-keyboard-response","11","186738","0.0-6.0-0.0-0.5","2aj9uo7pfl","many_one","0","indirect_first","0","er05ns23","1","69","1","1","3","1","teilnahme war o.k. ich ging davon aus, dass manche zeichen-bestandteile eine positive oder negative bedeutung hatten.","0","1","0","null","","","<div class = 'row'><div class = 'column'><img src = 'category1/CS1.png' width = '70%;'></div><div class = 'column'><img src = 'uspos/7580.bmp' width = '100%;'></div></div>","null","pos","CS","CS","1","category1/CS1.png","","","","",""
"","html-keyboard-response","12","189257","0.0-6.0-0.0-0.6","2aj9uo7pfl","many_one","0","indirect_first","0","er05ns23","1","69","1","1","3","1","teilnahme war o.k. ich ging davon aus, dass manche zeichen-bestandteile eine positive oder negative bedeutung hatten.","0","1","0","null","","","<div class = 'row'><div class = 'column'><img src = 'category4/CS1.png' width = '70%;'></div><div class = 'column'><img src = 'usneg/9435.bmp' width = '100%;'></div></div>","null","neg","CS","CS","4","category4/CS1.png","","","","",""
"","html-keyboard-response","13","191775","0.0-6.0-0.0-0.7","2aj9uo7pfl","many_one","0","indirect_first","0","er05ns23","1","69","1","1","3","1","teilnahme war o.k. ich ging davon aus, dass manche zeichen-bestandteile eine positive oder negative bedeutung hatten.","0","1","0","null","","","<div class = 'row'><div class = 'column'><img src = 'usneg/2750.bmp' width = '100%;'></div><div class = 'column'><img src = 'category3/CS5.png' width = '70%;'></div></div>","null","neg","CS","CS","3","category3/CS5.png","","","","",""
"","html-keyboard-response","14","194293","0.0-6.0-0.0-0.8","2aj9uo7pfl","many_one","0","indirect_first","0","er05ns23","1","69","1","1","3","1","teilnahme war o.k. ich ging davon aus, dass manche zeichen-bestandteile eine positive oder negative bedeutung hatten.","0","1","0","null","","","<div class = 'row'><div class = 'column'><img src = 'uspos/2160.bmp' width = '100%;'></div><div class = 'column'><img src = 'category2/CS7.png' width = '70%;'></div></div>","null","pos","CS","CS","2","category2/CS7.png","","","","",""
"","html-keyboard-response","15","196810","0.0-6.0-0.0-0.9","2aj9uo7pfl","many_one","0","indirect_first","0","er05ns23","1","69","1","1","3","1","teilnahme war o.k. ich ging davon aus, dass manche zeichen-bestandteile eine positive oder negative bedeutung hatten.","0","1","0","null","","","<div class = 'row'><div class = 'column'><img src = 'category3/CS1.png' width = '70%;'></div><div class = 'column'><img src = 'usneg/9041.bmp' width = '100%;'></div></div>","null","neg","CS","CS","3","category3/CS1.png","","","","",""
"","html-keyboard-response","16","199328","0.0-6.0-0.0-0.10","2aj9uo7pfl","many_one","0","indirect_first","0","er05ns23","1","69","1","1","3","1","teilnahme war o.k. ich ging davon aus, dass manche zeichen-bestandteile eine positive oder negative bedeutung hatten.","0","1","0","null","","","<div class = 'row'><div class = 'column'><img src = 'uspos/2550.bmp' width = '100%;'></div><div class = 'column'><img src = 'category2/CS4.png' width = '70%;'></div></div>","null","pos","CS","CS","2","category2/CS4.png","","","","",""
"","html-keyboard-response","17","201845","0.0-6.0-0.0-0.11","2aj9uo7pfl","many_one","0","indirect_first","0","er05ns23","1","69","1","1","3","1","teilnahme war o.k. ich ging davon aus, dass manche zeichen-bestandteile eine positive oder negative bedeutung hatten.","0","1","0","null","","","<div class = 'row'><div class = 'column'><img src = 'usneg/9415.bmp' width = '100%;'></div><div class = 'column'><img src = 'category3/CS4.png' width = '70%;'></div></div>","null","neg","CS","CS","3","category3/CS4.png","","","","",""
"","html-keyboard-response","18","204363","0.0-6.0-0.0-0.12","2aj9uo7pfl","many_one","0","indirect_first","0","er05ns23","1","69","1","1","3","1","teilnahme war o.k. ich ging davon aus, dass manche zeichen-bestandteile eine positive oder negative bedeutung hatten.","0","1","0","null","","","<div class = 'row'><div class = 'column'><img src = 'category2/CS3.png' width = '70%;'></div><div class = 'column'><img src = 'uspos/1340.bmp' width = '100%;'></div></div>","null","pos","CS","CS","2","category2/CS3.png","","","","",""
"","html-keyboard-response","19","206871","0.0-6.0-0.0-0.13","2aj9uo7pfl","many_one","0","indirect_first","0","er05ns23","1","69","1","1","3","1","teilnahme war o.k. ich ging davon aus, dass manche zeichen-bestandteile eine positive oder negative bedeutung hatten.","0","1","0","null","","","<div class = 'row'><div class = 'column'><img src = 'category1/CS7.png' width = '70%;'></div><div class = 'column'><img src = 'uspos/8350.bmp' width = '100%;'></div></div>","null","pos","CS","CS","1","category1/CS7.png","","","","",""
"","html-keyboard-response","20","209386","0.0-6.0-0.0-0.14","2aj9uo7pfl","many_one","0","indirect_first","0","er05ns23","1","69","1","1","3","1","teilnahme war o.k. ich ging davon aus, dass manche zeichen-bestandteile eine positive oder negative bedeutung hatten.","0","1","0","null","","","<div class = 'row'><div class = 'column'><img src = 'category3/CS9.png' width = '70%;'></div><div class = 'column'><img src = 'usneg/8485.bmp' width = '100%;'></div></div>","null","neg","CS","CS","3","category3/CS9.png","","","","",""
"","html-keyboard-response","21","211900","0.0-6.0-0.0-0.15","2aj9uo7pfl","many_one","0","indirect_first","0","er05ns23","1","69","1","1","3","1","teilnahme war o.k. ich ging davon aus, dass manche zeichen-bestandteile eine positive oder negative bedeutung hatten.","0","1","0","null","","","<div class = 'row'><div class = 'column'><img src = 'category4/CS6.png' width = '70%;'></div><div class = 'column'><img src = 'usneg/2900.bmp' width = '100%;'></div></div>","null","neg","CS","CS","4","category4/CS6.png","","","","",""
"","html-keyboard-response","22","214418","0.0-6.0-0.0-0.16","2aj9uo7pfl","many_one","0","indirect_first","0","er05ns23","1","69","1","1","3","1","teilnahme war o.k. ich ging davon aus, dass manche zeichen-bestandteile eine positive oder negative bedeutung hatten.","0","1","0","null","","","<div class = 'row'><div class = 'column'><img src = 'usneg/3300.bmp' width = '100%;'></div><div class = 'column'><img src = 'category4/CS10.png' width = '70%;'></div></div>","null","neg","CS","CS","4","category4/CS10.png","","","","",""
"","html-keyboard-response","23","216936","0.0-6.0-0.0-0.17","2aj9uo7pfl","many_one","0","indirect_first","0","er05ns23","1","69","1","1","3","1","teilnahme war o.k. ich ging davon aus, dass manche zeichen-bestandteile eine positive oder negative bedeutung hatten.","0","1","0","null","","","<div class = 'row'><div class = 'column'><img src = 'usneg/9561.bmp' width = '100%;'></div><div class = 'column'><img src = 'category3/CS7.png' width = '70%;'></div></div>","null","neg","CS","CS","3","category3/CS7.png","","","","",""
"","html-keyboard-response","24","219454","0.0-6.0-0.0-0.18","2aj9uo7pfl","many_one","0","indirect_first","0","er05ns23","1","69","1","1","3","1","teilnahme war o.k. ich ging davon aus, dass manche zeichen-bestandteile eine positive oder negative bedeutung hatten.","0","1","0","null","","","<div class = 'row'><div class = 'column'><img src = 'category1/CS9.png' width = '70%;'></div><div class = 'column'><img src = 'uspos/8190.bmp' width = '100%;'></div></div>","null","pos","CS","CS","1","category1/CS9.png","","","","",""
"","html-keyboard-response","25","221971","0.0-6.0-0.0-0.19","2aj9uo7pfl","many_one","0","indirect_first","0","er05ns23","1","69","1","1","3","1","teilnahme war o.k. ich ging davon aus, dass manche zeichen-bestandteile eine positive oder negative bedeutung hatten.","0","1","0","null","","","<div class = 'row'><div class = 'column'><img src = 'category2/CS10.png' width = '70%;'></div><div class = 'column'><img src = 'uspos/1460.bmp' width = '100%;'></div></div>","null","pos","CS","CS","2","category2/CS10.png","","","","",""
"","survey-html-form","26","227183","0.0-6.0-1.0","2aj9uo7pfl","many_one","0","indirect_first","0","er05ns23","1","69","1","1","3","1","teilnahme war o.k. ich ging davon aus, dass manche zeichen-bestandteile eine positive oder negative bedeutung hatten.","0","1","0","4709.825000027195","","{}","","","","","","","","","","","",""
"","html-keyboard-response","27","231215","0.0-6.0-2.0-0.0","2aj9uo7pfl","many_one","0","indirect_first","0","er05ns23","1","69","1","1","3","1","teilnahme war o.k. ich ging davon aus, dass manche zeichen-bestandteile eine positive oder negative bedeutung hatten.","0","1","0","null","","","<div class = 'row'><div class = 'column'><img src = 'usneg/9340.bmp' width = '100%;'></div><div class = 'column'><img src = 'category4/CS3.png' width = '70%;'></div></div>","null","neg","CS","CS","4","category4/CS3.png","","","","",""
"","html-keyboard-response","28","233730","0.0-6.0-2.0-0.1","2aj9uo7pfl","many_one","0","indirect_first","0","er05ns23","1","69","1","1","3","1","teilnahme war o.k. ich ging davon aus, dass manche zeichen-bestandteile eine positive oder negative bedeutung hatten.","0","1","0","null","","","<div class = 'row'><div class = 'column'><img src = 'category4/CS1.png' width = '70%;'></div><div class = 'column'><img src = 'usneg/9435.bmp' width = '100%;'></div></div>","null","neg","CS","CS","4","category4/CS1.png","","","","",""
"","html-keyboard-response","29","236245","0.0-6.0-2.0-0.2","2aj9uo7pfl","many_one","0","indirect_first","0","er05ns23","1","69","1","1","3","1","teilnahme war o.k. ich ging davon aus, dass manche zeichen-bestandteile eine positive oder negative bedeutung hatten.","0","1","0","null","","","<div class = 'row'><div class = 'column'><img src = 'category3/CS5.png' width = '70%;'></div><div class = 'column'><img src = 'usneg/2750.bmp' width = '100%;'></div></div>","null","neg","CS","CS","3","category3/CS5.png","","","","",""
"","html-keyboard-response","30","238752","0.0-6.0-2.0-0.3","2aj9uo7pfl","many_one","0","indirect_first","0","er05ns23","1","69","1","1","3","1","teilnahme war o.k. ich ging davon aus, dass manche zeichen-bestandteile eine positive oder negative bedeutung hatten.","0","1","0","null","","","<div class = 'row'><div class = 'column'><img src = 'category2/CS5.png' width = '70%;'></div><div class = 'column'><img src = 'uspos/5760.bmp' width = '100%;'></div></div>","null","pos","CS","CS","2","category2/CS5.png","","","","",""
"","html-keyboard-response","31","241268","0.0-6.0-2.0-0.4","2aj9uo7pfl","many_one","0","indirect_first","0","er05ns23","1","69","1","1","3","1","teilnahme war o.k. ich ging davon aus, dass manche zeichen-bestandteile eine positive oder negative bedeutung hatten.","0","1","0","null","","","<div class = 'row'><div class = 'column'><img src = 'uspos/7580.bmp' width = '100%;'></div><div class = 'column'><img src = 'category1/CS1.png' width = '70%;'></div></div>","null","pos","CS","CS","1","category1/CS1.png","","","","",""
"","html-keyboard-response","32","243784","0.0-6.0-2.0-0.5","2aj9uo7pfl","many_one","0","indirect_first","0","er05ns23","1","69","1","1","3","1","teilnahme war o.k. ich ging davon aus, dass manche zeichen-bestandteile eine positive oder negative bedeutung hatten.","0","1","0","null","","","<div class = 'row'><div class = 'column'><img src = 'uspos/1460.bmp' width = '100%;'></div><div class = 'column'><img src = 'category2/CS10.png' width = '70%;'></div></div>","null","pos","CS","CS","2","category2/CS10.png","","","","",""
"","html-keyboard-response","33","246297","0.0-6.0-2.0-0.6","2aj9uo7pfl","many_one","0","indirect_first","0","er05ns23","1","69","1","1","3","1","teilnahme war o.k. ich ging davon aus, dass manche zeichen-bestandteile eine positive oder negative bedeutung hatten.","0","1","0","null","","","<div class = 'row'><div class = 'column'><img src = 'category3/CS4.png' width = '70%;'></div><div class = 'column'><img src = 'usneg/9415.bmp' width = '100%;'></div></div>","null","neg","CS","CS","3","category3/CS4.png","","","","",""
"","html-keyboard-response","34","248805","0.0-6.0-2.0-0.7","2aj9uo7pfl","many_one","0","indirect_first","0","er05ns23","1","69","1","1","3","1","teilnahme war o.k. ich ging davon aus, dass manche zeichen-bestandteile eine positive oder negative bedeutung hatten.","0","1","0","null","","","<div class = 'row'><div class = 'column'><img src = 'category1/CS9.png' width = '70%;'></div><div class = 'column'><img src = 'uspos/8190.bmp' width = '100%;'></div></div>","null","pos","CS","CS","1","category1/CS9.png","","","","",""
"","html-keyboard-response","35","251322","0.0-6.0-2.0-0.8","2aj9uo7pfl","many_one","0","indirect_first","0","er05ns23","1","69","1","1","3","1","teilnahme war o.k. ich ging davon aus, dass manche zeichen-bestandteile eine positive oder negative bedeutung hatten.","0","1","0","null","","","<div class = 'row'><div class = 'column'><img src = 'category1/CS2.png' width = '70%;'></div><div class = 'column'><img src = 'uspos/1710.bmp' width = '100%;'></div></div>","null","pos","CS","CS","1","category1/CS2.png","","","","",""
"","html-keyboard-response","36","253838","0.0-6.0-2.0-0.9","2aj9uo7pfl","many_one","0","indirect_first","0","er05ns23","1","69","1","1","3","1","teilnahme war o.k. ich ging davon aus, dass manche zeichen-bestandteile eine positive oder negative bedeutung hatten.","0","1","0","null","","","<div class = 'row'><div class = 'column'><img src = 'usneg/9561.bmp' width = '100%;'></div><div class = 'column'><img src = 'category3/CS7.png' width = '70%;'></div></div>","null","neg","CS","CS","3","category3/CS7.png","","","","",""
"","html-keyboard-response","37","256352","0.0-6.0-2.0-0.10","2aj9uo7pfl","many_one","0","indirect_first","0","er05ns23","1","69","1","1","3","1","teilnahme war o.k. ich ging davon aus, dass manche zeichen-bestandteile eine positive oder negative bedeutung hatten.","0","1","0","null","","","<div class = 'row'><div class = 'column'><img src = 'category1/CS10.png' width = '70%;'></div><div class = 'column'><img src = 'uspos/8461.bmp' width = '100%;'></div></div>","null","pos","CS","CS","1","category1/CS10.png","","","","",""
"","html-keyboard-response","38","258860","0.0-6.0-2.0-0.11","2aj9uo7pfl","many_one","0","indirect_first","0","er05ns23","1","69","1","1","3","1","teilnahme war o.k. ich ging davon aus, dass manche zeichen-bestandteile eine positive oder negative bedeutung hatten.","0","1","0","null","","","<div class = 'row'><div class = 'column'><img src = 'category2/CS4.png' width = '70%;'></div><div class = 'column'><img src = 'uspos/2550.bmp' width = '100%;'></div></div>","null","pos","CS","CS","2","category2/CS4.png","","","","",""
"","html-keyboard-response","39","261376","0.0-6.0-2.0-0.12","2aj9uo7pfl","many_one","0","indirect_first","0","er05ns23","1","69","1","1","3","1","teilnahme war o.k. ich ging davon aus, dass manche zeichen-bestandteile eine positive oder negative bedeutung hatten.","0","1","0","null","","","<div class = 'row'><div class = 'column'><img src = 'usneg/2900.bmp' width = '100%;'></div><div class = 'column'><img src = 'category4/CS6.png' width = '70%;'></div></div>","null","neg","CS","CS","4","category4/CS6.png","","","","",""
"","html-keyboard-response","40","263891","0.0-6.0-2.0-0.13","2aj9uo7pfl","many_one","0","indirect_first","0","er05ns23","1","69","1","1","3","1","teilnahme war o.k. ich ging davon aus, dass manche zeichen-bestandteile eine positive oder negative bedeutung hatten.","0","1","0","null","","","<div class = 'row'><div class = 'column'><img src = 'category4/CS8.png' width = '70%;'></div><div class = 'column'><img src = 'usneg/6212.bmp' width = '100%;'></div></div>","null","neg","CS","CS","4","category4/CS8.png","","","","",""
"","html-keyboard-response","41","266407","0.0-6.0-2.0-0.14","2aj9uo7pfl","many_one","0","indirect_first","0","er05ns23","1","69","1","1","3","1","teilnahme war o.k. ich ging davon aus, dass manche zeichen-bestandteile eine positive oder negative bedeutung hatten.","0","1","0","null","","","<div class = 'row'><div class = 'column'><img src = 'category3/CS9.png' width = '70%;'></div><div class = 'column'><img src = 'usneg/8485.bmp' width = '100%;'></div></div>","null","neg","CS","CS","3","category3/CS9.png","","","","",""
"","html-keyboard-response","42","268929","0.0-6.0-2.0-0.15","2aj9uo7pfl","many_one","0","indirect_first","0","er05ns23","1","69","1","1","3","1","teilnahme war o.k. ich ging davon aus, dass manche zeichen-bestandteile eine positive oder negative bedeutung hatten.","0","1","0","null","","","<div class = 'row'><div class = 'column'><img src = 'uspos/8350.bmp' width = '100%;'></div><div class = 'column'><img src = 'category1/CS7.png' width = '70%;'></div></div>","null","pos","CS","CS","1","category1/CS7.png","","","","",""
"","html-keyboard-response","43","271446","0.0-6.0-2.0-0.16","2aj9uo7pfl","many_one","0","indirect_first","0","er05ns23","1","69","1","1","3","1","teilnahme war o.k. ich ging davon aus, dass manche zeichen-bestandteile eine positive oder negative bedeutung hatten.","0","1","0","null","","","<div class = 'row'><div class = 'column'><img src = 'uspos/2160.bmp' width = '100%;'></div><div class = 'column'><img src = 'category2/CS7.png' width = '70%;'></div></div>","null","pos","CS","CS","2","category2/CS7.png","","","","",""
"","html-keyboard-response","44","273960","0.0-6.0-2.0-0.17","2aj9uo7pfl","many_one","0","indirect_first","0","er05ns23","1","69","1","1","3","1","teilnahme war o.k. ich ging davon aus, dass manche zeichen-bestandteile eine positive oder negative bedeutung hatten.","0","1","0","null","","","<div class = 'row'><div class = 'column'><img src = 'usneg/3300.bmp' width = '100%;'></div><div class = 'column'><img src = 'category4/CS10.png' width = '70%;'></div></div>","null","neg","CS","CS","4","category4/CS10.png","","","","",""
"","html-keyboard-response","45","276468","0.0-6.0-2.0-0.18","2aj9uo7pfl","many_one","0","indirect_first","0","er05ns23","1","69","1","1","3","1","teilnahme war o.k. ich ging davon aus, dass manche zeichen-bestandteile eine positive oder negative bedeutung hatten.","0","1","0","null","","","<div class = 'row'><div class = 'column'><img src = 'category2/CS3.png' width = '70%;'></div><div class = 'column'><img src = 'uspos/1340.bmp' width = '100%;'></div></div>","null","pos","CS","CS","2","category2/CS3.png","","","","",""
"","html-keyboard-response","46","278984","0.0-6.0-2.0-0.19","2aj9uo7pfl","many_one","0","indirect_first","0","er05ns23","1","69","1","1","3","1","teilnahme war o.k. ich ging davon aus, dass manche zeichen-bestandteile eine positive oder negative bedeutung hatten.","0","1","0","null","","","<div class = 'row'><div class = 'column'><img src = 'category3/CS1.png' width = '70%;'></div><div class = 'column'><img src = 'usneg/9041.bmp' width = '100%;'></div></div>","null","neg","CS","CS","3","category3/CS1.png","","","","",""
"","survey-html-form","47","283575","0.0-6.0-3.0","2aj9uo7pfl","many_one","0","indirect_first","0","er05ns23","1","69","1","1","3","1","teilnahme war o.k. ich ging davon aus, dass manche zeichen-bestandteile eine positive oder negative bedeutung hatten.","0","1","0","4088.9349998906255","","{}","","","","","","","","","","","",""
"","html-keyboard-response","48","287598","0.0-6.0-4.0-0.0","2aj9uo7pfl","many_one","0","indirect_first","0","er05ns23","1","69","1","1","3","1","teilnahme war o.k. ich ging davon aus, dass manche zeichen-bestandteile eine positive oder negative bedeutung hatten.","0","1","0","null","","","<div class = 'row'><div class = 'column'><img src = 'usneg/9435.bmp' width = '100%;'></div><div class = 'column'><img src = 'category4/CS1.png' width = '70%;'></div></div>","null","neg","CS","CS","4","category4/CS1.png","","","","",""
"","html-keyboard-response","49","290127","0.0-6.0-4.0-0.1","2aj9uo7pfl","many_one","0","indirect_first","0","er05ns23","1","69","1","1","3","1","teilnahme war o.k. ich ging davon aus, dass manche zeichen-bestandteile eine positive oder negative bedeutung hatten.","0","1","0","null","","","<div class = 'row'><div class = 'column'><img src = 'category1/CS7.png' width = '70%;'></div><div class = 'column'><img src = 'uspos/8350.bmp' width = '100%;'></div></div>","null","pos","CS","CS","1","category1/CS7.png","","","","",""
"","html-keyboard-response","50","292642","0.0-6.0-4.0-0.2","2aj9uo7pfl","many_one","0","indirect_first","0","er05ns23","1","69","1","1","3","1","teilnahme war o.k. ich ging davon aus, dass manche zeichen-bestandteile eine positive oder negative bedeutung hatten.","0","1","0","null","","","<div class = 'row'><div class = 'column'><img src = 'category4/CS10.png' width = '70%;'></div><div class = 'column'><img src = 'usneg/3300.bmp' width = '100%;'></div></div>","null","neg","CS","CS","4","category4/CS10.png","","","","",""
"","html-keyboard-response","51","295149","0.0-6.0-4.0-0.3","2aj9uo7pfl","many_one","0","indirect_first","0","er05ns23","1","69","1","1","3","1","teilnahme war o.k. ich ging davon aus, dass manche zeichen-bestandteile eine positive oder negative bedeutung hatten.","0","1","0","null","","","<div class = 'row'><div class = 'column'><img src = 'usneg/2750.bmp' width = '100%;'></div><div class = 'column'><img src = 'category3/CS5.png' width = '70%;'></div></div>","null","neg","CS","CS","3","category3/CS5.png","","","","",""
"","html-keyboard-response","52","297665","0.0-6.0-4.0-0.4","2aj9uo7pfl","many_one","0","indirect_first","0","er05ns23","1","69","1","1","3","1","teilnahme war o.k. ich ging davon aus, dass manche zeichen-bestandteile eine positive oder negative bedeutung hatten.","0","1","0","null","","","<div class = 'row'><div class = 'column'><img src = 'category4/CS8.png' width = '70%;'></div><div class = 'column'><img src = 'usneg/6212.bmp' width = '100%;'></div></div>","null","neg","CS","CS","4","category4/CS8.png","","","","",""
"","html-keyboard-response","53","300183","0.0-6.0-4.0-0.5","2aj9uo7pfl","many_one","0","indirect_first","0","er05ns23","1","69","1","1","3","1","teilnahme war o.k. ich ging davon aus, dass manche zeichen-bestandteile eine positive oder negative bedeutung hatten.","0","1","0","null","","","<div class = 'row'><div class = 'column'><img src = 'usneg/2900.bmp' width = '100%;'></div><div class = 'column'><img src = 'category4/CS6.png' width = '70%;'></div></div>","null","neg","CS","CS","4","category4/CS6.png","","","","",""
"","html-keyboard-response","54","302698","0.0-6.0-4.0-0.6","2aj9uo7pfl","many_one","0","indirect_first","0","er05ns23","1","69","1","1","3","1","teilnahme war o.k. ich ging davon aus, dass manche zeichen-bestandteile eine positive oder negative bedeutung hatten.","0","1","0","null","","","<div class = 'row'><div class = 'column'><img src = 'category2/CS4.png' width = '70%;'></div><div class = 'column'><img src = 'uspos/2550.bmp' width = '100%;'></div></div>","null","pos","CS","CS","2","category2/CS4.png","","","","",""
"","html-keyboard-response","55","305214","0.0-6.0-4.0-0.7","2aj9uo7pfl","many_one","0","indirect_first","0","er05ns23","1","69","1","1","3","1","teilnahme war o.k. ich ging davon aus, dass manche zeichen-bestandteile eine positive oder negative bedeutung hatten.","0","1","0","null","","","<div class = 'row'><div class = 'column'><img src = 'usneg/8485.bmp' width = '100%;'></div><div class = 'column'><img src = 'category3/CS9.png' width = '70%;'></div></div>","null","neg","CS","CS","3","category3/CS9.png","","","","",""
"","html-keyboard-response","56","307730","0.0-6.0-4.0-0.8","2aj9uo7pfl","many_one","0","indirect_first","0","er05ns23","1","69","1","1","3","1","teilnahme war o.k. ich ging davon aus, dass manche zeichen-bestandteile eine positive oder negative bedeutung hatten.","0","1","0","null","","","<div class = 'row'><div class = 'column'><img src = 'category4/CS3.png' width = '70%;'></div><div class = 'column'><img src = 'usneg/9340.bmp' width = '100%;'></div></div>","null","neg","CS","CS","4","category4/CS3.png","","","","",""
"","html-keyboard-response","57","310238","0.0-6.0-4.0-0.9","2aj9uo7pfl","many_one","0","indirect_first","0","er05ns23","1","69","1","1","3","1","teilnahme war o.k. ich ging davon aus, dass manche zeichen-bestandteile eine positive oder negative bedeutung hatten.","0","1","0","null","","","<div class = 'row'><div class = 'column'><img src = 'uspos/1340.bmp' width = '100%;'></div><div class = 'column'><img src = 'category2/CS3.png' width = '70%;'></div></div>","null","pos","CS","CS","2","category2/CS3.png","","","","",""
"","html-keyboard-response","58","312754","0.0-6.0-4.0-0.10","2aj9uo7pfl","many_one","0","indirect_first","0","er05ns23","1","69","1","1","3","1","teilnahme war o.k. ich ging davon aus, dass manche zeichen-bestandteile eine positive oder negative bedeutung hatten.","0","1","0","null","","","<div class = 'row'><div class = 'column'><img src = 'category3/CS7.png' width = '70%;'></div><div class = 'column'><img src = 'usneg/9561.bmp' width = '100%;'></div></div>","null","neg","CS","CS","3","category3/CS7.png","","","","",""
"","html-keyboard-response","59","315267","0.0-6.0-4.0-0.11","2aj9uo7pfl","many_one","0","indirect_first","0","er05ns23","1","69","1","1","3","1","teilnahme war o.k. ich ging davon aus, dass manche zeichen-bestandteile eine positive oder negative bedeutung hatten.","0","1","0","null","","","<div class = 'row'><div class = 'column'><img src = 'uspos/1710.bmp' width = '100%;'></div><div class = 'column'><img src = 'category1/CS2.png' width = '70%;'></div></div>","null","pos","CS","CS","1","category1/CS2.png","","","","",""
"","html-keyboard-response","60","317776","0.0-6.0-4.0-0.12","2aj9uo7pfl","many_one","0","indirect_first","0","er05ns23","1","69","1","1","3","1","teilnahme war o.k. ich ging davon aus, dass manche zeichen-bestandteile eine positive oder negative bedeutung hatten.","0","1","0","null","","","<div class = 'row'><div class = 'column'><img src = 'category3/CS4.png' width = '70%;'></div><div class = 'column'><img src = 'usneg/9415.bmp' width = '100%;'></div></div>","null","neg","CS","CS","3","category3/CS4.png","","","","",""
"","html-keyboard-response","61","320291","0.0-6.0-4.0-0.13","2aj9uo7pfl","many_one","0","indirect_first","0","er05ns23","1","69","1","1","3","1","teilnahme war o.k. ich ging davon aus, dass manche zeichen-bestandteile eine positive oder negative bedeutung hatten.","0","1","0","null","","","<div class = 'row'><div class = 'column'><img src = 'uspos/5760.bmp' width = '100%;'></div><div class = 'column'><img src = 'category2/CS5.png' width = '70%;'></div></div>","null","pos","CS","CS","2","category2/CS5.png","","","","",""
"","html-keyboard-response","62","322808","0.0-6.0-4.0-0.14","2aj9uo7pfl","many_one","0","indirect_first","0","er05ns23","1","69","1","1","3","1","teilnahme war o.k. ich ging davon aus, dass manche zeichen-bestandteile eine positive oder negative bedeutung hatten.","0","1","0","null","","","<div class = 'row'><div class = 'column'><img src = 'uspos/1460.bmp' width = '100%;'></div><div class = 'column'><img src = 'category2/CS10.png' width = '70%;'></div></div>","null","pos","CS","CS","2","category2/CS10.png","","","","",""
"","html-keyboard-response","63","325323","0.0-6.0-4.0-0.15","2aj9uo7pfl","many_one","0","indirect_first","0","er05ns23","1","69","1","1","3","1","teilnahme war o.k. ich ging davon aus, dass manche zeichen-bestandteile eine positive oder negative bedeutung hatten.","0","1","0","null","","","<div class = 'row'><div class = 'column'><img src = 'category1/CS1.png' width = '70%;'></div><div class = 'column'><img src = 'uspos/7580.bmp' width = '100%;'></div></div>","null","pos","CS","CS","1","category1/CS1.png","","","","",""
"","html-keyboard-response","64","327831","0.0-6.0-4.0-0.16","2aj9uo7pfl","many_one","0","indirect_first","0","er05ns23","1","69","1","1","3","1","teilnahme war o.k. ich ging davon aus, dass manche zeichen-bestandteile eine positive oder negative bedeutung hatten.","0","1","0","null","","","<div class = 'row'><div class = 'column'><img src = 'uspos/2160.bmp' width = '100%;'></div><div class = 'column'><img src = 'category2/CS7.png' width = '70%;'></div></div>","null","pos","CS","CS","2","category2/CS7.png","","","","",""
"","html-keyboard-response","65","330345","0.0-6.0-4.0-0.17","2aj9uo7pfl","many_one","0","indirect_first","0","er05ns23","1","69","1","1","3","1","teilnahme war o.k. ich ging davon aus, dass manche zeichen-bestandteile eine positive oder negative bedeutung hatten.","0","1","0","null","","","<div class = 'row'><div class = 'column'><img src = 'category1/CS10.png' width = '70%;'></div><div class = 'column'><img src = 'uspos/8461.bmp' width = '100%;'></div></div>","null","pos","CS","CS","1","category1/CS10.png","","","","",""
"","html-keyboard-response","66","332861","0.0-6.0-4.0-0.18","2aj9uo7pfl","many_one","0","indirect_first","0","er05ns23","1","69","1","1","3","1","teilnahme war o.k. ich ging davon aus, dass manche zeichen-bestandteile eine positive oder negative bedeutung hatten.","0","1","0","null","","","<div class = 'row'><div class = 'column'><img src = 'category1/CS9.png' width = '70%;'></div><div class = 'column'><img src = 'uspos/8190.bmp' width = '100%;'></div></div>","null","pos","CS","CS","1","category1/CS9.png","","","","",""
"","html-keyboard-response","67","335376","0.0-6.0-4.0-0.19","2aj9uo7pfl","many_one","0","indirect_first","0","er05ns23","1","69","1","1","3","1","teilnahme war o.k. ich ging davon aus, dass manche zeichen-bestandteile eine positive oder negative bedeutung hatten.","0","1","0","null","","","<div class = 'row'><div class = 'column'><img src = 'usneg/9041.bmp' width = '100%;'></div><div class = 'column'><img src = 'category3/CS1.png' width = '70%;'></div></div>","null","neg","CS","CS","3","category3/CS1.png","","","","",""
"","survey-html-form","68","339388","0.0-6.0-5.0","2aj9uo7pfl","many_one","0","indirect_first","0","er05ns23","1","69","1","1","3","1","teilnahme war o.k. ich ging davon aus, dass manche zeichen-bestandteile eine positive oder negative bedeutung hatten.","0","1","0","3509.0199999976903","","{}","","","","","","","","","","","",""
"","html-keyboard-response","69","343417","0.0-6.0-6.0-0.0","2aj9uo7pfl","many_one","0","indirect_first","0","er05ns23","1","69","1","1","3","1","teilnahme war o.k. ich ging davon aus, dass manche zeichen-bestandteile eine positive oder negative bedeutung hatten.","0","1","0","null","","","<div class = 'row'><div class = 'column'><img src = 'usneg/9340.bmp' width = '100%;'></div><div class = 'column'><img src = 'category4/CS3.png' width = '70%;'></div></div>","null","neg","CS","CS","4","category4/CS3.png","","","","",""
"","html-keyboard-response","70","345940","0.0-6.0-6.0-0.1","2aj9uo7pfl","many_one","0","indirect_first","0","er05ns23","1","69","1","1","3","1","teilnahme war o.k. ich ging davon aus, dass manche zeichen-bestandteile eine positive oder negative bedeutung hatten.","0","1","0","null","","","<div class = 'row'><div class = 'column'><img src = 'category3/CS9.png' width = '70%;'></div><div class = 'column'><img src = 'usneg/8485.bmp' width = '100%;'></div></div>","null","neg","CS","CS","3","category3/CS9.png","","","","",""
"","html-keyboard-response","71","348456","0.0-6.0-6.0-0.2","2aj9uo7pfl","many_one","0","indirect_first","0","er05ns23","1","69","1","1","3","1","teilnahme war o.k. ich ging davon aus, dass manche zeichen-bestandteile eine positive oder negative bedeutung hatten.","0","1","0","null","","","<div class = 'row'><div class = 'column'><img src = 'usneg/2900.bmp' width = '100%;'></div><div class = 'column'><img src = 'category4/CS6.png' width = '70%;'></div></div>","null","neg","CS","CS","4","category4/CS6.png","","","","",""
"","html-keyboard-response","72","350971","0.0-6.0-6.0-0.3","2aj9uo7pfl","many_one","0","indirect_first","0","er05ns23","1","69","1","1","3","1","teilnahme war o.k. ich ging davon aus, dass manche zeichen-bestandteile eine positive oder negative bedeutung hatten.","0","1","0","null","","","<div class = 'row'><div class = 'column'><img src = 'uspos/2550.bmp' width = '100%;'></div><div class = 'column'><img src = 'category2/CS4.png' width = '70%;'></div></div>","null","pos","CS","CS","2","category2/CS4.png","","","","",""
"","html-keyboard-response","73","353487","0.0-6.0-6.0-0.4","2aj9uo7pfl","many_one","0","indirect_first","0","er05ns23","1","69","1","1","3","1","teilnahme war o.k. ich ging davon aus, dass manche zeichen-bestandteile eine positive oder negative bedeutung hatten.","0","1","0","null","","","<div class = 'row'><div class = 'column'><img src = 'usneg/3300.bmp' width = '100%;'></div><div class = 'column'><img src = 'category4/CS10.png' width = '70%;'></div></div>","null","neg","CS","CS","4","category4/CS10.png","","","","",""
"","html-keyboard-response","74","356004","0.0-6.0-6.0-0.5","2aj9uo7pfl","many_one","0","indirect_first","0","er05ns23","1","69","1","1","3","1","teilnahme war o.k. ich ging davon aus, dass manche zeichen-bestandteile eine positive oder negative bedeutung hatten.","0","1","0","null","","","<div class = 'row'><div class = 'column'><img src = 'usneg/9561.bmp' width = '100%;'></div><div class = 'column'><img src = 'category3/CS7.png' width = '70%;'></div></div>","null","neg","CS","CS","3","category3/CS7.png","","","","",""
"","html-keyboard-response","75","358520","0.0-6.0-6.0-0.6","2aj9uo7pfl","many_one","0","indirect_first","0","er05ns23","1","69","1","1","3","1","teilnahme war o.k. ich ging davon aus, dass manche zeichen-bestandteile eine positive oder negative bedeutung hatten.","0","1","0","null","","","<div class = 'row'><div class = 'column'><img src = 'uspos/7580.bmp' width = '100%;'></div><div class = 'column'><img src = 'category1/CS1.png' width = '70%;'></div></div>","null","pos","CS","CS","1","category1/CS1.png","","","","",""
"","html-keyboard-response","76","361028","0.0-6.0-6.0-0.7","2aj9uo7pfl","many_one","0","indirect_first","0","er05ns23","1","69","1","1","3","1","teilnahme war o.k. ich ging davon aus, dass manche zeichen-bestandteile eine positive oder negative bedeutung hatten.","0","1","0","null","","","<div class = 'row'><div class = 'column'><img src = 'usneg/6212.bmp' width = '100%;'></div><div class = 'column'><img src = 'category4/CS8.png' width = '70%;'></div></div>","null","neg","CS","CS","4","category4/CS8.png","","","","",""
"","html-keyboard-response","77","363544","0.0-6.0-6.0-0.8","2aj9uo7pfl","many_one","0","indirect_first","0","er05ns23","1","69","1","1","3","1","teilnahme war o.k. ich ging davon aus, dass manche zeichen-bestandteile eine positive oder negative bedeutung hatten.","0","1","0","null","","","<div class = 'row'><div class = 'column'><img src = 'category4/CS1.png' width = '70%;'></div><div class = 'column'><img src = 'usneg/9435.bmp' width = '100%;'></div></div>","null","neg","CS","CS","4","category4/CS1.png","","","","",""
"","html-keyboard-response","78","366060","0.0-6.0-6.0-0.9","2aj9uo7pfl","many_one","0","indirect_first","0","er05ns23","1","69","1","1","3","1","teilnahme war o.k. ich ging davon aus, dass manche zeichen-bestandteile eine positive oder negative bedeutung hatten.","0","1","0","null","","","<div class = 'row'><div class = 'column'><img src = 'category2/CS5.png' width = '70%;'></div><div class = 'column'><img src = 'uspos/5760.bmp' width = '100%;'></div></div>","null","pos","CS","CS","2","category2/CS5.png","","","","",""
"","html-keyboard-response","79","368576","0.0-6.0-6.0-0.10","2aj9uo7pfl","many_one","0","indirect_first","0","er05ns23","1","69","1","1","3","1","teilnahme war o.k. ich ging davon aus, dass manche zeichen-bestandteile eine positive oder negative bedeutung hatten.","0","1","0","null","","","<div class = 'row'><div class = 'column'><img src = 'category3/CS1.png' width = '70%;'></div><div class = 'column'><img src = 'usneg/9041.bmp' width = '100%;'></div></div>","null","neg","CS","CS","3","category3/CS1.png","","","","",""
"","html-keyboard-response","80","371083","0.0-6.0-6.0-0.11","2aj9uo7pfl","many_one","0","indirect_first","0","er05ns23","1","69","1","1","3","1","teilnahme war o.k. ich ging davon aus, dass manche zeichen-bestandteile eine positive oder negative bedeutung hatten.","0","1","0","null","","","<div class = 'row'><div class = 'column'><img src = 'category1/CS2.png' width = '70%;'></div><div class = 'column'><img src = 'uspos/1710.bmp' width = '100%;'></div></div>","null","pos","CS","CS","1","category1/CS2.png","","","","",""
"","html-keyboard-response","81","373599","0.0-6.0-6.0-0.12","2aj9uo7pfl","many_one","0","indirect_first","0","er05ns23","1","69","1","1","3","1","teilnahme war o.k. ich ging davon aus, dass manche zeichen-bestandteile eine positive oder negative bedeutung hatten.","0","1","0","null","","","<div class = 'row'><div class = 'column'><img src = 'usneg/9415.bmp' width = '100%;'></div><div class = 'column'><img src = 'category3/CS4.png' width = '70%;'></div></div>","null","neg","CS","CS","3","category3/CS4.png","","","","",""
"","html-keyboard-response","82","376111","0.0-6.0-6.0-0.13","2aj9uo7pfl","many_one","0","indirect_first","0","er05ns23","1","69","1","1","3","1","teilnahme war o.k. ich ging davon aus, dass manche zeichen-bestandteile eine positive oder negative bedeutung hatten.","0","1","0","null","","","<div class = 'row'><div class = 'column'><img src = 'usneg/2750.bmp' width = '100%;'></div><div class = 'column'><img src = 'category3/CS5.png' width = '70%;'></div></div>","null","neg","CS","CS","3","category3/CS5.png","","","","",""
"","html-keyboard-response","83","378634","0.0-6.0-6.0-0.14","2aj9uo7pfl","many_one","0","indirect_first","0","er05ns23","1","69","1","1","3","1","teilnahme war o.k. ich ging davon aus, dass manche zeichen-bestandteile eine positive oder negative bedeutung hatten.","0","1","0","null","","","<div class = 'row'><div class = 'column'><img src = 'uspos/1340.bmp' width = '100%;'></div><div class = 'column'><img src = 'category2/CS3.png' width = '70%;'></div></div>","null","pos","CS","CS","2","category2/CS3.png","","","","",""
"","html-keyboard-response","84","381150","0.0-6.0-6.0-0.15","2aj9uo7pfl","many_one","0","indirect_first","0","er05ns23","1","69","1","1","3","1","teilnahme war o.k. ich ging davon aus, dass manche zeichen-bestandteile eine positive oder negative bedeutung hatten.","0","1","0","null","","","<div class = 'row'><div class = 'column'><img src = 'uspos/8190.bmp' width = '100%;'></div><div class = 'column'><img src = 'category1/CS9.png' width = '70%;'></div></div>","null","pos","CS","CS","1","category1/CS9.png","","","","",""
"","html-keyboard-response","85","383668","0.0-6.0-6.0-0.16","2aj9uo7pfl","many_one","0","indirect_first","0","er05ns23","1","69","1","1","3","1","teilnahme war o.k. ich ging davon aus, dass manche zeichen-bestandteile eine positive oder negative bedeutung hatten.","0","1","0","null","","","<div class = 'row'><div class = 'column'><img src = 'uspos/8461.bmp' width = '100%;'></div><div class = 'column'><img src = 'category1/CS10.png' width = '70%;'></div></div>","null","pos","CS","CS","1","category1/CS10.png","","","","",""
"","html-keyboard-response","86","386182","0.0-6.0-6.0-0.17","2aj9uo7pfl","many_one","0","indirect_first","0","er05ns23","1","69","1","1","3","1","teilnahme war o.k. ich ging davon aus, dass manche zeichen-bestandteile eine positive oder negative bedeutung hatten.","0","1","0","null","","","<div class = 'row'><div class = 'column'><img src = 'uspos/1460.bmp' width = '100%;'></div><div class = 'column'><img src = 'category2/CS10.png' width = '70%;'></div></div>","null","pos","CS","CS","2","category2/CS10.png","","","","",""
"","html-keyboard-response","87","388689","0.0-6.0-6.0-0.18","2aj9uo7pfl","many_one","0","indirect_first","0","er05ns23","1","69","1","1","3","1","teilnahme war o.k. ich ging davon aus, dass manche zeichen-bestandteile eine positive oder negative bedeutung hatten.","0","1","0","null","","","<div class = 'row'><div class = 'column'><img src = 'category1/CS7.png' width = '70%;'></div><div class = 'column'><img src = 'uspos/8350.bmp' width = '100%;'></div></div>","null","pos","CS","CS","1","category1/CS7.png","","","","",""
"","html-keyboard-response","88","391210","0.0-6.0-6.0-0.19","2aj9uo7pfl","many_one","0","indirect_first","0","er05ns23","1","69","1","1","3","1","teilnahme war o.k. ich ging davon aus, dass manche zeichen-bestandteile eine positive oder negative bedeutung hatten.","0","1","0","null","","","<div class = 'row'><div class = 'column'><img src = 'uspos/2160.bmp' width = '100%;'></div><div class = 'column'><img src = 'category2/CS7.png' width = '70%;'></div></div>","null","pos","CS","CS","2","category2/CS7.png","","","","",""
"","html-keyboard-response","89","441157","0.0-7.0","2aj9uo7pfl","many_one","0","indirect_first","0","er05ns23","1","69","1","1","3","1","teilnahme war o.k. ich ging davon aus, dass manche zeichen-bestandteile eine positive oder negative bedeutung hatten.","0","1","0","49437.61999998242","","","<p>Sie sehen nun die chinesischen Zeichen nur ganz kurz. Danach sehen Sie die jeweilige Aussprache der Zeichen als Silbe auf dem Bildschrim. Ihre Aufgabe ist es, für jede Silbe anzugeben, ob diese etwas angenehmes, oder unangenehmes bedeuten könnte. Verlassen Sie sich hier vor allem auf Ihre Intuition.<br><br>Die Zeichen werden nur zur Orientierung dargestellt, beachten Sie sie deshalb nicht. Konzentrieren Sie sich vor allem auf die Silben. <br>Reagieren Sie mit folgenden zwei Tasten: <br><br><b>'D' </b> wenn die Silbe etwas <b>unangenehmes</b> bedeuten könnte. <br><b>'K'</b> wenn die Silbe etwas <b>angenehmes</b> bedeuten könnte. <br><br>Bitte legen Sie nun den Zeigefinger der linken Hand auf die Taste 'D' und den Zeigefinger der rechten Hand auf die Taste 'K'. <br>Reagieren Sie auf jede Silbe so schnell wie möglich. Uns interessiert Ihre spontane Reaktion. <br> <br> <br>Drücken Sie 'D' oder 'K', um die nächste Aufgabe zu starten. </p>","68","","","","","","","","","",""
"","html-keyboard-response","90","444174","0.0-8.0-0.0","2aj9uo7pfl","many_one","0","indirect_first","0","er05ns23","1","69","1","1","3","1","teilnahme war o.k. ich ging davon aus, dass manche zeichen-bestandteile eine positive oder negative bedeutung hatten.","0","1","0","null","","","<div style=""font-size:60px;"">+</div>","null","","","","","","","","","",""
"","html-keyboard-response","91","444271","0.0-8.0-1.0","2aj9uo7pfl","many_one","0","indirect_first","0","er05ns23","1","69","1","1","3","1","teilnahme war o.k. ich ging davon aus, dass manche zeichen-bestandteile eine positive oder negative bedeutung hatten.","0","1","0","null","","","<img src = 'category1/CS10.png' width = '100%;'>","null","","","","","","","","","",""
"","html-keyboard-response","92","444536","0.0-8.0-2.0","2aj9uo7pfl","many_one","0","indirect_first","0","er05ns23","1","69","1","1","3","1","teilnahme war o.k. ich ging davon aus, dass manche zeichen-bestandteile eine positive oder negative bedeutung hatten.","0","1","0","null","","","<img src = 'targets/12.png' width = '100%;'>","null","","","","","","","","","",""
"","html-keyboard-response","93","447989","0.0-8.0-3.0","2aj9uo7pfl","many_one","0","indirect_first","0","er05ns23","1","69","1","1","3","1","teilnahme war o.k. ich ging davon aus, dass manche zeichen-bestandteile eine positive oder negative bedeutung hatten.","0","1","0","3451.249999925494","","","<img src = 'targets/mask.png' width = '100%;'>","75","pos","CS","CS","1","category1/CS10.png","targets/12.png","1","indirect","0",""
"","html-keyboard-response","94","449509","0.0-8.0-0.1","2aj9uo7pfl","many_one","0","indirect_first","0","er05ns23","1","69","1","1","3","1","teilnahme war o.k. ich ging davon aus, dass manche zeichen-bestandteile eine positive oder negative bedeutung hatten.","0","1","0","null","","","<div style=""font-size:60px;"">+</div>","null","","","","","","","","","",""
"","html-keyboard-response","95","449605","0.0-8.0-1.1","2aj9uo7pfl","many_one","0","indirect_first","0","er05ns23","1","69","1","1","3","1","teilnahme war o.k. ich ging davon aus, dass manche zeichen-bestandteile eine positive oder negative bedeutung hatten.","0","1","0","null","","","<img src = 'category3/CS9.png' width = '100%;'>","null","","","","","","","","","",""
"","html-keyboard-response","96","449877","0.0-8.0-2.1","2aj9uo7pfl","many_one","0","indirect_first","0","er05ns23","1","69","1","1","3","1","teilnahme war o.k. ich ging davon aus, dass manche zeichen-bestandteile eine positive oder negative bedeutung hatten.","0","1","0","null","","","<img src = 'targets/26.png' width = '100%;'>","null","","","","","","","","","",""
"","html-keyboard-response","97","451055","0.0-8.0-3.1","2aj9uo7pfl","many_one","0","indirect_first","0","er05ns23","1","69","1","1","3","1","teilnahme war o.k. ich ging davon aus, dass manche zeichen-bestandteile eine positive oder negative bedeutung hatten.","0","1","0","1176.2500000186265","","","<img src = 'targets/mask.png' width = '100%;'>","68","neg","CS","CS","3","category3/CS9.png","targets/26.png","0","indirect","1",""
"","html-keyboard-response","98","452576","0.0-8.0-0.2","2aj9uo7pfl","many_one","0","indirect_first","0","er05ns23","1","69","1","1","3","1","teilnahme war o.k. ich ging davon aus, dass manche zeichen-bestandteile eine positive oder negative bedeutung hatten.","0","1","0","null","","","<div style=""font-size:60px;"">+</div>","null","","","","","","","","","",""
"","html-keyboard-response","99","452673","0.0-8.0-1.2","2aj9uo7pfl","many_one","0","indirect_first","0","er05ns23","1","69","1","1","3","1","teilnahme war o.k. ich ging davon aus, dass manche zeichen-bestandteile eine positive oder negative bedeutung hatten.","0","1","0","null","","","<img src = 'category3/CS5.png' width = '100%;'>","null","","","","","","","","","",""
"","html-keyboard-response","100","452945","0.0-8.0-2.2","2aj9uo7pfl","many_one","0","indirect_first","0","er05ns23","1","69","1","1","3","1","teilnahme war o.k. ich ging davon aus, dass manche zeichen-bestandteile eine positive oder negative bedeutung hatten.","0","1","0","null","","","<img src = 'targets/21.png' width = '100%;'>","null","","","","","","","","","",""
"","html-keyboard-response","101","453769","0.0-8.0-3.2","2aj9uo7pfl","many_one","0","indirect_first","0","er05ns23","1","69","1","1","3","1","teilnahme war o.k. ich ging davon aus, dass manche zeichen-bestandteile eine positive oder negative bedeutung hatten.","0","1","0","821.6150000225753","","","<img src = 'targets/mask.png' width = '100%;'>","68","neg","CS","CS","3","category3/CS5.png","targets/21.png","0","indirect","2",""
"","html-keyboard-response","102","455281","0.0-8.0-0.3","2aj9uo7pfl","many_one","0","indirect_first","0","er05ns23","1","69","1","1","3","1","teilnahme war o.k. ich ging davon aus, dass manche zeichen-bestandteile eine positive oder negative bedeutung hatten.","0","1","0","null","","","<div style=""font-size:60px;"">+</div>","null","","","","","","","","","",""
"","html-keyboard-response","103","455378","0.0-8.0-1.3","2aj9uo7pfl","many_one","0","indirect_first","0","er05ns23","1","69","1","1","3","1","teilnahme war o.k. ich ging davon aus, dass manche zeichen-bestandteile eine positive oder negative bedeutung hatten.","0","1","0","null","","","<img src = 'category2/CS4.png' width = '100%;'>","null","","","","","","","","","",""
"","html-keyboard-response","104","455640","0.0-8.0-2.3","2aj9uo7pfl","many_one","0","indirect_first","0","er05ns23","1","69","1","1","3","1","teilnahme war o.k. ich ging davon aus, dass manche zeichen-bestandteile eine positive oder negative bedeutung hatten.","0","1","0","null","","","<img src = 'targets/17.png' width = '100%;'>","null","","","","","","","","","",""
"","html-keyboard-response","105","456430","0.0-8.0-3.3","2aj9uo7pfl","many_one","0","indirect_first","0","er05ns23","1","69","1","1","3","1","teilnahme war o.k. ich ging davon aus, dass manche zeichen-bestandteile eine positive oder negative bedeutung hatten.","0","1","0","787.2300001326948","","","<img src = 'targets/mask.png' width = '100%;'>","75","pos","CS","CS","2","category2/CS4.png","targets/17.png","1","indirect","3",""
"","html-keyboard-response","106","457935","0.0-8.0-0.4","2aj9uo7pfl","many_one","0","indirect_first","0","er05ns23","1","69","1","1","3","1","teilnahme war o.k. ich ging davon aus, dass manche zeichen-bestandteile eine positive oder negative bedeutung hatten.","0","1","0","null","","","<div style=""font-size:60px;"">+</div>","null","","","","","","","","","",""
"","html-keyboard-response","107","458032","0.0-8.0-1.4","2aj9uo7pfl","many_one","0","indirect_first","0","er05ns23","1","69","1","1","3","1","teilnahme war o.k. ich ging davon aus, dass manche zeichen-bestandteile eine positive oder negative bedeutung hatten.","0","1","0","null","","","<img src = 'category2/CS6.png' width = '100%;'>","null","","","","","","","","","",""
"","html-keyboard-response","108","458295","0.0-8.0-2.4","2aj9uo7pfl","many_one","0","indirect_first","0","er05ns23","1","69","1","1","3","1","teilnahme war o.k. ich ging davon aus, dass manche zeichen-bestandteile eine positive oder negative bedeutung hatten.","0","1","0","null","","","<img src = 'targets/39.png' width = '100%;'>","null","","","","","","","","","",""
"","html-keyboard-response","109","458942","0.0-8.0-3.4","2aj9uo7pfl","many_one","0","indirect_first","0","er05ns23","1","69","1","1","3","1","teilnahme war o.k. ich ging davon aus, dass manche zeichen-bestandteile eine positive oder negative bedeutung hatten.","0","1","0","644.3549999967217","","","<img src = 'targets/mask.png' width = '100%;'>","75","pos","GS","GSold","2","category2/CS6.png","targets/39.png","1","indirect","4",""
"","html-keyboard-response","110","460466","0.0-8.0-0.5","2aj9uo7pfl","many_one","0","indirect_first","0","er05ns23","1","69","1","1","3","1","teilnahme war o.k. ich ging davon aus, dass manche zeichen-bestandteile eine positive oder negative bedeutung hatten.","0","1","0","null","","","<div style=""font-size:60px;"">+</div>","null","","","","","","","","","",""
"","html-keyboard-response","111","460563","0.0-8.0-1.5","2aj9uo7pfl","many_one","0","indirect_first","0","er05ns23","1","69","1","1","3","1","teilnahme war o.k. ich ging davon aus, dass manche zeichen-bestandteile eine positive oder negative bedeutung hatten.","0","1","0","null","","","<img src = 'category1/CS2.png' width = '100%;'>","null","","","","","","","","","",""
"","html-keyboard-response","112","460827","0.0-8.0-2.5","2aj9uo7pfl","many_one","0","indirect_first","0","er05ns23","1","69","1","1","3","1","teilnahme war o.k. ich ging davon aus, dass manche zeichen-bestandteile eine positive oder negative bedeutung hatten.","0","1","0","null","","","<img src = 'targets/13.png' width = '100%;'>","null","","","","","","","","","",""
"","html-keyboard-response","113","462257","0.0-8.0-3.5","2aj9uo7pfl","many_one","0","indirect_first","0","er05ns23","1","69","1","1","3","1","teilnahme war o.k. ich ging davon aus, dass manche zeichen-bestandteile eine positive oder negative bedeutung hatten.","0","1","0","1428.1200000550598","","","<img src = 'targets/mask.png' width = '100%;'>","68","pos","CS","CS","1","category1/CS2.png","targets/13.png","0","indirect","5",""
"","html-keyboard-response","114","463770","0.0-8.0-0.6","2aj9uo7pfl","many_one","0","indirect_first","0","er05ns23","1","69","1","1","3","1","teilnahme war o.k. ich ging davon aus, dass manche zeichen-bestandteile eine positive oder negative bedeutung hatten.","0","1","0","null","","","<div style=""font-size:60px;"">+</div>","null","","","","","","","","","",""
"","html-keyboard-response","115","463866","0.0-8.0-1.6","2aj9uo7pfl","many_one","0","indirect_first","0","er05ns23","1","69","1","1","3","1","teilnahme war o.k. ich ging davon aus, dass manche zeichen-bestandteile eine positive oder negative bedeutung hatten.","0","1","0","null","","","<img src = 'category4/CS10.png' width = '100%;'>","null","","","","","","","","","",""
"","html-keyboard-response","116","464130","0.0-8.0-2.6","2aj9uo7pfl","many_one","0","indirect_first","0","er05ns23","1","69","1","1","3","1","teilnahme war o.k. ich ging davon aus, dass manche zeichen-bestandteile eine positive oder negative bedeutung hatten.","0","1","0","null","","","<img src = 'targets/46.png' width = '100%;'>","null","","","","","","","","","",""
"","html-keyboard-response","117","466411","0.0-8.0-3.6","2aj9uo7pfl","many_one","0","indirect_first","0","er05ns23","1","69","1","1","3","1","teilnahme war o.k. ich ging davon aus, dass manche zeichen-bestandteile eine positive oder negative bedeutung hatten.","0","1","0","2278.7050001788884","","","<img src = 'targets/mask.png' width = '100%;'>","75","neg","CS","CS","4","category4/CS10.png","targets/46.png","1","indirect","6",""
"","html-keyboard-response","118","467934","0.0-8.0-0.7","2aj9uo7pfl","many_one","0","indirect_first","0","er05ns23","1","69","1","1","3","1","teilnahme war o.k. ich ging davon aus, dass manche zeichen-bestandteile eine positive oder negative bedeutung hatten.","0","1","0","null","","","<div style=""font-size:60px;"">+</div>","null","","","","","","","","","",""
"","html-keyboard-response","119","468030","0.0-8.0-1.7","2aj9uo7pfl","many_one","0","indirect_first","0","er05ns23","1","69","1","1","3","1","teilnahme war o.k. ich ging davon aus, dass manche zeichen-bestandteile eine positive oder negative bedeutung hatten.","0","1","0","null","","","<img src = 'category3/CS10.png' width = '100%;'>","null","","","","","","","","","",""
"","html-keyboard-response","120","468296","0.0-8.0-2.7","2aj9uo7pfl","many_one","0","indirect_first","0","er05ns23","1","69","1","1","3","1","teilnahme war o.k. ich ging davon aus, dass manche zeichen-bestandteile eine positive oder negative bedeutung hatten.","0","1","0","null","","","<img src = 'targets/22.png' width = '100%;'>","null","","","","","","","","","",""
"","html-keyboard-response","121","471765","0.0-8.0-3.7","2aj9uo7pfl","many_one","0","indirect_first","0","er05ns23","1","69","1","1","3","1","teilnahme war o.k. ich ging davon aus, dass manche zeichen-bestandteile eine positive oder negative bedeutung hatten.","0","1","0","3465.3649998363107","","","<img src = 'targets/mask.png' width = '100%;'>","75","neg","GS","GSold","3","category3/CS10.png","targets/22.png","1","indirect","7",""
"","html-keyboard-response","122","473287","0.0-8.0-0.8","2aj9uo7pfl","many_one","0","indirect_first","0","er05ns23","1","69","1","1","3","1","teilnahme war o.k. ich ging davon aus, dass manche zeichen-bestandteile eine positive oder negative bedeutung hatten.","0","1","0","null","","","<div style=""font-size:60px;"">+</div>","null","","","","","","","","","",""
"","html-keyboard-response","123","473383","0.0-8.0-1.8","2aj9uo7pfl","many_one","0","indirect_first","0","er05ns23","1","69","1","1","3","1","teilnahme war o.k. ich ging davon aus, dass manche zeichen-bestandteile eine positive oder negative bedeutung hatten.","0","1","0","null","","","<img src = 'category2/CS5.png' width = '100%;'>","null","","","","","","","","","",""
"","html-keyboard-response","124","473649","0.0-8.0-2.8","2aj9uo7pfl","many_one","0","indirect_first","0","er05ns23","1","69","1","1","3","1","teilnahme war o.k. ich ging davon aus, dass manche zeichen-bestandteile eine positive oder negative bedeutung hatten.","0","1","0","null","","","<img src = 'targets/42.png' width = '100%;'>","null","","","","","","","","","",""
"","html-keyboard-response","125","475349","0.0-8.0-3.8","2aj9uo7pfl","many_one","0","indirect_first","0","er05ns23","1","69","1","1","3","1","teilnahme war o.k. ich ging davon aus, dass manche zeichen-bestandteile eine positive oder negative bedeutung hatten.","0","1","0","1696.5999999083579","","","<img src = 'targets/mask.png' width = '100%;'>","75","pos","CS","CS","2","category2/CS5.png","targets/42.png","1","indirect","8",""
"","html-keyboard-response","126","476871","0.0-8.0-0.9","2aj9uo7pfl","many_one","0","indirect_first","0","er05ns23","1","69","1","1","3","1","teilnahme war o.k. ich ging davon aus, dass manche zeichen-bestandteile eine positive oder negative bedeutung hatten.","0","1","0","null","","","<div style=""font-size:60px;"">+</div>","null","","","","","","","","","",""
"","html-keyboard-response","127","476968","0.0-8.0-1.9","2aj9uo7pfl","many_one","0","indirect_first","0","er05ns23","1","69","1","1","3","1","teilnahme war o.k. ich ging davon aus, dass manche zeichen-bestandteile eine positive oder negative bedeutung hatten.","0","1","0","null","","","<img src = 'category4/CS3.png' width = '100%;'>","null","","","","","","","","","",""
"","html-keyboard-response","128","477234","0.0-8.0-2.9","2aj9uo7pfl","many_one","0","indirect_first","0","er05ns23","1","69","1","1","3","1","teilnahme war o.k. ich ging davon aus, dass manche zeichen-bestandteile eine positive oder negative bedeutung hatten.","0","1","0","null","","","<img src = 'targets/34.png' width = '100%;'>","null","","","","","","","","","",""
"","html-keyboard-response","129","479898","0.0-8.0-3.9","2aj9uo7pfl","many_one","0","indirect_first","0","er05ns23","1","69","1","1","3","1","teilnahme war o.k. ich ging davon aus, dass manche zeichen-bestandteile eine positive oder negative bedeutung hatten.","0","1","0","2661.464999895543","","","<img src = 'targets/mask.png' width = '100%;'>","68","neg","CS","CS","4","category4/CS3.png","targets/34.png","0","indirect","9",""
"","html-keyboard-response","130","481410","0.0-8.0-0.10","2aj9uo7pfl","many_one","0","indirect_first","0","er05ns23","1","69","1","1","3","1","teilnahme war o.k. ich ging davon aus, dass manche zeichen-bestandteile eine positive oder negative bedeutung hatten.","0","1","0","null","","","<div style=""font-size:60px;"">+</div>","null","","","","","","","","","",""
"","html-keyboard-response","131","481507","0.0-8.0-1.10","2aj9uo7pfl","many_one","0","indirect_first","0","er05ns23","1","69","1","1","3","1","teilnahme war o.k. ich ging davon aus, dass manche zeichen-bestandteile eine positive oder negative bedeutung hatten.","0","1","0","null","","","<img src = 'category2/CS10.png' width = '100%;'>","null","","","","","","","","","",""
"","html-keyboard-response","132","481771","0.0-8.0-2.10","2aj9uo7pfl","many_one","0","indirect_first","0","er05ns23","1","69","1","1","3","1","teilnahme war o.k. ich ging davon aus, dass manche zeichen-bestandteile eine positive oder negative bedeutung hatten.","0","1","0","null","","","<img src = 'targets/41.png' width = '100%;'>","null","","","","","","","","","",""
"","html-keyboard-response","133","482687","0.0-8.0-3.10","2aj9uo7pfl","many_one","0","indirect_first","0","er05ns23","1","69","1","1","3","1","teilnahme war o.k. ich ging davon aus, dass manche zeichen-bestandteile eine positive oder negative bedeutung hatten.","0","1","0","913.0799998529255","","","<img src = 'targets/mask.png' width = '100%;'>","75","pos","CS","CS","2","category2/CS10.png","targets/41.png","1","indirect","10",""
"","html-keyboard-response","134","484210","0.0-8.0-0.11","2aj9uo7pfl","many_one","0","indirect_first","0","er05ns23","1","69","1","1","3","1","teilnahme war o.k. ich ging davon aus, dass manche zeichen-bestandteile eine positive oder negative bedeutung hatten.","0","1","0","null","","","<div style=""font-size:60px;"">+</div>","null","","","","","","","","","",""
"","html-keyboard-response","135","484306","0.0-8.0-1.11","2aj9uo7pfl","many_one","0","indirect_first","0","er05ns23","1","69","1","1","3","1","teilnahme war o.k. ich ging davon aus, dass manche zeichen-bestandteile eine positive oder negative bedeutung hatten.","0","1","0","null","","","<img src = 'category1/CS9.png' width = '100%;'>","null","","","","","","","","","",""
"","html-keyboard-response","136","484571","0.0-8.0-2.11","2aj9uo7pfl","many_one","0","indirect_first","0","er05ns23","1","69","1","1","3","1","teilnahme war o.k. ich ging davon aus, dass manche zeichen-bestandteile eine positive oder negative bedeutung hatten.","0","1","0","null","","","<img src = 'targets/37.png' width = '100%;'>","null","","","","","","","","","",""
"","html-keyboard-response","137","485929","0.0-8.0-3.11","2aj9uo7pfl","many_one","0","indirect_first","0","er05ns23","1","69","1","1","3","1","teilnahme war o.k. ich ging davon aus, dass manche zeichen-bestandteile eine positive oder negative bedeutung hatten.","0","1","0","1356.374999973923","","","<img src = 'targets/mask.png' width = '100%;'>","75","pos","CS","CS","1","category1/CS9.png","targets/37.png","1","indirect","11",""
"","html-keyboard-response","138","487441","0.0-8.0-0.12","2aj9uo7pfl","many_one","0","indirect_first","0","er05ns23","1","69","1","1","3","1","teilnahme war o.k. ich ging davon aus, dass manche zeichen-bestandteile eine positive oder negative bedeutung hatten.","0","1","0","null","","","<div style=""font-size:60px;"">+</div>","null","","","","","","","","","",""
"","html-keyboard-response","139","487537","0.0-8.0-1.12","2aj9uo7pfl","many_one","0","indirect_first","0","er05ns23","1","69","1","1","3","1","teilnahme war o.k. ich ging davon aus, dass manche zeichen-bestandteile eine positive oder negative bedeutung hatten.","0","1","0","null","","","<img src = 'category4/CS1.png' width = '100%;'>","null","","","","","","","","","",""
"","html-keyboard-response","140","487810","0.0-8.0-2.12","2aj9uo7pfl","many_one","0","indirect_first","0","er05ns23","1","69","1","1","3","1","teilnahme war o.k. ich ging davon aus, dass manche zeichen-bestandteile eine positive oder negative bedeutung hatten.","0","1","0","null","","","<img src = 'targets/32.png' width = '100%;'>","null","","","","","","","","","",""
"","html-keyboard-response","141","489529","0.0-8.0-3.12","2aj9uo7pfl","many_one","0","indirect_first","0","er05ns23","1","69","1","1","3","1","teilnahme war o.k. ich ging davon aus, dass manche zeichen-bestandteile eine positive oder negative bedeutung hatten.","0","1","0","1716.2599998991936","","","<img src = 'targets/mask.png' width = '100%;'>","68","neg","CS","CS","4","category4/CS1.png","targets/32.png","0","indirect","12",""
"","html-keyboard-response","142","491034","0.0-8.0-0.13","2aj9uo7pfl","many_one","0","indirect_first","0","er05ns23","1","69","1","1","3","1","teilnahme war o.k. ich ging davon aus, dass manche zeichen-bestandteile eine positive oder negative bedeutung hatten.","0","1","0","null","","","<div style=""font-size:60px;"">+</div>","null","","","","","","","","","",""
"","html-keyboard-response","143","491139","0.0-8.0-1.13","2aj9uo7pfl","many_one","0","indirect_first","0","er05ns23","1","69","1","1","3","1","teilnahme war o.k. ich ging davon aus, dass manche zeichen-bestandteile eine positive oder negative bedeutung hatten.","0","1","0","null","","","<img src = 'category1/CS1.png' width = '100%;'>","null","","","","","","","","","",""
"","html-keyboard-response","144","491412","0.0-8.0-2.13","2aj9uo7pfl","many_one","0","indirect_first","0","er05ns23","1","69","1","1","3","1","teilnahme war o.k. ich ging davon aus, dass manche zeichen-bestandteile eine positive oder negative bedeutung hatten.","0","1","0","null","","","<img src = 'targets/18.png' width = '100%;'>","null","","","","","","","","","",""
"","html-keyboard-response","145","493046","0.0-8.0-3.13","2aj9uo7pfl","many_one","0","indirect_first","0","er05ns23","1","69","1","1","3","1","teilnahme war o.k. ich ging davon aus, dass manche zeichen-bestandteile eine positive oder negative bedeutung hatten.","0","1","0","1631.0750001575798","","","<img src = 'targets/mask.png' width = '100%;'>","68","pos","CS","CS","1","category1/CS1.png","targets/18.png","0","indirect","13",""
"","html-keyboard-response","146","494551","0.0-8.0-0.14","2aj9uo7pfl","many_one","0","indirect_first","0","er05ns23","1","69","1","1","3","1","teilnahme war o.k. ich ging davon aus, dass manche zeichen-bestandteile eine positive oder negative bedeutung hatten.","0","1","0","null","","","<div style=""font-size:60px;"">+</div>","null","","","","","","","","","",""
"","html-keyboard-response","147","494648","0.0-8.0-1.14","2aj9uo7pfl","many_one","0","indirect_first","0","er05ns23","1","69","1","1","3","1","teilnahme war o.k. ich ging davon aus, dass manche zeichen-bestandteile eine positive oder negative bedeutung hatten.","0","1","0","null","","","<img src = 'category3/CS1.png' width = '100%;'>","null","","","","","","","","","",""
"","html-keyboard-response","148","494914","0.0-8.0-2.14","2aj9uo7pfl","many_one","0","indirect_first","0","er05ns23","1","69","1","1","3","1","teilnahme war o.k. ich ging davon aus, dass manche zeichen-bestandteile eine positive oder negative bedeutung hatten.","0","1","0","null","","","<img src = 'targets/9.png' width = '100%;'>","null","","","","","","","","","",""
"","html-keyboard-response","149","495895","0.0-8.0-3.14","2aj9uo7pfl","many_one","0","indirect_first","0","er05ns23","1","69","1","1","3","1","teilnahme war o.k. ich ging davon aus, dass manche zeichen-bestandteile eine positive oder negative bedeutung hatten.","0","1","0","979.0200002025813","","","<img src = 'targets/mask.png' width = '100%;'>","68","neg","CS","CS","3","category3/CS1.png","targets/9.png","0","indirect","14",""
"","html-keyboard-response","150","497401","0.0-8.0-0.15","2aj9uo7pfl","many_one","0","indirect_first","0","er05ns23","1","69","1","1","3","1","teilnahme war o.k. ich ging davon aus, dass manche zeichen-bestandteile eine positive oder negative bedeutung hatten.","0","1","0","null","","","<div style=""font-size:60px;"">+</div>","null","","","","","","","","","",""
"","html-keyboard-response","151","497497","0.0-8.0-1.15","2aj9uo7pfl","many_one","0","indirect_first","0","er05ns23","1","69","1","1","3","1","teilnahme war o.k. ich ging davon aus, dass manche zeichen-bestandteile eine positive oder negative bedeutung hatten.","0","1","0","null","","","<img src = 'category2/CS7.png' width = '100%;'>","null","","","","","","","","","",""
"","html-keyboard-response","152","497762","0.0-8.0-2.15","2aj9uo7pfl","many_one","0","indirect_first","0","er05ns23","1","69","1","1","3","1","teilnahme war o.k. ich ging davon aus, dass manche zeichen-bestandteile eine positive oder negative bedeutung hatten.","0","1","0","null","","","<img src = 'targets/19.png' width = '100%;'>","null","","","","","","","","","",""
"","html-keyboard-response","153","500151","0.0-8.0-3.15","2aj9uo7pfl","many_one","0","indirect_first","0","er05ns23","1","69","1","1","3","1","teilnahme war o.k. ich ging davon aus, dass manche zeichen-bestandteile eine positive oder negative bedeutung hatten.","0","1","0","2386.485000140965","","","<img src = 'targets/mask.png' width = '100%;'>","75","pos","CS","CS","2","category2/CS7.png","targets/19.png","1","indirect","15",""
"","html-keyboard-response","154","501667","0.0-8.0-0.16","2aj9uo7pfl","many_one","0","indirect_first","0","er05ns23","1","69","1","1","3","1","teilnahme war o.k. ich ging davon aus, dass manche zeichen-bestandteile eine positive oder negative bedeutung hatten.","0","1","0","null","","","<div style=""font-size:60px;"">+</div>","null","","","","","","","","","",""
"","html-keyboard-response","155","501763","0.0-8.0-1.16","2aj9uo7pfl","many_one","0","indirect_first","0","er05ns23","1","69","1","1","3","1","teilnahme war o.k. ich ging davon aus, dass manche zeichen-bestandteile eine positive oder negative bedeutung hatten.","0","1","0","null","","","<img src = 'category2/CS3.png' width = '100%;'>","null","","","","","","","","","",""
"","html-keyboard-response","156","502035","0.0-8.0-2.16","2aj9uo7pfl","many_one","0","indirect_first","0","er05ns23","1","69","1","1","3","1","teilnahme war o.k. ich ging davon aus, dass manche zeichen-bestandteile eine positive oder negative bedeutung hatten.","0","1","0","null","","","<img src = 'targets/24.png' width = '100%;'>","null","","","","","","","","","",""
"","html-keyboard-response","157","503837","0.0-8.0-3.16","2aj9uo7pfl","many_one","0","indirect_first","0","er05ns23","1","69","1","1","3","1","teilnahme war o.k. ich ging davon aus, dass manche zeichen-bestandteile eine positive oder negative bedeutung hatten.","0","1","0","1799.3550000246614","","","<img src = 'targets/mask.png' width = '100%;'>","75","pos","CS","CS","2","category2/CS3.png","targets/24.png","1","indirect","16",""
"","html-keyboard-response","158","505343","0.0-8.0-0.17","2aj9uo7pfl","many_one","0","indirect_first","0","er05ns23","1","69","1","1","3","1","teilnahme war o.k. ich ging davon aus, dass manche zeichen-bestandteile eine positive oder negative bedeutung hatten.","0","1","0","null","","","<div style=""font-size:60px;"">+</div>","null","","","","","","","","","",""
"","html-keyboard-response","159","505445","0.0-8.0-1.17","2aj9uo7pfl","many_one","0","indirect_first","0","er05ns23","1","69","1","1","3","1","teilnahme war o.k. ich ging davon aus, dass manche zeichen-bestandteile eine positive oder negative bedeutung hatten.","0","1","0","null","","","<img src = 'category3/CS4.png' width = '100%;'>","null","","","","","","","","","",""
"","html-keyboard-response","160","505719","0.0-8.0-2.17","2aj9uo7pfl","many_one","0","indirect_first","0","er05ns23","1","69","1","1","3","1","teilnahme war o.k. ich ging davon aus, dass manche zeichen-bestandteile eine positive oder negative bedeutung hatten.","0","1","0","null","","","<img src = 'targets/48.png' width = '100%;'>","null","","","","","","","","","",""
"","html-keyboard-response","161","506838","0.0-8.0-3.17","2aj9uo7pfl","many_one","0","indirect_first","0","er05ns23","1","69","1","1","3","1","teilnahme war o.k. ich ging davon aus, dass manche zeichen-bestandteile eine positive oder negative bedeutung hatten.","0","1","0","1115.395000204444","","","<img src = 'targets/mask.png' width = '100%;'>","68","neg","CS","CS","3","category3/CS4.png","targets/48.png","0","indirect","17",""
"","html-keyboard-response","162","508343","0.0-8.0-0.18","2aj9uo7pfl","many_one","0","indirect_first","0","er05ns23","1","69","1","1","3","1","teilnahme war o.k. ich ging davon aus, dass manche zeichen-bestandteile eine positive oder negative bedeutung hatten.","0","1","0","null","","","<div style=""font-size:60px;"">+</div>","null","","","","","","","","","",""
"","html-keyboard-response","163","508448","0.0-8.0-1.18","2aj9uo7pfl","many_one","0","indirect_first","0","er05ns23","1","69","1","1","3","1","teilnahme war o.k. ich ging davon aus, dass manche zeichen-bestandteile eine positive oder negative bedeutung hatten.","0","1","0","null","","","<img src = 'category3/CS2.png' width = '100%;'>","null","","","","","","","","","",""
"","html-keyboard-response","164","508714","0.0-8.0-2.18","2aj9uo7pfl","many_one","0","indirect_first","0","er05ns23","1","69","1","1","3","1","teilnahme war o.k. ich ging davon aus, dass manche zeichen-bestandteile eine positive oder negative bedeutung hatten.","0","1","0","null","","","<img src = 'targets/1.png' width = '100%;'>","null","","","","","","","","","",""
"","html-keyboard-response","165","509589","0.0-8.0-3.18","2aj9uo7pfl","many_one","0","indirect_first","0","er05ns23","1","69","1","1","3","1","teilnahme war o.k. ich ging davon aus, dass manche zeichen-bestandteile eine positive oder negative bedeutung hatten.","0","1","0","873.7400001846254","","","<img src = 'targets/mask.png' width = '100%;'>","68","neg","GS","GSold","3","category3/CS2.png","targets/1.png","0","indirect","18",""
"","html-keyboard-response","166","511094","0.0-8.0-0.19","2aj9uo7pfl","many_one","0","indirect_first","0","er05ns23","1","69","1","1","3","1","teilnahme war o.k. ich ging davon aus, dass manche zeichen-bestandteile eine positive oder negative bedeutung hatten.","0","1","0","null","","","<div style=""font-size:60px;"">+</div>","null","","","","","","","","","",""
"","html-keyboard-response","167","511191","0.0-8.0-1.19","2aj9uo7pfl","many_one","0","indirect_first","0","er05ns23","1","69","1","1","3","1","teilnahme war o.k. ich ging davon aus, dass manche zeichen-bestandteile eine positive oder negative bedeutung hatten.","0","1","0","null","","","<img src = 'category1/CS7.png' width = '100%;'>","null","","","","","","","","","",""
"","html-keyboard-response","168","511455","0.0-8.0-2.19","2aj9uo7pfl","many_one","0","indirect_first","0","er05ns23","1","69","1","1","3","1","teilnahme war o.k. ich ging davon aus, dass manche zeichen-bestandteile eine positive oder negative bedeutung hatten.","0","1","0","null","","","<img src = 'targets/25.png' width = '100%;'>","null","","","","","","","","","",""
"","html-keyboard-response","169","512337","0.0-8.0-3.19","2aj9uo7pfl","many_one","0","indirect_first","0","er05ns23","1","69","1","1","3","1","teilnahme war o.k. ich ging davon aus, dass manche zeichen-bestandteile eine positive oder negative bedeutung hatten.","0","1","0","879.1750001255423","","","<img src = 'targets/mask.png' width = '100%;'>","75","pos","CS","CS","1","category1/CS7.png","targets/25.png","1","indirect","19",""
"","html-keyboard-response","170","513858","0.0-8.0-0.20","2aj9uo7pfl","many_one","0","indirect_first","0","er05ns23","1","69","1","1","3","1","teilnahme war o.k. ich ging davon aus, dass manche zeichen-bestandteile eine positive oder negative bedeutung hatten.","0","1","0","null","","","<div style=""font-size:60px;"">+</div>","null","","","","","","","","","",""
"","html-keyboard-response","171","513954","0.0-8.0-1.20","2aj9uo7pfl","many_one","0","indirect_first","0","er05ns23","1","69","1","1","3","1","teilnahme war o.k. ich ging davon aus, dass manche zeichen-bestandteile eine positive oder negative bedeutung hatten.","0","1","0","null","","","<img src = 'category3/CS7.png' width = '100%;'>","null","","","","","","","","","",""
"","html-keyboard-response","172","514217","0.0-8.0-2.20","2aj9uo7pfl","many_one","0","indirect_first","0","er05ns23","1","69","1","1","3","1","teilnahme war o.k. ich ging davon aus, dass manche zeichen-bestandteile eine positive oder negative bedeutung hatten.","0","1","0","null","","","<img src = 'targets/27.png' width = '100%;'>","null","","","","","","","","","",""
"","html-keyboard-response","173","514960","0.0-8.0-3.20","2aj9uo7pfl","many_one","0","indirect_first","0","er05ns23","1","69","1","1","3","1","teilnahme war o.k. ich ging davon aus, dass manche zeichen-bestandteile eine positive oder negative bedeutung hatten.","0","1","0","740.2550000697374","","","<img src = 'targets/mask.png' width = '100%;'>","68","neg","CS","CS","3","category3/CS7.png","targets/27.png","0","indirect","20",""
"","html-keyboard-response","174","516481","0.0-8.0-0.21","2aj9uo7pfl","many_one","0","indirect_first","0","er05ns23","1","69","1","1","3","1","teilnahme war o.k. ich ging davon aus, dass manche zeichen-bestandteile eine positive oder negative bedeutung hatten.","0","1","0","null","","","<div style=""font-size:60px;"">+</div>","null","","","","","","","","","",""
"","html-keyboard-response","175","516577","0.0-8.0-1.21","2aj9uo7pfl","many_one","0","indirect_first","0","er05ns23","1","69","1","1","3","1","teilnahme war o.k. ich ging davon aus, dass manche zeichen-bestandteile eine positive oder negative bedeutung hatten.","0","1","0","null","","","<img src = 'category4/CS8.png' width = '100%;'>","null","","","","","","","","","",""
"","html-keyboard-response","176","516840","0.0-8.0-2.21","2aj9uo7pfl","many_one","0","indirect_first","0","er05ns23","1","69","1","1","3","1","teilnahme war o.k. ich ging davon aus, dass manche zeichen-bestandteile eine positive oder negative bedeutung hatten.","0","1","0","null","","","<img src = 'targets/14.png' width = '100%;'>","null","","","","","","","","","",""
"","html-keyboard-response","177","519629","0.0-8.0-3.21","2aj9uo7pfl","many_one","0","indirect_first","0","er05ns23","1","69","1","1","3","1","teilnahme war o.k. ich ging davon aus, dass manche zeichen-bestandteile eine positive oder negative bedeutung hatten.","0","1","0","2786.3399998750538","","","<img src = 'targets/mask.png' width = '100%;'>","68","neg","CS","CS","4","category4/CS8.png","targets/14.png","0","indirect","21",""
"","html-keyboard-response","178","521134","0.0-8.0-0.22","2aj9uo7pfl","many_one","0","indirect_first","0","er05ns23","1","69","1","1","3","1","teilnahme war o.k. ich ging davon aus, dass manche zeichen-bestandteile eine positive oder negative bedeutung hatten.","0","1","0","null","","","<div style=""font-size:60px;"">+</div>","null","","","","","","","","","",""
"","html-keyboard-response","179","521238","0.0-8.0-1.22","2aj9uo7pfl","many_one","0","indirect_first","0","er05ns23","1","69","1","1","3","1","teilnahme war o.k. ich ging davon aus, dass manche zeichen-bestandteile eine positive oder negative bedeutung hatten.","0","1","0","null","","","<img src = 'category3/CS8.png' width = '100%;'>","null","","","","","","","","","",""
"","html-keyboard-response","180","521505","0.0-8.0-2.22","2aj9uo7pfl","many_one","0","indirect_first","0","er05ns23","1","69","1","1","3","1","teilnahme war o.k. ich ging davon aus, dass manche zeichen-bestandteile eine positive oder negative bedeutung hatten.","0","1","0","null","","","<img src = 'targets/6.png' width = '100%;'>","null","","","","","","","","","",""
"","html-keyboard-response","181","522522","0.0-8.0-3.22","2aj9uo7pfl","many_one","0","indirect_first","0","er05ns23","1","69","1","1","3","1","teilnahme war o.k. ich ging davon aus, dass manche zeichen-bestandteile eine positive oder negative bedeutung hatten.","0","1","0","1013.4699998889118","","","<img src = 'targets/mask.png' width = '100%;'>","68","neg","GS","GSold","3","category3/CS8.png","targets/6.png","0","indirect","22",""
"","html-keyboard-response","182","524035","0.0-8.0-0.23","2aj9uo7pfl","many_one","0","indirect_first","0","er05ns23","1","69","1","1","3","1","teilnahme war o.k. ich ging davon aus, dass manche zeichen-bestandteile eine positive oder negative bedeutung hatten.","0","1","0","null","","","<div style=""font-size:60px;"">+</div>","null","","","","","","","","","",""
"","html-keyboard-response","183","524139","0.0-8.0-1.23","2aj9uo7pfl","many_one","0","indirect_first","0","er05ns23","1","69","1","1","3","1","teilnahme war o.k. ich ging davon aus, dass manche zeichen-bestandteile eine positive oder negative bedeutung hatten.","0","1","0","null","","","<img src = 'category4/CS6.png' width = '100%;'>","null","","","","","","","","","",""
"","html-keyboard-response","184","524411","0.0-8.0-2.23","2aj9uo7pfl","many_one","0","indirect_first","0","er05ns23","1","69","1","1","3","1","teilnahme war o.k. ich ging davon aus, dass manche zeichen-bestandteile eine positive oder negative bedeutung hatten.","0","1","0","null","","","<img src = 'targets/15.png' width = '100%;'>","null","","","","","","","","","",""
"","html-keyboard-response","185","525264","0.0-8.0-3.23","2aj9uo7pfl","many_one","0","indirect_first","0","er05ns23","1","69","1","1","3","1","teilnahme war o.k. ich ging davon aus, dass manche zeichen-bestandteile eine positive oder negative bedeutung hatten.","0","1","0","850.7799999788404","","","<img src = 'targets/mask.png' width = '100%;'>","75","neg","CS","CS","4","category4/CS6.png","targets/15.png","1","indirect","23",""
"","survey-html-form","186","532586","0.0-9.0","2aj9uo7pfl","many_one","0","indirect_first","0","er05ns23","1","69","1","1","3","1","teilnahme war o.k. ich ging davon aus, dass manche zeichen-bestandteile eine positive oder negative bedeutung hatten.","0","1","0","6818.949999986216","","{}","","","","","","","","","","","",""
"","html-keyboard-response","187","535599","0.0-10.0-0.0","2aj9uo7pfl","many_one","0","indirect_first","0","er05ns23","1","69","1","1","3","1","teilnahme war o.k. ich ging davon aus, dass manche zeichen-bestandteile eine positive oder negative bedeutung hatten.","0","1","0","null","","","<div style=""font-size:60px;"">+</div>","null","","","","","","","","","",""
"","html-keyboard-response","188","535697","0.0-10.0-1.0","2aj9uo7pfl","many_one","0","indirect_first","0","er05ns23","1","69","1","1","3","1","teilnahme war o.k. ich ging davon aus, dass manche zeichen-bestandteile eine positive oder negative bedeutung hatten.","0","1","0","null","","","<img src = 'category1/ma.png' width = '100%;'>","null","","","","","","","","","",""
"","html-keyboard-response","189","535960","0.0-10.0-2.0","2aj9uo7pfl","many_one","0","indirect_first","0","er05ns23","1","69","1","1","3","1","teilnahme war o.k. ich ging davon aus, dass manche zeichen-bestandteile eine positive oder negative bedeutung hatten.","0","1","0","null","","","<img src = 'targets/8.png' width = '100%;'>","null","","","","","","","","","",""
"","html-keyboard-response","190","537635","0.0-10.0-3.0","2aj9uo7pfl","many_one","0","indirect_first","0","er05ns23","1","69","1","1","3","1","teilnahme war o.k. ich ging davon aus, dass manche zeichen-bestandteile eine positive oder negative bedeutung hatten.","0","1","0","1671.824999852106","","","<img src = 'targets/mask.png' width = '100%;'>","68","pos","GS","abstract","1","category1/ma.png","targets/8.png","0","indirect","24",""
"","html-keyboard-response","191","539140","0.0-10.0-0.1","2aj9uo7pfl","many_one","0","indirect_first","0","er05ns23","1","69","1","1","3","1","teilnahme war o.k. ich ging davon aus, dass manche zeichen-bestandteile eine positive oder negative bedeutung hatten.","0","1","0","null","","","<div style=""font-size:60px;"">+</div>","null","","","","","","","","","",""
"","html-keyboard-response","192","539237","0.0-10.0-1.1","2aj9uo7pfl","many_one","0","indirect_first","0","er05ns23","1","69","1","1","3","1","teilnahme war o.k. ich ging davon aus, dass manche zeichen-bestandteile eine positive oder negative bedeutung hatten.","0","1","0","null","","","<img src = 'category4/CS9.png' width = '100%;'>","null","","","","","","","","","",""
"","html-keyboard-response","193","539501","0.0-10.0-2.1","2aj9uo7pfl","many_one","0","indirect_first","0","er05ns23","1","69","1","1","3","1","teilnahme war o.k. ich ging davon aus, dass manche zeichen-bestandteile eine positive oder negative bedeutung hatten.","0","1","0","null","","","<img src = 'targets/31.png' width = '100%;'>","null","","","","","","","","","",""
"","html-keyboard-response","194","540862","0.0-10.0-3.1","2aj9uo7pfl","many_one","0","indirect_first","0","er05ns23","1","69","1","1","3","1","teilnahme war o.k. ich ging davon aus, dass manche zeichen-bestandteile eine positive oder negative bedeutung hatten.","0","1","0","1358.8650000747293","","","<img src = 'targets/mask.png' width = '100%;'>","68","neg","GS","GSold","4","category4/CS9.png","targets/31.png","0","indirect","25",""
"","html-keyboard-response","195","542370","0.0-10.0-0.2","2aj9uo7pfl","many_one","0","indirect_first","0","er05ns23","1","69","1","1","3","1","teilnahme war o.k. ich ging davon aus, dass manche zeichen-bestandteile eine positive oder negative bedeutung hatten.","0","1","0","null","","","<div style=""font-size:60px;"">+</div>","null","","","","","","","","","",""
"","html-keyboard-response","196","542464","0.0-10.0-1.2","2aj9uo7pfl","many_one","0","indirect_first","0","er05ns23","1","69","1","1","3","1","teilnahme war o.k. ich ging davon aus, dass manche zeichen-bestandteile eine positive oder negative bedeutung hatten.","0","1","0","null","","","<img src = 'category3/wang.png' width = '100%;'>","null","","","","","","","","","",""
"","html-keyboard-response","197","542730","0.0-10.0-2.2","2aj9uo7pfl","many_one","0","indirect_first","0","er05ns23","1","69","1","1","3","1","teilnahme war o.k. ich ging davon aus, dass manche zeichen-bestandteile eine positive oder negative bedeutung hatten.","0","1","0","null","","","<img src = 'targets/28.png' width = '100%;'>","null","","","","","","","","","",""
"","html-keyboard-response","198","543616","0.0-10.0-3.2","2aj9uo7pfl","many_one","0","indirect_first","0","er05ns23","1","69","1","1","3","1","teilnahme war o.k. ich ging davon aus, dass manche zeichen-bestandteile eine positive oder negative bedeutung hatten.","0","1","0","882.2099999524653","","","<img src = 'targets/mask.png' width = '100%;'>","68","neg","GS","abstract","3","category3/wang.png","targets/28.png","0","indirect","26",""
"","html-keyboard-response","199","545139","0.0-10.0-0.3","2aj9uo7pfl","many_one","0","indirect_first","0","er05ns23","1","69","1","1","3","1","teilnahme war o.k. ich ging davon aus, dass manche zeichen-bestandteile eine positive oder negative bedeutung hatten.","0","1","0","null","","","<div style=""font-size:60px;"">+</div>","null","","","","","","","","","",""
"","html-keyboard-response","200","545235","0.0-10.0-1.3","2aj9uo7pfl","many_one","0","indirect_first","0","er05ns23","1","69","1","1","3","1","teilnahme war o.k. ich ging davon aus, dass manche zeichen-bestandteile eine positive oder negative bedeutung hatten.","0","1","0","null","","","<img src = 'category1/CS5.png' width = '100%;'>","null","","","","","","","","","",""
"","html-keyboard-response","201","545499","0.0-10.0-2.3","2aj9uo7pfl","many_one","0","indirect_first","0","er05ns23","1","69","1","1","3","1","teilnahme war o.k. ich ging davon aus, dass manche zeichen-bestandteile eine positive oder negative bedeutung hatten.","0","1","0","null","","","<img src = 'targets/11.png' width = '100%;'>","null","","","","","","","","","",""
"","html-keyboard-response","202","546199","0.0-10.0-3.3","2aj9uo7pfl","many_one","0","indirect_first","0","er05ns23","1","69","1","1","3","1","teilnahme war o.k. ich ging davon aus, dass manche zeichen-bestandteile eine positive oder negative bedeutung hatten.","0","1","0","698.1700002215803","","","<img src = 'targets/mask.png' width = '100%;'>","75","pos","GS","GSold","1","category1/CS5.png","targets/11.png","1","indirect","27",""
"","html-keyboard-response","203","547723","0.0-10.0-0.4","2aj9uo7pfl","many_one","0","indirect_first","0","er05ns23","1","69","1","1","3","1","teilnahme war o.k. ich ging davon aus, dass manche zeichen-bestandteile eine positive oder negative bedeutung hatten.","0","1","0","null","","","<div style=""font-size:60px;"">+</div>","null","","","","","","","","","",""
"","html-keyboard-response","204","547820","0.0-10.0-1.4","2aj9uo7pfl","many_one","0","indirect_first","0","er05ns23","1","69","1","1","3","1","teilnahme war o.k. ich ging davon aus, dass manche zeichen-bestandteile eine positive oder negative bedeutung hatten.","0","1","0","null","","","<img src = 'category2/GS3.png' width = '100%;'>","null","","","","","","","","","",""
"","html-keyboard-response","205","548084","0.0-10.0-2.4","2aj9uo7pfl","many_one","0","indirect_first","0","er05ns23","1","69","1","1","3","1","teilnahme war o.k. ich ging davon aus, dass manche zeichen-bestandteile eine positive oder negative bedeutung hatten.","0","1","0","null","","","<img src = 'targets/29.png' width = '100%;'>","null","","","","","","","","","",""
"","html-keyboard-response","206","549295","0.0-10.0-3.4","2aj9uo7pfl","many_one","0","indirect_first","0","er05ns23","1","69","1","1","3","1","teilnahme war o.k. ich ging davon aus, dass manche zeichen-bestandteile eine positive oder negative bedeutung hatten.","0","1","0","1207.590000005439","","","<img src = 'targets/mask.png' width = '100%;'>","75","pos","GS","GSnew","2","category2/GS3.png","targets/29.png","1","indirect","28",""
"","html-keyboard-response","207","550804","0.0-10.0-0.5","2aj9uo7pfl","many_one","0","indirect_first","0","er05ns23","1","69","1","1","3","1","teilnahme war o.k. ich ging davon aus, dass manche zeichen-bestandteile eine positive oder negative bedeutung hatten.","0","1","0","null","","","<div style=""font-size:60px;"">+</div>","null","","","","","","","","","",""
"","html-keyboard-response","208","550901","0.0-10.0-1.5","2aj9uo7pfl","many_one","0","indirect_first","0","er05ns23","1","69","1","1","3","1","teilnahme war o.k. ich ging davon aus, dass manche zeichen-bestandteile eine positive oder negative bedeutung hatten.","0","1","0","null","","","<img src = 'category2/CS1.png' width = '100%;'>","null","","","","","","","","","",""
"","html-keyboard-response","209","551172","0.0-10.0-2.5","2aj9uo7pfl","many_one","0","indirect_first","0","er05ns23","1","69","1","1","3","1","teilnahme war o.k. ich ging davon aus, dass manche zeichen-bestandteile eine positive oder negative bedeutung hatten.","0","1","0","null","","","<img src = 'targets/3.png' width = '100%;'>","null","","","","","","","","","",""
"","html-keyboard-response","210","551975","0.0-10.0-3.5","2aj9uo7pfl","many_one","0","indirect_first","0","er05ns23","1","69","1","1","3","1","teilnahme war o.k. ich ging davon aus, dass manche zeichen-bestandteile eine positive oder negative bedeutung hatten.","0","1","0","800.8200000040233","","","<img src = 'targets/mask.png' width = '100%;'>","75","pos","GS","GSold","2","category2/CS1.png","targets/3.png","1","indirect","29",""
"","html-keyboard-response","211","553481","0.0-10.0-0.6","2aj9uo7pfl","many_one","0","indirect_first","0","er05ns23","1","69","1","1","3","1","teilnahme war o.k. ich ging davon aus, dass manche zeichen-bestandteile eine positive oder negative bedeutung hatten.","0","1","0","null","","","<div style=""font-size:60px;"">+</div>","null","","","","","","","","","",""
"","html-keyboard-response","212","553576","0.0-10.0-1.6","2aj9uo7pfl","many_one","0","indirect_first","0","er05ns23","1","69","1","1","3","1","teilnahme war o.k. ich ging davon aus, dass manche zeichen-bestandteile eine positive oder negative bedeutung hatten.","0","1","0","null","","","<img src = 'category4/CS4.png' width = '100%;'>","null","","","","","","","","","",""
"","html-keyboard-response","213","553841","0.0-10.0-2.6","2aj9uo7pfl","many_one","0","indirect_first","0","er05ns23","1","69","1","1","3","1","teilnahme war o.k. ich ging davon aus, dass manche zeichen-bestandteile eine positive oder negative bedeutung hatten.","0","1","0","null","","","<img src = 'targets/2.png' width = '100%;'>","null","","","","","","","","","",""
"","html-keyboard-response","214","554950","0.0-10.0-3.6","2aj9uo7pfl","many_one","0","indirect_first","0","er05ns23","1","69","1","1","3","1","teilnahme war o.k. ich ging davon aus, dass manche zeichen-bestandteile eine positive oder negative bedeutung hatten.","0","1","0","1107.6800001319498","","","<img src = 'targets/mask.png' width = '100%;'>","68","neg","GS","GSold","4","category4/CS4.png","targets/2.png","0","indirect","30",""
"","html-keyboard-response","215","556463","0.0-10.0-0.7","2aj9uo7pfl","many_one","0","indirect_first","0","er05ns23","1","69","1","1","3","1","teilnahme war o.k. ich ging davon aus, dass manche zeichen-bestandteile eine positive oder negative bedeutung hatten.","0","1","0","null","","","<div style=""font-size:60px;"">+</div>","null","","","","","","","","","",""
"","html-keyboard-response","216","556569","0.0-10.0-1.7","2aj9uo7pfl","many_one","0","indirect_first","0","er05ns23","1","69","1","1","3","1","teilnahme war o.k. ich ging davon aus, dass manche zeichen-bestandteile eine positive oder negative bedeutung hatten.","0","1","0","null","","","<img src = 'category1/GS3.png' width = '100%;'>","null","","","","","","","","","",""
"","html-keyboard-response","217","556842","0.0-10.0-2.7","2aj9uo7pfl","many_one","0","indirect_first","0","er05ns23","1","69","1","1","3","1","teilnahme war o.k. ich ging davon aus, dass manche zeichen-bestandteile eine positive oder negative bedeutung hatten.","0","1","0","null","","","<img src = 'targets/36.png' width = '100%;'>","null","","","","","","","","","",""
"","html-keyboard-response","218","557755","0.0-10.0-3.7","2aj9uo7pfl","many_one","0","indirect_first","0","er05ns23","1","69","1","1","3","1","teilnahme war o.k. ich ging davon aus, dass manche zeichen-bestandteile eine positive oder negative bedeutung hatten.","0","1","0","909.8749998956919","","","<img src = 'targets/mask.png' width = '100%;'>","75","pos","GS","GSnew","1","category1/GS3.png","targets/36.png","1","indirect","31",""
"","html-keyboard-response","219","559278","0.0-10.0-0.8","2aj9uo7pfl","many_one","0","indirect_first","0","er05ns23","1","69","1","1","3","1","teilnahme war o.k. ich ging davon aus, dass manche zeichen-bestandteile eine positive oder negative bedeutung hatten.","0","1","0","null","","","<div style=""font-size:60px;"">+</div>","null","","","","","","","","","",""
"","html-keyboard-response","220","559374","0.0-10.0-1.8","2aj9uo7pfl","many_one","0","indirect_first","0","er05ns23","1","69","1","1","3","1","teilnahme war o.k. ich ging davon aus, dass manche zeichen-bestandteile eine positive oder negative bedeutung hatten.","0","1","0","null","","","<img src = 'category1/CS8.png' width = '100%;'>","null","","","","","","","","","",""
"","html-keyboard-response","221","559639","0.0-10.0-2.8","2aj9uo7pfl","many_one","0","indirect_first","0","er05ns23","1","69","1","1","3","1","teilnahme war o.k. ich ging davon aus, dass manche zeichen-bestandteile eine positive oder negative bedeutung hatten.","0","1","0","null","","","<img src = 'targets/30.png' width = '100%;'>","null","","","","","","","","","",""
"","html-keyboard-response","222","560677","0.0-10.0-3.8","2aj9uo7pfl","many_one","0","indirect_first","0","er05ns23","1","69","1","1","3","1","teilnahme war o.k. ich ging davon aus, dass manche zeichen-bestandteile eine positive oder negative bedeutung hatten.","0","1","0","1036.0249998047948","","","<img src = 'targets/mask.png' width = '100%;'>","75","pos","GS","GSold","1","category1/CS8.png","targets/30.png","1","indirect","32",""
"","html-keyboard-response","223","562183","0.0-10.0-0.9","2aj9uo7pfl","many_one","0","indirect_first","0","er05ns23","1","69","1","1","3","1","teilnahme war o.k. ich ging davon aus, dass manche zeichen-bestandteile eine positive oder negative bedeutung hatten.","0","1","0","null","","","<div style=""font-size:60px;"">+</div>","null","","","","","","","","","",""
"","html-keyboard-response","224","562288","0.0-10.0-1.9","2aj9uo7pfl","many_one","0","indirect_first","0","er05ns23","1","69","1","1","3","1","teilnahme war o.k. ich ging davon aus, dass manche zeichen-bestandteile eine positive oder negative bedeutung hatten.","0","1","0","null","","","<img src = 'category2/GS1.png' width = '100%;'>","null","","","","","","","","","",""
"","html-keyboard-response","225","562561","0.0-10.0-2.9","2aj9uo7pfl","many_one","0","indirect_first","0","er05ns23","1","69","1","1","3","1","teilnahme war o.k. ich ging davon aus, dass manche zeichen-bestandteile eine positive oder negative bedeutung hatten.","0","1","0","null","","","<img src = 'targets/33.png' width = '100%;'>","null","","","","","","","","","",""
"","html-keyboard-response","226","563334","0.0-10.0-3.9","2aj9uo7pfl","many_one","0","indirect_first","0","er05ns23","1","69","1","1","3","1","teilnahme war o.k. ich ging davon aus, dass manche zeichen-bestandteile eine positive oder negative bedeutung hatten.","0","1","0","770.1749999541789","","","<img src = 'targets/mask.png' width = '100%;'>","75","pos","GS","GSnew","2","category2/GS1.png","targets/33.png","1","indirect","33",""
