"success","trial_type","trial_index","time_elapsed","internal_node_id","subject","condition","condition_code","measure","measure_code","codeword","gender","age","education","chinese","fach","handedness","comment","hinschauen","ablenkung","gewissenhaft","rt","url","responses","stimulus","key_press","val","type","type_specific","category","cs_selected","target","indirect","task","nr_pres","response"
"true","fullscreen","0","10007","0.0-0.0","e1t3l4glta","many_one","0","indirect_first","0","nn05en08","1","31","1","1","3","1","","0","1","0","","","","","","","","","","","","","","",""
"","external-html","1","154077","0.0-1.0","e1t3l4glta","many_one","0","indirect_first","0","nn05en08","1","31","1","1","3","1","","0","1","0","143936.61500001326","text/information.html","","","","","","","","","","","","",""
"","external-html","2","238615","0.0-2.0","e1t3l4glta","many_one","0","indirect_first","0","nn05en08","1","31","1","1","3","1","","0","1","0","84382.09000002826","text/consent.html","","","","","","","","","","","","",""
"","survey-html-form","3","307874","0.0-3.0","e1t3l4glta","many_one","0","indirect_first","0","nn05en08","1","31","1","1","3","1","","0","1","0","69257.70000001648","","{""codeword_enter"":""nn05en08""}","","","","","","","","","","","",""
"","survey-html-form","4","329530","0.0-4.0","e1t3l4glta","many_one","0","indirect_first","0","nn05en08","1","31","1","1","3","1","","0","1","0","21654.23500002362","","{""age"":""31"",""education"":""1"",""subject"":""3"",""gender"":""1"",""handedness"":""1"",""chinese"":""1""}","","","","","","","","","","","",""
"","survey-html-form","5","349251","0.0-5.0","e1t3l4glta","many_one","0","indirect_first","0","nn05en08","1","31","1","1","3","1","","0","1","0","19719.02499999851","","{}","","","","","","","","","","","",""
"","html-keyboard-response","6","353269","0.0-6.0-0.0-0.0","e1t3l4glta","many_one","0","indirect_first","0","nn05en08","1","31","1","1","3","1","","0","1","0","null","","","<div class = 'row'><div class = 'column'><img src = 'uspos/7580.bmp' width = '100%;'></div><div class = 'column'><img src = 'category1/CS2.png' width = '70%;'></div></div>","null","pos","CS","CS","1","category1/CS2.png","","","","",""
"","html-keyboard-response","7","355776","0.0-6.0-0.0-0.1","e1t3l4glta","many_one","0","indirect_first","0","nn05en08","1","31","1","1","3","1","","0","1","0","null","","","<div class = 'row'><div class = 'column'><img src = 'usneg/1280.bmp' width = '100%;'></div><div class = 'column'><img src = 'category4/CS6.png' width = '70%;'></div></div>","null","neg","CS","CS","4","category4/CS6.png","","","","",""
"","html-keyboard-response","8","358298","0.0-6.0-0.0-0.2","e1t3l4glta","many_one","0","indirect_first","0","nn05en08","1","31","1","1","3","1","","0","1","0","null","","","<div class = 'row'><div class = 'column'><img src = 'category1/CS5.png' width = '70%;'></div><div class = 'column'><img src = 'uspos/8190.bmp' width = '100%;'></div></div>","null","pos","CS","CS","1","category1/CS5.png","","","","",""
"","html-keyboard-response","9","360818","0.0-6.0-0.0-0.3","e1t3l4glta","many_one","0","indirect_first","0","nn05en08","1","31","1","1","3","1","","0","1","0","null","","","<div class = 'row'><div class = 'column'><img src = 'usneg/6020.bmp' width = '100%;'></div><div class = 'column'><img src = 'category3/CS8.png' width = '70%;'></div></div>","null","neg","CS","CS","3","category3/CS8.png","","","","",""
"","html-keyboard-response","10","363343","0.0-6.0-0.0-0.4","e1t3l4glta","many_one","0","indirect_first","0","nn05en08","1","31","1","1","3","1","","0","1","0","null","","","<div class = 'row'><div class = 'column'><img src = 'category2/CS4.png' width = '70%;'></div><div class = 'column'><img src = 'uspos/2040.bmp' width = '100%;'></div></div>","null","pos","CS","CS","2","category2/CS4.png","","","","",""
"","html-keyboard-response","11","365866","0.0-6.0-0.0-0.5","e1t3l4glta","many_one","0","indirect_first","0","nn05en08","1","31","1","1","3","1","","0","1","0","null","","","<div class = 'row'><div class = 'column'><img src = 'uspos/7325.bmp' width = '100%;'></div><div class = 'column'><img src = 'category2/CS5.png' width = '70%;'></div></div>","null","pos","CS","CS","2","category2/CS5.png","","","","",""
"","html-keyboard-response","12","368388","0.0-6.0-0.0-0.6","e1t3l4glta","many_one","0","indirect_first","0","nn05en08","1","31","1","1","3","1","","0","1","0","null","","","<div class = 'row'><div class = 'column'><img src = 'category1/CS3.png' width = '70%;'></div><div class = 'column'><img src = 'uspos/5629.bmp' width = '100%;'></div></div>","null","pos","CS","CS","1","category1/CS3.png","","","","",""
"","html-keyboard-response","13","370911","0.0-6.0-0.0-0.7","e1t3l4glta","many_one","0","indirect_first","0","nn05en08","1","31","1","1","3","1","","0","1","0","null","","","<div class = 'row'><div class = 'column'><img src = 'category2/CS2.png' width = '70%;'></div><div class = 'column'><img src = 'uspos/2341.bmp' width = '100%;'></div></div>","null","pos","CS","CS","2","category2/CS2.png","","","","",""
"","html-keyboard-response","14","373428","0.0-6.0-0.0-0.8","e1t3l4glta","many_one","0","indirect_first","0","nn05en08","1","31","1","1","3","1","","0","1","0","null","","","<div class = 'row'><div class = 'column'><img src = 'category4/CS2.png' width = '70%;'></div><div class = 'column'><img src = 'usneg/2900.bmp' width = '100%;'></div></div>","null","neg","CS","CS","4","category4/CS2.png","","","","",""
"","html-keyboard-response","15","375936","0.0-6.0-0.0-0.9","e1t3l4glta","many_one","0","indirect_first","0","nn05en08","1","31","1","1","3","1","","0","1","0","null","","","<div class = 'row'><div class = 'column'><img src = 'uspos/1710.bmp' width = '100%;'></div><div class = 'column'><img src = 'category2/CS10.png' width = '70%;'></div></div>","null","pos","CS","CS","2","category2/CS10.png","","","","",""
"","html-keyboard-response","16","378459","0.0-6.0-0.0-0.10","e1t3l4glta","many_one","0","indirect_first","0","nn05en08","1","31","1","1","3","1","","0","1","0","null","","","<div class = 'row'><div class = 'column'><img src = 'category4/CS8.png' width = '70%;'></div><div class = 'column'><img src = 'usneg/9520.bmp' width = '100%;'></div></div>","null","neg","CS","CS","4","category4/CS8.png","","","","",""
"","html-keyboard-response","17","380982","0.0-6.0-0.0-0.11","e1t3l4glta","many_one","0","indirect_first","0","nn05en08","1","31","1","1","3","1","","0","1","0","null","","","<div class = 'row'><div class = 'column'><img src = 'uspos/2057.bmp' width = '100%;'></div><div class = 'column'><img src = 'category1/CS8.png' width = '70%;'></div></div>","null","pos","CS","CS","1","category1/CS8.png","","","","",""
"","html-keyboard-response","18","383502","0.0-6.0-0.0-0.12","e1t3l4glta","many_one","0","indirect_first","0","nn05en08","1","31","1","1","3","1","","0","1","0","null","","","<div class = 'row'><div class = 'column'><img src = 'category3/CS4.png' width = '70%;'></div><div class = 'column'><img src = 'usneg/8485.bmp' width = '100%;'></div></div>","null","neg","CS","CS","3","category3/CS4.png","","","","",""
"","html-keyboard-response","19","386010","0.0-6.0-0.0-0.13","e1t3l4glta","many_one","0","indirect_first","0","nn05en08","1","31","1","1","3","1","","0","1","0","null","","","<div class = 'row'><div class = 'column'><img src = 'usneg/9220.bmp' width = '100%;'></div><div class = 'column'><img src = 'category4/CS10.png' width = '70%;'></div></div>","null","neg","CS","CS","4","category4/CS10.png","","","","",""
"","html-keyboard-response","20","388534","0.0-6.0-0.0-0.14","e1t3l4glta","many_one","0","indirect_first","0","nn05en08","1","31","1","1","3","1","","0","1","0","null","","","<div class = 'row'><div class = 'column'><img src = 'category2/CS6.png' width = '70%;'></div><div class = 'column'><img src = 'uspos/2150.bmp' width = '100%;'></div></div>","null","pos","CS","CS","2","category2/CS6.png","","","","",""
"","html-keyboard-response","21","391058","0.0-6.0-0.0-0.15","e1t3l4glta","many_one","0","indirect_first","0","nn05en08","1","31","1","1","3","1","","0","1","0","null","","","<div class = 'row'><div class = 'column'><img src = 'usneg/9330.bmp' width = '100%;'></div><div class = 'column'><img src = 'category4/CS9.png' width = '70%;'></div></div>","null","neg","CS","CS","4","category4/CS9.png","","","","",""
"","html-keyboard-response","22","393580","0.0-6.0-0.0-0.16","e1t3l4glta","many_one","0","indirect_first","0","nn05en08","1","31","1","1","3","1","","0","1","0","null","","","<div class = 'row'><div class = 'column'><img src = 'category3/CS9.png' width = '70%;'></div><div class = 'column'><img src = 'usneg/9340.bmp' width = '100%;'></div></div>","null","neg","CS","CS","3","category3/CS9.png","","","","",""
"","html-keyboard-response","23","396084","0.0-6.0-0.0-0.17","e1t3l4glta","many_one","0","indirect_first","0","nn05en08","1","31","1","1","3","1","","0","1","0","null","","","<div class = 'row'><div class = 'column'><img src = 'category1/CS4.png' width = '70%;'></div><div class = 'column'><img src = 'uspos/2058.bmp' width = '100%;'></div></div>","null","pos","CS","CS","1","category1/CS4.png","","","","",""
"","html-keyboard-response","24","398604","0.0-6.0-0.0-0.18","e1t3l4glta","many_one","0","indirect_first","0","nn05en08","1","31","1","1","3","1","","0","1","0","null","","","<div class = 'row'><div class = 'column'><img src = 'usneg/2141.bmp' width = '100%;'></div><div class = 'column'><img src = 'category3/CS2.png' width = '70%;'></div></div>","null","neg","CS","CS","3","category3/CS2.png","","","","",""
"","html-keyboard-response","25","401125","0.0-6.0-0.0-0.19","e1t3l4glta","many_one","0","indirect_first","0","nn05en08","1","31","1","1","3","1","","0","1","0","null","","","<div class = 'row'><div class = 'column'><img src = 'usneg/7380.bmp' width = '100%;'></div><div class = 'column'><img src = 'category3/CS3.png' width = '70%;'></div></div>","null","neg","CS","CS","3","category3/CS3.png","","","","",""
"","survey-html-form","26","424130","0.0-6.0-1.0","e1t3l4glta","many_one","0","indirect_first","0","nn05en08","1","31","1","1","3","1","","0","1","0","22495.349999982864","","{}","","","","","","","","","","","",""
"","html-keyboard-response","27","428156","0.0-6.0-2.0-0.0","e1t3l4glta","many_one","0","indirect_first","0","nn05en08","1","31","1","1","3","1","","0","1","0","null","","","<div class = 'row'><div class = 'column'><img src = 'category4/CS2.png' width = '70%;'></div><div class = 'column'><img src = 'usneg/2900.bmp' width = '100%;'></div></div>","null","neg","CS","CS","4","category4/CS2.png","","","","",""
"","html-keyboard-response","28","430666","0.0-6.0-2.0-0.1","e1t3l4glta","many_one","0","indirect_first","0","nn05en08","1","31","1","1","3","1","","0","1","0","null","","","<div class = 'row'><div class = 'column'><img src = 'category2/CS5.png' width = '70%;'></div><div class = 'column'><img src = 'uspos/7325.bmp' width = '100%;'></div></div>","null","pos","CS","CS","2","category2/CS5.png","","","","",""
"","html-keyboard-response","29","433188","0.0-6.0-2.0-0.2","e1t3l4glta","many_one","0","indirect_first","0","nn05en08","1","31","1","1","3","1","","0","1","0","null","","","<div class = 'row'><div class = 'column'><img src = 'uspos/2058.bmp' width = '100%;'></div><div class = 'column'><img src = 'category1/CS4.png' width = '70%;'></div></div>","null","pos","CS","CS","1","category1/CS4.png","","","","",""
"","html-keyboard-response","30","435709","0.0-6.0-2.0-0.3","e1t3l4glta","many_one","0","indirect_first","0","nn05en08","1","31","1","1","3","1","","0","1","0","null","","","<div class = 'row'><div class = 'column'><img src = 'usneg/1280.bmp' width = '100%;'></div><div class = 'column'><img src = 'category4/CS6.png' width = '70%;'></div></div>","null","neg","CS","CS","4","category4/CS6.png","","","","",""
"","html-keyboard-response","31","438234","0.0-6.0-2.0-0.4","e1t3l4glta","many_one","0","indirect_first","0","nn05en08","1","31","1","1","3","1","","0","1","0","null","","","<div class = 'row'><div class = 'column'><img src = 'category3/CS3.png' width = '70%;'></div><div class = 'column'><img src = 'usneg/7380.bmp' width = '100%;'></div></div>","null","neg","CS","CS","3","category3/CS3.png","","","","",""
"","html-keyboard-response","32","440738","0.0-6.0-2.0-0.5","e1t3l4glta","many_one","0","indirect_first","0","nn05en08","1","31","1","1","3","1","","0","1","0","null","","","<div class = 'row'><div class = 'column'><img src = 'uspos/2057.bmp' width = '100%;'></div><div class = 'column'><img src = 'category1/CS8.png' width = '70%;'></div></div>","null","pos","CS","CS","1","category1/CS8.png","","","","",""
"","html-keyboard-response","33","443244","0.0-6.0-2.0-0.6","e1t3l4glta","many_one","0","indirect_first","0","nn05en08","1","31","1","1","3","1","","0","1","0","null","","","<div class = 'row'><div class = 'column'><img src = 'category4/CS8.png' width = '70%;'></div><div class = 'column'><img src = 'usneg/9520.bmp' width = '100%;'></div></div>","null","neg","CS","CS","4","category4/CS8.png","","","","",""
"","html-keyboard-response","34","445766","0.0-6.0-2.0-0.7","e1t3l4glta","many_one","0","indirect_first","0","nn05en08","1","31","1","1","3","1","","0","1","0","null","","","<div class = 'row'><div class = 'column'><img src = 'usneg/9220.bmp' width = '100%;'></div><div class = 'column'><img src = 'category4/CS10.png' width = '70%;'></div></div>","null","neg","CS","CS","4","category4/CS10.png","","","","",""
"","html-keyboard-response","35","448285","0.0-6.0-2.0-0.8","e1t3l4glta","many_one","0","indirect_first","0","nn05en08","1","31","1","1","3","1","","0","1","0","null","","","<div class = 'row'><div class = 'column'><img src = 'category1/CS2.png' width = '70%;'></div><div class = 'column'><img src = 'uspos/7580.bmp' width = '100%;'></div></div>","null","pos","CS","CS","1","category1/CS2.png","","","","",""
"","html-keyboard-response","36","450793","0.0-6.0-2.0-0.9","e1t3l4glta","many_one","0","indirect_first","0","nn05en08","1","31","1","1","3","1","","0","1","0","null","","","<div class = 'row'><div class = 'column'><img src = 'category1/CS5.png' width = '70%;'></div><div class = 'column'><img src = 'uspos/8190.bmp' width = '100%;'></div></div>","null","pos","CS","CS","1","category1/CS5.png","","","","",""
"","html-keyboard-response","37","453314","0.0-6.0-2.0-0.10","e1t3l4glta","many_one","0","indirect_first","0","nn05en08","1","31","1","1","3","1","","0","1","0","null","","","<div class = 'row'><div class = 'column'><img src = 'category3/CS2.png' width = '70%;'></div><div class = 'column'><img src = 'usneg/2141.bmp' width = '100%;'></div></div>","null","neg","CS","CS","3","category3/CS2.png","","","","",""
"","html-keyboard-response","38","455835","0.0-6.0-2.0-0.11","e1t3l4glta","many_one","0","indirect_first","0","nn05en08","1","31","1","1","3","1","","0","1","0","null","","","<div class = 'row'><div class = 'column'><img src = 'uspos/1710.bmp' width = '100%;'></div><div class = 'column'><img src = 'category2/CS10.png' width = '70%;'></div></div>","null","pos","CS","CS","2","category2/CS10.png","","","","",""
"","html-keyboard-response","39","458356","0.0-6.0-2.0-0.12","e1t3l4glta","many_one","0","indirect_first","0","nn05en08","1","31","1","1","3","1","","0","1","0","null","","","<div class = 'row'><div class = 'column'><img src = 'uspos/2341.bmp' width = '100%;'></div><div class = 'column'><img src = 'category2/CS2.png' width = '70%;'></div></div>","null","pos","CS","CS","2","category2/CS2.png","","","","",""
"","html-keyboard-response","40","460876","0.0-6.0-2.0-0.13","e1t3l4glta","many_one","0","indirect_first","0","nn05en08","1","31","1","1","3","1","","0","1","0","null","","","<div class = 'row'><div class = 'column'><img src = 'usneg/9330.bmp' width = '100%;'></div><div class = 'column'><img src = 'category4/CS9.png' width = '70%;'></div></div>","null","neg","CS","CS","4","category4/CS9.png","","","","",""
"","html-keyboard-response","41","463398","0.0-6.0-2.0-0.14","e1t3l4glta","many_one","0","indirect_first","0","nn05en08","1","31","1","1","3","1","","0","1","0","null","","","<div class = 'row'><div class = 'column'><img src = 'usneg/8485.bmp' width = '100%;'></div><div class = 'column'><img src = 'category3/CS4.png' width = '70%;'></div></div>","null","neg","CS","CS","3","category3/CS4.png","","","","",""
"","html-keyboard-response","42","465921","0.0-6.0-2.0-0.15","e1t3l4glta","many_one","0","indirect_first","0","nn05en08","1","31","1","1","3","1","","0","1","0","null","","","<div class = 'row'><div class = 'column'><img src = 'category2/CS6.png' width = '70%;'></div><div class = 'column'><img src = 'uspos/2150.bmp' width = '100%;'></div></div>","null","pos","CS","CS","2","category2/CS6.png","","","","",""
"","html-keyboard-response","43","468445","0.0-6.0-2.0-0.16","e1t3l4glta","many_one","0","indirect_first","0","nn05en08","1","31","1","1","3","1","","0","1","0","null","","","<div class = 'row'><div class = 'column'><img src = 'category2/CS4.png' width = '70%;'></div><div class = 'column'><img src = 'uspos/2040.bmp' width = '100%;'></div></div>","null","pos","CS","CS","2","category2/CS4.png","","","","",""
"","html-keyboard-response","44","470952","0.0-6.0-2.0-0.17","e1t3l4glta","many_one","0","indirect_first","0","nn05en08","1","31","1","1","3","1","","0","1","0","null","","","<div class = 'row'><div class = 'column'><img src = 'usneg/6020.bmp' width = '100%;'></div><div class = 'column'><img src = 'category3/CS8.png' width = '70%;'></div></div>","null","neg","CS","CS","3","category3/CS8.png","","","","",""
"","html-keyboard-response","45","473459","0.0-6.0-2.0-0.18","e1t3l4glta","many_one","0","indirect_first","0","nn05en08","1","31","1","1","3","1","","0","1","0","null","","","<div class = 'row'><div class = 'column'><img src = 'usneg/9340.bmp' width = '100%;'></div><div class = 'column'><img src = 'category3/CS9.png' width = '70%;'></div></div>","null","neg","CS","CS","3","category3/CS9.png","","","","",""
"","html-keyboard-response","46","475979","0.0-6.0-2.0-0.19","e1t3l4glta","many_one","0","indirect_first","0","nn05en08","1","31","1","1","3","1","","0","1","0","null","","","<div class = 'row'><div class = 'column'><img src = 'category1/CS3.png' width = '70%;'></div><div class = 'column'><img src = 'uspos/5629.bmp' width = '100%;'></div></div>","null","pos","CS","CS","1","category1/CS3.png","","","","",""
"","survey-html-form","47","537350","0.0-6.0-3.0","e1t3l4glta","many_one","0","indirect_first","0","nn05en08","1","31","1","1","3","1","","0","1","0","60863.170000026","","{}","","","","","","","","","","","",""
"","html-keyboard-response","48","541376","0.0-6.0-4.0-0.0","e1t3l4glta","many_one","0","indirect_first","0","nn05en08","1","31","1","1","3","1","","0","1","0","null","","","<div class = 'row'><div class = 'column'><img src = 'category4/CS8.png' width = '70%;'></div><div class = 'column'><img src = 'usneg/9520.bmp' width = '100%;'></div></div>","null","neg","CS","CS","4","category4/CS8.png","","","","",""
"","html-keyboard-response","49","543886","0.0-6.0-4.0-0.1","e1t3l4glta","many_one","0","indirect_first","0","nn05en08","1","31","1","1","3","1","","0","1","0","null","","","<div class = 'row'><div class = 'column'><img src = 'category4/CS2.png' width = '70%;'></div><div class = 'column'><img src = 'usneg/2900.bmp' width = '100%;'></div></div>","null","neg","CS","CS","4","category4/CS2.png","","","","",""
"","html-keyboard-response","50","546410","0.0-6.0-4.0-0.2","e1t3l4glta","many_one","0","indirect_first","0","nn05en08","1","31","1","1","3","1","","0","1","0","null","","","<div class = 'row'><div class = 'column'><img src = 'category1/CS2.png' width = '70%;'></div><div class = 'column'><img src = 'uspos/7580.bmp' width = '100%;'></div></div>","null","pos","CS","CS","1","category1/CS2.png","","","","",""
"","html-keyboard-response","51","548931","0.0-6.0-4.0-0.3","e1t3l4glta","many_one","0","indirect_first","0","nn05en08","1","31","1","1","3","1","","0","1","0","null","","","<div class = 'row'><div class = 'column'><img src = 'category1/CS4.png' width = '70%;'></div><div class = 'column'><img src = 'uspos/2058.bmp' width = '100%;'></div></div>","null","pos","CS","CS","1","category1/CS4.png","","","","",""
"","html-keyboard-response","52","551454","0.0-6.0-4.0-0.4","e1t3l4glta","many_one","0","indirect_first","0","nn05en08","1","31","1","1","3","1","","0","1","0","null","","","<div class = 'row'><div class = 'column'><img src = 'uspos/5629.bmp' width = '100%;'></div><div class = 'column'><img src = 'category1/CS3.png' width = '70%;'></div></div>","null","pos","CS","CS","1","category1/CS3.png","","","","",""
"","html-keyboard-response","53","553975","0.0-6.0-4.0-0.5","e1t3l4glta","many_one","0","indirect_first","0","nn05en08","1","31","1","1","3","1","","0","1","0","null","","","<div class = 'row'><div class = 'column'><img src = 'uspos/7325.bmp' width = '100%;'></div><div class = 'column'><img src = 'category2/CS5.png' width = '70%;'></div></div>","null","pos","CS","CS","2","category2/CS5.png","","","","",""
"","html-keyboard-response","54","556496","0.0-6.0-4.0-0.6","e1t3l4glta","many_one","0","indirect_first","0","nn05en08","1","31","1","1","3","1","","0","1","0","null","","","<div class = 'row'><div class = 'column'><img src = 'category3/CS3.png' width = '70%;'></div><div class = 'column'><img src = 'usneg/7380.bmp' width = '100%;'></div></div>","null","neg","CS","CS","3","category3/CS3.png","","","","",""
"","html-keyboard-response","55","559017","0.0-6.0-4.0-0.7","e1t3l4glta","many_one","0","indirect_first","0","nn05en08","1","31","1","1","3","1","","0","1","0","null","","","<div class = 'row'><div class = 'column'><img src = 'category2/CS10.png' width = '70%;'></div><div class = 'column'><img src = 'uspos/1710.bmp' width = '100%;'></div></div>","null","pos","CS","CS","2","category2/CS10.png","","","","",""
"","html-keyboard-response","56","561537","0.0-6.0-4.0-0.8","e1t3l4glta","many_one","0","indirect_first","0","nn05en08","1","31","1","1","3","1","","0","1","0","null","","","<div class = 'row'><div class = 'column'><img src = 'category4/CS9.png' width = '70%;'></div><div class = 'column'><img src = 'usneg/9330.bmp' width = '100%;'></div></div>","null","neg","CS","CS","4","category4/CS9.png","","","","",""
"","html-keyboard-response","57","564044","0.0-6.0-4.0-0.9","e1t3l4glta","many_one","0","indirect_first","0","nn05en08","1","31","1","1","3","1","","0","1","0","null","","","<div class = 'row'><div class = 'column'><img src = 'uspos/2057.bmp' width = '100%;'></div><div class = 'column'><img src = 'category1/CS8.png' width = '70%;'></div></div>","null","pos","CS","CS","1","category1/CS8.png","","","","",""
"","html-keyboard-response","58","566545","0.0-6.0-4.0-0.10","e1t3l4glta","many_one","0","indirect_first","0","nn05en08","1","31","1","1","3","1","","0","1","0","null","","","<div class = 'row'><div class = 'column'><img src = 'uspos/2150.bmp' width = '100%;'></div><div class = 'column'><img src = 'category2/CS6.png' width = '70%;'></div></div>","null","pos","CS","CS","2","category2/CS6.png","","","","",""
"","html-keyboard-response","59","569053","0.0-6.0-4.0-0.11","e1t3l4glta","many_one","0","indirect_first","0","nn05en08","1","31","1","1","3","1","","0","1","0","null","","","<div class = 'row'><div class = 'column'><img src = 'category3/CS2.png' width = '70%;'></div><div class = 'column'><img src = 'usneg/2141.bmp' width = '100%;'></div></div>","null","neg","CS","CS","3","category3/CS2.png","","","","",""
"","html-keyboard-response","60","571572","0.0-6.0-4.0-0.12","e1t3l4glta","many_one","0","indirect_first","0","nn05en08","1","31","1","1","3","1","","0","1","0","null","","","<div class = 'row'><div class = 'column'><img src = 'category2/CS2.png' width = '70%;'></div><div class = 'column'><img src = 'uspos/2341.bmp' width = '100%;'></div></div>","null","pos","CS","CS","2","category2/CS2.png","","","","",""
"","html-keyboard-response","61","574093","0.0-6.0-4.0-0.13","e1t3l4glta","many_one","0","indirect_first","0","nn05en08","1","31","1","1","3","1","","0","1","0","null","","","<div class = 'row'><div class = 'column'><img src = 'uspos/8190.bmp' width = '100%;'></div><div class = 'column'><img src = 'category1/CS5.png' width = '70%;'></div></div>","null","pos","CS","CS","1","category1/CS5.png","","","","",""
"","html-keyboard-response","62","576615","0.0-6.0-4.0-0.14","e1t3l4glta","many_one","0","indirect_first","0","nn05en08","1","31","1","1","3","1","","0","1","0","null","","","<div class = 'row'><div class = 'column'><img src = 'usneg/9220.bmp' width = '100%;'></div><div class = 'column'><img src = 'category4/CS10.png' width = '70%;'></div></div>","null","neg","CS","CS","4","category4/CS10.png","","","","",""
"","html-keyboard-response","63","579137","0.0-6.0-4.0-0.15","e1t3l4glta","many_one","0","indirect_first","0","nn05en08","1","31","1","1","3","1","","0","1","0","null","","","<div class = 'row'><div class = 'column'><img src = 'usneg/8485.bmp' width = '100%;'></div><div class = 'column'><img src = 'category3/CS4.png' width = '70%;'></div></div>","null","neg","CS","CS","3","category3/CS4.png","","","","",""
"","html-keyboard-response","64","581657","0.0-6.0-4.0-0.16","e1t3l4glta","many_one","0","indirect_first","0","nn05en08","1","31","1","1","3","1","","0","1","0","null","","","<div class = 'row'><div class = 'column'><img src = 'uspos/2040.bmp' width = '100%;'></div><div class = 'column'><img src = 'category2/CS4.png' width = '70%;'></div></div>","null","pos","CS","CS","2","category2/CS4.png","","","","",""
"","html-keyboard-response","65","584175","0.0-6.0-4.0-0.17","e1t3l4glta","many_one","0","indirect_first","0","nn05en08","1","31","1","1","3","1","","0","1","0","null","","","<div class = 'row'><div class = 'column'><img src = 'usneg/1280.bmp' width = '100%;'></div><div class = 'column'><img src = 'category4/CS6.png' width = '70%;'></div></div>","null","neg","CS","CS","4","category4/CS6.png","","","","",""
"","html-keyboard-response","66","586694","0.0-6.0-4.0-0.18","e1t3l4glta","many_one","0","indirect_first","0","nn05en08","1","31","1","1","3","1","","0","1","0","null","","","<div class = 'row'><div class = 'column'><img src = 'usneg/6020.bmp' width = '100%;'></div><div class = 'column'><img src = 'category3/CS8.png' width = '70%;'></div></div>","null","neg","CS","CS","3","category3/CS8.png","","","","",""
"","html-keyboard-response","67","589217","0.0-6.0-4.0-0.19","e1t3l4glta","many_one","0","indirect_first","0","nn05en08","1","31","1","1","3","1","","0","1","0","null","","","<div class = 'row'><div class = 'column'><img src = 'usneg/9340.bmp' width = '100%;'></div><div class = 'column'><img src = 'category3/CS9.png' width = '70%;'></div></div>","null","neg","CS","CS","3","category3/CS9.png","","","","",""
"","survey-html-form","68","603727","0.0-6.0-5.0","e1t3l4glta","many_one","0","indirect_first","0","nn05en08","1","31","1","1","3","1","","0","1","0","14002.764999982901","","{}","","","","","","","","","","","",""
"","html-keyboard-response","69","607758","0.0-6.0-6.0-0.0","e1t3l4glta","many_one","0","indirect_first","0","nn05en08","1","31","1","1","3","1","","0","1","0","null","","","<div class = 'row'><div class = 'column'><img src = 'category1/CS2.png' width = '70%;'></div><div class = 'column'><img src = 'uspos/7580.bmp' width = '100%;'></div></div>","null","pos","CS","CS","1","category1/CS2.png","","","","",""
"","html-keyboard-response","70","610283","0.0-6.0-6.0-0.1","e1t3l4glta","many_one","0","indirect_first","0","nn05en08","1","31","1","1","3","1","","0","1","0","null","","","<div class = 'row'><div class = 'column'><img src = 'uspos/2058.bmp' width = '100%;'></div><div class = 'column'><img src = 'category1/CS4.png' width = '70%;'></div></div>","null","pos","CS","CS","1","category1/CS4.png","","","","",""
"","html-keyboard-response","71","612789","0.0-6.0-6.0-0.2","e1t3l4glta","many_one","0","indirect_first","0","nn05en08","1","31","1","1","3","1","","0","1","0","null","","","<div class = 'row'><div class = 'column'><img src = 'usneg/7380.bmp' width = '100%;'></div><div class = 'column'><img src = 'category3/CS3.png' width = '70%;'></div></div>","null","neg","CS","CS","3","category3/CS3.png","","","","",""
"","html-keyboard-response","72","615315","0.0-6.0-6.0-0.3","e1t3l4glta","many_one","0","indirect_first","0","nn05en08","1","31","1","1","3","1","","0","1","0","null","","","<div class = 'row'><div class = 'column'><img src = 'uspos/2150.bmp' width = '100%;'></div><div class = 'column'><img src = 'category2/CS6.png' width = '70%;'></div></div>","null","pos","CS","CS","2","category2/CS6.png","","","","",""
"","html-keyboard-response","73","617835","0.0-6.0-6.0-0.4","e1t3l4glta","many_one","0","indirect_first","0","nn05en08","1","31","1","1","3","1","","0","1","0","null","","","<div class = 'row'><div class = 'column'><img src = 'category2/CS4.png' width = '70%;'></div><div class = 'column'><img src = 'uspos/2040.bmp' width = '100%;'></div></div>","null","pos","CS","CS","2","category2/CS4.png","","","","",""
"","html-keyboard-response","74","620342","0.0-6.0-6.0-0.5","e1t3l4glta","many_one","0","indirect_first","0","nn05en08","1","31","1","1","3","1","","0","1","0","null","","","<div class = 'row'><div class = 'column'><img src = 'category4/CS9.png' width = '70%;'></div><div class = 'column'><img src = 'usneg/9330.bmp' width = '100%;'></div></div>","null","neg","CS","CS","4","category4/CS9.png","","","","",""
"","html-keyboard-response","75","622864","0.0-6.0-6.0-0.6","e1t3l4glta","many_one","0","indirect_first","0","nn05en08","1","31","1","1","3","1","","0","1","0","null","","","<div class = 'row'><div class = 'column'><img src = 'usneg/8485.bmp' width = '100%;'></div><div class = 'column'><img src = 'category3/CS4.png' width = '70%;'></div></div>","null","neg","CS","CS","3","category3/CS4.png","","","","",""
"","html-keyboard-response","76","625370","0.0-6.0-6.0-0.7","e1t3l4glta","many_one","0","indirect_first","0","nn05en08","1","31","1","1","3","1","","0","1","0","null","","","<div class = 'row'><div class = 'column'><img src = 'category2/CS2.png' width = '70%;'></div><div class = 'column'><img src = 'uspos/2341.bmp' width = '100%;'></div></div>","null","pos","CS","CS","2","category2/CS2.png","","","","",""
"","html-keyboard-response","77","627893","0.0-6.0-6.0-0.8","e1t3l4glta","many_one","0","indirect_first","0","nn05en08","1","31","1","1","3","1","","0","1","0","null","","","<div class = 'row'><div class = 'column'><img src = 'category4/CS6.png' width = '70%;'></div><div class = 'column'><img src = 'usneg/1280.bmp' width = '100%;'></div></div>","null","neg","CS","CS","4","category4/CS6.png","","","","",""
"","html-keyboard-response","78","630399","0.0-6.0-6.0-0.9","e1t3l4glta","many_one","0","indirect_first","0","nn05en08","1","31","1","1","3","1","","0","1","0","null","","","<div class = 'row'><div class = 'column'><img src = 'usneg/2141.bmp' width = '100%;'></div><div class = 'column'><img src = 'category3/CS2.png' width = '70%;'></div></div>","null","neg","CS","CS","3","category3/CS2.png","","","","",""
"","html-keyboard-response","79","632921","0.0-6.0-6.0-0.10","e1t3l4glta","many_one","0","indirect_first","0","nn05en08","1","31","1","1","3","1","","0","1","0","null","","","<div class = 'row'><div class = 'column'><img src = 'category3/CS9.png' width = '70%;'></div><div class = 'column'><img src = 'usneg/9340.bmp' width = '100%;'></div></div>","null","neg","CS","CS","3","category3/CS9.png","","","","",""
"","html-keyboard-response","80","635445","0.0-6.0-6.0-0.11","e1t3l4glta","many_one","0","indirect_first","0","nn05en08","1","31","1","1","3","1","","0","1","0","null","","","<div class = 'row'><div class = 'column'><img src = 'category4/CS10.png' width = '70%;'></div><div class = 'column'><img src = 'usneg/9220.bmp' width = '100%;'></div></div>","null","neg","CS","CS","4","category4/CS10.png","","","","",""
"","html-keyboard-response","81","637952","0.0-6.0-6.0-0.12","e1t3l4glta","many_one","0","indirect_first","0","nn05en08","1","31","1","1","3","1","","0","1","0","null","","","<div class = 'row'><div class = 'column'><img src = 'category4/CS2.png' width = '70%;'></div><div class = 'column'><img src = 'usneg/2900.bmp' width = '100%;'></div></div>","null","neg","CS","CS","4","category4/CS2.png","","","","",""
"","html-keyboard-response","82","640456","0.0-6.0-6.0-0.13","e1t3l4glta","many_one","0","indirect_first","0","nn05en08","1","31","1","1","3","1","","0","1","0","null","","","<div class = 'row'><div class = 'column'><img src = 'uspos/1710.bmp' width = '100%;'></div><div class = 'column'><img src = 'category2/CS10.png' width = '70%;'></div></div>","null","pos","CS","CS","2","category2/CS10.png","","","","",""
"","html-keyboard-response","83","642962","0.0-6.0-6.0-0.14","e1t3l4glta","many_one","0","indirect_first","0","nn05en08","1","31","1","1","3","1","","0","1","0","null","","","<div class = 'row'><div class = 'column'><img src = 'category4/CS8.png' width = '70%;'></div><div class = 'column'><img src = 'usneg/9520.bmp' width = '100%;'></div></div>","null","neg","CS","CS","4","category4/CS8.png","","","","",""
"","html-keyboard-response","84","645483","0.0-6.0-6.0-0.15","e1t3l4glta","many_one","0","indirect_first","0","nn05en08","1","31","1","1","3","1","","0","1","0","null","","","<div class = 'row'><div class = 'column'><img src = 'category1/CS3.png' width = '70%;'></div><div class = 'column'><img src = 'uspos/5629.bmp' width = '100%;'></div></div>","null","pos","CS","CS","1","category1/CS3.png","","","","",""
"","html-keyboard-response","85","648004","0.0-6.0-6.0-0.16","e1t3l4glta","many_one","0","indirect_first","0","nn05en08","1","31","1","1","3","1","","0","1","0","null","","","<div class = 'row'><div class = 'column'><img src = 'category3/CS8.png' width = '70%;'></div><div class = 'column'><img src = 'usneg/6020.bmp' width = '100%;'></div></div>","null","neg","CS","CS","3","category3/CS8.png","","","","",""
"","html-keyboard-response","86","650523","0.0-6.0-6.0-0.17","e1t3l4glta","many_one","0","indirect_first","0","nn05en08","1","31","1","1","3","1","","0","1","0","null","","","<div class = 'row'><div class = 'column'><img src = 'uspos/2057.bmp' width = '100%;'></div><div class = 'column'><img src = 'category1/CS8.png' width = '70%;'></div></div>","null","pos","CS","CS","1","category1/CS8.png","","","","",""
"","html-keyboard-response","87","653046","0.0-6.0-6.0-0.18","e1t3l4glta","many_one","0","indirect_first","0","nn05en08","1","31","1","1","3","1","","0","1","0","null","","","<div class = 'row'><div class = 'column'><img src = 'category2/CS5.png' width = '70%;'></div><div class = 'column'><img src = 'uspos/7325.bmp' width = '100%;'></div></div>","null","pos","CS","CS","2","category2/CS5.png","","","","",""
"","html-keyboard-response","88","655554","0.0-6.0-6.0-0.19","e1t3l4glta","many_one","0","indirect_first","0","nn05en08","1","31","1","1","3","1","","0","1","0","null","","","<div class = 'row'><div class = 'column'><img src = 'uspos/8190.bmp' width = '100%;'></div><div class = 'column'><img src = 'category1/CS5.png' width = '70%;'></div></div>","null","pos","CS","CS","1","category1/CS5.png","","","","",""
"","html-keyboard-response","89","723178","0.0-7.0","e1t3l4glta","many_one","0","indirect_first","0","nn05en08","1","31","1","1","3","1","","0","1","0","67123.03499999689","","","<p>Sie sehen nun die chinesischen Zeichen nur ganz kurz. Danach sehen Sie die jeweilige Aussprache der Zeichen als Silbe auf dem Bildschrim. Ihre Aufgabe ist es, für jede Silbe anzugeben, ob diese etwas angenehmes, oder unangenehmes bedeuten könnte. Verlassen Sie sich hier vor allem auf Ihre Intuition.<br><br>Die Zeichen werden nur zur Orientierung dargestellt, beachten Sie sie deshalb nicht. Konzentrieren Sie sich vor allem auf die Silben. <br>Reagieren Sie mit folgenden zwei Tasten: <br><br><b>'D' </b> wenn die Silbe etwas <b>unangenehmes</b> bedeuten könnte. <br><b>'K'</b> wenn die Silbe etwas <b>angenehmes</b> bedeuten könnte. <br><br>Bitte legen Sie nun den Zeigefinger der linken Hand auf die Taste 'D' und den Zeigefinger der rechten Hand auf die Taste 'K'. <br>Reagieren Sie auf jede Silbe so schnell wie möglich. Uns interessiert Ihre spontane Reaktion. <br> <br> <br>Drücken Sie 'D' oder 'K', um die nächste Aufgabe zu starten. </p>","68","","","","","","","","","",""
"","html-keyboard-response","90","726186","0.0-8.0-0.0","e1t3l4glta","many_one","0","indirect_first","0","nn05en08","1","31","1","1","3","1","","0","1","0","null","","","<div style=""font-size:60px;"">+</div>","null","","","","","","","","","",""
"","html-keyboard-response","91","726279","0.0-8.0-1.0","e1t3l4glta","many_one","0","indirect_first","0","nn05en08","1","31","1","1","3","1","","0","1","0","null","","","<img src = 'category3/CS2.png' width = '100%;'>","null","","","","","","","","","",""
"","html-keyboard-response","92","726544","0.0-8.0-2.0","e1t3l4glta","many_one","0","indirect_first","0","nn05en08","1","31","1","1","3","1","","0","1","0","null","","","<img src = 'targets/16.png' width = '100%;'>","null","","","","","","","","","",""
"","html-keyboard-response","93","727913","0.0-8.0-3.0","e1t3l4glta","many_one","0","indirect_first","0","nn05en08","1","31","1","1","3","1","","0","1","0","1368.030000012368","","","<img src = 'targets/mask.png' width = '100%;'>","75","neg","CS","CS","3","category3/CS2.png","targets/16.png","1","indirect","0",""
"","html-keyboard-response","94","729430","0.0-8.0-0.1","e1t3l4glta","many_one","0","indirect_first","0","nn05en08","1","31","1","1","3","1","","0","1","0","null","","","<div style=""font-size:60px;"">+</div>","null","","","","","","","","","",""
"","html-keyboard-response","95","729522","0.0-8.0-1.1","e1t3l4glta","many_one","0","indirect_first","0","nn05en08","1","31","1","1","3","1","","0","1","0","null","","","<img src = 'category4/CS6.png' width = '100%;'>","null","","","","","","","","","",""
"","html-keyboard-response","96","729799","0.0-8.0-2.1","e1t3l4glta","many_one","0","indirect_first","0","nn05en08","1","31","1","1","3","1","","0","1","0","null","","","<img src = 'targets/45.png' width = '100%;'>","null","","","","","","","","","",""
"","html-keyboard-response","97","730291","0.0-8.0-3.1","e1t3l4glta","many_one","0","indirect_first","0","nn05en08","1","31","1","1","3","1","","0","1","0","490.99500000011176","","","<img src = 'targets/mask.png' width = '100%;'>","68","neg","CS","CS","4","category4/CS6.png","targets/45.png","0","indirect","1",""
"","html-keyboard-response","98","731816","0.0-8.0-0.2","e1t3l4glta","many_one","0","indirect_first","0","nn05en08","1","31","1","1","3","1","","0","1","0","null","","","<div style=""font-size:60px;"">+</div>","null","","","","","","","","","",""
"","html-keyboard-response","99","731909","0.0-8.0-1.2","e1t3l4glta","many_one","0","indirect_first","0","nn05en08","1","31","1","1","3","1","","0","1","0","null","","","<img src = 'category1/CS5.png' width = '100%;'>","null","","","","","","","","","",""
"","html-keyboard-response","100","732171","0.0-8.0-2.2","e1t3l4glta","many_one","0","indirect_first","0","nn05en08","1","31","1","1","3","1","","0","1","0","null","","","<img src = 'targets/28.png' width = '100%;'>","null","","","","","","","","","",""
"","html-keyboard-response","101","732858","0.0-8.0-3.2","e1t3l4glta","many_one","0","indirect_first","0","nn05en08","1","31","1","1","3","1","","0","1","0","686.7649999912828","","","<img src = 'targets/mask.png' width = '100%;'>","68","pos","CS","CS","1","category1/CS5.png","targets/28.png","0","indirect","2",""
"","html-keyboard-response","102","734386","0.0-8.0-0.3","e1t3l4glta","many_one","0","indirect_first","0","nn05en08","1","31","1","1","3","1","","0","1","0","null","","","<div style=""font-size:60px;"">+</div>","null","","","","","","","","","",""
"","html-keyboard-response","103","734479","0.0-8.0-1.3","e1t3l4glta","many_one","0","indirect_first","0","nn05en08","1","31","1","1","3","1","","0","1","0","null","","","<img src = 'category1/CS4.png' width = '100%;'>","null","","","","","","","","","",""
"","html-keyboard-response","104","734740","0.0-8.0-2.3","e1t3l4glta","many_one","0","indirect_first","0","nn05en08","1","31","1","1","3","1","","0","1","0","null","","","<img src = 'targets/26.png' width = '100%;'>","null","","","","","","","","","",""
"","html-keyboard-response","105","736095","0.0-8.0-3.3","e1t3l4glta","many_one","0","indirect_first","0","nn05en08","1","31","1","1","3","1","","0","1","0","1355.1299999817275","","","<img src = 'targets/mask.png' width = '100%;'>","75","pos","CS","CS","1","category1/CS4.png","targets/26.png","1","indirect","3",""
"","html-keyboard-response","106","737614","0.0-8.0-0.4","e1t3l4glta","many_one","0","indirect_first","0","nn05en08","1","31","1","1","3","1","","0","1","0","null","","","<div style=""font-size:60px;"">+</div>","null","","","","","","","","","",""
"","html-keyboard-response","107","737711","0.0-8.0-1.4","e1t3l4glta","many_one","0","indirect_first","0","nn05en08","1","31","1","1","3","1","","0","1","0","null","","","<img src = 'category2/CS6.png' width = '100%;'>","null","","","","","","","","","",""
"","html-keyboard-response","108","737983","0.0-8.0-2.4","e1t3l4glta","many_one","0","indirect_first","0","nn05en08","1","31","1","1","3","1","","0","1","0","null","","","<img src = 'targets/39.png' width = '100%;'>","null","","","","","","","","","",""
"","html-keyboard-response","109","738429","0.0-8.0-3.4","e1t3l4glta","many_one","0","indirect_first","0","nn05en08","1","31","1","1","3","1","","0","1","0","445.17000002088025","","","<img src = 'targets/mask.png' width = '100%;'>","75","pos","CS","CS","2","category2/CS6.png","targets/39.png","1","indirect","4",""
"","html-keyboard-response","110","739952","0.0-8.0-0.5","e1t3l4glta","many_one","0","indirect_first","0","nn05en08","1","31","1","1","3","1","","0","1","0","null","","","<div style=""font-size:60px;"">+</div>","null","","","","","","","","","",""
"","html-keyboard-response","111","740043","0.0-8.0-1.5","e1t3l4glta","many_one","0","indirect_first","0","nn05en08","1","31","1","1","3","1","","0","1","0","null","","","<img src = 'category4/CS2.png' width = '100%;'>","null","","","","","","","","","",""
"","html-keyboard-response","112","740306","0.0-8.0-2.5","e1t3l4glta","many_one","0","indirect_first","0","nn05en08","1","31","1","1","3","1","","0","1","0","null","","","<img src = 'targets/38.png' width = '100%;'>","null","","","","","","","","","",""
"","html-keyboard-response","113","740690","0.0-8.0-3.5","e1t3l4glta","many_one","0","indirect_first","0","nn05en08","1","31","1","1","3","1","","0","1","0","383.66000005044043","","","<img src = 'targets/mask.png' width = '100%;'>","68","neg","CS","CS","4","category4/CS2.png","targets/38.png","0","indirect","5",""
"","html-keyboard-response","114","742210","0.0-8.0-0.6","e1t3l4glta","many_one","0","indirect_first","0","nn05en08","1","31","1","1","3","1","","0","1","0","null","","","<div style=""font-size:60px;"">+</div>","null","","","","","","","","","",""
"","html-keyboard-response","115","742303","0.0-8.0-1.6","e1t3l4glta","many_one","0","indirect_first","0","nn05en08","1","31","1","1","3","1","","0","1","0","null","","","<img src = 'category1/CS3.png' width = '100%;'>","null","","","","","","","","","",""
"","html-keyboard-response","116","742568","0.0-8.0-2.6","e1t3l4glta","many_one","0","indirect_first","0","nn05en08","1","31","1","1","3","1","","0","1","0","null","","","<img src = 'targets/11.png' width = '100%;'>","null","","","","","","","","","",""
"","html-keyboard-response","117","743322","0.0-8.0-3.6","e1t3l4glta","many_one","0","indirect_first","0","nn05en08","1","31","1","1","3","1","","0","1","0","752.6949999737553","","","<img src = 'targets/mask.png' width = '100%;'>","68","pos","CS","CS","1","category1/CS3.png","targets/11.png","0","indirect","6",""
"","html-keyboard-response","118","744843","0.0-8.0-0.7","e1t3l4glta","many_one","0","indirect_first","0","nn05en08","1","31","1","1","3","1","","0","1","0","null","","","<div style=""font-size:60px;"">+</div>","null","","","","","","","","","",""
"","html-keyboard-response","119","744935","0.0-8.0-1.7","e1t3l4glta","many_one","0","indirect_first","0","nn05en08","1","31","1","1","3","1","","0","1","0","null","","","<img src = 'category4/CS10.png' width = '100%;'>","null","","","","","","","","","",""
"","html-keyboard-response","120","745199","0.0-8.0-2.7","e1t3l4glta","many_one","0","indirect_first","0","nn05en08","1","31","1","1","3","1","","0","1","0","null","","","<img src = 'targets/25.png' width = '100%;'>","null","","","","","","","","","",""
"","html-keyboard-response","121","745772","0.0-8.0-3.7","e1t3l4glta","many_one","0","indirect_first","0","nn05en08","1","31","1","1","3","1","","0","1","0","572.2950000199489","","","<img src = 'targets/mask.png' width = '100%;'>","75","neg","CS","CS","4","category4/CS10.png","targets/25.png","1","indirect","7",""
"","html-keyboard-response","122","747289","0.0-8.0-0.8","e1t3l4glta","many_one","0","indirect_first","0","nn05en08","1","31","1","1","3","1","","0","1","0","null","","","<div style=""font-size:60px;"">+</div>","null","","","","","","","","","",""
"","html-keyboard-response","123","747380","0.0-8.0-1.8","e1t3l4glta","many_one","0","indirect_first","0","nn05en08","1","31","1","1","3","1","","0","1","0","null","","","<img src = 'category3/CS4.png' width = '100%;'>","null","","","","","","","","","",""
"","html-keyboard-response","124","747643","0.0-8.0-2.8","e1t3l4glta","many_one","0","indirect_first","0","nn05en08","1","31","1","1","3","1","","0","1","0","null","","","<img src = 'targets/31.png' width = '100%;'>","null","","","","","","","","","",""
"","html-keyboard-response","125","748367","0.0-8.0-3.8","e1t3l4glta","many_one","0","indirect_first","0","nn05en08","1","31","1","1","3","1","","0","1","0","722.7999999886379","","","<img src = 'targets/mask.png' width = '100%;'>","75","neg","CS","CS","3","category3/CS4.png","targets/31.png","1","indirect","8",""
"","html-keyboard-response","126","749888","0.0-8.0-0.9","e1t3l4glta","many_one","0","indirect_first","0","nn05en08","1","31","1","1","3","1","","0","1","0","null","","","<div style=""font-size:60px;"">+</div>","null","","","","","","","","","",""
"","html-keyboard-response","127","749979","0.0-8.0-1.9","e1t3l4glta","many_one","0","indirect_first","0","nn05en08","1","31","1","1","3","1","","0","1","0","null","","","<img src = 'category1/CS9.png' width = '100%;'>","null","","","","","","","","","",""
"","html-keyboard-response","128","750231","0.0-8.0-2.9","e1t3l4glta","many_one","0","indirect_first","0","nn05en08","1","31","1","1","3","1","","0","1","0","null","","","<img src = 'targets/37.png' width = '100%;'>","null","","","","","","","","","",""
"","html-keyboard-response","129","751915","0.0-8.0-3.9","e1t3l4glta","many_one","0","indirect_first","0","nn05en08","1","31","1","1","3","1","","0","1","0","1682.8150000073947","","","<img src = 'targets/mask.png' width = '100%;'>","68","pos","GS","GSold","1","category1/CS9.png","targets/37.png","0","indirect","9",""
"","html-keyboard-response","130","753436","0.0-8.0-0.10","e1t3l4glta","many_one","0","indirect_first","0","nn05en08","1","31","1","1","3","1","","0","1","0","null","","","<div style=""font-size:60px;"">+</div>","null","","","","","","","","","",""
"","html-keyboard-response","131","753527","0.0-8.0-1.10","e1t3l4glta","many_one","0","indirect_first","0","nn05en08","1","31","1","1","3","1","","0","1","0","null","","","<img src = 'category2/CS2.png' width = '100%;'>","null","","","","","","","","","",""
"","html-keyboard-response","132","753792","0.0-8.0-2.10","e1t3l4glta","many_one","0","indirect_first","0","nn05en08","1","31","1","1","3","1","","0","1","0","null","","","<img src = 'targets/3.png' width = '100%;'>","null","","","","","","","","","",""
"","html-keyboard-response","133","754630","0.0-8.0-3.10","e1t3l4glta","many_one","0","indirect_first","0","nn05en08","1","31","1","1","3","1","","0","1","0","836.3999999710359","","","<img src = 'targets/mask.png' width = '100%;'>","75","pos","CS","CS","2","category2/CS2.png","targets/3.png","1","indirect","10",""
"","html-keyboard-response","134","756156","0.0-8.0-0.11","e1t3l4glta","many_one","0","indirect_first","0","nn05en08","1","31","1","1","3","1","","0","1","0","null","","","<div style=""font-size:60px;"">+</div>","null","","","","","","","","","",""
"","html-keyboard-response","135","756247","0.0-8.0-1.11","e1t3l4glta","many_one","0","indirect_first","0","nn05en08","1","31","1","1","3","1","","0","1","0","null","","","<img src = 'category2/CS4.png' width = '100%;'>","null","","","","","","","","","",""
"","html-keyboard-response","136","756526","0.0-8.0-2.11","e1t3l4glta","many_one","0","indirect_first","0","nn05en08","1","31","1","1","3","1","","0","1","0","null","","","<img src = 'targets/47.png' width = '100%;'>","null","","","","","","","","","",""
"","html-keyboard-response","137","757848","0.0-8.0-3.11","e1t3l4glta","many_one","0","indirect_first","0","nn05en08","1","31","1","1","3","1","","0","1","0","1321.0700000054203","","","<img src = 'targets/mask.png' width = '100%;'>","68","pos","CS","CS","2","category2/CS4.png","targets/47.png","0","indirect","11",""
"","html-keyboard-response","138","759372","0.0-8.0-0.12","e1t3l4glta","many_one","0","indirect_first","0","nn05en08","1","31","1","1","3","1","","0","1","0","null","","","<div style=""font-size:60px;"">+</div>","null","","","","","","","","","",""
"","html-keyboard-response","139","759463","0.0-8.0-1.12","e1t3l4glta","many_one","0","indirect_first","0","nn05en08","1","31","1","1","3","1","","0","1","0","null","","","<img src = 'category2/CS5.png' width = '100%;'>","null","","","","","","","","","",""
"","html-keyboard-response","140","759729","0.0-8.0-2.12","e1t3l4glta","many_one","0","indirect_first","0","nn05en08","1","31","1","1","3","1","","0","1","0","null","","","<img src = 'targets/22.png' width = '100%;'>","null","","","","","","","","","",""
"","html-keyboard-response","141","761177","0.0-8.0-3.12","e1t3l4glta","many_one","0","indirect_first","0","nn05en08","1","31","1","1","3","1","","0","1","0","1447.1499999635853","","","<img src = 'targets/mask.png' width = '100%;'>","75","pos","CS","CS","2","category2/CS5.png","targets/22.png","1","indirect","12",""
"","html-keyboard-response","142","762692","0.0-8.0-0.13","e1t3l4glta","many_one","0","indirect_first","0","nn05en08","1","31","1","1","3","1","","0","1","0","null","","","<div style=""font-size:60px;"">+</div>","null","","","","","","","","","",""
"","html-keyboard-response","143","762785","0.0-8.0-1.13","e1t3l4glta","many_one","0","indirect_first","0","nn05en08","1","31","1","1","3","1","","0","1","0","null","","","<img src = 'category4/CS9.png' width = '100%;'>","null","","","","","","","","","",""
"","html-keyboard-response","144","763047","0.0-8.0-2.13","e1t3l4glta","many_one","0","indirect_first","0","nn05en08","1","31","1","1","3","1","","0","1","0","null","","","<img src = 'targets/48.png' width = '100%;'>","null","","","","","","","","","",""
"","html-keyboard-response","145","764265","0.0-8.0-3.13","e1t3l4glta","many_one","0","indirect_first","0","nn05en08","1","31","1","1","3","1","","0","1","0","1217.5699999788776","","","<img src = 'targets/mask.png' width = '100%;'>","68","neg","CS","CS","4","category4/CS9.png","targets/48.png","0","indirect","13",""
"","html-keyboard-response","146","765782","0.0-8.0-0.14","e1t3l4glta","many_one","0","indirect_first","0","nn05en08","1","31","1","1","3","1","","0","1","0","null","","","<div style=""font-size:60px;"">+</div>","null","","","","","","","","","",""
"","html-keyboard-response","147","765873","0.0-8.0-1.14","e1t3l4glta","many_one","0","indirect_first","0","nn05en08","1","31","1","1","3","1","","0","1","0","null","","","<img src = 'category3/CS3.png' width = '100%;'>","null","","","","","","","","","",""
"","html-keyboard-response","148","766150","0.0-8.0-2.14","e1t3l4glta","many_one","0","indirect_first","0","nn05en08","1","31","1","1","3","1","","0","1","0","null","","","<img src = 'targets/15.png' width = '100%;'>","null","","","","","","","","","",""
"","html-keyboard-response","149","767150","0.0-8.0-3.14","e1t3l4glta","many_one","0","indirect_first","0","nn05en08","1","31","1","1","3","1","","0","1","0","999.6249999967404","","","<img src = 'targets/mask.png' width = '100%;'>","68","neg","CS","CS","3","category3/CS3.png","targets/15.png","0","indirect","14",""
"","html-keyboard-response","150","768655","0.0-8.0-0.15","e1t3l4glta","many_one","0","indirect_first","0","nn05en08","1","31","1","1","3","1","","0","1","0","null","","","<div style=""font-size:60px;"">+</div>","null","","","","","","","","","",""
"","html-keyboard-response","151","768746","0.0-8.0-1.15","e1t3l4glta","many_one","0","indirect_first","0","nn05en08","1","31","1","1","3","1","","0","1","0","null","","","<img src = 'category1/CS2.png' width = '100%;'>","null","","","","","","","","","",""
"","html-keyboard-response","152","769012","0.0-8.0-2.15","e1t3l4glta","many_one","0","indirect_first","0","nn05en08","1","31","1","1","3","1","","0","1","0","null","","","<img src = 'targets/17.png' width = '100%;'>","null","","","","","","","","","",""
"","html-keyboard-response","153","769905","0.0-8.0-3.15","e1t3l4glta","many_one","0","indirect_first","0","nn05en08","1","31","1","1","3","1","","0","1","0","892.7100000437349","","","<img src = 'targets/mask.png' width = '100%;'>","75","pos","CS","CS","1","category1/CS2.png","targets/17.png","1","indirect","15",""
"","html-keyboard-response","154","771423","0.0-8.0-0.16","e1t3l4glta","many_one","0","indirect_first","0","nn05en08","1","31","1","1","3","1","","0","1","0","null","","","<div style=""font-size:60px;"">+</div>","null","","","","","","","","","",""
"","html-keyboard-response","155","771514","0.0-8.0-1.16","e1t3l4glta","many_one","0","indirect_first","0","nn05en08","1","31","1","1","3","1","","0","1","0","null","","","<img src = 'category3/CS9.png' width = '100%;'>","null","","","","","","","","","",""
"","html-keyboard-response","156","771766","0.0-8.0-2.16","e1t3l4glta","many_one","0","indirect_first","0","nn05en08","1","31","1","1","3","1","","0","1","0","null","","","<img src = 'targets/27.png' width = '100%;'>","null","","","","","","","","","",""
"","html-keyboard-response","157","773143","0.0-8.0-3.16","e1t3l4glta","many_one","0","indirect_first","0","nn05en08","1","31","1","1","3","1","","0","1","0","1376.4199999859557","","","<img src = 'targets/mask.png' width = '100%;'>","75","neg","CS","CS","3","category3/CS9.png","targets/27.png","1","indirect","16",""
"","html-keyboard-response","158","774668","0.0-8.0-0.17","e1t3l4glta","many_one","0","indirect_first","0","nn05en08","1","31","1","1","3","1","","0","1","0","null","","","<div style=""font-size:60px;"">+</div>","null","","","","","","","","","",""
"","html-keyboard-response","159","774759","0.0-8.0-1.17","e1t3l4glta","many_one","0","indirect_first","0","nn05en08","1","31","1","1","3","1","","0","1","0","null","","","<img src = 'category3/CS8.png' width = '100%;'>","null","","","","","","","","","",""
"","html-keyboard-response","160","775024","0.0-8.0-2.17","e1t3l4glta","many_one","0","indirect_first","0","nn05en08","1","31","1","1","3","1","","0","1","0","null","","","<img src = 'targets/35.png' width = '100%;'>","null","","","","","","","","","",""
"","html-keyboard-response","161","775677","0.0-8.0-3.17","e1t3l4glta","many_one","0","indirect_first","0","nn05en08","1","31","1","1","3","1","","0","1","0","652.6600000215694","","","<img src = 'targets/mask.png' width = '100%;'>","68","neg","CS","CS","3","category3/CS8.png","targets/35.png","0","indirect","17",""
"","html-keyboard-response","162","777203","0.0-8.0-0.18","e1t3l4glta","many_one","0","indirect_first","0","nn05en08","1","31","1","1","3","1","","0","1","0","null","","","<div style=""font-size:60px;"">+</div>","null","","","","","","","","","",""
"","html-keyboard-response","163","777295","0.0-8.0-1.18","e1t3l4glta","many_one","0","indirect_first","0","nn05en08","1","31","1","1","3","1","","0","1","0","null","","","<img src = 'category1/CS8.png' width = '100%;'>","null","","","","","","","","","",""
"","html-keyboard-response","164","777558","0.0-8.0-2.18","e1t3l4glta","many_one","0","indirect_first","0","nn05en08","1","31","1","1","3","1","","0","1","0","null","","","<img src = 'targets/41.png' width = '100%;'>","null","","","","","","","","","",""
"","html-keyboard-response","165","778100","0.0-8.0-3.18","e1t3l4glta","many_one","0","indirect_first","0","nn05en08","1","31","1","1","3","1","","0","1","0","541.3149999803863","","","<img src = 'targets/mask.png' width = '100%;'>","75","pos","CS","CS","1","category1/CS8.png","targets/41.png","1","indirect","18",""
"","html-keyboard-response","166","779616","0.0-8.0-0.19","e1t3l4glta","many_one","0","indirect_first","0","nn05en08","1","31","1","1","3","1","","0","1","0","null","","","<div style=""font-size:60px;"">+</div>","null","","","","","","","","","",""
"","html-keyboard-response","167","779708","0.0-8.0-1.19","e1t3l4glta","many_one","0","indirect_first","0","nn05en08","1","31","1","1","3","1","","0","1","0","null","","","<img src = 'category4/CS4.png' width = '100%;'>","null","","","","","","","","","",""
"","html-keyboard-response","168","779985","0.0-8.0-2.19","e1t3l4glta","many_one","0","indirect_first","0","nn05en08","1","31","1","1","3","1","","0","1","0","null","","","<img src = 'targets/19.png' width = '100%;'>","null","","","","","","","","","",""
"","html-keyboard-response","169","781478","0.0-8.0-3.19","e1t3l4glta","many_one","0","indirect_first","0","nn05en08","1","31","1","1","3","1","","0","1","0","1492.435000021942","","","<img src = 'targets/mask.png' width = '100%;'>","75","neg","GS","GSold","4","category4/CS4.png","targets/19.png","1","indirect","19",""
"","html-keyboard-response","170","783003","0.0-8.0-0.20","e1t3l4glta","many_one","0","indirect_first","0","nn05en08","1","31","1","1","3","1","","0","1","0","null","","","<div style=""font-size:60px;"">+</div>","null","","","","","","","","","",""
"","html-keyboard-response","171","783094","0.0-8.0-1.20","e1t3l4glta","many_one","0","indirect_first","0","nn05en08","1","31","1","1","3","1","","0","1","0","null","","","<img src = 'category4/CS8.png' width = '100%;'>","null","","","","","","","","","",""
"","html-keyboard-response","172","783359","0.0-8.0-2.20","e1t3l4glta","many_one","0","indirect_first","0","nn05en08","1","31","1","1","3","1","","0","1","0","null","","","<img src = 'targets/5.png' width = '100%;'>","null","","","","","","","","","",""
"","html-keyboard-response","173","783951","0.0-8.0-3.20","e1t3l4glta","many_one","0","indirect_first","0","nn05en08","1","31","1","1","3","1","","0","1","0","591.4450000273064","","","<img src = 'targets/mask.png' width = '100%;'>","68","neg","CS","CS","4","category4/CS8.png","targets/5.png","0","indirect","20",""
"","html-keyboard-response","174","785476","0.0-8.0-0.21","e1t3l4glta","many_one","0","indirect_first","0","nn05en08","1","31","1","1","3","1","","0","1","0","null","","","<div style=""font-size:60px;"">+</div>","null","","","","","","","","","",""
"","html-keyboard-response","175","785568","0.0-8.0-1.21","e1t3l4glta","many_one","0","indirect_first","0","nn05en08","1","31","1","1","3","1","","0","1","0","null","","","<img src = 'category2/CS10.png' width = '100%;'>","null","","","","","","","","","",""
"","html-keyboard-response","176","785832","0.0-8.0-2.21","e1t3l4glta","many_one","0","indirect_first","0","nn05en08","1","31","1","1","3","1","","0","1","0","null","","","<img src = 'targets/6.png' width = '100%;'>","null","","","","","","","","","",""
"","html-keyboard-response","177","787410","0.0-8.0-3.21","e1t3l4glta","many_one","0","indirect_first","0","nn05en08","1","31","1","1","3","1","","0","1","0","1577.1450000465848","","","<img src = 'targets/mask.png' width = '100%;'>","68","pos","CS","CS","2","category2/CS10.png","targets/6.png","0","indirect","21",""
"","html-keyboard-response","178","788935","0.0-8.0-0.22","e1t3l4glta","many_one","0","indirect_first","0","nn05en08","1","31","1","1","3","1","","0","1","0","null","","","<div style=""font-size:60px;"">+</div>","null","","","","","","","","","",""
"","html-keyboard-response","179","789028","0.0-8.0-1.22","e1t3l4glta","many_one","0","indirect_first","0","nn05en08","1","31","1","1","3","1","","0","1","0","null","","","<img src = 'category4/CS1.png' width = '100%;'>","null","","","","","","","","","",""
"","html-keyboard-response","180","789292","0.0-8.0-2.22","e1t3l4glta","many_one","0","indirect_first","0","nn05en08","1","31","1","1","3","1","","0","1","0","null","","","<img src = 'targets/7.png' width = '100%;'>","null","","","","","","","","","",""
"","html-keyboard-response","181","789810","0.0-8.0-3.22","e1t3l4glta","many_one","0","indirect_first","0","nn05en08","1","31","1","1","3","1","","0","1","0","516.9950000126846","","","<img src = 'targets/mask.png' width = '100%;'>","75","neg","GS","GSold","4","category4/CS1.png","targets/7.png","1","indirect","22",""
"","html-keyboard-response","182","791321","0.0-8.0-0.23","e1t3l4glta","many_one","0","indirect_first","0","nn05en08","1","31","1","1","3","1","","0","1","0","null","","","<div style=""font-size:60px;"">+</div>","null","","","","","","","","","",""
"","html-keyboard-response","183","791414","0.0-8.0-1.23","e1t3l4glta","many_one","0","indirect_first","0","nn05en08","1","31","1","1","3","1","","0","1","0","null","","","<img src = 'category4/CS5.png' width = '100%;'>","null","","","","","","","","","",""
"","html-keyboard-response","184","791677","0.0-8.0-2.23","e1t3l4glta","many_one","0","indirect_first","0","nn05en08","1","31","1","1","3","1","","0","1","0","null","","","<img src = 'targets/1.png' width = '100%;'>","null","","","","","","","","","",""
"","html-keyboard-response","185","792273","0.0-8.0-3.23","e1t3l4glta","many_one","0","indirect_first","0","nn05en08","1","31","1","1","3","1","","0","1","0","594.5950000314042","","","<img src = 'targets/mask.png' width = '100%;'>","75","neg","GS","GSold","4","category4/CS5.png","targets/1.png","1","indirect","23",""
"","survey-html-form","186","806096","0.0-9.0","e1t3l4glta","many_one","0","indirect_first","0","nn05en08","1","31","1","1","3","1","","0","1","0","13313.680000021122","","{}","","","","","","","","","","","",""
"","html-keyboard-response","187","809106","0.0-10.0-0.0","e1t3l4glta","many_one","0","indirect_first","0","nn05en08","1","31","1","1","3","1","","0","1","0","null","","","<div style=""font-size:60px;"">+</div>","null","","","","","","","","","",""
"","html-keyboard-response","188","809213","0.0-10.0-1.0","e1t3l4glta","many_one","0","indirect_first","0","nn05en08","1","31","1","1","3","1","","0","1","0","null","","","<img src = 'category2/GS2.png' width = '100%;'>","null","","","","","","","","","",""
"","html-keyboard-response","189","809465","0.0-10.0-2.0","e1t3l4glta","many_one","0","indirect_first","0","nn05en08","1","31","1","1","3","1","","0","1","0","null","","","<img src = 'targets/24.png' width = '100%;'>","null","","","","","","","","","",""
"","html-keyboard-response","190","809592","0.0-10.0-3.0","e1t3l4glta","many_one","0","indirect_first","0","nn05en08","1","31","1","1","3","1","","0","1","0","125.20000000949949","","","<img src = 'targets/mask.png' width = '100%;'>","75","pos","GS","GSnew","2","category2/GS2.png","targets/24.png","1","indirect","24",""
"","html-keyboard-response","191","811120","0.0-10.0-0.1","e1t3l4glta","many_one","0","indirect_first","0","nn05en08","1","31","1","1","3","1","","0","1","0","null","","","<div style=""font-size:60px;"">+</div>","null","","","","","","","","","",""
"","html-keyboard-response","192","811212","0.0-10.0-1.1","e1t3l4glta","many_one","0","indirect_first","0","nn05en08","1","31","1","1","3","1","","0","1","0","null","","","<img src = 'category1/GS1.png' width = '100%;'>","null","","","","","","","","","",""
"","html-keyboard-response","193","811489","0.0-10.0-2.1","e1t3l4glta","many_one","0","indirect_first","0","nn05en08","1","31","1","1","3","1","","0","1","0","null","","","<img src = 'targets/32.png' width = '100%;'>","null","","","","","","","","","",""
"","html-keyboard-response","194","812211","0.0-10.0-3.1","e1t3l4glta","many_one","0","indirect_first","0","nn05en08","1","31","1","1","3","1","","0","1","0","721.2099999887869","","","<img src = 'targets/mask.png' width = '100%;'>","68","pos","GS","GSnew","1","category1/GS1.png","targets/32.png","0","indirect","25",""
"","html-keyboard-response","195","813731","0.0-10.0-0.2","e1t3l4glta","many_one","0","indirect_first","0","nn05en08","1","31","1","1","3","1","","0","1","0","null","","","<div style=""font-size:60px;"">+</div>","null","","","","","","","","","",""
"","html-keyboard-response","196","813822","0.0-10.0-1.2","e1t3l4glta","many_one","0","indirect_first","0","nn05en08","1","31","1","1","3","1","","0","1","0","null","","","<img src = 'category2/GS3.png' width = '100%;'>","null","","","","","","","","","",""
"","html-keyboard-response","197","814074","0.0-10.0-2.2","e1t3l4glta","many_one","0","indirect_first","0","nn05en08","1","31","1","1","3","1","","0","1","0","null","","","<img src = 'targets/29.png' width = '100%;'>","null","","","","","","","","","",""
"","html-keyboard-response","198","814562","0.0-10.0-3.2","e1t3l4glta","many_one","0","indirect_first","0","nn05en08","1","31","1","1","3","1","","0","1","0","487.5850000535138","","","<img src = 'targets/mask.png' width = '100%;'>","68","pos","GS","GSnew","2","category2/GS3.png","targets/29.png","0","indirect","26",""
"","html-keyboard-response","199","816082","0.0-10.0-0.3","e1t3l4glta","many_one","0","indirect_first","0","nn05en08","1","31","1","1","3","1","","0","1","0","null","","","<div style=""font-size:60px;"">+</div>","null","","","","","","","","","",""
"","html-keyboard-response","200","816189","0.0-10.0-1.3","e1t3l4glta","many_one","0","indirect_first","0","nn05en08","1","31","1","1","3","1","","0","1","0","null","","","<img src = 'category3/CS6.png' width = '100%;'>","null","","","","","","","","","",""
"","html-keyboard-response","201","816467","0.0-10.0-2.3","e1t3l4glta","many_one","0","indirect_first","0","nn05en08","1","31","1","1","3","1","","0","1","0","null","","","<img src = 'targets/40.png' width = '100%;'>","null","","","","","","","","","",""
"","html-keyboard-response","202","817588","0.0-10.0-3.3","e1t3l4glta","many_one","0","indirect_first","0","nn05en08","1","31","1","1","3","1","","0","1","0","1121.099999989383","","","<img src = 'targets/mask.png' width = '100%;'>","75","neg","GS","GSold","3","category3/CS6.png","targets/40.png","1","indirect","27",""
"","html-keyboard-response","203","819100","0.0-10.0-0.4","e1t3l4glta","many_one","0","indirect_first","0","nn05en08","1","31","1","1","3","1","","0","1","0","null","","","<div style=""font-size:60px;"">+</div>","null","","","","","","","","","",""
"","html-keyboard-response","204","819192","0.0-10.0-1.4","e1t3l4glta","many_one","0","indirect_first","0","nn05en08","1","31","1","1","3","1","","0","1","0","null","","","<img src = 'category3/wang.png' width = '100%;'>","null","","","","","","","","","",""
"","html-keyboard-response","205","819468","0.0-10.0-2.4","e1t3l4glta","many_one","0","indirect_first","0","nn05en08","1","31","1","1","3","1","","0","1","0","null","","","<img src = 'targets/46.png' width = '100%;'>","null","","","","","","","","","",""
"","html-keyboard-response","206","820541","0.0-10.0-3.4","e1t3l4glta","many_one","0","indirect_first","0","nn05en08","1","31","1","1","3","1","","0","1","0","1072.1100000082515","","","<img src = 'targets/mask.png' width = '100%;'>","75","neg","GS","abstract","3","category3/wang.png","targets/46.png","1","indirect","28",""
"","html-keyboard-response","207","822068","0.0-10.0-0.5","e1t3l4glta","many_one","0","indirect_first","0","nn05en08","1","31","1","1","3","1","","0","1","0","null","","","<div style=""font-size:60px;"">+</div>","null","","","","","","","","","",""
"","html-keyboard-response","208","822159","0.0-10.0-1.5","e1t3l4glta","many_one","0","indirect_first","0","nn05en08","1","31","1","1","3","1","","0","1","0","null","","","<img src = 'category1/ma.png' width = '100%;'>","null","","","","","","","","","",""
"","html-keyboard-response","209","822437","0.0-10.0-2.5","e1t3l4glta","many_one","0","indirect_first","0","nn05en08","1","31","1","1","3","1","","0","1","0","null","","","<img src = 'targets/44.png' width = '100%;'>","null","","","","","","","","","",""
"","html-keyboard-response","210","822967","0.0-10.0-3.5","e1t3l4glta","many_one","0","indirect_first","0","nn05en08","1","31","1","1","3","1","","0","1","0","529.1999999899417","","","<img src = 'targets/mask.png' width = '100%;'>","68","pos","GS","abstract","1","category1/ma.png","targets/44.png","0","indirect","29",""
"","html-keyboard-response","211","824496","0.0-10.0-0.6","e1t3l4glta","many_one","0","indirect_first","0","nn05en08","1","31","1","1","3","1","","0","1","0","null","","","<div style=""font-size:60px;"">+</div>","null","","","","","","","","","",""
"","html-keyboard-response","212","824588","0.0-10.0-1.6","e1t3l4glta","many_one","0","indirect_first","0","nn05en08","1","31","1","1","3","1","","0","1","0","null","","","<img src = 'category4/GS1.png' width = '100%;'>","null","","","","","","","","","",""
"","html-keyboard-response","213","824864","0.0-10.0-2.6","e1t3l4glta","many_one","0","indirect_first","0","nn05en08","1","31","1","1","3","1","","0","1","0","null","","","<img src = 'targets/13.png' width = '100%;'>","null","","","","","","","","","",""
"","html-keyboard-response","214","825678","0.0-10.0-3.6","e1t3l4glta","many_one","0","indirect_first","0","nn05en08","1","31","1","1","3","1","","0","1","0","813.3149999775924","","","<img src = 'targets/mask.png' width = '100%;'>","75","neg","GS","GSnew","4","category4/GS1.png","targets/13.png","1","indirect","30",""
"","html-keyboard-response","215","827201","0.0-10.0-0.7","e1t3l4glta","many_one","0","indirect_first","0","nn05en08","1","31","1","1","3","1","","0","1","0","null","","","<div style=""font-size:60px;"">+</div>","null","","","","","","","","","",""
"","html-keyboard-response","216","827292","0.0-10.0-1.7","e1t3l4glta","many_one","0","indirect_first","0","nn05en08","1","31","1","1","3","1","","0","1","0","null","","","<img src = 'category2/men.png' width = '100%;'>","null","","","","","","","","","",""
"","html-keyboard-response","217","827571","0.0-10.0-2.7","e1t3l4glta","many_one","0","indirect_first","0","nn05en08","1","31","1","1","3","1","","0","1","0","null","","","<img src = 'targets/2.png' width = '100%;'>","null","","","","","","","","","",""
"","html-keyboard-response","218","828702","0.0-10.0-3.7","e1t3l4glta","many_one","0","indirect_first","0","nn05en08","1","31","1","1","3","1","","0","1","0","1130.1150000072084","","","<img src = 'targets/mask.png' width = '100%;'>","75","pos","GS","abstract","2","category2/men.png","targets/2.png","1","indirect","31",""
"","html-keyboard-response","219","830230","0.0-10.0-0.8","e1t3l4glta","many_one","0","indirect_first","0","nn05en08","1","31","1","1","3","1","","0","1","0","null","","","<div style=""font-size:60px;"">+</div>","null","","","","","","","","","",""
"","html-keyboard-response","220","830323","0.0-10.0-1.8","e1t3l4glta","many_one","0","indirect_first","0","nn05en08","1","31","1","1","3","1","","0","1","0","null","","","<img src = 'category2/CS9.png' width = '100%;'>","null","","","","","","","","","",""
"","html-keyboard-response","221","830587","0.0-10.0-2.8","e1t3l4glta","many_one","0","indirect_first","0","nn05en08","1","31","1","1","3","1","","0","1","0","null","","","<img src = 'targets/36.png' width = '100%;'>","null","","","","","","","","","",""
"","html-keyboard-response","222","831602","0.0-10.0-3.8","e1t3l4glta","many_one","0","indirect_first","0","nn05en08","1","31","1","1","3","1","","0","1","0","1014.6899999817833","","","<img src = 'targets/mask.png' width = '100%;'>","75","pos","GS","GSold","2","category2/CS9.png","targets/36.png","1","indirect","32",""
"","html-keyboard-response","223","833120","0.0-10.0-0.9","e1t3l4glta","many_one","0","indirect_first","0","nn05en08","1","31","1","1","3","1","","0","1","0","null","","","<div style=""font-size:60px;"">+</div>","null","","","","","","","","","",""
"","html-keyboard-response","224","833211","0.0-10.0-1.9","e1t3l4glta","many_one","0","indirect_first","0","nn05en08","1","31","1","1","3","1","","0","1","0","null","","","<img src = 'category2/CS7.png' width = '100%;'>","null","","","","","","","","","",""
"","html-keyboard-response","225","833489","0.0-10.0-2.9","e1t3l4glta","many_one","0","indirect_first","0","nn05en08","1","31","1","1","3","1","","0","1","0","null","","","<img src = 'targets/30.png' width = '100%;'>","null","","","","","","","","","",""
"","html-keyboard-response","226","834460","0.0-10.0-3.9","e1t3l4glta","many_one","0","indirect_first","0","nn05en08","1","31","1","1","3","1","","0","1","0","970.0249999877997","","","<img src = 'targets/mask.png' width = '100%;'>","68","pos","GS","GSold","2","category2/CS7.png","targets/30.png","0","indirect","33",""
"","html-keyboard-response","227","835981","0.0-10.0-0.10","e1t3l4glta","many_one","0","indirect_first","0","nn05en08","1","31","1","1","3","1","","0","1","0","null","","","<div style=""font-size:60px;"">+</div>","null","","","","","","","","","",""
"","html-keyboard-response","228","836072","0.0-10.0-1.10","e1t3l4glta","many_one","0","indirect_first","0","nn05en08","1","31","1","1","3","1","","0","1","0","null","","","<img src = 'category3/GS2.png' width = '100%;'>","null","","","","","","","","","",""
"","html-keyboard-response","229","836350","0.0-10.0-2.10","e1t3l4glta","many_one","0","indirect_first","0","nn05en08","1","31","1","1","3","1","","0","1","0","null","","","<img src = 'targets/42.png' width = '100%;'>","null","","","","","","","","","",""
"","html-keyboard-response","230","837597","0.0-10.0-3.10","e1t3l4glta","many_one","0","indirect_first","0","nn05en08","1","31","1","1","3","1","","0","1","0","1246.0050000227056","","","<img src = 'targets/mask.png' width = '100%;'>","68","neg","GS","GSnew","3","category3/GS2.png","targets/42.png","0","indirect","34",""
"","html-keyboard-response","231","839118","0.0-10.0-0.11","e1t3l4glta","many_one","0","indirect_first","0","nn05en08","1","31","1","1","3","1","","0","1","0","null","","","<div style=""font-size:60px;"">+</div>","null","","","","","","","","","",""
"","html-keyboard-response","232","839210","0.0-10.0-1.11","e1t3l4glta","many_one","0","indirect_first","0","nn05en08","1","31","1","1","3","1","","0","1","0","null","","","<img src = 'category4/GS3.png' width = '100%;'>","null","","","","","","","","","",""
"","html-keyboard-response","233","839462","0.0-10.0-2.11","e1t3l4glta","many_one","0","indirect_first","0","nn05en08","1","31","1","1","3","1","","0","1","0","null","","","<img src = 'targets/18.png' width = '100%;'>","null","","","","","","","","","",""
"","html-keyboard-response","234","840067","0.0-10.0-3.11","e1t3l4glta","many_one","0","indirect_first","0","nn05en08","1","31","1","1","3","1","","0","1","0","603.8249999983236","","","<img src = 'targets/mask.png' width = '100%;'>","75","neg","GS","GSnew","4","category4/GS3.png","targets/18.png","1","indirect","35",""
"","html-keyboard-response","235","841590","0.0-10.0-0.12","e1t3l4glta","many_one","0","indirect_first","0","nn05en08","1","31","1","1","3","1","","0","1","0","null","","","<div style=""font-size:60px;"">+</div>","null","","","","","","","","","",""
"","html-keyboard-response","236","841683","0.0-10.0-1.12","e1t3l4glta","many_one","0","indirect_first","0","nn05en08","1","31","1","1","3","1","","0","1","0","null","","","<img src = 'category3/CS1.png' width = '100%;'>","null","","","","","","","","","",""
"","html-keyboard-response","237","841946","0.0-10.0-2.12","e1t3l4glta","many_one","0","indirect_first","0","nn05en08","1","31","1","1","3","1","","0","1","0","null","","","<img src = 'targets/4.png' width = '100%;'>","null","","","","","","","","","",""
"","html-keyboard-response","238","842516","0.0-10.0-3.12","e1t3l4glta","many_one","0","indirect_first","0","nn05en08","1","31","1","1","3","1","","0","1","0","568.2150000357069","","","<img src = 'targets/mask.png' width = '100%;'>","68","neg","GS","GSold","3","category3/CS1.png","targets/4.png","0","indirect","36",""
"","html-keyboard-response","239","844032","0.0-10.0-0.13","e1t3l4glta","many_one","0","indirect_first","0","nn05en08","1","31","1","1","3","1","","0","1","0","null","","","<div style=""font-size:60px;"">+</div>","null","","","","","","","","","",""
"","html-keyboard-response","240","844124","0.0-10.0-1.13","e1t3l4glta","many_one","0","indirect_first","0","nn05en08","1","31","1","1","3","1","","0","1","0","null","","","<img src = 'category3/GS1.png' width = '100%;'>","null","","","","","","","","","",""
"","html-keyboard-response","241","844387","0.0-10.0-2.13","e1t3l4glta","many_one","0","indirect_first","0","nn05en08","1","31","1","1","3","1","","0","1","0","null","","","<img src = 'targets/10.png' width = '100%;'>","null","","","","","","","","","",""
"","html-keyboard-response","242","844612","0.0-10.0-3.13","e1t3l4glta","many_one","0","indirect_first","0","nn05en08","1","31","1","1","3","1","","0","1","0","224.71500001847744","","","<img src = 'targets/mask.png' width = '100%;'>","75","neg","GS","GSnew","3","category3/GS1.png","targets/10.png","1","indirect","37",""
"","html-keyboard-response","243","846134","0.0-10.0-0.14","e1t3l4glta","many_one","0","indirect_first","0","nn05en08","1","31","1","1","3","1","","0","1","0","null","","","<div style=""font-size:60px;"">+</div>","null","","","","","","","","","",""
"","html-keyboard-response","244","846227","0.0-10.0-1.14","e1t3l4glta","many_one","0","indirect_first","0","nn05en08","1","31","1","1","3","1","","0","1","0","null","","","<img src = 'category1/CS6.png' width = '100%;'>","null","","","","","","","","","",""
"","html-keyboard-response","245","846492","0.0-10.0-2.14","e1t3l4glta","many_one","0","indirect_first","0","nn05en08","1","31","1","1","3","1","","0","1","0","null","","","<img src = 'targets/14.png' width = '100%;'>","null","","","","","","","","","",""
"","html-keyboard-response","246","846997","0.0-10.0-3.14","e1t3l4glta","many_one","0","indirect_first","0","nn05en08","1","31","1","1","3","1","","0","1","0","504.24999999813735","","","<img src = 'targets/mask.png' width = '100%;'>","75","pos","GS","GSold","1","category1/CS6.png","targets/14.png","1","indirect","38",""
"","html-keyboard-response","247","848519","0.0-10.0-0.15","e1t3l4glta","many_one","0","indirect_first","0","nn05en08","1","31","1","1","3","1","","0","1","0","null","","","<div style=""font-size:60px;"">+</div>","null","","","","","","","","","",""
"","html-keyboard-response","248","848609","0.0-10.0-1.15","e1t3l4glta","many_one","0","indirect_first","0","nn05en08","1","31","1","1","3","1","","0","1","0","null","","","<img src = 'category2/GS1.png' width = '100%;'>","null","","","","","","","","","",""
"","html-keyboard-response","249","848887","0.0-10.0-2.15","e1t3l4glta","many_one","0","indirect_first","0","nn05en08","1","31","1","1","3","1","","0","1","0","null","","","<img src = 'targets/33.png' width = '100%;'>","null","","","","","","","","","",""
"","html-keyboard-response","250","849709","0.0-10.0-3.15","e1t3l4glta","many_one","0","indirect_first","0","nn05en08","1","31","1","1","3","1","","0","1","0","820.6399999908172","","","<img src = 'targets/mask.png' width = '100%;'>","75","pos","GS","GSnew","2","category2/GS1.png","targets/33.png","1","indirect","39",""
"","html-keyboard-response","251","851239","0.0-10.0-0.16","e1t3l4glta","many_one","0","indirect_first","0","nn05en08","1","31","1","1","3","1","","0","1","0","null","","","<div style=""font-size:60px;"">+</div>","null","","","","","","","","","",""
"","html-keyboard-response","252","851331","0.0-10.0-1.16","e1t3l4glta","many_one","0","indirect_first","0","nn05en08","1","31","1","1","3","1","","0","1","0","null","","","<img src = 'category1/GS3.png' width = '100%;'>","null","","","","","","","","","",""
"","html-keyboard-response","253","851595","0.0-10.0-2.16","e1t3l4glta","many_one","0","indirect_first","0","nn05en08","1","31","1","1","3","1","","0","1","0","null","","","<img src = 'targets/21.png' width = '100%;'>","null","","","","","","","","","",""
"","html-keyboard-response","254","852552","0.0-10.0-3.16","e1t3l4glta","many_one","0","indirect_first","0","nn05en08","1","31","1","1","3","1","","0","1","0","956.6299999714829","","","<img src = 'targets/mask.png' width = '100%;'>","68","pos","GS","GSnew","1","category1/GS3.png","targets/21.png","0","indirect","40",""
"","html-keyboard-response","255","854082","0.0-10.0-0.17","e1t3l4glta","many_one","0","indirect_first","0","nn05en08","1","31","1","1","3","1","","0","1","0","null","","","<div style=""font-size:60px;"">+</div>","null","","","","","","","","","",""
"","html-keyboard-response","256","854173","0.0-10.0-1.17","e1t3l4glta","many_one","0","indirect_first","0","nn05en08","1","31","1","1","3","1","","0","1","0","null","","","<img src = 'category1/GS2.png' width = '100%;'>","null","","","","","","","","","",""
"","html-keyboard-response","257","854452","0.0-10.0-2.17","e1t3l4glta","many_one","0","indirect_first","0","nn05en08","1","31","1","1","3","1","","0","1","0","null","","","<img src = 'targets/34.png' width = '100%;'>","null","","","","","","","","","",""
"","html-keyboard-response","258","855101","0.0-10.0-3.17","e1t3l4glta","many_one","0","indirect_first","0","nn05en08","1","31","1","1","3","1","","0","1","0","648.7250000354834","","","<img src = 'targets/mask.png' width = '100%;'>","68","pos","GS","GSnew","1","category1/GS2.png","targets/34.png","0","indirect","41",""
"","html-keyboard-response","259","856619","0.0-10.0-0.18","e1t3l4glta","many_one","0","indirect_first","0","nn05en08","1","31","1","1","3","1","","0","1","0","null","","","<div style=""font-size:60px;"">+</div>","null","","","","","","","","","",""
"","html-keyboard-response","260","856709","0.0-10.0-1.18","e1t3l4glta","many_one","0","indirect_first","0","nn05en08","1","31","1","1","3","1","","0","1","0","null","","","<img src = 'category4/lin.png' width = '100%;'>","null","","","","","","","","","",""
"","html-keyboard-response","261","856962","0.0-10.0-2.18","e1t3l4glta","many_one","0","indirect_first","0","nn05en08","1","31","1","1","3","1","","0","1","0","null","","","<img src = 'targets/20.png' width = '100%;'>","null","","","","","","","","","",""
"","html-keyboard-response","262","857505","0.0-10.0-3.18","e1t3l4glta","many_one","0","indirect_first","0","nn05en08","1","31","1","1","3","1","","0","1","0","543.3499999926426","","","<img src = 'targets/mask.png' width = '100%;'>","75","neg","GS","abstract","4","category4/lin.png","targets/20.png","1","indirect","42",""
"","html-keyboard-response","263","859033","0.0-10.0-0.19","e1t3l4glta","many_one","0","indirect_first","0","nn05en08","1","31","1","1","3","1","","0","1","0","null","","","<div style=""font-size:60px;"">+</div>","null","","","","","","","","","",""
"","html-keyboard-response","264","859124","0.0-10.0-1.19","e1t3l4glta","many_one","0","indirect_first","0","nn05en08","1","31","1","1","3","1","","0","1","0","null","","","<img src = 'category1/CS10.png' width = '100%;'>","null","","","","","","","","","",""
"","html-keyboard-response","265","859387","0.0-10.0-2.19","e1t3l4glta","many_one","0","indirect_first","0","nn05en08","1","31","1","1","3","1","","0","1","0","null","","","<img src = 'targets/23.png' width = '100%;'>","null","","","","","","","","","",""
"","html-keyboard-response","266","859961","0.0-10.0-3.19","e1t3l4glta","many_one","0","indirect_first","0","nn05en08","1","31","1","1","3","1","","0","1","0","572.9099999880418","","","<img src = 'targets/mask.png' width = '100%;'>","75","pos","GS","GSold","1","category1/CS10.png","targets/23.png","1","indirect","43",""
"","html-keyboard-response","267","861480","0.0-10.0-0.20","e1t3l4glta","many_one","0","indirect_first","0","nn05en08","1","31","1","1","3","1","","0","1","0","null","","","<div style=""font-size:60px;"">+</div>","null","","","","","","","","","",""
"","html-keyboard-response","268","861572","0.0-10.0-1.20","e1t3l4glta","many_one","0","indirect_first","0","nn05en08","1","31","1","1","3","1","","0","1","0","null","","","<img src = 'category2/CS3.png' width = '100%;'>","null","","","","","","","","","",""
"","html-keyboard-response","269","861836","0.0-10.0-2.20","e1t3l4glta","many_one","0","indirect_first","0","nn05en08","1","31","1","1","3","1","","0","1","0","null","","","<img src = 'targets/12.png' width = '100%;'>","null","","","","","","","","","",""
"","html-keyboard-response","270","862891","0.0-10.0-3.20","e1t3l4glta","many_one","0","indirect_first","0","nn05en08","1","31","1","1","3","1","","0","1","0","1054.3649999890476","","","<img src = 'targets/mask.png' width = '100%;'>","68","pos","GS","GSold","2","category2/CS3.png","targets/12.png","0","indirect","44",""
"","html-keyboard-response","271","864416","0.0-10.0-0.21","e1t3l4glta","many_one","0","indirect_first","0","nn05en08","1","31","1","1","3","1","","0","1","0","null","","","<div style=""font-size:60px;"">+</div>","null","","","","","","","","","",""
"","html-keyboard-response","272","864508","0.0-10.0-1.21","e1t3l4glta","many_one","0","indirect_first","0","nn05en08","1","31","1","1","3","1","","0","1","0","null","","","<img src = 'category3/CS10.png' width = '100%;'>","null","","","","","","","","","",""
"","html-keyboard-response","273","864785","0.0-10.0-2.21","e1t3l4glta","many_one","0","indirect_first","0","nn05en08","1","31","1","1","3","1","","0","1","0","null","","","<img src = 'targets/9.png' width = '100%;'>","null","","","","","","","","","",""
"","html-keyboard-response","274","865683","0.0-10.0-3.21","e1t3l4glta","many_one","0","indirect_first","0","nn05en08","1","31","1","1","3","1","","0","1","0","897.4800000432879","","","<img src = 'targets/mask.png' width = '100%;'>","75","neg","GS","GSold","3","category3/CS10.png","targets/9.png","1","indirect","45",""
"","html-keyboard-response","275","867202","0.0-10.0-0.22","e1t3l4glta","many_one","0","indirect_first","0","nn05en08","1","31","1","1","3","1","","0","1","0","null","","","<div style=""font-size:60px;"">+</div>","null","","","","","","","","","",""
"","html-keyboard-response","276","867293","0.0-10.0-1.22","e1t3l4glta","many_one","0","indirect_first","0","nn05en08","1","31","1","1","3","1","","0","1","0","null","","","<img src = 'category4/GS2.png' width = '100%;'>","null","","","","","","","","","",""
"","html-keyboard-response","277","867560","0.0-10.0-2.22","e1t3l4glta","many_one","0","indirect_first","0","nn05en08","1","31","1","1","3","1","","0","1","0","null","","","<img src = 'targets/43.png' width = '100%;'>","null","","","","","","","","","",""
"","html-keyboard-response","278","868571","0.0-10.0-3.22","e1t3l4glta","many_one","0","indirect_first","0","nn05en08","1","31","1","1","3","1","","0","1","0","1011.095000023488","","","<img src = 'targets/mask.png' width = '100%;'>","75","neg","GS","GSnew","4","category4/GS2.png","targets/43.png","1","indirect","46",""
"","html-keyboard-response","279","870093","0.0-10.0-0.23","e1t3l4glta","many_one","0","indirect_first","0","nn05en08","1","31","1","1","3","1","","0","1","0","null","","","<div style=""font-size:60px;"">+</div>","null","","","","","","","","","",""
"","html-keyboard-response","280","870186","0.0-10.0-1.23","e1t3l4glta","many_one","0","indirect_first","0","nn05en08","1","31","1","1","3","1","","0","1","0","null","","","<img src = 'category3/GS3.png' width = '100%;'>","null","","","","","","","","","",""
"","html-keyboard-response","281","870450","0.0-10.0-2.23","e1t3l4glta","many_one","0","indirect_first","0","nn05en08","1","31","1","1","3","1","","0","1","0","null","","","<img src = 'targets/8.png' width = '100%;'>","null","","","","","","","","","",""
"","html-keyboard-response","282","871528","0.0-10.0-3.23","e1t3l4glta","many_one","0","indirect_first","0","nn05en08","1","31","1","1","3","1","","0","1","0","1076.749999949243","","","<img src = 'targets/mask.png' width = '100%;'>","75","neg","GS","GSnew","3","category3/GS3.png","targets/8.png","1","indirect","47",""
"","survey-html-form","283","888374","0.0-11.0","e1t3l4glta","many_one","0","indirect_first","0","nn05en08","1","31","1","1","3","1","","0","1","0","16331.2900000019","","{}","","","","","","","","","","","",""
"","image-slider-response","284","901242","0.0-12.0-0.0","e1t3l4glta","many_one","0","indirect_first","0","nn05en08","1","31","1","1","3","1","","0","1","0","10866.299999994226","","","","","pos","GS","GSold","1","category1/CS6.png","targets/14.png","","direct","","-38"
"","image-slider-response","285","908267","0.0-12.0-0.1","e1t3l4glta","many_one","0","indirect_first","0","nn05en08","1","31","1","1","3","1","","0","1","0","7022.9749999707565","","","","","neg","GS","GSold","3","category3/CS1.png","targets/4.png","","direct","","-77"
"","image-slider-response","286","915946","0.0-12.0-0.2","e1t3l4glta","many_one","0","indirect_first","0","nn05en08","1","31","1","1","3","1","","0","1","0","7677.815000002738","","","","","pos","GS","GSold","1","category1/CS9.png","targets/37.png","","direct","","20"
"","image-slider-response","287","920828","0.0-12.0-0.3","e1t3l4glta","many_one","0","indirect_first","0","nn05en08","1","31","1","1","3","1","","0","1","0","4880.5799999972805","","","","","pos","GS","abstract","1","category1/ma.png","targets/44.png","","direct","","-34"
"","image-slider-response","288","925986","0.0-12.0-0.4","e1t3l4glta","many_one","0","indirect_first","0","nn05en08","1","31","1","1","3","1","","0","1","0","5156.8399999523535","","","","","neg","CS","CS","3","category3/CS8.png","targets/35.png","","direct","","-58"
"","image-slider-response","289","928555","0.0-12.0-0.5","e1t3l4glta","many_one","0","indirect_first","0","nn05en08","1","31","1","1","3","1","","0","1","0","2567.544999998063","","","","","pos","GS","GSnew","2","category2/GS1.png","targets/33.png","","direct","","68"
"","image-slider-response","290","931324","0.0-12.0-0.6","e1t3l4glta","many_one","0","indirect_first","0","nn05en08","1","31","1","1","3","1","","0","1","0","2767.920000012964","","","","","neg","GS","GSold","4","category4/CS1.png","targets/7.png","","direct","","76"
"","image-slider-response","291","934079","0.0-12.0-0.7","e1t3l4glta","many_one","0","indirect_first","0","nn05en08","1","31","1","1","3","1","","0","1","0","2753.934999986086","","","","","pos","GS","GSold","2","category2/CS3.png","targets/12.png","","direct","","60"
"","image-slider-response","292","953936","0.0-12.0-0.8","e1t3l4glta","many_one","0","indirect_first","0","nn05en08","1","31","1","1","3","1","","0","1","0","19856.70999996364","","","","","neg","CS","CS","3","category3/CS3.png","targets/15.png","","direct","","11"
"","image-slider-response","293","962309","0.0-12.0-0.9","e1t3l4glta","many_one","0","indirect_first","0","nn05en08","1","31","1","1","3","1","","0","1","0","8370.914999977686","","","","","pos","GS","GSnew","1","category1/GS2.png","targets/34.png","","direct","","31"
"","image-slider-response","294","966742","0.0-12.0-0.10","e1t3l4glta","many_one","0","indirect_first","0","nn05en08","1","31","1","1","3","1","","0","1","0","4432.119999954011","","","","","neg","GS","GSnew","4","category4/GS1.png","targets/13.png","","direct","","58"
"","image-slider-response","295","973103","0.0-12.0-0.11","e1t3l4glta","many_one","0","indirect_first","0","nn05en08","1","31","1","1","3","1","","0","1","0","6360.610000032466","","","","","neg","CS","CS","3","category3/CS9.png","targets/27.png","","direct","","-55"
"","image-slider-response","296","975327","0.0-12.0-0.12","e1t3l4glta","many_one","0","indirect_first","0","nn05en08","1","31","1","1","3","1","","0","1","0","2221.99999995064","","","","","neg","GS","GSnew","4","category4/GS3.png","targets/18.png","","direct","","63"
"","image-slider-response","297","977556","0.0-12.0-0.13","e1t3l4glta","many_one","0","indirect_first","0","nn05en08","1","31","1","1","3","1","","0","1","0","2228.5700000356883","","","","","neg","CS","CS","4","category4/CS9.png","targets/48.png","","direct","","58"
"","image-slider-response","298","980448","0.0-12.0-0.14","e1t3l4glta","many_one","0","indirect_first","0","nn05en08","1","31","1","1","3","1","","0","1","0","2890.934999973979","","","","","pos","CS","CS","2","category2/CS6.png","targets/39.png","","direct","","61"
"","image-slider-response","299","983338","0.0-12.0-0.15","e1t3l4glta","many_one","0","indirect_first","0","nn05en08","1","31","1","1","3","1","","0","1","0","2888.715000008233","","","","","neg","CS","CS","3","category3/CS4.png","targets/31.png","","direct","","-44"
"","image-slider-response","300","986508","0.0-12.0-0.16","e1t3l4glta","many_one","0","indirect_first","0","nn05en08","1","31","1","1","3","1","","0","1","0","3168.81000000285","","","","","pos","GS","GSold","2","category2/CS7.png","targets/30.png","","direct","","54"
"","image-slider-response","301","991006","0.0-12.0-0.17","e1t3l4glta","many_one","0","indirect_first","0","nn05en08","1","31","1","1","3","1","","0","1","0","4497.239999996964","","","","","pos","GS","GSold","1","category1/CS10.png","targets/23.png","","direct","","37"
"","image-slider-response","302","994412","0.0-12.0-0.18","e1t3l4glta","many_one","0","indirect_first","0","nn05en08","1","31","1","1","3","1","","0","1","0","3404.80000001844","","","","","pos","GS","GSnew","1","category1/GS1.png","targets/32.png","","direct","","72"
"","image-slider-response","303","999344","0.0-12.0-0.19","e1t3l4glta","many_one","0","indirect_first","0","nn05en08","1","31","1","1","3","1","","0","1","0","4931.0350000159815","","","","","neg","GS","GSnew","3","category3/GS2.png","targets/42.png","","direct","","-72"
"","image-slider-response","304","1003700","0.0-12.0-0.20","e1t3l4glta","many_one","0","indirect_first","0","nn05en08","1","31","1","1","3","1","","0","1","0","4355.1799999549985","","","","","neg","GS","abstract","3","category3/wang.png","targets/46.png","","direct","","20"
"","image-slider-response","305","1008457","0.0-12.0-0.21","e1t3l4glta","many_one","0","indirect_first","0","nn05en08","1","31","1","1","3","1","","0","1","0","4755.8350000181235","","","","","neg","CS","CS","4","category4/CS8.png","targets/5.png","","direct","","57"
"","image-slider-response","306","1012016","0.0-12.0-0.22","e1t3l4glta","many_one","0","indirect_first","0","nn05en08","1","31","1","1","3","1","","0","1","0","3557.139999989886","","","","","neg","GS","GSold","4","category4/CS4.png","targets/19.png","","direct","","94"
"","image-slider-response","307","1014433","0.0-12.0-0.23","e1t3l4glta","many_one","0","indirect_first","0","nn05en08","1","31","1","1","3","1","","0","1","0","2416.8400000198744","","","","","neg","CS","CS","4","category4/CS10.png","targets/25.png","","direct","","60"
"","image-slider-response","308","1018955","0.0-12.0-0.24","e1t3l4glta","many_one","0","indirect_first","0","nn05en08","1","31","1","1","3","1","","0","1","0","4521.000000007916","","","","","pos","CS","CS","1","category1/CS3.png","targets/11.png","","direct","","-39"
"","image-slider-response","309","1021670","0.0-12.0-0.25","e1t3l4glta","many_one","0","indirect_first","0","nn05en08","1","31","1","1","3","1","","0","1","0","2712.8800000064075","","","","","neg","GS","GSold","3","category3/CS10.png","targets/9.png","","direct","","-24"
"","image-slider-response","310","1025118","0.0-12.0-0.26","e1t3l4glta","many_one","0","indirect_first","0","nn05en08","1","31","1","1","3","1","","0","1","0","3447.219999972731","","","","","pos","CS","CS","2","category2/CS4.png","targets/47.png","","direct","","56"
"","image-slider-response","311","1030236","0.0-12.0-0.27","e1t3l4glta","many_one","0","indirect_first","0","nn05en08","1","31","1","1","3","1","","0","1","0","5116.500000003725","","","","","pos","GS","GSold","2","category2/CS9.png","targets/36.png","","direct","","-51"
"","image-slider-response","312","1033188","0.0-12.0-0.28","e1t3l4glta","many_one","0","indirect_first","0","nn05en08","1","31","1","1","3","1","","0","1","0","2951.115000003483","","","","","pos","GS","GSnew","2","category2/GS2.png","targets/24.png","","direct","","61"
"","image-slider-response","313","1036762","0.0-12.0-0.29","e1t3l4glta","many_one","0","indirect_first","0","nn05en08","1","31","1","1","3","1","","0","1","0","3572.645000007469","","","","","neg","GS","GSold","4","category4/CS5.png","targets/1.png","","direct","","55"
"","image-slider-response","314","1040603","0.0-12.0-0.30","e1t3l4glta","many_one","0","indirect_first","0","nn05en08","1","31","1","1","3","1","","0","1","0","3840.2599999681115","","","","","pos","CS","CS","1","category1/CS8.png","targets/41.png","","direct","","-16"
"","image-slider-response","315","1046653","0.0-12.0-0.31","e1t3l4glta","many_one","0","indirect_first","0","nn05en08","1","31","1","1","3","1","","0","1","0","6048.540000047069","","","","","pos","GS","GSnew","1","category1/GS3.png","targets/21.png","","direct","","-69"
"","image-slider-response","316","1050417","0.0-12.0-0.32","e1t3l4glta","many_one","0","indirect_first","0","nn05en08","1","31","1","1","3","1","","0","1","0","3762.360000051558","","","","","pos","GS","abstract","2","category2/men.png","targets/2.png","","direct","","-14"
"","image-slider-response","317","1054250","0.0-12.0-0.33","e1t3l4glta","many_one","0","indirect_first","0","nn05en08","1","31","1","1","3","1","","0","1","0","3832.219999982044","","","","","pos","CS","CS","1","category1/CS2.png","targets/17.png","","direct","","-26"
"","image-slider-response","318","1060133","0.0-12.0-0.34","e1t3l4glta","many_one","0","indirect_first","0","nn05en08","1","31","1","1","3","1","","0","1","0","5882.429999997839","","","","","pos","CS","CS","1","category1/CS4.png","targets/26.png","","direct","","34"
"","image-slider-response","319","1062951","0.0-12.0-0.35","e1t3l4glta","many_one","0","indirect_first","0","nn05en08","1","31","1","1","3","1","","0","1","0","2816.1899999831803","","","","","neg","GS","GSnew","4","category4/GS2.png","targets/43.png","","direct","","64"
"","image-slider-response","320","1065805","0.0-12.0-0.36","e1t3l4glta","many_one","0","indirect_first","0","nn05en08","1","31","1","1","3","1","","0","1","0","2853.2199999899603","","","","","neg","GS","GSnew","3","category3/GS1.png","targets/10.png","","direct","","-42"
"","image-slider-response","321","1069866","0.0-12.0-0.37","e1t3l4glta","many_one","0","indirect_first","0","nn05en08","1","31","1","1","3","1","","0","1","0","4059.5249999896623","","","","","pos","CS","CS","2","category2/CS5.png","targets/22.png","","direct","","38"
"","image-slider-response","322","1073076","0.0-12.0-0.38","e1t3l4glta","many_one","0","indirect_first","0","nn05en08","1","31","1","1","3","1","","0","1","0","3208.8999999687076","","","","","neg","GS","GSold","3","category3/CS6.png","targets/40.png","","direct","","-42"
"","image-slider-response","323","1075217","0.0-12.0-0.39","e1t3l4glta","many_one","0","indirect_first","0","nn05en08","1","31","1","1","3","1","","0","1","0","2140.300000028219","","","","","neg","CS","CS","3","category3/CS2.png","targets/16.png","","direct","","-58"
"","image-slider-response","324","1080950","0.0-12.0-0.40","e1t3l4glta","many_one","0","indirect_first","0","nn05en08","1","31","1","1","3","1","","0","1","0","5731.980000040494","","","","","pos","CS","CS","1","category1/CS5.png","targets/28.png","","direct","","-41"
