"success","trial_type","trial_index","time_elapsed","internal_node_id","subject","condition","condition_code","measure","measure_code","codeword","gender","age","education","chinese","fach","handedness","comment","hinschauen","ablenkung","gewissenhaft","rt","url","responses","stimulus","key_press","val","type","type_specific","category","cs_selected","target","indirect","task","nr_pres","response"
"true","fullscreen","0","9461","0.0-0.0","byh3nmyv68","many_one","0","indirect_first","0","hnulnk09","0","24","1","1","3","1","","0","1","0","","","","","","","","","","","","","","",""
"","external-html","1","52325","0.0-1.0","byh3nmyv68","many_one","0","indirect_first","0","hnulnk09","0","24","1","1","3","1","","0","1","0","42835.09499998763","text/information.html","","","","","","","","","","","","",""
"","external-html","2","71054","0.0-2.0","byh3nmyv68","many_one","0","indirect_first","0","hnulnk09","0","24","1","1","3","1","","0","1","0","18679.41500013694","text/consent.html","","","","","","","","","","","","",""
"","survey-html-form","3","114224","0.0-3.0","byh3nmyv68","many_one","0","indirect_first","0","hnulnk09","0","24","1","1","3","1","","0","1","0","43164.11999985576","","{""codeword_enter"":""hnulnk09""}","","","","","","","","","","","",""
"","survey-html-form","4","135287","0.0-4.0","byh3nmyv68","many_one","0","indirect_first","0","hnulnk09","0","24","1","1","3","1","","0","1","0","21059.210000094026","","{""age"":""24"",""education"":""1"",""subject"":""3"",""gender"":""0"",""handedness"":""1"",""chinese"":""1""}","","","","","","","","","","","",""
"","survey-html-form","5","141178","0.0-5.0","byh3nmyv68","many_one","0","indirect_first","0","hnulnk09","0","24","1","1","3","1","","0","1","0","5889.384999871254","","{}","","","","","","","","","","","",""
"","html-keyboard-response","6","145184","0.0-6.0-0.0-0.0","byh3nmyv68","many_one","0","indirect_first","0","hnulnk09","0","24","1","1","3","1","","0","1","0","null","","","<div class = 'row'><div class = 'column'><img src = 'uspos/5600.bmp' width = '100%;'></div><div class = 'column'><img src = 'category2/CS2.png' width = '70%;'></div></div>","null","pos","CS","CS","2","category2/CS2.png","","","","",""
"","html-keyboard-response","7","147689","0.0-6.0-0.0-0.1","byh3nmyv68","many_one","0","indirect_first","0","hnulnk09","0","24","1","1","3","1","","0","1","0","null","","","<div class = 'row'><div class = 'column'><img src = 'category3/CS1.png' width = '70%;'></div><div class = 'column'><img src = 'usneg/1280.bmp' width = '100%;'></div></div>","null","neg","CS","CS","3","category3/CS1.png","","","","",""
"","html-keyboard-response","8","150194","0.0-6.0-0.0-0.2","byh3nmyv68","many_one","0","indirect_first","0","hnulnk09","0","24","1","1","3","1","","0","1","0","null","","","<div class = 'row'><div class = 'column'><img src = 'uspos/2040.bmp' width = '100%;'></div><div class = 'column'><img src = 'category4/CS6.png' width = '70%;'></div></div>","null","pos","CS","CS","4","category4/CS6.png","","","","",""
"","html-keyboard-response","9","152698","0.0-6.0-0.0-0.3","byh3nmyv68","many_one","0","indirect_first","0","hnulnk09","0","24","1","1","3","1","","0","1","0","null","","","<div class = 'row'><div class = 'column'><img src = 'uspos/5621.bmp' width = '100%;'></div><div class = 'column'><img src = 'category2/CS1.png' width = '70%;'></div></div>","null","pos","CS","CS","2","category2/CS1.png","","","","",""
"","html-keyboard-response","10","155202","0.0-6.0-0.0-0.4","byh3nmyv68","many_one","0","indirect_first","0","hnulnk09","0","24","1","1","3","1","","0","1","0","null","","","<div class = 'row'><div class = 'column'><img src = 'category4/CS7.png' width = '70%;'></div><div class = 'column'><img src = 'uspos/7580.bmp' width = '100%;'></div></div>","null","pos","CS","CS","4","category4/CS7.png","","","","",""
"","html-keyboard-response","11","157705","0.0-6.0-0.0-0.5","byh3nmyv68","many_one","0","indirect_first","0","hnulnk09","0","24","1","1","3","1","","0","1","0","null","","","<div class = 'row'><div class = 'column'><img src = 'usneg/9330.bmp' width = '100%;'></div><div class = 'column'><img src = 'category1/CS2.png' width = '70%;'></div></div>","null","neg","CS","CS","1","category1/CS2.png","","","","",""
"","html-keyboard-response","12","160209","0.0-6.0-0.0-0.6","byh3nmyv68","many_one","0","indirect_first","0","hnulnk09","0","24","1","1","3","1","","0","1","0","null","","","<div class = 'row'><div class = 'column'><img src = 'category3/CS10.png' width = '70%;'></div><div class = 'column'><img src = 'usneg/9421.bmp' width = '100%;'></div></div>","null","neg","CS","CS","3","category3/CS10.png","","","","",""
"","html-keyboard-response","13","162713","0.0-6.0-0.0-0.7","byh3nmyv68","many_one","0","indirect_first","0","hnulnk09","0","24","1","1","3","1","","0","1","0","null","","","<div class = 'row'><div class = 'column'><img src = 'category4/CS10.png' width = '70%;'></div><div class = 'column'><img src = 'uspos/1710.bmp' width = '100%;'></div></div>","null","pos","CS","CS","4","category4/CS10.png","","","","",""
"","html-keyboard-response","14","165218","0.0-6.0-0.0-0.8","byh3nmyv68","many_one","0","indirect_first","0","hnulnk09","0","24","1","1","3","1","","0","1","0","null","","","<div class = 'row'><div class = 'column'><img src = 'category1/CS7.png' width = '70%;'></div><div class = 'column'><img src = 'usneg/6570.1.bmp' width = '100%;'></div></div>","null","neg","CS","CS","1","category1/CS7.png","","","","",""
"","html-keyboard-response","15","167722","0.0-6.0-0.0-0.9","byh3nmyv68","many_one","0","indirect_first","0","hnulnk09","0","24","1","1","3","1","","0","1","0","null","","","<div class = 'row'><div class = 'column'><img src = 'uspos/1440.bmp' width = '100%;'></div><div class = 'column'><img src = 'category2/CS7.png' width = '70%;'></div></div>","null","pos","CS","CS","2","category2/CS7.png","","","","",""
"","html-keyboard-response","16","170226","0.0-6.0-0.0-0.10","byh3nmyv68","many_one","0","indirect_first","0","hnulnk09","0","24","1","1","3","1","","0","1","0","null","","","<div class = 'row'><div class = 'column'><img src = 'usneg/6212.bmp' width = '100%;'></div><div class = 'column'><img src = 'category3/CS4.png' width = '70%;'></div></div>","null","neg","CS","CS","3","category3/CS4.png","","","","",""
"","html-keyboard-response","17","172730","0.0-6.0-0.0-0.11","byh3nmyv68","many_one","0","indirect_first","0","hnulnk09","0","24","1","1","3","1","","0","1","0","null","","","<div class = 'row'><div class = 'column'><img src = 'uspos/8540.bmp' width = '100%;'></div><div class = 'column'><img src = 'category2/CS8.png' width = '70%;'></div></div>","null","pos","CS","CS","2","category2/CS8.png","","","","",""
"","html-keyboard-response","18","175234","0.0-6.0-0.0-0.12","byh3nmyv68","many_one","0","indirect_first","0","hnulnk09","0","24","1","1","3","1","","0","1","0","null","","","<div class = 'row'><div class = 'column'><img src = 'category1/CS10.png' width = '70%;'></div><div class = 'column'><img src = 'usneg/9342.bmp' width = '100%;'></div></div>","null","neg","CS","CS","1","category1/CS10.png","","","","",""
"","html-keyboard-response","19","177739","0.0-6.0-0.0-0.13","byh3nmyv68","many_one","0","indirect_first","0","hnulnk09","0","24","1","1","3","1","","0","1","0","null","","","<div class = 'row'><div class = 'column'><img src = 'category1/CS6.png' width = '70%;'></div><div class = 'column'><img src = 'usneg/9584.bmp' width = '100%;'></div></div>","null","neg","CS","CS","1","category1/CS6.png","","","","",""
"","html-keyboard-response","20","180243","0.0-6.0-0.0-0.14","byh3nmyv68","many_one","0","indirect_first","0","hnulnk09","0","24","1","1","3","1","","0","1","0","null","","","<div class = 'row'><div class = 'column'><img src = 'usneg/9415.bmp' width = '100%;'></div><div class = 'column'><img src = 'category3/CS6.png' width = '70%;'></div></div>","null","neg","CS","CS","3","category3/CS6.png","","","","",""
"","html-keyboard-response","21","182748","0.0-6.0-0.0-0.15","byh3nmyv68","many_one","0","indirect_first","0","hnulnk09","0","24","1","1","3","1","","0","1","0","null","","","<div class = 'row'><div class = 'column'><img src = 'usneg/9000.bmp' width = '100%;'></div><div class = 'column'><img src = 'category1/CS4.png' width = '70%;'></div></div>","null","neg","CS","CS","1","category1/CS4.png","","","","",""
"","html-keyboard-response","22","185253","0.0-6.0-0.0-0.16","byh3nmyv68","many_one","0","indirect_first","0","hnulnk09","0","24","1","1","3","1","","0","1","0","null","","","<div class = 'row'><div class = 'column'><img src = 'uspos/5700.bmp' width = '100%;'></div><div class = 'column'><img src = 'category4/CS2.png' width = '70%;'></div></div>","null","pos","CS","CS","4","category4/CS2.png","","","","",""
"","html-keyboard-response","23","187757","0.0-6.0-0.0-0.17","byh3nmyv68","many_one","0","indirect_first","0","hnulnk09","0","24","1","1","3","1","","0","1","0","null","","","<div class = 'row'><div class = 'column'><img src = 'uspos/5629.bmp' width = '100%;'></div><div class = 'column'><img src = 'category4/CS3.png' width = '70%;'></div></div>","null","pos","CS","CS","4","category4/CS3.png","","","","",""
"","html-keyboard-response","24","190261","0.0-6.0-0.0-0.18","byh3nmyv68","many_one","0","indirect_first","0","hnulnk09","0","24","1","1","3","1","","0","1","0","null","","","<div class = 'row'><div class = 'column'><img src = 'category3/CS3.png' width = '70%;'></div><div class = 'column'><img src = 'usneg/2750.bmp' width = '100%;'></div></div>","null","neg","CS","CS","3","category3/CS3.png","","","","",""
"","html-keyboard-response","25","192764","0.0-6.0-0.0-0.19","byh3nmyv68","many_one","0","indirect_first","0","hnulnk09","0","24","1","1","3","1","","0","1","0","null","","","<div class = 'row'><div class = 'column'><img src = 'uspos/5831.bmp' width = '100%;'></div><div class = 'column'><img src = 'category2/CS4.png' width = '70%;'></div></div>","null","pos","CS","CS","2","category2/CS4.png","","","","",""
"","survey-html-form","26","196589","0.0-6.0-1.0","byh3nmyv68","many_one","0","indirect_first","0","hnulnk09","0","24","1","1","3","1","","0","1","0","3322.119999676943","","{}","","","","","","","","","","","",""
"","html-keyboard-response","27","200593","0.0-6.0-2.0-0.0","byh3nmyv68","many_one","0","indirect_first","0","hnulnk09","0","24","1","1","3","1","","0","1","0","null","","","<div class = 'row'><div class = 'column'><img src = 'category1/CS10.png' width = '70%;'></div><div class = 'column'><img src = 'usneg/9342.bmp' width = '100%;'></div></div>","null","neg","CS","CS","1","category1/CS10.png","","","","",""
"","html-keyboard-response","28","203098","0.0-6.0-2.0-0.1","byh3nmyv68","many_one","0","indirect_first","0","hnulnk09","0","24","1","1","3","1","","0","1","0","null","","","<div class = 'row'><div class = 'column'><img src = 'uspos/5629.bmp' width = '100%;'></div><div class = 'column'><img src = 'category4/CS3.png' width = '70%;'></div></div>","null","pos","CS","CS","4","category4/CS3.png","","","","",""
"","html-keyboard-response","29","205601","0.0-6.0-2.0-0.2","byh3nmyv68","many_one","0","indirect_first","0","hnulnk09","0","24","1","1","3","1","","0","1","0","null","","","<div class = 'row'><div class = 'column'><img src = 'usneg/6570.1.bmp' width = '100%;'></div><div class = 'column'><img src = 'category1/CS7.png' width = '70%;'></div></div>","null","neg","CS","CS","1","category1/CS7.png","","","","",""
"","html-keyboard-response","30","208104","0.0-6.0-2.0-0.3","byh3nmyv68","many_one","0","indirect_first","0","hnulnk09","0","24","1","1","3","1","","0","1","0","null","","","<div class = 'row'><div class = 'column'><img src = 'category3/CS6.png' width = '70%;'></div><div class = 'column'><img src = 'usneg/9415.bmp' width = '100%;'></div></div>","null","neg","CS","CS","3","category3/CS6.png","","","","",""
"","html-keyboard-response","31","210608","0.0-6.0-2.0-0.4","byh3nmyv68","many_one","0","indirect_first","0","hnulnk09","0","24","1","1","3","1","","0","1","0","null","","","<div class = 'row'><div class = 'column'><img src = 'category1/CS4.png' width = '70%;'></div><div class = 'column'><img src = 'usneg/9000.bmp' width = '100%;'></div></div>","null","neg","CS","CS","1","category1/CS4.png","","","","",""
"","html-keyboard-response","32","213112","0.0-6.0-2.0-0.5","byh3nmyv68","many_one","0","indirect_first","0","hnulnk09","0","24","1","1","3","1","","0","1","0","null","","","<div class = 'row'><div class = 'column'><img src = 'category4/CS10.png' width = '70%;'></div><div class = 'column'><img src = 'uspos/1710.bmp' width = '100%;'></div></div>","null","pos","CS","CS","4","category4/CS10.png","","","","",""
"","html-keyboard-response","33","215614","0.0-6.0-2.0-0.6","byh3nmyv68","many_one","0","indirect_first","0","hnulnk09","0","24","1","1","3","1","","0","1","0","null","","","<div class = 'row'><div class = 'column'><img src = 'category3/CS1.png' width = '70%;'></div><div class = 'column'><img src = 'usneg/1280.bmp' width = '100%;'></div></div>","null","neg","CS","CS","3","category3/CS1.png","","","","",""
"","html-keyboard-response","34","218118","0.0-6.0-2.0-0.7","byh3nmyv68","many_one","0","indirect_first","0","hnulnk09","0","24","1","1","3","1","","0","1","0","null","","","<div class = 'row'><div class = 'column'><img src = 'category2/CS7.png' width = '70%;'></div><div class = 'column'><img src = 'uspos/1440.bmp' width = '100%;'></div></div>","null","pos","CS","CS","2","category2/CS7.png","","","","",""
"","html-keyboard-response","35","220621","0.0-6.0-2.0-0.8","byh3nmyv68","many_one","0","indirect_first","0","hnulnk09","0","24","1","1","3","1","","0","1","0","null","","","<div class = 'row'><div class = 'column'><img src = 'usneg/6212.bmp' width = '100%;'></div><div class = 'column'><img src = 'category3/CS4.png' width = '70%;'></div></div>","null","neg","CS","CS","3","category3/CS4.png","","","","",""
"","html-keyboard-response","36","223125","0.0-6.0-2.0-0.9","byh3nmyv68","many_one","0","indirect_first","0","hnulnk09","0","24","1","1","3","1","","0","1","0","null","","","<div class = 'row'><div class = 'column'><img src = 'category2/CS8.png' width = '70%;'></div><div class = 'column'><img src = 'uspos/8540.bmp' width = '100%;'></div></div>","null","pos","CS","CS","2","category2/CS8.png","","","","",""
"","html-keyboard-response","37","225630","0.0-6.0-2.0-0.10","byh3nmyv68","many_one","0","indirect_first","0","hnulnk09","0","24","1","1","3","1","","0","1","0","null","","","<div class = 'row'><div class = 'column'><img src = 'uspos/7580.bmp' width = '100%;'></div><div class = 'column'><img src = 'category4/CS7.png' width = '70%;'></div></div>","null","pos","CS","CS","4","category4/CS7.png","","","","",""
"","html-keyboard-response","38","228133","0.0-6.0-2.0-0.11","byh3nmyv68","many_one","0","indirect_first","0","hnulnk09","0","24","1","1","3","1","","0","1","0","null","","","<div class = 'row'><div class = 'column'><img src = 'category3/CS10.png' width = '70%;'></div><div class = 'column'><img src = 'usneg/9421.bmp' width = '100%;'></div></div>","null","neg","CS","CS","3","category3/CS10.png","","","","",""
"","html-keyboard-response","39","230638","0.0-6.0-2.0-0.12","byh3nmyv68","many_one","0","indirect_first","0","hnulnk09","0","24","1","1","3","1","","0","1","0","null","","","<div class = 'row'><div class = 'column'><img src = 'category4/CS2.png' width = '70%;'></div><div class = 'column'><img src = 'uspos/5700.bmp' width = '100%;'></div></div>","null","pos","CS","CS","4","category4/CS2.png","","","","",""
"","html-keyboard-response","40","233141","0.0-6.0-2.0-0.13","byh3nmyv68","many_one","0","indirect_first","0","hnulnk09","0","24","1","1","3","1","","0","1","0","null","","","<div class = 'row'><div class = 'column'><img src = 'usneg/2750.bmp' width = '100%;'></div><div class = 'column'><img src = 'category3/CS3.png' width = '70%;'></div></div>","null","neg","CS","CS","3","category3/CS3.png","","","","",""
"","html-keyboard-response","41","235646","0.0-6.0-2.0-0.14","byh3nmyv68","many_one","0","indirect_first","0","hnulnk09","0","24","1","1","3","1","","0","1","0","null","","","<div class = 'row'><div class = 'column'><img src = 'uspos/5621.bmp' width = '100%;'></div><div class = 'column'><img src = 'category2/CS1.png' width = '70%;'></div></div>","null","pos","CS","CS","2","category2/CS1.png","","","","",""
"","html-keyboard-response","42","238150","0.0-6.0-2.0-0.15","byh3nmyv68","many_one","0","indirect_first","0","hnulnk09","0","24","1","1","3","1","","0","1","0","null","","","<div class = 'row'><div class = 'column'><img src = 'usneg/9330.bmp' width = '100%;'></div><div class = 'column'><img src = 'category1/CS2.png' width = '70%;'></div></div>","null","neg","CS","CS","1","category1/CS2.png","","","","",""
"","html-keyboard-response","43","240653","0.0-6.0-2.0-0.16","byh3nmyv68","many_one","0","indirect_first","0","hnulnk09","0","24","1","1","3","1","","0","1","0","null","","","<div class = 'row'><div class = 'column'><img src = 'category4/CS6.png' width = '70%;'></div><div class = 'column'><img src = 'uspos/2040.bmp' width = '100%;'></div></div>","null","pos","CS","CS","4","category4/CS6.png","","","","",""
"","html-keyboard-response","44","243156","0.0-6.0-2.0-0.17","byh3nmyv68","many_one","0","indirect_first","0","hnulnk09","0","24","1","1","3","1","","0","1","0","null","","","<div class = 'row'><div class = 'column'><img src = 'category2/CS4.png' width = '70%;'></div><div class = 'column'><img src = 'uspos/5831.bmp' width = '100%;'></div></div>","null","pos","CS","CS","2","category2/CS4.png","","","","",""
"","html-keyboard-response","45","245660","0.0-6.0-2.0-0.18","byh3nmyv68","many_one","0","indirect_first","0","hnulnk09","0","24","1","1","3","1","","0","1","0","null","","","<div class = 'row'><div class = 'column'><img src = 'category1/CS6.png' width = '70%;'></div><div class = 'column'><img src = 'usneg/9584.bmp' width = '100%;'></div></div>","null","neg","CS","CS","1","category1/CS6.png","","","","",""
"","html-keyboard-response","46","248164","0.0-6.0-2.0-0.19","byh3nmyv68","many_one","0","indirect_first","0","hnulnk09","0","24","1","1","3","1","","0","1","0","null","","","<div class = 'row'><div class = 'column'><img src = 'category2/CS2.png' width = '70%;'></div><div class = 'column'><img src = 'uspos/5600.bmp' width = '100%;'></div></div>","null","pos","CS","CS","2","category2/CS2.png","","","","",""
"","survey-html-form","47","270652","0.0-6.0-3.0","byh3nmyv68","many_one","0","indirect_first","0","hnulnk09","0","24","1","1","3","1","","0","1","0","21984.514999669045","","{}","","","","","","","","","","","",""
"","html-keyboard-response","48","274656","0.0-6.0-4.0-0.0","byh3nmyv68","many_one","0","indirect_first","0","hnulnk09","0","24","1","1","3","1","","0","1","0","null","","","<div class = 'row'><div class = 'column'><img src = 'category2/CS4.png' width = '70%;'></div><div class = 'column'><img src = 'uspos/5831.bmp' width = '100%;'></div></div>","null","pos","CS","CS","2","category2/CS4.png","","","","",""
"","html-keyboard-response","49","277160","0.0-6.0-4.0-0.1","byh3nmyv68","many_one","0","indirect_first","0","hnulnk09","0","24","1","1","3","1","","0","1","0","null","","","<div class = 'row'><div class = 'column'><img src = 'uspos/8540.bmp' width = '100%;'></div><div class = 'column'><img src = 'category2/CS8.png' width = '70%;'></div></div>","null","pos","CS","CS","2","category2/CS8.png","","","","",""
"","html-keyboard-response","50","279663","0.0-6.0-4.0-0.2","byh3nmyv68","many_one","0","indirect_first","0","hnulnk09","0","24","1","1","3","1","","0","1","0","null","","","<div class = 'row'><div class = 'column'><img src = 'usneg/9584.bmp' width = '100%;'></div><div class = 'column'><img src = 'category1/CS6.png' width = '70%;'></div></div>","null","neg","CS","CS","1","category1/CS6.png","","","","",""
"","html-keyboard-response","51","282166","0.0-6.0-4.0-0.3","byh3nmyv68","many_one","0","indirect_first","0","hnulnk09","0","24","1","1","3","1","","0","1","0","null","","","<div class = 'row'><div class = 'column'><img src = 'category1/CS7.png' width = '70%;'></div><div class = 'column'><img src = 'usneg/6570.1.bmp' width = '100%;'></div></div>","null","neg","CS","CS","1","category1/CS7.png","","","","",""
"","html-keyboard-response","52","284670","0.0-6.0-4.0-0.4","byh3nmyv68","many_one","0","indirect_first","0","hnulnk09","0","24","1","1","3","1","","0","1","0","null","","","<div class = 'row'><div class = 'column'><img src = 'usneg/9421.bmp' width = '100%;'></div><div class = 'column'><img src = 'category3/CS10.png' width = '70%;'></div></div>","null","neg","CS","CS","3","category3/CS10.png","","","","",""
"","html-keyboard-response","53","287174","0.0-6.0-4.0-0.5","byh3nmyv68","many_one","0","indirect_first","0","hnulnk09","0","24","1","1","3","1","","0","1","0","null","","","<div class = 'row'><div class = 'column'><img src = 'uspos/5700.bmp' width = '100%;'></div><div class = 'column'><img src = 'category4/CS2.png' width = '70%;'></div></div>","null","pos","CS","CS","4","category4/CS2.png","","","","",""
"","html-keyboard-response","54","289677","0.0-6.0-4.0-0.6","byh3nmyv68","many_one","0","indirect_first","0","hnulnk09","0","24","1","1","3","1","","0","1","0","null","","","<div class = 'row'><div class = 'column'><img src = 'uspos/1710.bmp' width = '100%;'></div><div class = 'column'><img src = 'category4/CS10.png' width = '70%;'></div></div>","null","pos","CS","CS","4","category4/CS10.png","","","","",""
"","html-keyboard-response","55","292181","0.0-6.0-4.0-0.7","byh3nmyv68","many_one","0","indirect_first","0","hnulnk09","0","24","1","1","3","1","","0","1","0","null","","","<div class = 'row'><div class = 'column'><img src = 'category3/CS6.png' width = '70%;'></div><div class = 'column'><img src = 'usneg/9415.bmp' width = '100%;'></div></div>","null","neg","CS","CS","3","category3/CS6.png","","","","",""
"","html-keyboard-response","56","294684","0.0-6.0-4.0-0.8","byh3nmyv68","many_one","0","indirect_first","0","hnulnk09","0","24","1","1","3","1","","0","1","0","null","","","<div class = 'row'><div class = 'column'><img src = 'usneg/9000.bmp' width = '100%;'></div><div class = 'column'><img src = 'category1/CS4.png' width = '70%;'></div></div>","null","neg","CS","CS","1","category1/CS4.png","","","","",""
"","html-keyboard-response","57","297187","0.0-6.0-4.0-0.9","byh3nmyv68","many_one","0","indirect_first","0","hnulnk09","0","24","1","1","3","1","","0","1","0","null","","","<div class = 'row'><div class = 'column'><img src = 'category1/CS10.png' width = '70%;'></div><div class = 'column'><img src = 'usneg/9342.bmp' width = '100%;'></div></div>","null","neg","CS","CS","1","category1/CS10.png","","","","",""
"","html-keyboard-response","58","299691","0.0-6.0-4.0-0.10","byh3nmyv68","many_one","0","indirect_first","0","hnulnk09","0","24","1","1","3","1","","0","1","0","null","","","<div class = 'row'><div class = 'column'><img src = 'category3/CS4.png' width = '70%;'></div><div class = 'column'><img src = 'usneg/6212.bmp' width = '100%;'></div></div>","null","neg","CS","CS","3","category3/CS4.png","","","","",""
"","html-keyboard-response","59","302194","0.0-6.0-4.0-0.11","byh3nmyv68","many_one","0","indirect_first","0","hnulnk09","0","24","1","1","3","1","","0","1","0","null","","","<div class = 'row'><div class = 'column'><img src = 'uspos/2040.bmp' width = '100%;'></div><div class = 'column'><img src = 'category4/CS6.png' width = '70%;'></div></div>","null","pos","CS","CS","4","category4/CS6.png","","","","",""
"","html-keyboard-response","60","304709","0.0-6.0-4.0-0.12","byh3nmyv68","many_one","0","indirect_first","0","hnulnk09","0","24","1","1","3","1","","0","1","0","null","","","<div class = 'row'><div class = 'column'><img src = 'usneg/9330.bmp' width = '100%;'></div><div class = 'column'><img src = 'category1/CS2.png' width = '70%;'></div></div>","null","neg","CS","CS","1","category1/CS2.png","","","","",""
"","html-keyboard-response","61","307213","0.0-6.0-4.0-0.13","byh3nmyv68","many_one","0","indirect_first","0","hnulnk09","0","24","1","1","3","1","","0","1","0","null","","","<div class = 'row'><div class = 'column'><img src = 'uspos/5629.bmp' width = '100%;'></div><div class = 'column'><img src = 'category4/CS3.png' width = '70%;'></div></div>","null","pos","CS","CS","4","category4/CS3.png","","","","",""
"","html-keyboard-response","62","309720","0.0-6.0-4.0-0.14","byh3nmyv68","many_one","0","indirect_first","0","hnulnk09","0","24","1","1","3","1","","0","1","0","null","","","<div class = 'row'><div class = 'column'><img src = 'uspos/1440.bmp' width = '100%;'></div><div class = 'column'><img src = 'category2/CS7.png' width = '70%;'></div></div>","null","pos","CS","CS","2","category2/CS7.png","","","","",""
"","html-keyboard-response","63","312223","0.0-6.0-4.0-0.15","byh3nmyv68","many_one","0","indirect_first","0","hnulnk09","0","24","1","1","3","1","","0","1","0","null","","","<div class = 'row'><div class = 'column'><img src = 'usneg/1280.bmp' width = '100%;'></div><div class = 'column'><img src = 'category3/CS1.png' width = '70%;'></div></div>","null","neg","CS","CS","3","category3/CS1.png","","","","",""
"","html-keyboard-response","64","314729","0.0-6.0-4.0-0.16","byh3nmyv68","many_one","0","indirect_first","0","hnulnk09","0","24","1","1","3","1","","0","1","0","null","","","<div class = 'row'><div class = 'column'><img src = 'uspos/5621.bmp' width = '100%;'></div><div class = 'column'><img src = 'category2/CS1.png' width = '70%;'></div></div>","null","pos","CS","CS","2","category2/CS1.png","","","","",""
"","html-keyboard-response","65","317232","0.0-6.0-4.0-0.17","byh3nmyv68","many_one","0","indirect_first","0","hnulnk09","0","24","1","1","3","1","","0","1","0","null","","","<div class = 'row'><div class = 'column'><img src = 'uspos/5600.bmp' width = '100%;'></div><div class = 'column'><img src = 'category2/CS2.png' width = '70%;'></div></div>","null","pos","CS","CS","2","category2/CS2.png","","","","",""
"","html-keyboard-response","66","319736","0.0-6.0-4.0-0.18","byh3nmyv68","many_one","0","indirect_first","0","hnulnk09","0","24","1","1","3","1","","0","1","0","null","","","<div class = 'row'><div class = 'column'><img src = 'usneg/2750.bmp' width = '100%;'></div><div class = 'column'><img src = 'category3/CS3.png' width = '70%;'></div></div>","null","neg","CS","CS","3","category3/CS3.png","","","","",""
"","html-keyboard-response","67","322240","0.0-6.0-4.0-0.19","byh3nmyv68","many_one","0","indirect_first","0","hnulnk09","0","24","1","1","3","1","","0","1","0","null","","","<div class = 'row'><div class = 'column'><img src = 'uspos/7580.bmp' width = '100%;'></div><div class = 'column'><img src = 'category4/CS7.png' width = '70%;'></div></div>","null","pos","CS","CS","4","category4/CS7.png","","","","",""
"","survey-html-form","68","329761","0.0-6.0-5.0","byh3nmyv68","many_one","0","indirect_first","0","hnulnk09","0","24","1","1","3","1","","0","1","0","7019.5650001987815","","{}","","","","","","","","","","","",""
"","html-keyboard-response","69","333768","0.0-6.0-6.0-0.0","byh3nmyv68","many_one","0","indirect_first","0","hnulnk09","0","24","1","1","3","1","","0","1","0","null","","","<div class = 'row'><div class = 'column'><img src = 'category4/CS3.png' width = '70%;'></div><div class = 'column'><img src = 'uspos/5629.bmp' width = '100%;'></div></div>","null","pos","CS","CS","4","category4/CS3.png","","","","",""
"","html-keyboard-response","70","336273","0.0-6.0-6.0-0.1","byh3nmyv68","many_one","0","indirect_first","0","hnulnk09","0","24","1","1","3","1","","0","1","0","null","","","<div class = 'row'><div class = 'column'><img src = 'usneg/9415.bmp' width = '100%;'></div><div class = 'column'><img src = 'category3/CS6.png' width = '70%;'></div></div>","null","neg","CS","CS","3","category3/CS6.png","","","","",""
"","html-keyboard-response","71","338777","0.0-6.0-6.0-0.2","byh3nmyv68","many_one","0","indirect_first","0","hnulnk09","0","24","1","1","3","1","","0","1","0","null","","","<div class = 'row'><div class = 'column'><img src = 'usneg/9421.bmp' width = '100%;'></div><div class = 'column'><img src = 'category3/CS10.png' width = '70%;'></div></div>","null","neg","CS","CS","3","category3/CS10.png","","","","",""
"","html-keyboard-response","72","341282","0.0-6.0-6.0-0.3","byh3nmyv68","many_one","0","indirect_first","0","hnulnk09","0","24","1","1","3","1","","0","1","0","null","","","<div class = 'row'><div class = 'column'><img src = 'category3/CS1.png' width = '70%;'></div><div class = 'column'><img src = 'usneg/1280.bmp' width = '100%;'></div></div>","null","neg","CS","CS","3","category3/CS1.png","","","","",""
"","html-keyboard-response","73","343786","0.0-6.0-6.0-0.4","byh3nmyv68","many_one","0","indirect_first","0","hnulnk09","0","24","1","1","3","1","","0","1","0","null","","","<div class = 'row'><div class = 'column'><img src = 'category4/CS2.png' width = '70%;'></div><div class = 'column'><img src = 'uspos/5700.bmp' width = '100%;'></div></div>","null","pos","CS","CS","4","category4/CS2.png","","","","",""
"","html-keyboard-response","74","346289","0.0-6.0-6.0-0.5","byh3nmyv68","many_one","0","indirect_first","0","hnulnk09","0","24","1","1","3","1","","0","1","0","null","","","<div class = 'row'><div class = 'column'><img src = 'category2/CS4.png' width = '70%;'></div><div class = 'column'><img src = 'uspos/5831.bmp' width = '100%;'></div></div>","null","pos","CS","CS","2","category2/CS4.png","","","","",""
"","html-keyboard-response","75","348794","0.0-6.0-6.0-0.6","byh3nmyv68","many_one","0","indirect_first","0","hnulnk09","0","24","1","1","3","1","","0","1","0","null","","","<div class = 'row'><div class = 'column'><img src = 'category3/CS3.png' width = '70%;'></div><div class = 'column'><img src = 'usneg/2750.bmp' width = '100%;'></div></div>","null","neg","CS","CS","3","category3/CS3.png","","","","",""
"","html-keyboard-response","76","351297","0.0-6.0-6.0-0.7","byh3nmyv68","many_one","0","indirect_first","0","hnulnk09","0","24","1","1","3","1","","0","1","0","null","","","<div class = 'row'><div class = 'column'><img src = 'usneg/9330.bmp' width = '100%;'></div><div class = 'column'><img src = 'category1/CS2.png' width = '70%;'></div></div>","null","neg","CS","CS","1","category1/CS2.png","","","","",""
"","html-keyboard-response","77","353802","0.0-6.0-6.0-0.8","byh3nmyv68","many_one","0","indirect_first","0","hnulnk09","0","24","1","1","3","1","","0","1","0","null","","","<div class = 'row'><div class = 'column'><img src = 'category2/CS8.png' width = '70%;'></div><div class = 'column'><img src = 'uspos/8540.bmp' width = '100%;'></div></div>","null","pos","CS","CS","2","category2/CS8.png","","","","",""
"","html-keyboard-response","78","356305","0.0-6.0-6.0-0.9","byh3nmyv68","many_one","0","indirect_first","0","hnulnk09","0","24","1","1","3","1","","0","1","0","null","","","<div class = 'row'><div class = 'column'><img src = 'category1/CS6.png' width = '70%;'></div><div class = 'column'><img src = 'usneg/9584.bmp' width = '100%;'></div></div>","null","neg","CS","CS","1","category1/CS6.png","","","","",""
"","html-keyboard-response","79","358810","0.0-6.0-6.0-0.10","byh3nmyv68","many_one","0","indirect_first","0","hnulnk09","0","24","1","1","3","1","","0","1","0","null","","","<div class = 'row'><div class = 'column'><img src = 'category2/CS1.png' width = '70%;'></div><div class = 'column'><img src = 'uspos/5621.bmp' width = '100%;'></div></div>","null","pos","CS","CS","2","category2/CS1.png","","","","",""
"","html-keyboard-response","80","361313","0.0-6.0-6.0-0.11","byh3nmyv68","many_one","0","indirect_first","0","hnulnk09","0","24","1","1","3","1","","0","1","0","null","","","<div class = 'row'><div class = 'column'><img src = 'category4/CS7.png' width = '70%;'></div><div class = 'column'><img src = 'uspos/7580.bmp' width = '100%;'></div></div>","null","pos","CS","CS","4","category4/CS7.png","","","","",""
"","html-keyboard-response","81","363817","0.0-6.0-6.0-0.12","byh3nmyv68","many_one","0","indirect_first","0","hnulnk09","0","24","1","1","3","1","","0","1","0","null","","","<div class = 'row'><div class = 'column'><img src = 'category1/CS4.png' width = '70%;'></div><div class = 'column'><img src = 'usneg/9000.bmp' width = '100%;'></div></div>","null","neg","CS","CS","1","category1/CS4.png","","","","",""
"","html-keyboard-response","82","366321","0.0-6.0-6.0-0.13","byh3nmyv68","many_one","0","indirect_first","0","hnulnk09","0","24","1","1","3","1","","0","1","0","null","","","<div class = 'row'><div class = 'column'><img src = 'category1/CS7.png' width = '70%;'></div><div class = 'column'><img src = 'usneg/6570.1.bmp' width = '100%;'></div></div>","null","neg","CS","CS","1","category1/CS7.png","","","","",""
"","html-keyboard-response","83","368824","0.0-6.0-6.0-0.14","byh3nmyv68","many_one","0","indirect_first","0","hnulnk09","0","24","1","1","3","1","","0","1","0","null","","","<div class = 'row'><div class = 'column'><img src = 'category2/CS7.png' width = '70%;'></div><div class = 'column'><img src = 'uspos/1440.bmp' width = '100%;'></div></div>","null","pos","CS","CS","2","category2/CS7.png","","","","",""
"","html-keyboard-response","84","371328","0.0-6.0-6.0-0.15","byh3nmyv68","many_one","0","indirect_first","0","hnulnk09","0","24","1","1","3","1","","0","1","0","null","","","<div class = 'row'><div class = 'column'><img src = 'uspos/5600.bmp' width = '100%;'></div><div class = 'column'><img src = 'category2/CS2.png' width = '70%;'></div></div>","null","pos","CS","CS","2","category2/CS2.png","","","","",""
"","html-keyboard-response","85","373832","0.0-6.0-6.0-0.16","byh3nmyv68","many_one","0","indirect_first","0","hnulnk09","0","24","1","1","3","1","","0","1","0","null","","","<div class = 'row'><div class = 'column'><img src = 'category3/CS4.png' width = '70%;'></div><div class = 'column'><img src = 'usneg/6212.bmp' width = '100%;'></div></div>","null","neg","CS","CS","3","category3/CS4.png","","","","",""
"","html-keyboard-response","86","376336","0.0-6.0-6.0-0.17","byh3nmyv68","many_one","0","indirect_first","0","hnulnk09","0","24","1","1","3","1","","0","1","0","null","","","<div class = 'row'><div class = 'column'><img src = 'usneg/9342.bmp' width = '100%;'></div><div class = 'column'><img src = 'category1/CS10.png' width = '70%;'></div></div>","null","neg","CS","CS","1","category1/CS10.png","","","","",""
"","html-keyboard-response","87","378841","0.0-6.0-6.0-0.18","byh3nmyv68","many_one","0","indirect_first","0","hnulnk09","0","24","1","1","3","1","","0","1","0","null","","","<div class = 'row'><div class = 'column'><img src = 'uspos/2040.bmp' width = '100%;'></div><div class = 'column'><img src = 'category4/CS6.png' width = '70%;'></div></div>","null","pos","CS","CS","4","category4/CS6.png","","","","",""
"","html-keyboard-response","88","381347","0.0-6.0-6.0-0.19","byh3nmyv68","many_one","0","indirect_first","0","hnulnk09","0","24","1","1","3","1","","0","1","0","null","","","<div class = 'row'><div class = 'column'><img src = 'category4/CS10.png' width = '70%;'></div><div class = 'column'><img src = 'uspos/1710.bmp' width = '100%;'></div></div>","null","pos","CS","CS","4","category4/CS10.png","","","","",""
"","html-keyboard-response","89","405518","0.0-7.0","byh3nmyv68","many_one","0","indirect_first","0","hnulnk09","0","24","1","1","3","1","","0","1","0","23668.535000178963","","","<p>Sie sehen nun die chinesischen Zeichen nur ganz kurz. Danach sehen Sie die jeweilige Aussprache der Zeichen als Silbe auf dem Bildschrim. Ihre Aufgabe ist es, für jede Silbe anzugeben, ob diese etwas angenehmes, oder unangenehmes bedeuten könnte. Verlassen Sie sich hier vor allem auf Ihre Intuition.<br><br>Die Zeichen werden nur zur Orientierung dargestellt, beachten Sie sie deshalb nicht. Konzentrieren Sie sich vor allem auf die Silben. <br>Reagieren Sie mit folgenden zwei Tasten: <br><br><b>'D' </b> wenn die Silbe etwas <b>unangenehmes</b> bedeuten könnte. <br><b>'K'</b> wenn die Silbe etwas <b>angenehmes</b> bedeuten könnte. <br><br>Bitte legen Sie nun den Zeigefinger der linken Hand auf die Taste 'D' und den Zeigefinger der rechten Hand auf die Taste 'K'. <br>Reagieren Sie auf jede Silbe so schnell wie möglich. Uns interessiert Ihre spontane Reaktion. <br> <br> <br>Drücken Sie 'D' oder 'K', um die nächste Aufgabe zu starten. </p>","75","","","","","","","","","",""
"","html-keyboard-response","90","408522","0.0-8.0-0.0","byh3nmyv68","many_one","0","indirect_first","0","hnulnk09","0","24","1","1","3","1","","0","1","0","null","","","<div style=""font-size:60px;"">+</div>","null","","","","","","","","","",""
"","html-keyboard-response","91","408614","0.0-8.0-1.0","byh3nmyv68","many_one","0","indirect_first","0","hnulnk09","0","24","1","1","3","1","","0","1","0","null","","","<img src = 'category2/CS8.png' width = '100%;'>","null","","","","","","","","","",""
"","html-keyboard-response","92","408867","0.0-8.0-2.0","byh3nmyv68","many_one","0","indirect_first","0","hnulnk09","0","24","1","1","3","1","","0","1","0","null","","","<img src = 'targets/11.png' width = '100%;'>","null","","","","","","","","","",""
"","html-keyboard-response","93","410128","0.0-8.0-3.0","byh3nmyv68","many_one","0","indirect_first","0","hnulnk09","0","24","1","1","3","1","","0","1","0","1260.3699997998774","","","<img src = 'targets/mask.png' width = '100%;'>","75","pos","CS","CS","2","category2/CS8.png","targets/11.png","1","indirect","0",""
"","html-keyboard-response","94","411632","0.0-8.0-0.1","byh3nmyv68","many_one","0","indirect_first","0","hnulnk09","0","24","1","1","3","1","","0","1","0","null","","","<div style=""font-size:60px;"">+</div>","null","","","","","","","","","",""
"","html-keyboard-response","95","411724","0.0-8.0-1.1","byh3nmyv68","many_one","0","indirect_first","0","hnulnk09","0","24","1","1","3","1","","0","1","0","null","","","<img src = 'category4/CS2.png' width = '100%;'>","null","","","","","","","","","",""
"","html-keyboard-response","96","411976","0.0-8.0-2.1","byh3nmyv68","many_one","0","indirect_first","0","hnulnk09","0","24","1","1","3","1","","0","1","0","null","","","<img src = 'targets/45.png' width = '100%;'>","null","","","","","","","","","",""
"","html-keyboard-response","97","412431","0.0-8.0-3.1","byh3nmyv68","many_one","0","indirect_first","0","hnulnk09","0","24","1","1","3","1","","0","1","0","454.1000002063811","","","<img src = 'targets/mask.png' width = '100%;'>","68","pos","CS","CS","4","category4/CS2.png","targets/45.png","0","indirect","1",""
"","html-keyboard-response","98","413935","0.0-8.0-0.2","byh3nmyv68","many_one","0","indirect_first","0","hnulnk09","0","24","1","1","3","1","","0","1","0","null","","","<div style=""font-size:60px;"">+</div>","null","","","","","","","","","",""
"","html-keyboard-response","99","414026","0.0-8.0-1.2","byh3nmyv68","many_one","0","indirect_first","0","hnulnk09","0","24","1","1","3","1","","0","1","0","null","","","<img src = 'category3/CS6.png' width = '100%;'>","null","","","","","","","","","",""
"","html-keyboard-response","100","414277","0.0-8.0-2.2","byh3nmyv68","many_one","0","indirect_first","0","hnulnk09","0","24","1","1","3","1","","0","1","0","null","","","<img src = 'targets/30.png' width = '100%;'>","null","","","","","","","","","",""
"","html-keyboard-response","101","414822","0.0-8.0-3.2","byh3nmyv68","many_one","0","indirect_first","0","hnulnk09","0","24","1","1","3","1","","0","1","0","543.705000076443","","","<img src = 'targets/mask.png' width = '100%;'>","68","neg","CS","CS","3","category3/CS6.png","targets/30.png","0","indirect","2",""
"","html-keyboard-response","102","416324","0.0-8.0-0.3","byh3nmyv68","many_one","0","indirect_first","0","hnulnk09","0","24","1","1","3","1","","0","1","0","null","","","<div style=""font-size:60px;"">+</div>","null","","","","","","","","","",""
"","html-keyboard-response","103","416418","0.0-8.0-1.3","byh3nmyv68","many_one","0","indirect_first","0","hnulnk09","0","24","1","1","3","1","","0","1","0","null","","","<img src = 'category3/CS1.png' width = '100%;'>","null","","","","","","","","","",""
"","html-keyboard-response","104","416683","0.0-8.0-2.3","byh3nmyv68","many_one","0","indirect_first","0","hnulnk09","0","24","1","1","3","1","","0","1","0","null","","","<img src = 'targets/46.png' width = '100%;'>","null","","","","","","","","","",""
"","html-keyboard-response","105","417126","0.0-8.0-3.3","byh3nmyv68","many_one","0","indirect_first","0","hnulnk09","0","24","1","1","3","1","","0","1","0","441.8700002133846","","","<img src = 'targets/mask.png' width = '100%;'>","68","neg","CS","CS","3","category3/CS1.png","targets/46.png","0","indirect","3",""
"","html-keyboard-response","106","418628","0.0-8.0-0.4","byh3nmyv68","many_one","0","indirect_first","0","hnulnk09","0","24","1","1","3","1","","0","1","0","null","","","<div style=""font-size:60px;"">+</div>","null","","","","","","","","","",""
"","html-keyboard-response","107","418720","0.0-8.0-1.4","byh3nmyv68","many_one","0","indirect_first","0","hnulnk09","0","24","1","1","3","1","","0","1","0","null","","","<img src = 'category4/CS10.png' width = '100%;'>","null","","","","","","","","","",""
"","html-keyboard-response","108","418972","0.0-8.0-2.4","byh3nmyv68","many_one","0","indirect_first","0","hnulnk09","0","24","1","1","3","1","","0","1","0","null","","","<img src = 'targets/13.png' width = '100%;'>","null","","","","","","","","","",""
"","html-keyboard-response","109","419426","0.0-8.0-3.4","byh3nmyv68","many_one","0","indirect_first","0","hnulnk09","0","24","1","1","3","1","","0","1","0","452.81000016257167","","","<img src = 'targets/mask.png' width = '100%;'>","75","pos","CS","CS","4","category4/CS10.png","targets/13.png","1","indirect","4",""
"","html-keyboard-response","110","420928","0.0-8.0-0.5","byh3nmyv68","many_one","0","indirect_first","0","hnulnk09","0","24","1","1","3","1","","0","1","0","null","","","<div style=""font-size:60px;"">+</div>","null","","","","","","","","","",""
"","html-keyboard-response","111","421020","0.0-8.0-1.5","byh3nmyv68","many_one","0","indirect_first","0","hnulnk09","0","24","1","1","3","1","","0","1","0","null","","","<img src = 'category2/CS1.png' width = '100%;'>","null","","","","","","","","","",""
"","html-keyboard-response","112","421272","0.0-8.0-2.5","byh3nmyv68","many_one","0","indirect_first","0","hnulnk09","0","24","1","1","3","1","","0","1","0","null","","","<img src = 'targets/38.png' width = '100%;'>","null","","","","","","","","","",""
"","html-keyboard-response","113","421836","0.0-8.0-3.5","byh3nmyv68","many_one","0","indirect_first","0","hnulnk09","0","24","1","1","3","1","","0","1","0","562.8100000321865","","","<img src = 'targets/mask.png' width = '100%;'>","75","pos","CS","CS","2","category2/CS1.png","targets/38.png","1","indirect","5",""
"","html-keyboard-response","114","423338","0.0-8.0-0.6","byh3nmyv68","many_one","0","indirect_first","0","hnulnk09","0","24","1","1","3","1","","0","1","0","null","","","<div style=""font-size:60px;"">+</div>","null","","","","","","","","","",""
"","html-keyboard-response","115","423430","0.0-8.0-1.6","byh3nmyv68","many_one","0","indirect_first","0","hnulnk09","0","24","1","1","3","1","","0","1","0","null","","","<img src = 'category1/CS7.png' width = '100%;'>","null","","","","","","","","","",""
"","html-keyboard-response","116","423682","0.0-8.0-2.6","byh3nmyv68","many_one","0","indirect_first","0","hnulnk09","0","24","1","1","3","1","","0","1","0","null","","","<img src = 'targets/34.png' width = '100%;'>","null","","","","","","","","","",""
"","html-keyboard-response","117","424248","0.0-8.0-3.6","byh3nmyv68","many_one","0","indirect_first","0","hnulnk09","0","24","1","1","3","1","","0","1","0","564.3199998885393","","","<img src = 'targets/mask.png' width = '100%;'>","68","neg","CS","CS","1","category1/CS7.png","targets/34.png","0","indirect","6",""
"","html-keyboard-response","118","425751","0.0-8.0-0.7","byh3nmyv68","many_one","0","indirect_first","0","hnulnk09","0","24","1","1","3","1","","0","1","0","null","","","<div style=""font-size:60px;"">+</div>","null","","","","","","","","","",""
"","html-keyboard-response","119","425843","0.0-8.0-1.7","byh3nmyv68","many_one","0","indirect_first","0","hnulnk09","0","24","1","1","3","1","","0","1","0","null","","","<img src = 'category2/CS2.png' width = '100%;'>","null","","","","","","","","","",""
"","html-keyboard-response","120","426095","0.0-8.0-2.7","byh3nmyv68","many_one","0","indirect_first","0","hnulnk09","0","24","1","1","3","1","","0","1","0","null","","","<img src = 'targets/47.png' width = '100%;'>","null","","","","","","","","","",""
"","html-keyboard-response","121","426783","0.0-8.0-3.7","byh3nmyv68","many_one","0","indirect_first","0","hnulnk09","0","24","1","1","3","1","","0","1","0","686.589999590069","","","<img src = 'targets/mask.png' width = '100%;'>","75","pos","CS","CS","2","category2/CS2.png","targets/47.png","1","indirect","7",""
"","html-keyboard-response","122","428286","0.0-8.0-0.8","byh3nmyv68","many_one","0","indirect_first","0","hnulnk09","0","24","1","1","3","1","","0","1","0","null","","","<div style=""font-size:60px;"">+</div>","null","","","","","","","","","",""
"","html-keyboard-response","123","428377","0.0-8.0-1.8","byh3nmyv68","many_one","0","indirect_first","0","hnulnk09","0","24","1","1","3","1","","0","1","0","null","","","<img src = 'category3/CS3.png' width = '100%;'>","null","","","","","","","","","",""
"","html-keyboard-response","124","428631","0.0-8.0-2.8","byh3nmyv68","many_one","0","indirect_first","0","hnulnk09","0","24","1","1","3","1","","0","1","0","null","","","<img src = 'targets/48.png' width = '100%;'>","null","","","","","","","","","",""
"","html-keyboard-response","125","429120","0.0-8.0-3.8","byh3nmyv68","many_one","0","indirect_first","0","hnulnk09","0","24","1","1","3","1","","0","1","0","488.26999962329865","","","<img src = 'targets/mask.png' width = '100%;'>","68","neg","CS","CS","3","category3/CS3.png","targets/48.png","0","indirect","8",""
"","html-keyboard-response","126","430622","0.0-8.0-0.9","byh3nmyv68","many_one","0","indirect_first","0","hnulnk09","0","24","1","1","3","1","","0","1","0","null","","","<div style=""font-size:60px;"">+</div>","null","","","","","","","","","",""
"","html-keyboard-response","127","430714","0.0-8.0-1.9","byh3nmyv68","many_one","0","indirect_first","0","hnulnk09","0","24","1","1","3","1","","0","1","0","null","","","<img src = 'category1/CS4.png' width = '100%;'>","null","","","","","","","","","",""
"","html-keyboard-response","128","430966","0.0-8.0-2.9","byh3nmyv68","many_one","0","indirect_first","0","hnulnk09","0","24","1","1","3","1","","0","1","0","null","","","<img src = 'targets/14.png' width = '100%;'>","null","","","","","","","","","",""
"","html-keyboard-response","129","431489","0.0-8.0-3.9","byh3nmyv68","many_one","0","indirect_first","0","hnulnk09","0","24","1","1","3","1","","0","1","0","521.805000025779","","","<img src = 'targets/mask.png' width = '100%;'>","75","neg","CS","CS","1","category1/CS4.png","targets/14.png","1","indirect","9",""
"","html-keyboard-response","130","433002","0.0-8.0-0.10","byh3nmyv68","many_one","0","indirect_first","0","hnulnk09","0","24","1","1","3","1","","0","1","0","null","","","<div style=""font-size:60px;"">+</div>","null","","","","","","","","","",""
"","html-keyboard-response","131","433093","0.0-8.0-1.10","byh3nmyv68","many_one","0","indirect_first","0","hnulnk09","0","24","1","1","3","1","","0","1","0","null","","","<img src = 'category4/CS7.png' width = '100%;'>","null","","","","","","","","","",""
"","html-keyboard-response","132","433345","0.0-8.0-2.10","byh3nmyv68","many_one","0","indirect_first","0","hnulnk09","0","24","1","1","3","1","","0","1","0","null","","","<img src = 'targets/29.png' width = '100%;'>","null","","","","","","","","","",""
"","html-keyboard-response","133","433925","0.0-8.0-3.10","byh3nmyv68","many_one","0","indirect_first","0","hnulnk09","0","24","1","1","3","1","","0","1","0","578.6050003953278","","","<img src = 'targets/mask.png' width = '100%;'>","68","pos","CS","CS","4","category4/CS7.png","targets/29.png","0","indirect","10",""
"","html-keyboard-response","134","435427","0.0-8.0-0.11","byh3nmyv68","many_one","0","indirect_first","0","hnulnk09","0","24","1","1","3","1","","0","1","0","null","","","<div style=""font-size:60px;"">+</div>","null","","","","","","","","","",""
"","html-keyboard-response","135","435520","0.0-8.0-1.11","byh3nmyv68","many_one","0","indirect_first","0","hnulnk09","0","24","1","1","3","1","","0","1","0","null","","","<img src = 'category1/CS10.png' width = '100%;'>","null","","","","","","","","","",""
"","html-keyboard-response","136","435773","0.0-8.0-2.11","byh3nmyv68","many_one","0","indirect_first","0","hnulnk09","0","24","1","1","3","1","","0","1","0","null","","","<img src = 'targets/10.png' width = '100%;'>","null","","","","","","","","","",""
"","html-keyboard-response","137","436360","0.0-8.0-3.11","byh3nmyv68","many_one","0","indirect_first","0","hnulnk09","0","24","1","1","3","1","","0","1","0","585.7899999246001","","","<img src = 'targets/mask.png' width = '100%;'>","75","neg","CS","CS","1","category1/CS10.png","targets/10.png","1","indirect","11",""
"","html-keyboard-response","138","437862","0.0-8.0-0.12","byh3nmyv68","many_one","0","indirect_first","0","hnulnk09","0","24","1","1","3","1","","0","1","0","null","","","<div style=""font-size:60px;"">+</div>","null","","","","","","","","","",""
"","html-keyboard-response","139","437954","0.0-8.0-1.12","byh3nmyv68","many_one","0","indirect_first","0","hnulnk09","0","24","1","1","3","1","","0","1","0","null","","","<img src = 'category4/CS9.png' width = '100%;'>","null","","","","","","","","","",""
"","html-keyboard-response","140","438206","0.0-8.0-2.12","byh3nmyv68","many_one","0","indirect_first","0","hnulnk09","0","24","1","1","3","1","","0","1","0","null","","","<img src = 'targets/4.png' width = '100%;'>","null","","","","","","","","","",""
"","html-keyboard-response","141","439177","0.0-8.0-3.12","byh3nmyv68","many_one","0","indirect_first","0","hnulnk09","0","24","1","1","3","1","","0","1","0","969.820000231266","","","<img src = 'targets/mask.png' width = '100%;'>","68","pos","GS","GSold","4","category4/CS9.png","targets/4.png","0","indirect","12",""
"","html-keyboard-response","142","440680","0.0-8.0-0.13","byh3nmyv68","many_one","0","indirect_first","0","hnulnk09","0","24","1","1","3","1","","0","1","0","null","","","<div style=""font-size:60px;"">+</div>","null","","","","","","","","","",""
"","html-keyboard-response","143","440772","0.0-8.0-1.13","byh3nmyv68","many_one","0","indirect_first","0","hnulnk09","0","24","1","1","3","1","","0","1","0","null","","","<img src = 'category1/CS6.png' width = '100%;'>","null","","","","","","","","","",""
"","html-keyboard-response","144","441025","0.0-8.0-2.13","byh3nmyv68","many_one","0","indirect_first","0","hnulnk09","0","24","1","1","3","1","","0","1","0","null","","","<img src = 'targets/5.png' width = '100%;'>","null","","","","","","","","","",""
"","html-keyboard-response","145","441625","0.0-8.0-3.13","byh3nmyv68","many_one","0","indirect_first","0","hnulnk09","0","24","1","1","3","1","","0","1","0","599.2799997329712","","","<img src = 'targets/mask.png' width = '100%;'>","68","neg","CS","CS","1","category1/CS6.png","targets/5.png","0","indirect","13",""
"","html-keyboard-response","146","443127","0.0-8.0-0.14","byh3nmyv68","many_one","0","indirect_first","0","hnulnk09","0","24","1","1","3","1","","0","1","0","null","","","<div style=""font-size:60px;"">+</div>","null","","","","","","","","","",""
"","html-keyboard-response","147","443219","0.0-8.0-1.14","byh3nmyv68","many_one","0","indirect_first","0","hnulnk09","0","24","1","1","3","1","","0","1","0","null","","","<img src = 'category3/CS10.png' width = '100%;'>","null","","","","","","","","","",""
"","html-keyboard-response","148","443472","0.0-8.0-2.14","byh3nmyv68","many_one","0","indirect_first","0","hnulnk09","0","24","1","1","3","1","","0","1","0","null","","","<img src = 'targets/19.png' width = '100%;'>","null","","","","","","","","","",""
"","html-keyboard-response","149","443911","0.0-8.0-3.14","byh3nmyv68","many_one","0","indirect_first","0","hnulnk09","0","24","1","1","3","1","","0","1","0","438.2850001566112","","","<img src = 'targets/mask.png' width = '100%;'>","68","neg","CS","CS","3","category3/CS10.png","targets/19.png","0","indirect","14",""
"","html-keyboard-response","150","445413","0.0-8.0-0.15","byh3nmyv68","many_one","0","indirect_first","0","hnulnk09","0","24","1","1","3","1","","0","1","0","null","","","<div style=""font-size:60px;"">+</div>","null","","","","","","","","","",""
"","html-keyboard-response","151","445505","0.0-8.0-1.15","byh3nmyv68","many_one","0","indirect_first","0","hnulnk09","0","24","1","1","3","1","","0","1","0","null","","","<img src = 'category3/CS5.png' width = '100%;'>","null","","","","","","","","","",""
"","html-keyboard-response","152","445758","0.0-8.0-2.15","byh3nmyv68","many_one","0","indirect_first","0","hnulnk09","0","24","1","1","3","1","","0","1","0","null","","","<img src = 'targets/39.png' width = '100%;'>","null","","","","","","","","","",""
"","html-keyboard-response","153","446279","0.0-8.0-3.15","byh3nmyv68","many_one","0","indirect_first","0","hnulnk09","0","24","1","1","3","1","","0","1","0","518.4999997727573","","","<img src = 'targets/mask.png' width = '100%;'>","68","neg","GS","GSold","3","category3/CS5.png","targets/39.png","0","indirect","15",""
"","html-keyboard-response","154","447780","0.0-8.0-0.16","byh3nmyv68","many_one","0","indirect_first","0","hnulnk09","0","24","1","1","3","1","","0","1","0","null","","","<div style=""font-size:60px;"">+</div>","null","","","","","","","","","",""
"","html-keyboard-response","155","447871","0.0-8.0-1.16","byh3nmyv68","many_one","0","indirect_first","0","hnulnk09","0","24","1","1","3","1","","0","1","0","null","","","<img src = 'category2/CS7.png' width = '100%;'>","null","","","","","","","","","",""
"","html-keyboard-response","156","448124","0.0-8.0-2.16","byh3nmyv68","many_one","0","indirect_first","0","hnulnk09","0","24","1","1","3","1","","0","1","0","null","","","<img src = 'targets/31.png' width = '100%;'>","null","","","","","","","","","",""
"","html-keyboard-response","157","448506","0.0-8.0-3.16","byh3nmyv68","many_one","0","indirect_first","0","hnulnk09","0","24","1","1","3","1","","0","1","0","380.59999980032444","","","<img src = 'targets/mask.png' width = '100%;'>","75","pos","CS","CS","2","category2/CS7.png","targets/31.png","1","indirect","16",""
"","html-keyboard-response","158","450008","0.0-8.0-0.17","byh3nmyv68","many_one","0","indirect_first","0","hnulnk09","0","24","1","1","3","1","","0","1","0","null","","","<div style=""font-size:60px;"">+</div>","null","","","","","","","","","",""
"","html-keyboard-response","159","450100","0.0-8.0-1.17","byh3nmyv68","many_one","0","indirect_first","0","hnulnk09","0","24","1","1","3","1","","0","1","0","null","","","<img src = 'category2/CS4.png' width = '100%;'>","null","","","","","","","","","",""
"","html-keyboard-response","160","450352","0.0-8.0-2.17","byh3nmyv68","many_one","0","indirect_first","0","hnulnk09","0","24","1","1","3","1","","0","1","0","null","","","<img src = 'targets/7.png' width = '100%;'>","null","","","","","","","","","",""
"","html-keyboard-response","161","450862","0.0-8.0-3.17","byh3nmyv68","many_one","0","indirect_first","0","hnulnk09","0","24","1","1","3","1","","0","1","0","509.09999990835786","","","<img src = 'targets/mask.png' width = '100%;'>","68","pos","CS","CS","2","category2/CS4.png","targets/7.png","0","indirect","17",""
"","html-keyboard-response","162","452365","0.0-8.0-0.18","byh3nmyv68","many_one","0","indirect_first","0","hnulnk09","0","24","1","1","3","1","","0","1","0","null","","","<div style=""font-size:60px;"">+</div>","null","","","","","","","","","",""
"","html-keyboard-response","163","452456","0.0-8.0-1.18","byh3nmyv68","many_one","0","indirect_first","0","hnulnk09","0","24","1","1","3","1","","0","1","0","null","","","<img src = 'category3/CS7.png' width = '100%;'>","null","","","","","","","","","",""
"","html-keyboard-response","164","452709","0.0-8.0-2.18","byh3nmyv68","many_one","0","indirect_first","0","hnulnk09","0","24","1","1","3","1","","0","1","0","null","","","<img src = 'targets/18.png' width = '100%;'>","null","","","","","","","","","",""
"","html-keyboard-response","165","453242","0.0-8.0-3.18","byh3nmyv68","many_one","0","indirect_first","0","hnulnk09","0","24","1","1","3","1","","0","1","0","532.1999997831881","","","<img src = 'targets/mask.png' width = '100%;'>","68","neg","GS","GSold","3","category3/CS7.png","targets/18.png","0","indirect","18",""
"","html-keyboard-response","166","454745","0.0-8.0-0.19","byh3nmyv68","many_one","0","indirect_first","0","hnulnk09","0","24","1","1","3","1","","0","1","0","null","","","<div style=""font-size:60px;"">+</div>","null","","","","","","","","","",""
"","html-keyboard-response","167","454837","0.0-8.0-1.19","byh3nmyv68","many_one","0","indirect_first","0","hnulnk09","0","24","1","1","3","1","","0","1","0","null","","","<img src = 'category3/CS4.png' width = '100%;'>","null","","","","","","","","","",""
"","html-keyboard-response","168","455090","0.0-8.0-2.19","byh3nmyv68","many_one","0","indirect_first","0","hnulnk09","0","24","1","1","3","1","","0","1","0","null","","","<img src = 'targets/20.png' width = '100%;'>","null","","","","","","","","","",""
"","html-keyboard-response","169","455608","0.0-8.0-3.19","byh3nmyv68","many_one","0","indirect_first","0","hnulnk09","0","24","1","1","3","1","","0","1","0","515.974999871105","","","<img src = 'targets/mask.png' width = '100%;'>","68","neg","CS","CS","3","category3/CS4.png","targets/20.png","0","indirect","19",""
"","html-keyboard-response","170","457110","0.0-8.0-0.20","byh3nmyv68","many_one","0","indirect_first","0","hnulnk09","0","24","1","1","3","1","","0","1","0","null","","","<div style=""font-size:60px;"">+</div>","null","","","","","","","","","",""
"","html-keyboard-response","171","457201","0.0-8.0-1.20","byh3nmyv68","many_one","0","indirect_first","0","hnulnk09","0","24","1","1","3","1","","0","1","0","null","","","<img src = 'category1/CS2.png' width = '100%;'>","null","","","","","","","","","",""
"","html-keyboard-response","172","457454","0.0-8.0-2.20","byh3nmyv68","many_one","0","indirect_first","0","hnulnk09","0","24","1","1","3","1","","0","1","0","null","","","<img src = 'targets/22.png' width = '100%;'>","null","","","","","","","","","",""
"","html-keyboard-response","173","457962","0.0-8.0-3.20","byh3nmyv68","many_one","0","indirect_first","0","hnulnk09","0","24","1","1","3","1","","0","1","0","506.69499998912215","","","<img src = 'targets/mask.png' width = '100%;'>","75","neg","CS","CS","1","category1/CS2.png","targets/22.png","1","indirect","20",""
"","html-keyboard-response","174","459464","0.0-8.0-0.21","byh3nmyv68","many_one","0","indirect_first","0","hnulnk09","0","24","1","1","3","1","","0","1","0","null","","","<div style=""font-size:60px;"">+</div>","null","","","","","","","","","",""
"","html-keyboard-response","175","459556","0.0-8.0-1.21","byh3nmyv68","many_one","0","indirect_first","0","hnulnk09","0","24","1","1","3","1","","0","1","0","null","","","<img src = 'category4/CS3.png' width = '100%;'>","null","","","","","","","","","",""
"","html-keyboard-response","176","459814","0.0-8.0-2.21","byh3nmyv68","many_one","0","indirect_first","0","hnulnk09","0","24","1","1","3","1","","0","1","0","null","","","<img src = 'targets/41.png' width = '100%;'>","null","","","","","","","","","",""
"","html-keyboard-response","177","460293","0.0-8.0-3.21","byh3nmyv68","many_one","0","indirect_first","0","hnulnk09","0","24","1","1","3","1","","0","1","0","477.3499998264015","","","<img src = 'targets/mask.png' width = '100%;'>","75","pos","CS","CS","4","category4/CS3.png","targets/41.png","1","indirect","21",""
"","html-keyboard-response","178","461796","0.0-8.0-0.22","byh3nmyv68","many_one","0","indirect_first","0","hnulnk09","0","24","1","1","3","1","","0","1","0","null","","","<div style=""font-size:60px;"">+</div>","null","","","","","","","","","",""
"","html-keyboard-response","179","461887","0.0-8.0-1.22","byh3nmyv68","many_one","0","indirect_first","0","hnulnk09","0","24","1","1","3","1","","0","1","0","null","","","<img src = 'category3/CS2.png' width = '100%;'>","null","","","","","","","","","",""
"","html-keyboard-response","180","462139","0.0-8.0-2.22","byh3nmyv68","many_one","0","indirect_first","0","hnulnk09","0","24","1","1","3","1","","0","1","0","null","","","<img src = 'targets/28.png' width = '100%;'>","null","","","","","","","","","",""
"","html-keyboard-response","181","462541","0.0-8.0-3.22","byh3nmyv68","many_one","0","indirect_first","0","hnulnk09","0","24","1","1","3","1","","0","1","0","400.84500005468726","","","<img src = 'targets/mask.png' width = '100%;'>","68","neg","GS","GSold","3","category3/CS2.png","targets/28.png","0","indirect","22",""
"","html-keyboard-response","182","464055","0.0-8.0-0.23","byh3nmyv68","many_one","0","indirect_first","0","hnulnk09","0","24","1","1","3","1","","0","1","0","null","","","<div style=""font-size:60px;"">+</div>","null","","","","","","","","","",""
"","html-keyboard-response","183","464148","0.0-8.0-1.23","byh3nmyv68","many_one","0","indirect_first","0","hnulnk09","0","24","1","1","3","1","","0","1","0","null","","","<img src = 'category4/CS6.png' width = '100%;'>","null","","","","","","","","","",""
"","html-keyboard-response","184","464400","0.0-8.0-2.23","byh3nmyv68","many_one","0","indirect_first","0","hnulnk09","0","24","1","1","3","1","","0","1","0","null","","","<img src = 'targets/33.png' width = '100%;'>","null","","","","","","","","","",""
"","html-keyboard-response","185","464860","0.0-8.0-3.23","byh3nmyv68","many_one","0","indirect_first","0","hnulnk09","0","24","1","1","3","1","","0","1","0","458.8049999438226","","","<img src = 'targets/mask.png' width = '100%;'>","75","pos","CS","CS","4","category4/CS6.png","targets/33.png","1","indirect","23",""
"","survey-html-form","186","468451","0.0-9.0","byh3nmyv68","many_one","0","indirect_first","0","hnulnk09","0","24","1","1","3","1","","0","1","0","3088.9650001190603","","{}","","","","","","","","","","","",""
"","html-keyboard-response","187","471454","0.0-10.0-0.0","byh3nmyv68","many_one","0","indirect_first","0","hnulnk09","0","24","1","1","3","1","","0","1","0","null","","","<div style=""font-size:60px;"">+</div>","null","","","","","","","","","",""
"","html-keyboard-response","188","471545","0.0-10.0-1.0","byh3nmyv68","many_one","0","indirect_first","0","hnulnk09","0","24","1","1","3","1","","0","1","0","null","","","<img src = 'category3/GS1.png' width = '100%;'>","null","","","","","","","","","",""
"","html-keyboard-response","189","471797","0.0-10.0-2.0","byh3nmyv68","many_one","0","indirect_first","0","hnulnk09","0","24","1","1","3","1","","0","1","0","null","","","<img src = 'targets/43.png' width = '100%;'>","null","","","","","","","","","",""
"","html-keyboard-response","190","472616","0.0-10.0-3.0","byh3nmyv68","many_one","0","indirect_first","0","hnulnk09","0","24","1","1","3","1","","0","1","0","816.8450002558529","","","<img src = 'targets/mask.png' width = '100%;'>","68","neg","GS","GSnew","3","category3/GS1.png","targets/43.png","0","indirect","24",""
"","html-keyboard-response","191","474117","0.0-10.0-0.1","byh3nmyv68","many_one","0","indirect_first","0","hnulnk09","0","24","1","1","3","1","","0","1","0","null","","","<div style=""font-size:60px;"">+</div>","null","","","","","","","","","",""
"","html-keyboard-response","192","474209","0.0-10.0-1.1","byh3nmyv68","many_one","0","indirect_first","0","hnulnk09","0","24","1","1","3","1","","0","1","0","null","","","<img src = 'category4/GS3.png' width = '100%;'>","null","","","","","","","","","",""
"","html-keyboard-response","193","474462","0.0-10.0-2.1","byh3nmyv68","many_one","0","indirect_first","0","hnulnk09","0","24","1","1","3","1","","0","1","0","null","","","<img src = 'targets/17.png' width = '100%;'>","null","","","","","","","","","",""
"","html-keyboard-response","194","474933","0.0-10.0-3.1","byh3nmyv68","many_one","0","indirect_first","0","hnulnk09","0","24","1","1","3","1","","0","1","0","470.339999999851","","","<img src = 'targets/mask.png' width = '100%;'>","75","pos","GS","GSnew","4","category4/GS3.png","targets/17.png","1","indirect","25",""
"","html-keyboard-response","195","476441","0.0-10.0-0.2","byh3nmyv68","many_one","0","indirect_first","0","hnulnk09","0","24","1","1","3","1","","0","1","0","null","","","<div style=""font-size:60px;"">+</div>","null","","","","","","","","","",""
"","html-keyboard-response","196","476533","0.0-10.0-1.2","byh3nmyv68","many_one","0","indirect_first","0","hnulnk09","0","24","1","1","3","1","","0","1","0","null","","","<img src = 'category2/CS9.png' width = '100%;'>","null","","","","","","","","","",""
"","html-keyboard-response","197","476785","0.0-10.0-2.2","byh3nmyv68","many_one","0","indirect_first","0","hnulnk09","0","24","1","1","3","1","","0","1","0","null","","","<img src = 'targets/35.png' width = '100%;'>","null","","","","","","","","","",""
"","html-keyboard-response","198","477294","0.0-10.0-3.2","byh3nmyv68","many_one","0","indirect_first","0","hnulnk09","0","24","1","1","3","1","","0","1","0","507.2650001384318","","","<img src = 'targets/mask.png' width = '100%;'>","75","pos","GS","GSold","2","category2/CS9.png","targets/35.png","1","indirect","26",""
"","html-keyboard-response","199","478796","0.0-10.0-0.3","byh3nmyv68","many_one","0","indirect_first","0","hnulnk09","0","24","1","1","3","1","","0","1","0","null","","","<div style=""font-size:60px;"">+</div>","null","","","","","","","","","",""
"","html-keyboard-response","200","478888","0.0-10.0-1.3","byh3nmyv68","many_one","0","indirect_first","0","hnulnk09","0","24","1","1","3","1","","0","1","0","null","","","<img src = 'category1/GS2.png' width = '100%;'>","null","","","","","","","","","",""
"","html-keyboard-response","201","479141","0.0-10.0-2.3","byh3nmyv68","many_one","0","indirect_first","0","hnulnk09","0","24","1","1","3","1","","0","1","0","null","","","<img src = 'targets/40.png' width = '100%;'>","null","","","","","","","","","",""
"","html-keyboard-response","202","479603","0.0-10.0-3.3","byh3nmyv68","many_one","0","indirect_first","0","hnulnk09","0","24","1","1","3","1","","0","1","0","461.1200001090765","","","<img src = 'targets/mask.png' width = '100%;'>","75","neg","GS","GSnew","1","category1/GS2.png","targets/40.png","1","indirect","27",""
"","html-keyboard-response","203","481105","0.0-10.0-0.4","byh3nmyv68","many_one","0","indirect_first","0","hnulnk09","0","24","1","1","3","1","","0","1","0","null","","","<div style=""font-size:60px;"">+</div>","null","","","","","","","","","",""
"","html-keyboard-response","204","481197","0.0-10.0-1.4","byh3nmyv68","many_one","0","indirect_first","0","hnulnk09","0","24","1","1","3","1","","0","1","0","null","","","<img src = 'category2/GS1.png' width = '100%;'>","null","","","","","","","","","",""
"","html-keyboard-response","205","481450","0.0-10.0-2.4","byh3nmyv68","many_one","0","indirect_first","0","hnulnk09","0","24","1","1","3","1","","0","1","0","null","","","<img src = 'targets/2.png' width = '100%;'>","null","","","","","","","","","",""
"","html-keyboard-response","206","482017","0.0-10.0-3.4","byh3nmyv68","many_one","0","indirect_first","0","hnulnk09","0","24","1","1","3","1","","0","1","0","566.5500001050532","","","<img src = 'targets/mask.png' width = '100%;'>","68","pos","GS","GSnew","2","category2/GS1.png","targets/2.png","0","indirect","28",""
"","html-keyboard-response","207","483521","0.0-10.0-0.5","byh3nmyv68","many_one","0","indirect_first","0","hnulnk09","0","24","1","1","3","1","","0","1","0","null","","","<div style=""font-size:60px;"">+</div>","null","","","","","","","","","",""
"","html-keyboard-response","208","483613","0.0-10.0-1.5","byh3nmyv68","many_one","0","indirect_first","0","hnulnk09","0","24","1","1","3","1","","0","1","0","null","","","<img src = 'category4/CS4.png' width = '100%;'>","null","","","","","","","","","",""
"","html-keyboard-response","209","483866","0.0-10.0-2.5","byh3nmyv68","many_one","0","indirect_first","0","hnulnk09","0","24","1","1","3","1","","0","1","0","null","","","<img src = 'targets/16.png' width = '100%;'>","null","","","","","","","","","",""
"","html-keyboard-response","210","484393","0.0-10.0-3.5","byh3nmyv68","many_one","0","indirect_first","0","hnulnk09","0","24","1","1","3","1","","0","1","0","525.1499996520579","","","<img src = 'targets/mask.png' width = '100%;'>","75","pos","GS","GSold","4","category4/CS4.png","targets/16.png","1","indirect","29",""
"","html-keyboard-response","211","485896","0.0-10.0-0.6","byh3nmyv68","many_one","0","indirect_first","0","hnulnk09","0","24","1","1","3","1","","0","1","0","null","","","<div style=""font-size:60px;"">+</div>","null","","","","","","","","","",""
"","html-keyboard-response","212","485989","0.0-10.0-1.6","byh3nmyv68","many_one","0","indirect_first","0","hnulnk09","0","24","1","1","3","1","","0","1","0","null","","","<img src = 'category3/GS2.png' width = '100%;'>","null","","","","","","","","","",""
"","html-keyboard-response","213","486241","0.0-10.0-2.6","byh3nmyv68","many_one","0","indirect_first","0","hnulnk09","0","24","1","1","3","1","","0","1","0","null","","","<img src = 'targets/32.png' width = '100%;'>","null","","","","","","","","","",""
"","html-keyboard-response","214","486740","0.0-10.0-3.6","byh3nmyv68","many_one","0","indirect_first","0","hnulnk09","0","24","1","1","3","1","","0","1","0","497.5449997000396","","","<img src = 'targets/mask.png' width = '100%;'>","68","neg","GS","GSnew","3","category3/GS2.png","targets/32.png","0","indirect","30",""
"","html-keyboard-response","215","488243","0.0-10.0-0.7","byh3nmyv68","many_one","0","indirect_first","0","hnulnk09","0","24","1","1","3","1","","0","1","0","null","","","<div style=""font-size:60px;"">+</div>","null","","","","","","","","","",""
"","html-keyboard-response","216","488336","0.0-10.0-1.7","byh3nmyv68","many_one","0","indirect_first","0","hnulnk09","0","24","1","1","3","1","","0","1","0","null","","","<img src = 'category2/CS5.png' width = '100%;'>","null","","","","","","","","","",""
"","html-keyboard-response","217","488589","0.0-10.0-2.7","byh3nmyv68","many_one","0","indirect_first","0","hnulnk09","0","24","1","1","3","1","","0","1","0","null","","","<img src = 'targets/6.png' width = '100%;'>","null","","","","","","","","","",""
"","html-keyboard-response","218","489219","0.0-10.0-3.7","byh3nmyv68","many_one","0","indirect_first","0","hnulnk09","0","24","1","1","3","1","","0","1","0","629.0449998341501","","","<img src = 'targets/mask.png' width = '100%;'>","75","pos","GS","GSold","2","category2/CS5.png","targets/6.png","1","indirect","31",""
"","html-keyboard-response","219","490722","0.0-10.0-0.8","byh3nmyv68","many_one","0","indirect_first","0","hnulnk09","0","24","1","1","3","1","","0","1","0","null","","","<div style=""font-size:60px;"">+</div>","null","","","","","","","","","",""
"","html-keyboard-response","220","490813","0.0-10.0-1.8","byh3nmyv68","many_one","0","indirect_first","0","hnulnk09","0","24","1","1","3","1","","0","1","0","null","","","<img src = 'category1/GS1.png' width = '100%;'>","null","","","","","","","","","",""
"","html-keyboard-response","221","491066","0.0-10.0-2.8","byh3nmyv68","many_one","0","indirect_first","0","hnulnk09","0","24","1","1","3","1","","0","1","0","null","","","<img src = 'targets/26.png' width = '100%;'>","null","","","","","","","","","",""
"","html-keyboard-response","222","491558","0.0-10.0-3.8","byh3nmyv68","many_one","0","indirect_first","0","hnulnk09","0","24","1","1","3","1","","0","1","0","490.36499997600913","","","<img src = 'targets/mask.png' width = '100%;'>","75","neg","GS","GSnew","1","category1/GS1.png","targets/26.png","1","indirect","32",""
"","html-keyboard-response","223","493060","0.0-10.0-0.9","byh3nmyv68","many_one","0","indirect_first","0","hnulnk09","0","24","1","1","3","1","","0","1","0","null","","","<div style=""font-size:60px;"">+</div>","null","","","","","","","","","",""
"","html-keyboard-response","224","493152","0.0-10.0-1.9","byh3nmyv68","many_one","0","indirect_first","0","hnulnk09","0","24","1","1","3","1","","0","1","0","null","","","<img src = 'category1/CS8.png' width = '100%;'>","null","","","","","","","","","",""
"","html-keyboard-response","225","493405","0.0-10.0-2.9","byh3nmyv68","many_one","0","indirect_first","0","hnulnk09","0","24","1","1","3","1","","0","1","0","null","","","<img src = 'targets/27.png' width = '100%;'>","null","","","","","","","","","",""
"","html-keyboard-response","226","493918","0.0-10.0-3.9","byh3nmyv68","many_one","0","indirect_first","0","hnulnk09","0","24","1","1","3","1","","0","1","0","512.3850000090897","","","<img src = 'targets/mask.png' width = '100%;'>","68","neg","GS","GSold","1","category1/CS8.png","targets/27.png","0","indirect","33",""
"","html-keyboard-response","227","495421","0.0-10.0-0.10","byh3nmyv68","many_one","0","indirect_first","0","hnulnk09","0","24","1","1","3","1","","0","1","0","null","","","<div style=""font-size:60px;"">+</div>","null","","","","","","","","","",""
"","html-keyboard-response","228","495512","0.0-10.0-1.10","byh3nmyv68","many_one","0","indirect_first","0","hnulnk09","0","24","1","1","3","1","","0","1","0","null","","","<img src = 'category4/lin.png' width = '100%;'>","null","","","","","","","","","",""
"","html-keyboard-response","229","495765","0.0-10.0-2.10","byh3nmyv68","many_one","0","indirect_first","0","hnulnk09","0","24","1","1","3","1","","0","1","0","null","","","<img src = 'targets/42.png' width = '100%;'>","null","","","","","","","","","",""
"","html-keyboard-response","230","496377","0.0-10.0-3.10","byh3nmyv68","many_one","0","indirect_first","0","hnulnk09","0","24","1","1","3","1","","0","1","0","611.2799998372793","","","<img src = 'targets/mask.png' width = '100%;'>","75","pos","GS","abstract","4","category4/lin.png","targets/42.png","1","indirect","34",""
"","html-keyboard-response","231","497880","0.0-10.0-0.11","byh3nmyv68","many_one","0","indirect_first","0","hnulnk09","0","24","1","1","3","1","","0","1","0","null","","","<div style=""font-size:60px;"">+</div>","null","","","","","","","","","",""
"","html-keyboard-response","232","497972","0.0-10.0-1.11","byh3nmyv68","many_one","0","indirect_first","0","hnulnk09","0","24","1","1","3","1","","0","1","0","null","","","<img src = 'category2/CS6.png' width = '100%;'>","null","","","","","","","","","",""
"","html-keyboard-response","233","498224","0.0-10.0-2.11","byh3nmyv68","many_one","0","indirect_first","0","hnulnk09","0","24","1","1","3","1","","0","1","0","null","","","<img src = 'targets/25.png' width = '100%;'>","null","","","","","","","","","",""
"","html-keyboard-response","234","498656","0.0-10.0-3.11","byh3nmyv68","many_one","0","indirect_first","0","hnulnk09","0","24","1","1","3","1","","0","1","0","429.84999995678663","","","<img src = 'targets/mask.png' width = '100%;'>","75","pos","GS","GSold","2","category2/CS6.png","targets/25.png","1","indirect","35",""
"","html-keyboard-response","235","500164","0.0-10.0-0.12","byh3nmyv68","many_one","0","indirect_first","0","hnulnk09","0","24","1","1","3","1","","0","1","0","null","","","<div style=""font-size:60px;"">+</div>","null","","","","","","","","","",""
"","html-keyboard-response","236","500256","0.0-10.0-1.12","byh3nmyv68","many_one","0","indirect_first","0","hnulnk09","0","24","1","1","3","1","","0","1","0","null","","","<img src = 'category2/men.png' width = '100%;'>","null","","","","","","","","","",""
"","html-keyboard-response","237","500508","0.0-10.0-2.12","byh3nmyv68","many_one","0","indirect_first","0","hnulnk09","0","24","1","1","3","1","","0","1","0","null","","","<img src = 'targets/37.png' width = '100%;'>","null","","","","","","","","","",""
"","html-keyboard-response","238","501003","0.0-10.0-3.12","byh3nmyv68","many_one","0","indirect_first","0","hnulnk09","0","24","1","1","3","1","","0","1","0","493.6899999156594","","","<img src = 'targets/mask.png' width = '100%;'>","75","pos","GS","abstract","2","category2/men.png","targets/37.png","1","indirect","36",""
"","html-keyboard-response","239","502505","0.0-10.0-0.13","byh3nmyv68","many_one","0","indirect_first","0","hnulnk09","0","24","1","1","3","1","","0","1","0","null","","","<div style=""font-size:60px;"">+</div>","null","","","","","","","","","",""
"","html-keyboard-response","240","502597","0.0-10.0-1.13","byh3nmyv68","many_one","0","indirect_first","0","hnulnk09","0","24","1","1","3","1","","0","1","0","null","","","<img src = 'category4/GS2.png' width = '100%;'>","null","","","","","","","","","",""
"","html-keyboard-response","241","502850","0.0-10.0-2.13","byh3nmyv68","many_one","0","indirect_first","0","hnulnk09","0","24","1","1","3","1","","0","1","0","null","","","<img src = 'targets/1.png' width = '100%;'>","null","","","","","","","","","",""
"","html-keyboard-response","242","503572","0.0-10.0-3.13","byh3nmyv68","many_one","0","indirect_first","0","hnulnk09","0","24","1","1","3","1","","0","1","0","720.5349998548627","","","<img src = 'targets/mask.png' width = '100%;'>","68","pos","GS","GSnew","4","category4/GS2.png","targets/1.png","0","indirect","37",""
"","html-keyboard-response","243","505074","0.0-10.0-0.14","byh3nmyv68","many_one","0","indirect_first","0","hnulnk09","0","24","1","1","3","1","","0","1","0","null","","","<div style=""font-size:60px;"">+</div>","null","","","","","","","","","",""
"","html-keyboard-response","244","505166","0.0-10.0-1.14","byh3nmyv68","many_one","0","indirect_first","0","hnulnk09","0","24","1","1","3","1","","0","1","0","null","","","<img src = 'category2/GS3.png' width = '100%;'>","null","","","","","","","","","",""
"","html-keyboard-response","245","505419","0.0-10.0-2.14","byh3nmyv68","many_one","0","indirect_first","0","hnulnk09","0","24","1","1","3","1","","0","1","0","null","","","<img src = 'targets/44.png' width = '100%;'>","null","","","","","","","","","",""
"","html-keyboard-response","246","505821","0.0-10.0-3.14","byh3nmyv68","many_one","0","indirect_first","0","hnulnk09","0","24","1","1","3","1","","0","1","0","401.1949999257922","","","<img src = 'targets/mask.png' width = '100%;'>","75","pos","GS","GSnew","2","category2/GS3.png","targets/44.png","1","indirect","38",""
"","html-keyboard-response","247","507322","0.0-10.0-0.15","byh3nmyv68","many_one","0","indirect_first","0","hnulnk09","0","24","1","1","3","1","","0","1","0","null","","","<div style=""font-size:60px;"">+</div>","null","","","","","","","","","",""
"","html-keyboard-response","248","507415","0.0-10.0-1.15","byh3nmyv68","many_one","0","indirect_first","0","hnulnk09","0","24","1","1","3","1","","0","1","0","null","","","<img src = 'category3/GS3.png' width = '100%;'>","null","","","","","","","","","",""
"","html-keyboard-response","249","507667","0.0-10.0-2.15","byh3nmyv68","many_one","0","indirect_first","0","hnulnk09","0","24","1","1","3","1","","0","1","0","null","","","<img src = 'targets/15.png' width = '100%;'>","null","","","","","","","","","",""
"","html-keyboard-response","250","508131","0.0-10.0-3.15","byh3nmyv68","many_one","0","indirect_first","0","hnulnk09","0","24","1","1","3","1","","0","1","0","462.7100001089275","","","<img src = 'targets/mask.png' width = '100%;'>","68","neg","GS","GSnew","3","category3/GS3.png","targets/15.png","0","indirect","39",""
"","html-keyboard-response","251","509632","0.0-10.0-0.16","byh3nmyv68","many_one","0","indirect_first","0","hnulnk09","0","24","1","1","3","1","","0","1","0","null","","","<div style=""font-size:60px;"">+</div>","null","","","","","","","","","",""
"","html-keyboard-response","252","509724","0.0-10.0-1.16","byh3nmyv68","many_one","0","indirect_first","0","hnulnk09","0","24","1","1","3","1","","0","1","0","null","","","<img src = 'category2/GS2.png' width = '100%;'>","null","","","","","","","","","",""
"","html-keyboard-response","253","509981","0.0-10.0-2.16","byh3nmyv68","many_one","0","indirect_first","0","hnulnk09","0","24","1","1","3","1","","0","1","0","null","","","<img src = 'targets/3.png' width = '100%;'>","null","","","","","","","","","",""
"","html-keyboard-response","254","510403","0.0-10.0-3.16","byh3nmyv68","many_one","0","indirect_first","0","hnulnk09","0","24","1","1","3","1","","0","1","0","419.6399999782443","","","<img src = 'targets/mask.png' width = '100%;'>","75","pos","GS","GSnew","2","category2/GS2.png","targets/3.png","1","indirect","40",""
"","html-keyboard-response","255","511905","0.0-10.0-0.17","byh3nmyv68","many_one","0","indirect_first","0","hnulnk09","0","24","1","1","3","1","","0","1","0","null","","","<div style=""font-size:60px;"">+</div>","null","","","","","","","","","",""
"","html-keyboard-response","256","511997","0.0-10.0-1.17","byh3nmyv68","many_one","0","indirect_first","0","hnulnk09","0","24","1","1","3","1","","0","1","0","null","","","<img src = 'category1/CS3.png' width = '100%;'>","null","","","","","","","","","",""
"","html-keyboard-response","257","512249","0.0-10.0-2.17","byh3nmyv68","many_one","0","indirect_first","0","hnulnk09","0","24","1","1","3","1","","0","1","0","null","","","<img src = 'targets/8.png' width = '100%;'>","null","","","","","","","","","",""
"","html-keyboard-response","258","512911","0.0-10.0-3.17","byh3nmyv68","many_one","0","indirect_first","0","hnulnk09","0","24","1","1","3","1","","0","1","0","661.375000141561","","","<img src = 'targets/mask.png' width = '100%;'>","75","neg","GS","GSold","1","category1/CS3.png","targets/8.png","1","indirect","41",""
"","html-keyboard-response","259","514413","0.0-10.0-0.18","byh3nmyv68","many_one","0","indirect_first","0","hnulnk09","0","24","1","1","3","1","","0","1","0","null","","","<div style=""font-size:60px;"">+</div>","null","","","","","","","","","",""
"","html-keyboard-response","260","514505","0.0-10.0-1.18","byh3nmyv68","many_one","0","indirect_first","0","hnulnk09","0","24","1","1","3","1","","0","1","0","null","","","<img src = 'category1/CS9.png' width = '100%;'>","null","","","","","","","","","",""
"","html-keyboard-response","261","514757","0.0-10.0-2.18","byh3nmyv68","many_one","0","indirect_first","0","hnulnk09","0","24","1","1","3","1","","0","1","0","null","","","<img src = 'targets/9.png' width = '100%;'>","null","","","","","","","","","",""
"","html-keyboard-response","262","515207","0.0-10.0-3.18","byh3nmyv68","many_one","0","indirect_first","0","hnulnk09","0","24","1","1","3","1","","0","1","0","448.2350000180304","","","<img src = 'targets/mask.png' width = '100%;'>","68","neg","GS","GSold","1","category1/CS9.png","targets/9.png","0","indirect","42",""
"","html-keyboard-response","263","516710","0.0-10.0-0.19","byh3nmyv68","many_one","0","indirect_first","0","hnulnk09","0","24","1","1","3","1","","0","1","0","null","","","<div style=""font-size:60px;"">+</div>","null","","","","","","","","","",""
"","html-keyboard-response","264","516802","0.0-10.0-1.19","byh3nmyv68","many_one","0","indirect_first","0","hnulnk09","0","24","1","1","3","1","","0","1","0","null","","","<img src = 'category1/ma.png' width = '100%;'>","null","","","","","","","","","",""
"","html-keyboard-response","265","517054","0.0-10.0-2.19","byh3nmyv68","many_one","0","indirect_first","0","hnulnk09","0","24","1","1","3","1","","0","1","0","null","","","<img src = 'targets/12.png' width = '100%;'>","null","","","","","","","","","",""
"","html-keyboard-response","266","517544","0.0-10.0-3.19","byh3nmyv68","many_one","0","indirect_first","0","hnulnk09","0","24","1","1","3","1","","0","1","0","489.3250004388392","","","<img src = 'targets/mask.png' width = '100%;'>","75","neg","GS","abstract","1","category1/ma.png","targets/12.png","1","indirect","43",""
"","html-keyboard-response","267","519047","0.0-10.0-0.20","byh3nmyv68","many_one","0","indirect_first","0","hnulnk09","0","24","1","1","3","1","","0","1","0","null","","","<div style=""font-size:60px;"">+</div>","null","","","","","","","","","",""
"","html-keyboard-response","268","519139","0.0-10.0-1.20","byh3nmyv68","many_one","0","indirect_first","0","hnulnk09","0","24","1","1","3","1","","0","1","0","null","","","<img src = 'category4/GS1.png' width = '100%;'>","null","","","","","","","","","",""
"","html-keyboard-response","269","519391","0.0-10.0-2.20","byh3nmyv68","many_one","0","indirect_first","0","hnulnk09","0","24","1","1","3","1","","0","1","0","null","","","<img src = 'targets/24.png' width = '100%;'>","null","","","","","","","","","",""
"","html-keyboard-response","270","520011","0.0-10.0-3.20","byh3nmyv68","many_one","0","indirect_first","0","hnulnk09","0","24","1","1","3","1","","0","1","0","618.8100003637373","","","<img src = 'targets/mask.png' width = '100%;'>","68","pos","GS","GSnew","4","category4/GS1.png","targets/24.png","0","indirect","44",""
"","html-keyboard-response","271","521513","0.0-10.0-0.21","byh3nmyv68","many_one","0","indirect_first","0","hnulnk09","0","24","1","1","3","1","","0","1","0","null","","","<div style=""font-size:60px;"">+</div>","null","","","","","","","","","",""
"","html-keyboard-response","272","521605","0.0-10.0-1.21","byh3nmyv68","many_one","0","indirect_first","0","hnulnk09","0","24","1","1","3","1","","0","1","0","null","","","<img src = 'category4/CS8.png' width = '100%;'>","null","","","","","","","","","",""
"","html-keyboard-response","273","521858","0.0-10.0-2.21","byh3nmyv68","many_one","0","indirect_first","0","hnulnk09","0","24","1","1","3","1","","0","1","0","null","","","<img src = 'targets/36.png' width = '100%;'>","null","","","","","","","","","",""
"","html-keyboard-response","274","522319","0.0-10.0-3.21","byh3nmyv68","many_one","0","indirect_first","0","hnulnk09","0","24","1","1","3","1","","0","1","0","459.6899999305606","","","<img src = 'targets/mask.png' width = '100%;'>","75","pos","GS","GSold","4","category4/CS8.png","targets/36.png","1","indirect","45",""
"","html-keyboard-response","275","523822","0.0-10.0-0.22","byh3nmyv68","many_one","0","indirect_first","0","hnulnk09","0","24","1","1","3","1","","0","1","0","null","","","<div style=""font-size:60px;"">+</div>","null","","","","","","","","","",""
"","html-keyboard-response","276","523914","0.0-10.0-1.22","byh3nmyv68","many_one","0","indirect_first","0","hnulnk09","0","24","1","1","3","1","","0","1","0","null","","","<img src = 'category3/wang.png' width = '100%;'>","null","","","","","","","","","",""
"","html-keyboard-response","277","524166","0.0-10.0-2.22","byh3nmyv68","many_one","0","indirect_first","0","hnulnk09","0","24","1","1","3","1","","0","1","0","null","","","<img src = 'targets/23.png' width = '100%;'>","null","","","","","","","","","",""
"","html-keyboard-response","278","524658","0.0-10.0-3.22","byh3nmyv68","many_one","0","indirect_first","0","hnulnk09","0","24","1","1","3","1","","0","1","0","490.9950001165271","","","<img src = 'targets/mask.png' width = '100%;'>","68","neg","GS","abstract","3","category3/wang.png","targets/23.png","0","indirect","46",""
"","html-keyboard-response","279","526161","0.0-10.0-0.23","byh3nmyv68","many_one","0","indirect_first","0","hnulnk09","0","24","1","1","3","1","","0","1","0","null","","","<div style=""font-size:60px;"">+</div>","null","","","","","","","","","",""
"","html-keyboard-response","280","526254","0.0-10.0-1.23","byh3nmyv68","many_one","0","indirect_first","0","hnulnk09","0","24","1","1","3","1","","0","1","0","null","","","<img src = 'category1/GS3.png' width = '100%;'>","null","","","","","","","","","",""
"","html-keyboard-response","281","526506","0.0-10.0-2.23","byh3nmyv68","many_one","0","indirect_first","0","hnulnk09","0","24","1","1","3","1","","0","1","0","null","","","<img src = 'targets/21.png' width = '100%;'>","null","","","","","","","","","",""
"","html-keyboard-response","282","527131","0.0-10.0-3.23","byh3nmyv68","many_one","0","indirect_first","0","hnulnk09","0","24","1","1","3","1","","0","1","0","623.9100000821054","","","<img src = 'targets/mask.png' width = '100%;'>","75","neg","GS","GSnew","1","category1/GS3.png","targets/21.png","1","indirect","47",""
"","survey-html-form","283","534507","0.0-11.0","byh3nmyv68","many_one","0","indirect_first","0","hnulnk09","0","24","1","1","3","1","","0","1","0","6874.485000036657","","{}","","","","","","","","","","","",""
"","image-slider-response","284","547648","0.0-12.0-0.0","byh3nmyv68","many_one","0","indirect_first","0","hnulnk09","0","24","1","1","3","1","","0","1","0","11136.655000038445","","","","","neg","GS","GSnew","1","category1/GS2.png","targets/40.png","","direct","","-13"
"","image-slider-response","285","552151","0.0-12.0-0.1","byh3nmyv68","many_one","0","indirect_first","0","hnulnk09","0","24","1","1","3","1","","0","1","0","4500.384999904782","","","","","pos","CS","CS","4","category4/CS2.png","targets/45.png","","direct","","90"
"","image-slider-response","286","557697","0.0-12.0-0.2","byh3nmyv68","many_one","0","indirect_first","0","hnulnk09","0","24","1","1","3","1","","0","1","0","5543.684999924153","","","","","neg","GS","GSnew","1","category1/GS1.png","targets/26.png","","direct","","-10"
"","image-slider-response","287","562305","0.0-12.0-0.3","byh3nmyv68","many_one","0","indirect_first","0","hnulnk09","0","24","1","1","3","1","","0","1","0","4605.220000259578","","","","","pos","CS","CS","2","category2/CS7.png","targets/31.png","","direct","","98"
"","image-slider-response","288","566394","0.0-12.0-0.4","byh3nmyv68","many_one","0","indirect_first","0","hnulnk09","0","24","1","1","3","1","","0","1","0","4087.1799997985363","","","","","neg","GS","GSnew","3","category3/GS1.png","targets/43.png","","direct","","-41"
"","image-slider-response","289","570651","0.0-12.0-0.5","byh3nmyv68","many_one","0","indirect_first","0","hnulnk09","0","24","1","1","3","1","","0","1","0","4254.72000008449","","","","","neg","GS","GSold","3","category3/CS7.png","targets/18.png","","direct","","-44"
"","image-slider-response","290","576484","0.0-12.0-0.6","byh3nmyv68","many_one","0","indirect_first","0","hnulnk09","0","24","1","1","3","1","","0","1","0","5830.349999945611","","","","","neg","CS","CS","1","category1/CS4.png","targets/14.png","","direct","","-33"
"","image-slider-response","291","581894","0.0-12.0-0.7","byh3nmyv68","many_one","0","indirect_first","0","hnulnk09","0","24","1","1","3","1","","0","1","0","5407.49999973923","","","","","neg","CS","CS","1","category1/CS6.png","targets/5.png","","direct","","-19"
"","image-slider-response","292","585552","0.0-12.0-0.8","byh3nmyv68","many_one","0","indirect_first","0","hnulnk09","0","24","1","1","3","1","","0","1","0","3655.7800001464784","","","","","pos","CS","CS","2","category2/CS1.png","targets/38.png","","direct","","85"
"","image-slider-response","293","589270","0.0-12.0-0.9","byh3nmyv68","many_one","0","indirect_first","0","hnulnk09","0","24","1","1","3","1","","0","1","0","3716.2149995565414","","","","","pos","CS","CS","2","category2/CS2.png","targets/47.png","","direct","","76"
"","image-slider-response","294","592603","0.0-12.0-0.10","byh3nmyv68","many_one","0","indirect_first","0","hnulnk09","0","24","1","1","3","1","","0","1","0","3330.5700002238154","","","","","neg","CS","CS","3","category3/CS4.png","targets/20.png","","direct","","-45"
"","image-slider-response","295","595952","0.0-12.0-0.11","byh3nmyv68","many_one","0","indirect_first","0","hnulnk09","0","24","1","1","3","1","","0","1","0","3346.5399998240173","","","","","neg","GS","GSnew","3","category3/GS3.png","targets/15.png","","direct","","-11"
"","image-slider-response","296","599072","0.0-12.0-0.12","byh3nmyv68","many_one","0","indirect_first","0","hnulnk09","0","24","1","1","3","1","","0","1","0","3116.864999756217","","","","","pos","GS","GSnew","2","category2/GS3.png","targets/44.png","","direct","","20"
"","image-slider-response","297","602651","0.0-12.0-0.13","byh3nmyv68","many_one","0","indirect_first","0","hnulnk09","0","24","1","1","3","1","","0","1","0","3576.9099998287857","","","","","neg","GS","GSold","3","category3/CS2.png","targets/28.png","","direct","","-14"
"","image-slider-response","298","606093","0.0-12.0-0.14","byh3nmyv68","many_one","0","indirect_first","0","hnulnk09","0","24","1","1","3","1","","0","1","0","3440.1000002399087","","","","","neg","GS","abstract","3","category3/wang.png","targets/23.png","","direct","","-64"
"","image-slider-response","299","610466","0.0-12.0-0.15","byh3nmyv68","many_one","0","indirect_first","0","hnulnk09","0","24","1","1","3","1","","0","1","0","4370.224999729544","","","","","neg","CS","CS","1","category1/CS2.png","targets/22.png","","direct","","-15"
"","image-slider-response","300","614772","0.0-12.0-0.16","byh3nmyv68","many_one","0","indirect_first","0","hnulnk09","0","24","1","1","3","1","","0","1","0","4303.455000277609","","","","","neg","GS","GSnew","3","category3/GS2.png","targets/32.png","","direct","","-15"
"","image-slider-response","301","618877","0.0-12.0-0.17","byh3nmyv68","many_one","0","indirect_first","0","hnulnk09","0","24","1","1","3","1","","0","1","0","4103.090000338852","","","","","neg","CS","CS","3","category3/CS6.png","targets/30.png","","direct","","-26"
"","image-slider-response","302","622942","0.0-12.0-0.18","byh3nmyv68","many_one","0","indirect_first","0","hnulnk09","0","24","1","1","3","1","","0","1","0","4062.1699998155236","","","","","pos","CS","CS","2","category2/CS8.png","targets/11.png","","direct","","45"
"","image-slider-response","303","626948","0.0-12.0-0.19","byh3nmyv68","many_one","0","indirect_first","0","hnulnk09","0","24","1","1","3","1","","0","1","0","4003.5850000567734","","","","","pos","GS","GSnew","4","category4/GS1.png","targets/24.png","","direct","","14"
"","image-slider-response","304","631446","0.0-12.0-0.20","byh3nmyv68","many_one","0","indirect_first","0","hnulnk09","0","24","1","1","3","1","","0","1","0","4495.250000152737","","","","","pos","CS","CS","4","category4/CS7.png","targets/29.png","","direct","","33"
"","image-slider-response","305","634647","0.0-12.0-0.21","byh3nmyv68","many_one","0","indirect_first","0","hnulnk09","0","24","1","1","3","1","","0","1","0","3199.0550002083182","","","","","pos","GS","GSnew","2","category2/GS2.png","targets/3.png","","direct","","31"
"","image-slider-response","306","637976","0.0-12.0-0.22","byh3nmyv68","many_one","0","indirect_first","0","hnulnk09","0","24","1","1","3","1","","0","1","0","3326.7600000835955","","","","","pos","GS","GSold","4","category4/CS9.png","targets/4.png","","direct","","8"
"","image-slider-response","307","641534","0.0-12.0-0.23","byh3nmyv68","many_one","0","indirect_first","0","hnulnk09","0","24","1","1","3","1","","0","1","0","3556.050000246614","","","","","neg","CS","CS","1","category1/CS7.png","targets/34.png","","direct","","-46"
"","image-slider-response","308","644940","0.0-12.0-0.24","byh3nmyv68","many_one","0","indirect_first","0","hnulnk09","0","24","1","1","3","1","","0","1","0","3403.355000074953","","","","","pos","CS","CS","4","category4/CS10.png","targets/13.png","","direct","","39"
"","image-slider-response","309","648341","0.0-12.0-0.25","byh3nmyv68","many_one","0","indirect_first","0","hnulnk09","0","24","1","1","3","1","","0","1","0","3398.6749998293817","","","","","pos","GS","GSold","4","category4/CS8.png","targets/36.png","","direct","","21"
"","image-slider-response","310","651511","0.0-12.0-0.26","byh3nmyv68","many_one","0","indirect_first","0","hnulnk09","0","24","1","1","3","1","","0","1","0","3167.8949999623","","","","","pos","CS","CS","4","category4/CS6.png","targets/33.png","","direct","","25"
"","image-slider-response","311","654925","0.0-12.0-0.27","byh3nmyv68","many_one","0","indirect_first","0","hnulnk09","0","24","1","1","3","1","","0","1","0","3412.520000245422","","","","","pos","GS","GSold","4","category4/CS4.png","targets/16.png","","direct","","13"
"","image-slider-response","312","659175","0.0-12.0-0.28","byh3nmyv68","many_one","0","indirect_first","0","hnulnk09","0","24","1","1","3","1","","0","1","0","4247.070000041276","","","","","pos","GS","GSnew","4","category4/GS3.png","targets/17.png","","direct","","-18"
"","image-slider-response","313","663965","0.0-12.0-0.29","byh3nmyv68","many_one","0","indirect_first","0","hnulnk09","0","24","1","1","3","1","","0","1","0","4788.545000366867","","","","","neg","GS","GSold","1","category1/CS9.png","targets/9.png","","direct","","-27"
"","image-slider-response","314","668417","0.0-12.0-0.30","byh3nmyv68","many_one","0","indirect_first","0","hnulnk09","0","24","1","1","3","1","","0","1","0","4448.9550003781915","","","","","neg","CS","CS","3","category3/CS10.png","targets/19.png","","direct","","-25"
"","image-slider-response","315","671760","0.0-12.0-0.31","byh3nmyv68","many_one","0","indirect_first","0","hnulnk09","0","24","1","1","3","1","","0","1","0","3341.0600000061095","","","","","pos","CS","CS","2","category2/CS4.png","targets/7.png","","direct","","36"
"","image-slider-response","316","675622","0.0-12.0-0.32","byh3nmyv68","many_one","0","indirect_first","0","hnulnk09","0","24","1","1","3","1","","0","1","0","3859.3999999575317","","","","","neg","GS","GSold","1","category1/CS8.png","targets/27.png","","direct","","-16"
"","image-slider-response","317","679142","0.0-12.0-0.33","byh3nmyv68","many_one","0","indirect_first","0","hnulnk09","0","24","1","1","3","1","","0","1","0","3517.7849996834993","","","","","pos","GS","GSold","2","category2/CS6.png","targets/25.png","","direct","","14"
"","image-slider-response","318","682367","0.0-12.0-0.34","byh3nmyv68","many_one","0","indirect_first","0","hnulnk09","0","24","1","1","3","1","","0","1","0","3222.60499978438","","","","","neg","CS","CS","1","category1/CS10.png","targets/10.png","","direct","","36"
"","image-slider-response","319","685709","0.0-12.0-0.35","byh3nmyv68","many_one","0","indirect_first","0","hnulnk09","0","24","1","1","3","1","","0","1","0","3340.2450000867248","","","","","pos","GS","GSold","2","category2/CS5.png","targets/6.png","","direct","","25"
"","image-slider-response","320","689803","0.0-12.0-0.36","byh3nmyv68","many_one","0","indirect_first","0","hnulnk09","0","24","1","1","3","1","","0","1","0","4090.770000126213","","","","","neg","GS","GSold","1","category1/CS3.png","targets/8.png","","direct","","-20"
"","image-slider-response","321","693058","0.0-12.0-0.37","byh3nmyv68","many_one","0","indirect_first","0","hnulnk09","0","24","1","1","3","1","","0","1","0","3253.2099997624755","","","","","neg","GS","GSnew","1","category1/GS3.png","targets/21.png","","direct","","-30"
"","image-slider-response","322","696298","0.0-12.0-0.38","byh3nmyv68","many_one","0","indirect_first","0","hnulnk09","0","24","1","1","3","1","","0","1","0","3237.650000024587","","","","","pos","GS","abstract","4","category4/lin.png","targets/42.png","","direct","","51"
"","image-slider-response","323","699810","0.0-12.0-0.39","byh3nmyv68","many_one","0","indirect_first","0","hnulnk09","0","24","1","1","3","1","","0","1","0","3509.9149998277426","","","","","pos","GS","GSnew","4","category4/GS2.png","targets/1.png","","direct","","-20"
"","image-slider-response","324","703574","0.0-12.0-0.40","byh3nmyv68","many_one","0","indirect_first","0","hnulnk09","0","24","1","1","3","1","","0","1","0","3761.904999613762","","","","","neg","GS","GSold","3","category3/CS5.png","targets/39.png","","direct","","-73"
