"success","trial_type","trial_index","time_elapsed","internal_node_id","subject","condition","condition_code","measure","measure_code","codeword","gender","age","education","chinese","fach","handedness","comment","hinschauen","ablenkung","gewissenhaft","rt","url","responses","stimulus","key_press","val","type","type_specific","category","cs_selected","target","indirect","task","nr_pres","response"
"true","fullscreen","0","2119","0.0-0.0","nvmpn601oq","many_one","0","indirect_first","0","th07we24","1","20","1","1","3","1","Schriftzeichen, die eigentlich durchweg mit ""positiven"" Bildern dargestellt wurden, waren alle nach außen hin ""abgeschlossen"" durch einen (nahezu) rechtwinkligen Rahmen, der mindestens drei Seiten umschloss, wohingegen Schriftzeichen, die in Verbindung mit ""negativen"" Bildern gezeigt wurden, größtenteils ""offen"" waren und auch chaotischer und weniger aufgeräumt wirkten, da sie durch den fehlenden Rahmen auch loser und freier im Raum schwebten.","0","1","0","","","","","","","","","","","","","","",""
"","external-html","1","35256","0.0-1.0","nvmpn601oq","many_one","0","indirect_first","0","th07we24","1","20","1","1","3","1","Schriftzeichen, die eigentlich durchweg mit ""positiven"" Bildern dargestellt wurden, waren alle nach außen hin ""abgeschlossen"" durch einen (nahezu) rechtwinkligen Rahmen, der mindestens drei Seiten umschloss, wohingegen Schriftzeichen, die in Verbindung mit ""negativen"" Bildern gezeigt wurden, größtenteils ""offen"" waren und auch chaotischer und weniger aufgeräumt wirkten, da sie durch den fehlenden Rahmen auch loser und freier im Raum schwebten.","0","1","0","33130.28000004124","text/information.html","","","","","","","","","","","","",""
"","external-html","2","87345","0.0-2.0","nvmpn601oq","many_one","0","indirect_first","0","th07we24","1","20","1","1","3","1","Schriftzeichen, die eigentlich durchweg mit ""positiven"" Bildern dargestellt wurden, waren alle nach außen hin ""abgeschlossen"" durch einen (nahezu) rechtwinkligen Rahmen, der mindestens drei Seiten umschloss, wohingegen Schriftzeichen, die in Verbindung mit ""negativen"" Bildern gezeigt wurden, größtenteils ""offen"" waren und auch chaotischer und weniger aufgeräumt wirkten, da sie durch den fehlenden Rahmen auch loser und freier im Raum schwebten.","0","1","0","52012.54999998491","text/consent.html","","","","","","","","","","","","",""
"","survey-html-form","3","147480","0.0-3.0","nvmpn601oq","many_one","0","indirect_first","0","th07we24","1","20","1","1","3","1","Schriftzeichen, die eigentlich durchweg mit ""positiven"" Bildern dargestellt wurden, waren alle nach außen hin ""abgeschlossen"" durch einen (nahezu) rechtwinkligen Rahmen, der mindestens drei Seiten umschloss, wohingegen Schriftzeichen, die in Verbindung mit ""negativen"" Bildern gezeigt wurden, größtenteils ""offen"" waren und auch chaotischer und weniger aufgeräumt wirkten, da sie durch den fehlenden Rahmen auch loser und freier im Raum schwebten.","0","1","0","60134.57500003278","","{""codeword_enter"":""th07we24""}","","","","","","","","","","","",""
"","survey-html-form","4","168889","0.0-4.0","nvmpn601oq","many_one","0","indirect_first","0","th07we24","1","20","1","1","3","1","Schriftzeichen, die eigentlich durchweg mit ""positiven"" Bildern dargestellt wurden, waren alle nach außen hin ""abgeschlossen"" durch einen (nahezu) rechtwinkligen Rahmen, der mindestens drei Seiten umschloss, wohingegen Schriftzeichen, die in Verbindung mit ""negativen"" Bildern gezeigt wurden, größtenteils ""offen"" waren und auch chaotischer und weniger aufgeräumt wirkten, da sie durch den fehlenden Rahmen auch loser und freier im Raum schwebten.","0","1","0","21407.20500005409","","{""age"":""20"",""education"":""1"",""subject"":""3"",""gender"":""1"",""handedness"":""1"",""chinese"":""1""}","","","","","","","","","","","",""
"","survey-html-form","5","177928","0.0-5.0","nvmpn601oq","many_one","0","indirect_first","0","th07we24","1","20","1","1","3","1","Schriftzeichen, die eigentlich durchweg mit ""positiven"" Bildern dargestellt wurden, waren alle nach außen hin ""abgeschlossen"" durch einen (nahezu) rechtwinkligen Rahmen, der mindestens drei Seiten umschloss, wohingegen Schriftzeichen, die in Verbindung mit ""negativen"" Bildern gezeigt wurden, größtenteils ""offen"" waren und auch chaotischer und weniger aufgeräumt wirkten, da sie durch den fehlenden Rahmen auch loser und freier im Raum schwebten.","0","1","0","9038.144999998622","","{}","","","","","","","","","","","",""
"","html-keyboard-response","6","181932","0.0-6.0-0.0-0.0","nvmpn601oq","many_one","0","indirect_first","0","th07we24","1","20","1","1","3","1","Schriftzeichen, die eigentlich durchweg mit ""positiven"" Bildern dargestellt wurden, waren alle nach außen hin ""abgeschlossen"" durch einen (nahezu) rechtwinkligen Rahmen, der mindestens drei Seiten umschloss, wohingegen Schriftzeichen, die in Verbindung mit ""negativen"" Bildern gezeigt wurden, größtenteils ""offen"" waren und auch chaotischer und weniger aufgeräumt wirkten, da sie durch den fehlenden Rahmen auch loser und freier im Raum schwebten.","0","1","0","null","","","<div class = 'row'><div class = 'column'><img src = 'uspos/2150.bmp' width = '100%;'></div><div class = 'column'><img src = 'category3/CS6.png' width = '70%;'></div></div>","null","pos","CS","CS","3","category3/CS6.png","","","","",""
"","html-keyboard-response","7","184435","0.0-6.0-0.0-0.1","nvmpn601oq","many_one","0","indirect_first","0","th07we24","1","20","1","1","3","1","Schriftzeichen, die eigentlich durchweg mit ""positiven"" Bildern dargestellt wurden, waren alle nach außen hin ""abgeschlossen"" durch einen (nahezu) rechtwinkligen Rahmen, der mindestens drei Seiten umschloss, wohingegen Schriftzeichen, die in Verbindung mit ""negativen"" Bildern gezeigt wurden, größtenteils ""offen"" waren und auch chaotischer und weniger aufgeräumt wirkten, da sie durch den fehlenden Rahmen auch loser und freier im Raum schwebten.","0","1","0","null","","","<div class = 'row'><div class = 'column'><img src = 'uspos/4625.bmp' width = '100%;'></div><div class = 'column'><img src = 'category3/CS8.png' width = '70%;'></div></div>","null","pos","CS","CS","3","category3/CS8.png","","","","",""
"","html-keyboard-response","8","186937","0.0-6.0-0.0-0.2","nvmpn601oq","many_one","0","indirect_first","0","th07we24","1","20","1","1","3","1","Schriftzeichen, die eigentlich durchweg mit ""positiven"" Bildern dargestellt wurden, waren alle nach außen hin ""abgeschlossen"" durch einen (nahezu) rechtwinkligen Rahmen, der mindestens drei Seiten umschloss, wohingegen Schriftzeichen, die in Verbindung mit ""negativen"" Bildern gezeigt wurden, größtenteils ""offen"" waren und auch chaotischer und weniger aufgeräumt wirkten, da sie durch den fehlenden Rahmen auch loser und freier im Raum schwebten.","0","1","0","null","","","<div class = 'row'><div class = 'column'><img src = 'uspos/5831.bmp' width = '100%;'></div><div class = 'column'><img src = 'category2/CS1.png' width = '70%;'></div></div>","null","pos","CS","CS","2","category2/CS1.png","","","","",""
"","html-keyboard-response","9","189444","0.0-6.0-0.0-0.3","nvmpn601oq","many_one","0","indirect_first","0","th07we24","1","20","1","1","3","1","Schriftzeichen, die eigentlich durchweg mit ""positiven"" Bildern dargestellt wurden, waren alle nach außen hin ""abgeschlossen"" durch einen (nahezu) rechtwinkligen Rahmen, der mindestens drei Seiten umschloss, wohingegen Schriftzeichen, die in Verbindung mit ""negativen"" Bildern gezeigt wurden, größtenteils ""offen"" waren und auch chaotischer und weniger aufgeräumt wirkten, da sie durch den fehlenden Rahmen auch loser und freier im Raum schwebten.","0","1","0","null","","","<div class = 'row'><div class = 'column'><img src = 'category2/CS9.png' width = '70%;'></div><div class = 'column'><img src = 'uspos/2900.2.bmp' width = '100%;'></div></div>","null","pos","CS","CS","2","category2/CS9.png","","","","",""
"","html-keyboard-response","10","191973","0.0-6.0-0.0-0.4","nvmpn601oq","many_one","0","indirect_first","0","th07we24","1","20","1","1","3","1","Schriftzeichen, die eigentlich durchweg mit ""positiven"" Bildern dargestellt wurden, waren alle nach außen hin ""abgeschlossen"" durch einen (nahezu) rechtwinkligen Rahmen, der mindestens drei Seiten umschloss, wohingegen Schriftzeichen, die in Verbindung mit ""negativen"" Bildern gezeigt wurden, größtenteils ""offen"" waren und auch chaotischer und weniger aufgeräumt wirkten, da sie durch den fehlenden Rahmen auch loser und freier im Raum schwebten.","0","1","0","null","","","<div class = 'row'><div class = 'column'><img src = 'category4/CS9.png' width = '70%;'></div><div class = 'column'><img src = 'usneg/9435.bmp' width = '100%;'></div></div>","null","neg","CS","CS","4","category4/CS9.png","","","","",""
"","html-keyboard-response","11","194498","0.0-6.0-0.0-0.5","nvmpn601oq","many_one","0","indirect_first","0","th07we24","1","20","1","1","3","1","Schriftzeichen, die eigentlich durchweg mit ""positiven"" Bildern dargestellt wurden, waren alle nach außen hin ""abgeschlossen"" durch einen (nahezu) rechtwinkligen Rahmen, der mindestens drei Seiten umschloss, wohingegen Schriftzeichen, die in Verbindung mit ""negativen"" Bildern gezeigt wurden, größtenteils ""offen"" waren und auch chaotischer und weniger aufgeräumt wirkten, da sie durch den fehlenden Rahmen auch loser und freier im Raum schwebten.","0","1","0","null","","","<div class = 'row'><div class = 'column'><img src = 'category4/CS1.png' width = '70%;'></div><div class = 'column'><img src = 'usneg/6020.bmp' width = '100%;'></div></div>","null","neg","CS","CS","4","category4/CS1.png","","","","",""
"","html-keyboard-response","12","197029","0.0-6.0-0.0-0.6","nvmpn601oq","many_one","0","indirect_first","0","th07we24","1","20","1","1","3","1","Schriftzeichen, die eigentlich durchweg mit ""positiven"" Bildern dargestellt wurden, waren alle nach außen hin ""abgeschlossen"" durch einen (nahezu) rechtwinkligen Rahmen, der mindestens drei Seiten umschloss, wohingegen Schriftzeichen, die in Verbindung mit ""negativen"" Bildern gezeigt wurden, größtenteils ""offen"" waren und auch chaotischer und weniger aufgeräumt wirkten, da sie durch den fehlenden Rahmen auch loser und freier im Raum schwebten.","0","1","0","null","","","<div class = 'row'><div class = 'column'><img src = 'category4/CS4.png' width = '70%;'></div><div class = 'column'><img src = 'usneg/9220.bmp' width = '100%;'></div></div>","null","neg","CS","CS","4","category4/CS4.png","","","","",""
"","html-keyboard-response","13","199535","0.0-6.0-0.0-0.7","nvmpn601oq","many_one","0","indirect_first","0","th07we24","1","20","1","1","3","1","Schriftzeichen, die eigentlich durchweg mit ""positiven"" Bildern dargestellt wurden, waren alle nach außen hin ""abgeschlossen"" durch einen (nahezu) rechtwinkligen Rahmen, der mindestens drei Seiten umschloss, wohingegen Schriftzeichen, die in Verbindung mit ""negativen"" Bildern gezeigt wurden, größtenteils ""offen"" waren und auch chaotischer und weniger aufgeräumt wirkten, da sie durch den fehlenden Rahmen auch loser und freier im Raum schwebten.","0","1","0","null","","","<div class = 'row'><div class = 'column'><img src = 'usneg/9180.bmp' width = '100%;'></div><div class = 'column'><img src = 'category1/CS9.png' width = '70%;'></div></div>","null","neg","CS","CS","1","category1/CS9.png","","","","",""
"","html-keyboard-response","14","202052","0.0-6.0-0.0-0.8","nvmpn601oq","many_one","0","indirect_first","0","th07we24","1","20","1","1","3","1","Schriftzeichen, die eigentlich durchweg mit ""positiven"" Bildern dargestellt wurden, waren alle nach außen hin ""abgeschlossen"" durch einen (nahezu) rechtwinkligen Rahmen, der mindestens drei Seiten umschloss, wohingegen Schriftzeichen, die in Verbindung mit ""negativen"" Bildern gezeigt wurden, größtenteils ""offen"" waren und auch chaotischer und weniger aufgeräumt wirkten, da sie durch den fehlenden Rahmen auch loser und freier im Raum schwebten.","0","1","0","null","","","<div class = 'row'><div class = 'column'><img src = 'category2/CS10.png' width = '70%;'></div><div class = 'column'><img src = 'uspos/8190.bmp' width = '100%;'></div></div>","null","pos","CS","CS","2","category2/CS10.png","","","","",""
"","html-keyboard-response","15","204575","0.0-6.0-0.0-0.9","nvmpn601oq","many_one","0","indirect_first","0","th07we24","1","20","1","1","3","1","Schriftzeichen, die eigentlich durchweg mit ""positiven"" Bildern dargestellt wurden, waren alle nach außen hin ""abgeschlossen"" durch einen (nahezu) rechtwinkligen Rahmen, der mindestens drei Seiten umschloss, wohingegen Schriftzeichen, die in Verbindung mit ""negativen"" Bildern gezeigt wurden, größtenteils ""offen"" waren und auch chaotischer und weniger aufgeräumt wirkten, da sie durch den fehlenden Rahmen auch loser und freier im Raum schwebten.","0","1","0","null","","","<div class = 'row'><div class = 'column'><img src = 'category2/CS6.png' width = '70%;'></div><div class = 'column'><img src = 'uspos/5629.bmp' width = '100%;'></div></div>","null","pos","CS","CS","2","category2/CS6.png","","","","",""
"","html-keyboard-response","16","207096","0.0-6.0-0.0-0.10","nvmpn601oq","many_one","0","indirect_first","0","th07we24","1","20","1","1","3","1","Schriftzeichen, die eigentlich durchweg mit ""positiven"" Bildern dargestellt wurden, waren alle nach außen hin ""abgeschlossen"" durch einen (nahezu) rechtwinkligen Rahmen, der mindestens drei Seiten umschloss, wohingegen Schriftzeichen, die in Verbindung mit ""negativen"" Bildern gezeigt wurden, größtenteils ""offen"" waren und auch chaotischer und weniger aufgeräumt wirkten, da sie durch den fehlenden Rahmen auch loser und freier im Raum schwebten.","0","1","0","null","","","<div class = 'row'><div class = 'column'><img src = 'category3/CS5.png' width = '70%;'></div><div class = 'column'><img src = 'uspos/5600.bmp' width = '100%;'></div></div>","null","pos","CS","CS","3","category3/CS5.png","","","","",""
"","html-keyboard-response","17","209607","0.0-6.0-0.0-0.11","nvmpn601oq","many_one","0","indirect_first","0","th07we24","1","20","1","1","3","1","Schriftzeichen, die eigentlich durchweg mit ""positiven"" Bildern dargestellt wurden, waren alle nach außen hin ""abgeschlossen"" durch einen (nahezu) rechtwinkligen Rahmen, der mindestens drei Seiten umschloss, wohingegen Schriftzeichen, die in Verbindung mit ""negativen"" Bildern gezeigt wurden, größtenteils ""offen"" waren und auch chaotischer und weniger aufgeräumt wirkten, da sie durch den fehlenden Rahmen auch loser und freier im Raum schwebten.","0","1","0","null","","","<div class = 'row'><div class = 'column'><img src = 'uspos/8080.bmp' width = '100%;'></div><div class = 'column'><img src = 'category3/CS10.png' width = '70%;'></div></div>","null","pos","CS","CS","3","category3/CS10.png","","","","",""
"","html-keyboard-response","18","212126","0.0-6.0-0.0-0.12","nvmpn601oq","many_one","0","indirect_first","0","th07we24","1","20","1","1","3","1","Schriftzeichen, die eigentlich durchweg mit ""positiven"" Bildern dargestellt wurden, waren alle nach außen hin ""abgeschlossen"" durch einen (nahezu) rechtwinkligen Rahmen, der mindestens drei Seiten umschloss, wohingegen Schriftzeichen, die in Verbindung mit ""negativen"" Bildern gezeigt wurden, größtenteils ""offen"" waren und auch chaotischer und weniger aufgeräumt wirkten, da sie durch den fehlenden Rahmen auch loser und freier im Raum schwebten.","0","1","0","null","","","<div class = 'row'><div class = 'column'><img src = 'category1/CS3.png' width = '70%;'></div><div class = 'column'><img src = 'usneg/9584.bmp' width = '100%;'></div></div>","null","neg","CS","CS","1","category1/CS3.png","","","","",""
"","html-keyboard-response","19","214635","0.0-6.0-0.0-0.13","nvmpn601oq","many_one","0","indirect_first","0","th07we24","1","20","1","1","3","1","Schriftzeichen, die eigentlich durchweg mit ""positiven"" Bildern dargestellt wurden, waren alle nach außen hin ""abgeschlossen"" durch einen (nahezu) rechtwinkligen Rahmen, der mindestens drei Seiten umschloss, wohingegen Schriftzeichen, die in Verbindung mit ""negativen"" Bildern gezeigt wurden, größtenteils ""offen"" waren und auch chaotischer und weniger aufgeräumt wirkten, da sie durch den fehlenden Rahmen auch loser und freier im Raum schwebten.","0","1","0","null","","","<div class = 'row'><div class = 'column'><img src = 'uspos/2160.bmp' width = '100%;'></div><div class = 'column'><img src = 'category2/CS2.png' width = '70%;'></div></div>","null","pos","CS","CS","2","category2/CS2.png","","","","",""
"","html-keyboard-response","20","217144","0.0-6.0-0.0-0.14","nvmpn601oq","many_one","0","indirect_first","0","th07we24","1","20","1","1","3","1","Schriftzeichen, die eigentlich durchweg mit ""positiven"" Bildern dargestellt wurden, waren alle nach außen hin ""abgeschlossen"" durch einen (nahezu) rechtwinkligen Rahmen, der mindestens drei Seiten umschloss, wohingegen Schriftzeichen, die in Verbindung mit ""negativen"" Bildern gezeigt wurden, größtenteils ""offen"" waren und auch chaotischer und weniger aufgeräumt wirkten, da sie durch den fehlenden Rahmen auch loser und freier im Raum schwebten.","0","1","0","null","","","<div class = 'row'><div class = 'column'><img src = 'category3/CS3.png' width = '70%;'></div><div class = 'column'><img src = 'uspos/2030.bmp' width = '100%;'></div></div>","null","pos","CS","CS","3","category3/CS3.png","","","","",""
"","html-keyboard-response","21","219657","0.0-6.0-0.0-0.15","nvmpn601oq","many_one","0","indirect_first","0","th07we24","1","20","1","1","3","1","Schriftzeichen, die eigentlich durchweg mit ""positiven"" Bildern dargestellt wurden, waren alle nach außen hin ""abgeschlossen"" durch einen (nahezu) rechtwinkligen Rahmen, der mindestens drei Seiten umschloss, wohingegen Schriftzeichen, die in Verbindung mit ""negativen"" Bildern gezeigt wurden, größtenteils ""offen"" waren und auch chaotischer und weniger aufgeräumt wirkten, da sie durch den fehlenden Rahmen auch loser und freier im Raum schwebten.","0","1","0","null","","","<div class = 'row'><div class = 'column'><img src = 'category4/CS5.png' width = '70%;'></div><div class = 'column'><img src = 'usneg/2205.bmp' width = '100%;'></div></div>","null","neg","CS","CS","4","category4/CS5.png","","","","",""
"","html-keyboard-response","22","222178","0.0-6.0-0.0-0.16","nvmpn601oq","many_one","0","indirect_first","0","th07we24","1","20","1","1","3","1","Schriftzeichen, die eigentlich durchweg mit ""positiven"" Bildern dargestellt wurden, waren alle nach außen hin ""abgeschlossen"" durch einen (nahezu) rechtwinkligen Rahmen, der mindestens drei Seiten umschloss, wohingegen Schriftzeichen, die in Verbindung mit ""negativen"" Bildern gezeigt wurden, größtenteils ""offen"" waren und auch chaotischer und weniger aufgeräumt wirkten, da sie durch den fehlenden Rahmen auch loser und freier im Raum schwebten.","0","1","0","null","","","<div class = 'row'><div class = 'column'><img src = 'category1/CS8.png' width = '70%;'></div><div class = 'column'><img src = 'usneg/9330.bmp' width = '100%;'></div></div>","null","neg","CS","CS","1","category1/CS8.png","","","","",""
"","html-keyboard-response","23","224702","0.0-6.0-0.0-0.17","nvmpn601oq","many_one","0","indirect_first","0","th07we24","1","20","1","1","3","1","Schriftzeichen, die eigentlich durchweg mit ""positiven"" Bildern dargestellt wurden, waren alle nach außen hin ""abgeschlossen"" durch einen (nahezu) rechtwinkligen Rahmen, der mindestens drei Seiten umschloss, wohingegen Schriftzeichen, die in Verbindung mit ""negativen"" Bildern gezeigt wurden, größtenteils ""offen"" waren und auch chaotischer und weniger aufgeräumt wirkten, da sie durch den fehlenden Rahmen auch loser und freier im Raum schwebten.","0","1","0","null","","","<div class = 'row'><div class = 'column'><img src = 'category4/CS10.png' width = '70%;'></div><div class = 'column'><img src = 'usneg/9421.bmp' width = '100%;'></div></div>","null","neg","CS","CS","4","category4/CS10.png","","","","",""
"","html-keyboard-response","24","227216","0.0-6.0-0.0-0.18","nvmpn601oq","many_one","0","indirect_first","0","th07we24","1","20","1","1","3","1","Schriftzeichen, die eigentlich durchweg mit ""positiven"" Bildern dargestellt wurden, waren alle nach außen hin ""abgeschlossen"" durch einen (nahezu) rechtwinkligen Rahmen, der mindestens drei Seiten umschloss, wohingegen Schriftzeichen, die in Verbindung mit ""negativen"" Bildern gezeigt wurden, größtenteils ""offen"" waren und auch chaotischer und weniger aufgeräumt wirkten, da sie durch den fehlenden Rahmen auch loser und freier im Raum schwebten.","0","1","0","null","","","<div class = 'row'><div class = 'column'><img src = 'usneg/9340.bmp' width = '100%;'></div><div class = 'column'><img src = 'category1/CS5.png' width = '70%;'></div></div>","null","neg","CS","CS","1","category1/CS5.png","","","","",""
"","html-keyboard-response","25","229731","0.0-6.0-0.0-0.19","nvmpn601oq","many_one","0","indirect_first","0","th07we24","1","20","1","1","3","1","Schriftzeichen, die eigentlich durchweg mit ""positiven"" Bildern dargestellt wurden, waren alle nach außen hin ""abgeschlossen"" durch einen (nahezu) rechtwinkligen Rahmen, der mindestens drei Seiten umschloss, wohingegen Schriftzeichen, die in Verbindung mit ""negativen"" Bildern gezeigt wurden, größtenteils ""offen"" waren und auch chaotischer und weniger aufgeräumt wirkten, da sie durch den fehlenden Rahmen auch loser und freier im Raum schwebten.","0","1","0","null","","","<div class = 'row'><div class = 'column'><img src = 'category1/CS10.png' width = '70%;'></div><div class = 'column'><img src = 'usneg/9290.bmp' width = '100%;'></div></div>","null","neg","CS","CS","1","category1/CS10.png","","","","",""
"","survey-html-form","26","232912","0.0-6.0-1.0","nvmpn601oq","many_one","0","indirect_first","0","th07we24","1","20","1","1","3","1","Schriftzeichen, die eigentlich durchweg mit ""positiven"" Bildern dargestellt wurden, waren alle nach außen hin ""abgeschlossen"" durch einen (nahezu) rechtwinkligen Rahmen, der mindestens drei Seiten umschloss, wohingegen Schriftzeichen, die in Verbindung mit ""negativen"" Bildern gezeigt wurden, größtenteils ""offen"" waren und auch chaotischer und weniger aufgeräumt wirkten, da sie durch den fehlenden Rahmen auch loser und freier im Raum schwebten.","0","1","0","2666.0599999595433","","{}","","","","","","","","","","","",""
"","html-keyboard-response","27","236922","0.0-6.0-2.0-0.0","nvmpn601oq","many_one","0","indirect_first","0","th07we24","1","20","1","1","3","1","Schriftzeichen, die eigentlich durchweg mit ""positiven"" Bildern dargestellt wurden, waren alle nach außen hin ""abgeschlossen"" durch einen (nahezu) rechtwinkligen Rahmen, der mindestens drei Seiten umschloss, wohingegen Schriftzeichen, die in Verbindung mit ""negativen"" Bildern gezeigt wurden, größtenteils ""offen"" waren und auch chaotischer und weniger aufgeräumt wirkten, da sie durch den fehlenden Rahmen auch loser und freier im Raum schwebten.","0","1","0","null","","","<div class = 'row'><div class = 'column'><img src = 'category1/CS8.png' width = '70%;'></div><div class = 'column'><img src = 'usneg/9330.bmp' width = '100%;'></div></div>","null","neg","CS","CS","1","category1/CS8.png","","","","",""
"","html-keyboard-response","28","239444","0.0-6.0-2.0-0.1","nvmpn601oq","many_one","0","indirect_first","0","th07we24","1","20","1","1","3","1","Schriftzeichen, die eigentlich durchweg mit ""positiven"" Bildern dargestellt wurden, waren alle nach außen hin ""abgeschlossen"" durch einen (nahezu) rechtwinkligen Rahmen, der mindestens drei Seiten umschloss, wohingegen Schriftzeichen, die in Verbindung mit ""negativen"" Bildern gezeigt wurden, größtenteils ""offen"" waren und auch chaotischer und weniger aufgeräumt wirkten, da sie durch den fehlenden Rahmen auch loser und freier im Raum schwebten.","0","1","0","null","","","<div class = 'row'><div class = 'column'><img src = 'category2/CS9.png' width = '70%;'></div><div class = 'column'><img src = 'uspos/2900.2.bmp' width = '100%;'></div></div>","null","pos","CS","CS","2","category2/CS9.png","","","","",""
"","html-keyboard-response","29","241963","0.0-6.0-2.0-0.2","nvmpn601oq","many_one","0","indirect_first","0","th07we24","1","20","1","1","3","1","Schriftzeichen, die eigentlich durchweg mit ""positiven"" Bildern dargestellt wurden, waren alle nach außen hin ""abgeschlossen"" durch einen (nahezu) rechtwinkligen Rahmen, der mindestens drei Seiten umschloss, wohingegen Schriftzeichen, die in Verbindung mit ""negativen"" Bildern gezeigt wurden, größtenteils ""offen"" waren und auch chaotischer und weniger aufgeräumt wirkten, da sie durch den fehlenden Rahmen auch loser und freier im Raum schwebten.","0","1","0","null","","","<div class = 'row'><div class = 'column'><img src = 'usneg/9220.bmp' width = '100%;'></div><div class = 'column'><img src = 'category4/CS4.png' width = '70%;'></div></div>","null","neg","CS","CS","4","category4/CS4.png","","","","",""
"","html-keyboard-response","30","244475","0.0-6.0-2.0-0.3","nvmpn601oq","many_one","0","indirect_first","0","th07we24","1","20","1","1","3","1","Schriftzeichen, die eigentlich durchweg mit ""positiven"" Bildern dargestellt wurden, waren alle nach außen hin ""abgeschlossen"" durch einen (nahezu) rechtwinkligen Rahmen, der mindestens drei Seiten umschloss, wohingegen Schriftzeichen, die in Verbindung mit ""negativen"" Bildern gezeigt wurden, größtenteils ""offen"" waren und auch chaotischer und weniger aufgeräumt wirkten, da sie durch den fehlenden Rahmen auch loser und freier im Raum schwebten.","0","1","0","null","","","<div class = 'row'><div class = 'column'><img src = 'category2/CS10.png' width = '70%;'></div><div class = 'column'><img src = 'uspos/8190.bmp' width = '100%;'></div></div>","null","pos","CS","CS","2","category2/CS10.png","","","","",""
"","html-keyboard-response","31","246989","0.0-6.0-2.0-0.4","nvmpn601oq","many_one","0","indirect_first","0","th07we24","1","20","1","1","3","1","Schriftzeichen, die eigentlich durchweg mit ""positiven"" Bildern dargestellt wurden, waren alle nach außen hin ""abgeschlossen"" durch einen (nahezu) rechtwinkligen Rahmen, der mindestens drei Seiten umschloss, wohingegen Schriftzeichen, die in Verbindung mit ""negativen"" Bildern gezeigt wurden, größtenteils ""offen"" waren und auch chaotischer und weniger aufgeräumt wirkten, da sie durch den fehlenden Rahmen auch loser und freier im Raum schwebten.","0","1","0","null","","","<div class = 'row'><div class = 'column'><img src = 'category2/CS2.png' width = '70%;'></div><div class = 'column'><img src = 'uspos/2160.bmp' width = '100%;'></div></div>","null","pos","CS","CS","2","category2/CS2.png","","","","",""
"","html-keyboard-response","32","249512","0.0-6.0-2.0-0.5","nvmpn601oq","many_one","0","indirect_first","0","th07we24","1","20","1","1","3","1","Schriftzeichen, die eigentlich durchweg mit ""positiven"" Bildern dargestellt wurden, waren alle nach außen hin ""abgeschlossen"" durch einen (nahezu) rechtwinkligen Rahmen, der mindestens drei Seiten umschloss, wohingegen Schriftzeichen, die in Verbindung mit ""negativen"" Bildern gezeigt wurden, größtenteils ""offen"" waren und auch chaotischer und weniger aufgeräumt wirkten, da sie durch den fehlenden Rahmen auch loser und freier im Raum schwebten.","0","1","0","null","","","<div class = 'row'><div class = 'column'><img src = 'usneg/9340.bmp' width = '100%;'></div><div class = 'column'><img src = 'category1/CS5.png' width = '70%;'></div></div>","null","neg","CS","CS","1","category1/CS5.png","","","","",""
"","html-keyboard-response","33","252041","0.0-6.0-2.0-0.6","nvmpn601oq","many_one","0","indirect_first","0","th07we24","1","20","1","1","3","1","Schriftzeichen, die eigentlich durchweg mit ""positiven"" Bildern dargestellt wurden, waren alle nach außen hin ""abgeschlossen"" durch einen (nahezu) rechtwinkligen Rahmen, der mindestens drei Seiten umschloss, wohingegen Schriftzeichen, die in Verbindung mit ""negativen"" Bildern gezeigt wurden, größtenteils ""offen"" waren und auch chaotischer und weniger aufgeräumt wirkten, da sie durch den fehlenden Rahmen auch loser und freier im Raum schwebten.","0","1","0","null","","","<div class = 'row'><div class = 'column'><img src = 'usneg/9584.bmp' width = '100%;'></div><div class = 'column'><img src = 'category1/CS3.png' width = '70%;'></div></div>","null","neg","CS","CS","1","category1/CS3.png","","","","",""
"","html-keyboard-response","34","254566","0.0-6.0-2.0-0.7","nvmpn601oq","many_one","0","indirect_first","0","th07we24","1","20","1","1","3","1","Schriftzeichen, die eigentlich durchweg mit ""positiven"" Bildern dargestellt wurden, waren alle nach außen hin ""abgeschlossen"" durch einen (nahezu) rechtwinkligen Rahmen, der mindestens drei Seiten umschloss, wohingegen Schriftzeichen, die in Verbindung mit ""negativen"" Bildern gezeigt wurden, größtenteils ""offen"" waren und auch chaotischer und weniger aufgeräumt wirkten, da sie durch den fehlenden Rahmen auch loser und freier im Raum schwebten.","0","1","0","null","","","<div class = 'row'><div class = 'column'><img src = 'category4/CS5.png' width = '70%;'></div><div class = 'column'><img src = 'usneg/2205.bmp' width = '100%;'></div></div>","null","neg","CS","CS","4","category4/CS5.png","","","","",""
"","html-keyboard-response","35","257080","0.0-6.0-2.0-0.8","nvmpn601oq","many_one","0","indirect_first","0","th07we24","1","20","1","1","3","1","Schriftzeichen, die eigentlich durchweg mit ""positiven"" Bildern dargestellt wurden, waren alle nach außen hin ""abgeschlossen"" durch einen (nahezu) rechtwinkligen Rahmen, der mindestens drei Seiten umschloss, wohingegen Schriftzeichen, die in Verbindung mit ""negativen"" Bildern gezeigt wurden, größtenteils ""offen"" waren und auch chaotischer und weniger aufgeräumt wirkten, da sie durch den fehlenden Rahmen auch loser und freier im Raum schwebten.","0","1","0","null","","","<div class = 'row'><div class = 'column'><img src = 'category2/CS1.png' width = '70%;'></div><div class = 'column'><img src = 'uspos/5831.bmp' width = '100%;'></div></div>","null","pos","CS","CS","2","category2/CS1.png","","","","",""
"","html-keyboard-response","36","259588","0.0-6.0-2.0-0.9","nvmpn601oq","many_one","0","indirect_first","0","th07we24","1","20","1","1","3","1","Schriftzeichen, die eigentlich durchweg mit ""positiven"" Bildern dargestellt wurden, waren alle nach außen hin ""abgeschlossen"" durch einen (nahezu) rechtwinkligen Rahmen, der mindestens drei Seiten umschloss, wohingegen Schriftzeichen, die in Verbindung mit ""negativen"" Bildern gezeigt wurden, größtenteils ""offen"" waren und auch chaotischer und weniger aufgeräumt wirkten, da sie durch den fehlenden Rahmen auch loser und freier im Raum schwebten.","0","1","0","null","","","<div class = 'row'><div class = 'column'><img src = 'category3/CS10.png' width = '70%;'></div><div class = 'column'><img src = 'uspos/8080.bmp' width = '100%;'></div></div>","null","pos","CS","CS","3","category3/CS10.png","","","","",""
"","html-keyboard-response","37","262103","0.0-6.0-2.0-0.10","nvmpn601oq","many_one","0","indirect_first","0","th07we24","1","20","1","1","3","1","Schriftzeichen, die eigentlich durchweg mit ""positiven"" Bildern dargestellt wurden, waren alle nach außen hin ""abgeschlossen"" durch einen (nahezu) rechtwinkligen Rahmen, der mindestens drei Seiten umschloss, wohingegen Schriftzeichen, die in Verbindung mit ""negativen"" Bildern gezeigt wurden, größtenteils ""offen"" waren und auch chaotischer und weniger aufgeräumt wirkten, da sie durch den fehlenden Rahmen auch loser und freier im Raum schwebten.","0","1","0","null","","","<div class = 'row'><div class = 'column'><img src = 'usneg/6020.bmp' width = '100%;'></div><div class = 'column'><img src = 'category4/CS1.png' width = '70%;'></div></div>","null","neg","CS","CS","4","category4/CS1.png","","","","",""
"","html-keyboard-response","38","264621","0.0-6.0-2.0-0.11","nvmpn601oq","many_one","0","indirect_first","0","th07we24","1","20","1","1","3","1","Schriftzeichen, die eigentlich durchweg mit ""positiven"" Bildern dargestellt wurden, waren alle nach außen hin ""abgeschlossen"" durch einen (nahezu) rechtwinkligen Rahmen, der mindestens drei Seiten umschloss, wohingegen Schriftzeichen, die in Verbindung mit ""negativen"" Bildern gezeigt wurden, größtenteils ""offen"" waren und auch chaotischer und weniger aufgeräumt wirkten, da sie durch den fehlenden Rahmen auch loser und freier im Raum schwebten.","0","1","0","null","","","<div class = 'row'><div class = 'column'><img src = 'uspos/5629.bmp' width = '100%;'></div><div class = 'column'><img src = 'category2/CS6.png' width = '70%;'></div></div>","null","pos","CS","CS","2","category2/CS6.png","","","","",""
"","html-keyboard-response","39","267129","0.0-6.0-2.0-0.12","nvmpn601oq","many_one","0","indirect_first","0","th07we24","1","20","1","1","3","1","Schriftzeichen, die eigentlich durchweg mit ""positiven"" Bildern dargestellt wurden, waren alle nach außen hin ""abgeschlossen"" durch einen (nahezu) rechtwinkligen Rahmen, der mindestens drei Seiten umschloss, wohingegen Schriftzeichen, die in Verbindung mit ""negativen"" Bildern gezeigt wurden, größtenteils ""offen"" waren und auch chaotischer und weniger aufgeräumt wirkten, da sie durch den fehlenden Rahmen auch loser und freier im Raum schwebten.","0","1","0","null","","","<div class = 'row'><div class = 'column'><img src = 'usneg/9421.bmp' width = '100%;'></div><div class = 'column'><img src = 'category4/CS10.png' width = '70%;'></div></div>","null","neg","CS","CS","4","category4/CS10.png","","","","",""
"","html-keyboard-response","40","269646","0.0-6.0-2.0-0.13","nvmpn601oq","many_one","0","indirect_first","0","th07we24","1","20","1","1","3","1","Schriftzeichen, die eigentlich durchweg mit ""positiven"" Bildern dargestellt wurden, waren alle nach außen hin ""abgeschlossen"" durch einen (nahezu) rechtwinkligen Rahmen, der mindestens drei Seiten umschloss, wohingegen Schriftzeichen, die in Verbindung mit ""negativen"" Bildern gezeigt wurden, größtenteils ""offen"" waren und auch chaotischer und weniger aufgeräumt wirkten, da sie durch den fehlenden Rahmen auch loser und freier im Raum schwebten.","0","1","0","null","","","<div class = 'row'><div class = 'column'><img src = 'category3/CS5.png' width = '70%;'></div><div class = 'column'><img src = 'uspos/5600.bmp' width = '100%;'></div></div>","null","pos","CS","CS","3","category3/CS5.png","","","","",""
"","html-keyboard-response","41","272167","0.0-6.0-2.0-0.14","nvmpn601oq","many_one","0","indirect_first","0","th07we24","1","20","1","1","3","1","Schriftzeichen, die eigentlich durchweg mit ""positiven"" Bildern dargestellt wurden, waren alle nach außen hin ""abgeschlossen"" durch einen (nahezu) rechtwinkligen Rahmen, der mindestens drei Seiten umschloss, wohingegen Schriftzeichen, die in Verbindung mit ""negativen"" Bildern gezeigt wurden, größtenteils ""offen"" waren und auch chaotischer und weniger aufgeräumt wirkten, da sie durch den fehlenden Rahmen auch loser und freier im Raum schwebten.","0","1","0","null","","","<div class = 'row'><div class = 'column'><img src = 'usneg/9180.bmp' width = '100%;'></div><div class = 'column'><img src = 'category1/CS9.png' width = '70%;'></div></div>","null","neg","CS","CS","1","category1/CS9.png","","","","",""
"","html-keyboard-response","42","274683","0.0-6.0-2.0-0.15","nvmpn601oq","many_one","0","indirect_first","0","th07we24","1","20","1","1","3","1","Schriftzeichen, die eigentlich durchweg mit ""positiven"" Bildern dargestellt wurden, waren alle nach außen hin ""abgeschlossen"" durch einen (nahezu) rechtwinkligen Rahmen, der mindestens drei Seiten umschloss, wohingegen Schriftzeichen, die in Verbindung mit ""negativen"" Bildern gezeigt wurden, größtenteils ""offen"" waren und auch chaotischer und weniger aufgeräumt wirkten, da sie durch den fehlenden Rahmen auch loser und freier im Raum schwebten.","0","1","0","null","","","<div class = 'row'><div class = 'column'><img src = 'category1/CS10.png' width = '70%;'></div><div class = 'column'><img src = 'usneg/9290.bmp' width = '100%;'></div></div>","null","neg","CS","CS","1","category1/CS10.png","","","","",""
"","html-keyboard-response","43","277192","0.0-6.0-2.0-0.16","nvmpn601oq","many_one","0","indirect_first","0","th07we24","1","20","1","1","3","1","Schriftzeichen, die eigentlich durchweg mit ""positiven"" Bildern dargestellt wurden, waren alle nach außen hin ""abgeschlossen"" durch einen (nahezu) rechtwinkligen Rahmen, der mindestens drei Seiten umschloss, wohingegen Schriftzeichen, die in Verbindung mit ""negativen"" Bildern gezeigt wurden, größtenteils ""offen"" waren und auch chaotischer und weniger aufgeräumt wirkten, da sie durch den fehlenden Rahmen auch loser und freier im Raum schwebten.","0","1","0","null","","","<div class = 'row'><div class = 'column'><img src = 'category3/CS6.png' width = '70%;'></div><div class = 'column'><img src = 'uspos/2150.bmp' width = '100%;'></div></div>","null","pos","CS","CS","3","category3/CS6.png","","","","",""
"","html-keyboard-response","44","279719","0.0-6.0-2.0-0.17","nvmpn601oq","many_one","0","indirect_first","0","th07we24","1","20","1","1","3","1","Schriftzeichen, die eigentlich durchweg mit ""positiven"" Bildern dargestellt wurden, waren alle nach außen hin ""abgeschlossen"" durch einen (nahezu) rechtwinkligen Rahmen, der mindestens drei Seiten umschloss, wohingegen Schriftzeichen, die in Verbindung mit ""negativen"" Bildern gezeigt wurden, größtenteils ""offen"" waren und auch chaotischer und weniger aufgeräumt wirkten, da sie durch den fehlenden Rahmen auch loser und freier im Raum schwebten.","0","1","0","null","","","<div class = 'row'><div class = 'column'><img src = 'category4/CS9.png' width = '70%;'></div><div class = 'column'><img src = 'usneg/9435.bmp' width = '100%;'></div></div>","null","neg","CS","CS","4","category4/CS9.png","","","","",""
"","html-keyboard-response","45","282227","0.0-6.0-2.0-0.18","nvmpn601oq","many_one","0","indirect_first","0","th07we24","1","20","1","1","3","1","Schriftzeichen, die eigentlich durchweg mit ""positiven"" Bildern dargestellt wurden, waren alle nach außen hin ""abgeschlossen"" durch einen (nahezu) rechtwinkligen Rahmen, der mindestens drei Seiten umschloss, wohingegen Schriftzeichen, die in Verbindung mit ""negativen"" Bildern gezeigt wurden, größtenteils ""offen"" waren und auch chaotischer und weniger aufgeräumt wirkten, da sie durch den fehlenden Rahmen auch loser und freier im Raum schwebten.","0","1","0","null","","","<div class = 'row'><div class = 'column'><img src = 'category3/CS3.png' width = '70%;'></div><div class = 'column'><img src = 'uspos/2030.bmp' width = '100%;'></div></div>","null","pos","CS","CS","3","category3/CS3.png","","","","",""
"","html-keyboard-response","46","284738","0.0-6.0-2.0-0.19","nvmpn601oq","many_one","0","indirect_first","0","th07we24","1","20","1","1","3","1","Schriftzeichen, die eigentlich durchweg mit ""positiven"" Bildern dargestellt wurden, waren alle nach außen hin ""abgeschlossen"" durch einen (nahezu) rechtwinkligen Rahmen, der mindestens drei Seiten umschloss, wohingegen Schriftzeichen, die in Verbindung mit ""negativen"" Bildern gezeigt wurden, größtenteils ""offen"" waren und auch chaotischer und weniger aufgeräumt wirkten, da sie durch den fehlenden Rahmen auch loser und freier im Raum schwebten.","0","1","0","null","","","<div class = 'row'><div class = 'column'><img src = 'category3/CS8.png' width = '70%;'></div><div class = 'column'><img src = 'uspos/4625.bmp' width = '100%;'></div></div>","null","pos","CS","CS","3","category3/CS8.png","","","","",""
"","survey-html-form","47","289728","0.0-6.0-3.0","nvmpn601oq","many_one","0","indirect_first","0","th07we24","1","20","1","1","3","1","Schriftzeichen, die eigentlich durchweg mit ""positiven"" Bildern dargestellt wurden, waren alle nach außen hin ""abgeschlossen"" durch einen (nahezu) rechtwinkligen Rahmen, der mindestens drei Seiten umschloss, wohingegen Schriftzeichen, die in Verbindung mit ""negativen"" Bildern gezeigt wurden, größtenteils ""offen"" waren und auch chaotischer und weniger aufgeräumt wirkten, da sie durch den fehlenden Rahmen auch loser und freier im Raum schwebten.","0","1","0","4488.884999998845","","{}","","","","","","","","","","","",""
"","html-keyboard-response","48","293748","0.0-6.0-4.0-0.0","nvmpn601oq","many_one","0","indirect_first","0","th07we24","1","20","1","1","3","1","Schriftzeichen, die eigentlich durchweg mit ""positiven"" Bildern dargestellt wurden, waren alle nach außen hin ""abgeschlossen"" durch einen (nahezu) rechtwinkligen Rahmen, der mindestens drei Seiten umschloss, wohingegen Schriftzeichen, die in Verbindung mit ""negativen"" Bildern gezeigt wurden, größtenteils ""offen"" waren und auch chaotischer und weniger aufgeräumt wirkten, da sie durch den fehlenden Rahmen auch loser und freier im Raum schwebten.","0","1","0","null","","","<div class = 'row'><div class = 'column'><img src = 'uspos/5629.bmp' width = '100%;'></div><div class = 'column'><img src = 'category2/CS6.png' width = '70%;'></div></div>","null","pos","CS","CS","2","category2/CS6.png","","","","",""
"","html-keyboard-response","49","296256","0.0-6.0-4.0-0.1","nvmpn601oq","many_one","0","indirect_first","0","th07we24","1","20","1","1","3","1","Schriftzeichen, die eigentlich durchweg mit ""positiven"" Bildern dargestellt wurden, waren alle nach außen hin ""abgeschlossen"" durch einen (nahezu) rechtwinkligen Rahmen, der mindestens drei Seiten umschloss, wohingegen Schriftzeichen, die in Verbindung mit ""negativen"" Bildern gezeigt wurden, größtenteils ""offen"" waren und auch chaotischer und weniger aufgeräumt wirkten, da sie durch den fehlenden Rahmen auch loser und freier im Raum schwebten.","0","1","0","null","","","<div class = 'row'><div class = 'column'><img src = 'uspos/5831.bmp' width = '100%;'></div><div class = 'column'><img src = 'category2/CS1.png' width = '70%;'></div></div>","null","pos","CS","CS","2","category2/CS1.png","","","","",""
"","html-keyboard-response","50","298769","0.0-6.0-4.0-0.2","nvmpn601oq","many_one","0","indirect_first","0","th07we24","1","20","1","1","3","1","Schriftzeichen, die eigentlich durchweg mit ""positiven"" Bildern dargestellt wurden, waren alle nach außen hin ""abgeschlossen"" durch einen (nahezu) rechtwinkligen Rahmen, der mindestens drei Seiten umschloss, wohingegen Schriftzeichen, die in Verbindung mit ""negativen"" Bildern gezeigt wurden, größtenteils ""offen"" waren und auch chaotischer und weniger aufgeräumt wirkten, da sie durch den fehlenden Rahmen auch loser und freier im Raum schwebten.","0","1","0","null","","","<div class = 'row'><div class = 'column'><img src = 'usneg/9340.bmp' width = '100%;'></div><div class = 'column'><img src = 'category1/CS5.png' width = '70%;'></div></div>","null","neg","CS","CS","1","category1/CS5.png","","","","",""
"","html-keyboard-response","51","301280","0.0-6.0-4.0-0.3","nvmpn601oq","many_one","0","indirect_first","0","th07we24","1","20","1","1","3","1","Schriftzeichen, die eigentlich durchweg mit ""positiven"" Bildern dargestellt wurden, waren alle nach außen hin ""abgeschlossen"" durch einen (nahezu) rechtwinkligen Rahmen, der mindestens drei Seiten umschloss, wohingegen Schriftzeichen, die in Verbindung mit ""negativen"" Bildern gezeigt wurden, größtenteils ""offen"" waren und auch chaotischer und weniger aufgeräumt wirkten, da sie durch den fehlenden Rahmen auch loser und freier im Raum schwebten.","0","1","0","null","","","<div class = 'row'><div class = 'column'><img src = 'usneg/9290.bmp' width = '100%;'></div><div class = 'column'><img src = 'category1/CS10.png' width = '70%;'></div></div>","null","neg","CS","CS","1","category1/CS10.png","","","","",""
"","html-keyboard-response","52","303797","0.0-6.0-4.0-0.4","nvmpn601oq","many_one","0","indirect_first","0","th07we24","1","20","1","1","3","1","Schriftzeichen, die eigentlich durchweg mit ""positiven"" Bildern dargestellt wurden, waren alle nach außen hin ""abgeschlossen"" durch einen (nahezu) rechtwinkligen Rahmen, der mindestens drei Seiten umschloss, wohingegen Schriftzeichen, die in Verbindung mit ""negativen"" Bildern gezeigt wurden, größtenteils ""offen"" waren und auch chaotischer und weniger aufgeräumt wirkten, da sie durch den fehlenden Rahmen auch loser und freier im Raum schwebten.","0","1","0","null","","","<div class = 'row'><div class = 'column'><img src = 'category1/CS9.png' width = '70%;'></div><div class = 'column'><img src = 'usneg/9180.bmp' width = '100%;'></div></div>","null","neg","CS","CS","1","category1/CS9.png","","","","",""
"","html-keyboard-response","53","306325","0.0-6.0-4.0-0.5","nvmpn601oq","many_one","0","indirect_first","0","th07we24","1","20","1","1","3","1","Schriftzeichen, die eigentlich durchweg mit ""positiven"" Bildern dargestellt wurden, waren alle nach außen hin ""abgeschlossen"" durch einen (nahezu) rechtwinkligen Rahmen, der mindestens drei Seiten umschloss, wohingegen Schriftzeichen, die in Verbindung mit ""negativen"" Bildern gezeigt wurden, größtenteils ""offen"" waren und auch chaotischer und weniger aufgeräumt wirkten, da sie durch den fehlenden Rahmen auch loser und freier im Raum schwebten.","0","1","0","null","","","<div class = 'row'><div class = 'column'><img src = 'category3/CS6.png' width = '70%;'></div><div class = 'column'><img src = 'uspos/2150.bmp' width = '100%;'></div></div>","null","pos","CS","CS","3","category3/CS6.png","","","","",""
"","html-keyboard-response","54","308832","0.0-6.0-4.0-0.6","nvmpn601oq","many_one","0","indirect_first","0","th07we24","1","20","1","1","3","1","Schriftzeichen, die eigentlich durchweg mit ""positiven"" Bildern dargestellt wurden, waren alle nach außen hin ""abgeschlossen"" durch einen (nahezu) rechtwinkligen Rahmen, der mindestens drei Seiten umschloss, wohingegen Schriftzeichen, die in Verbindung mit ""negativen"" Bildern gezeigt wurden, größtenteils ""offen"" waren und auch chaotischer und weniger aufgeräumt wirkten, da sie durch den fehlenden Rahmen auch loser und freier im Raum schwebten.","0","1","0","null","","","<div class = 'row'><div class = 'column'><img src = 'usneg/9421.bmp' width = '100%;'></div><div class = 'column'><img src = 'category4/CS10.png' width = '70%;'></div></div>","null","neg","CS","CS","4","category4/CS10.png","","","","",""
"","html-keyboard-response","55","311347","0.0-6.0-4.0-0.7","nvmpn601oq","many_one","0","indirect_first","0","th07we24","1","20","1","1","3","1","Schriftzeichen, die eigentlich durchweg mit ""positiven"" Bildern dargestellt wurden, waren alle nach außen hin ""abgeschlossen"" durch einen (nahezu) rechtwinkligen Rahmen, der mindestens drei Seiten umschloss, wohingegen Schriftzeichen, die in Verbindung mit ""negativen"" Bildern gezeigt wurden, größtenteils ""offen"" waren und auch chaotischer und weniger aufgeräumt wirkten, da sie durch den fehlenden Rahmen auch loser und freier im Raum schwebten.","0","1","0","null","","","<div class = 'row'><div class = 'column'><img src = 'category3/CS3.png' width = '70%;'></div><div class = 'column'><img src = 'uspos/2030.bmp' width = '100%;'></div></div>","null","pos","CS","CS","3","category3/CS3.png","","","","",""
"","html-keyboard-response","56","313857","0.0-6.0-4.0-0.8","nvmpn601oq","many_one","0","indirect_first","0","th07we24","1","20","1","1","3","1","Schriftzeichen, die eigentlich durchweg mit ""positiven"" Bildern dargestellt wurden, waren alle nach außen hin ""abgeschlossen"" durch einen (nahezu) rechtwinkligen Rahmen, der mindestens drei Seiten umschloss, wohingegen Schriftzeichen, die in Verbindung mit ""negativen"" Bildern gezeigt wurden, größtenteils ""offen"" waren und auch chaotischer und weniger aufgeräumt wirkten, da sie durch den fehlenden Rahmen auch loser und freier im Raum schwebten.","0","1","0","null","","","<div class = 'row'><div class = 'column'><img src = 'category1/CS3.png' width = '70%;'></div><div class = 'column'><img src = 'usneg/9584.bmp' width = '100%;'></div></div>","null","neg","CS","CS","1","category1/CS3.png","","","","",""
"","html-keyboard-response","57","316369","0.0-6.0-4.0-0.9","nvmpn601oq","many_one","0","indirect_first","0","th07we24","1","20","1","1","3","1","Schriftzeichen, die eigentlich durchweg mit ""positiven"" Bildern dargestellt wurden, waren alle nach außen hin ""abgeschlossen"" durch einen (nahezu) rechtwinkligen Rahmen, der mindestens drei Seiten umschloss, wohingegen Schriftzeichen, die in Verbindung mit ""negativen"" Bildern gezeigt wurden, größtenteils ""offen"" waren und auch chaotischer und weniger aufgeräumt wirkten, da sie durch den fehlenden Rahmen auch loser und freier im Raum schwebten.","0","1","0","null","","","<div class = 'row'><div class = 'column'><img src = 'uspos/4625.bmp' width = '100%;'></div><div class = 'column'><img src = 'category3/CS8.png' width = '70%;'></div></div>","null","pos","CS","CS","3","category3/CS8.png","","","","",""
"","html-keyboard-response","58","318890","0.0-6.0-4.0-0.10","nvmpn601oq","many_one","0","indirect_first","0","th07we24","1","20","1","1","3","1","Schriftzeichen, die eigentlich durchweg mit ""positiven"" Bildern dargestellt wurden, waren alle nach außen hin ""abgeschlossen"" durch einen (nahezu) rechtwinkligen Rahmen, der mindestens drei Seiten umschloss, wohingegen Schriftzeichen, die in Verbindung mit ""negativen"" Bildern gezeigt wurden, größtenteils ""offen"" waren und auch chaotischer und weniger aufgeräumt wirkten, da sie durch den fehlenden Rahmen auch loser und freier im Raum schwebten.","0","1","0","null","","","<div class = 'row'><div class = 'column'><img src = 'uspos/8190.bmp' width = '100%;'></div><div class = 'column'><img src = 'category2/CS10.png' width = '70%;'></div></div>","null","pos","CS","CS","2","category2/CS10.png","","","","",""
"","html-keyboard-response","59","321410","0.0-6.0-4.0-0.11","nvmpn601oq","many_one","0","indirect_first","0","th07we24","1","20","1","1","3","1","Schriftzeichen, die eigentlich durchweg mit ""positiven"" Bildern dargestellt wurden, waren alle nach außen hin ""abgeschlossen"" durch einen (nahezu) rechtwinkligen Rahmen, der mindestens drei Seiten umschloss, wohingegen Schriftzeichen, die in Verbindung mit ""negativen"" Bildern gezeigt wurden, größtenteils ""offen"" waren und auch chaotischer und weniger aufgeräumt wirkten, da sie durch den fehlenden Rahmen auch loser und freier im Raum schwebten.","0","1","0","null","","","<div class = 'row'><div class = 'column'><img src = 'category4/CS1.png' width = '70%;'></div><div class = 'column'><img src = 'usneg/6020.bmp' width = '100%;'></div></div>","null","neg","CS","CS","4","category4/CS1.png","","","","",""
"","html-keyboard-response","60","323917","0.0-6.0-4.0-0.12","nvmpn601oq","many_one","0","indirect_first","0","th07we24","1","20","1","1","3","1","Schriftzeichen, die eigentlich durchweg mit ""positiven"" Bildern dargestellt wurden, waren alle nach außen hin ""abgeschlossen"" durch einen (nahezu) rechtwinkligen Rahmen, der mindestens drei Seiten umschloss, wohingegen Schriftzeichen, die in Verbindung mit ""negativen"" Bildern gezeigt wurden, größtenteils ""offen"" waren und auch chaotischer und weniger aufgeräumt wirkten, da sie durch den fehlenden Rahmen auch loser und freier im Raum schwebten.","0","1","0","null","","","<div class = 'row'><div class = 'column'><img src = 'usneg/2205.bmp' width = '100%;'></div><div class = 'column'><img src = 'category4/CS5.png' width = '70%;'></div></div>","null","neg","CS","CS","4","category4/CS5.png","","","","",""
"","html-keyboard-response","61","326433","0.0-6.0-4.0-0.13","nvmpn601oq","many_one","0","indirect_first","0","th07we24","1","20","1","1","3","1","Schriftzeichen, die eigentlich durchweg mit ""positiven"" Bildern dargestellt wurden, waren alle nach außen hin ""abgeschlossen"" durch einen (nahezu) rechtwinkligen Rahmen, der mindestens drei Seiten umschloss, wohingegen Schriftzeichen, die in Verbindung mit ""negativen"" Bildern gezeigt wurden, größtenteils ""offen"" waren und auch chaotischer und weniger aufgeräumt wirkten, da sie durch den fehlenden Rahmen auch loser und freier im Raum schwebten.","0","1","0","null","","","<div class = 'row'><div class = 'column'><img src = 'category3/CS5.png' width = '70%;'></div><div class = 'column'><img src = 'uspos/5600.bmp' width = '100%;'></div></div>","null","pos","CS","CS","3","category3/CS5.png","","","","",""
"","html-keyboard-response","62","328941","0.0-6.0-4.0-0.14","nvmpn601oq","many_one","0","indirect_first","0","th07we24","1","20","1","1","3","1","Schriftzeichen, die eigentlich durchweg mit ""positiven"" Bildern dargestellt wurden, waren alle nach außen hin ""abgeschlossen"" durch einen (nahezu) rechtwinkligen Rahmen, der mindestens drei Seiten umschloss, wohingegen Schriftzeichen, die in Verbindung mit ""negativen"" Bildern gezeigt wurden, größtenteils ""offen"" waren und auch chaotischer und weniger aufgeräumt wirkten, da sie durch den fehlenden Rahmen auch loser und freier im Raum schwebten.","0","1","0","null","","","<div class = 'row'><div class = 'column'><img src = 'uspos/8080.bmp' width = '100%;'></div><div class = 'column'><img src = 'category3/CS10.png' width = '70%;'></div></div>","null","pos","CS","CS","3","category3/CS10.png","","","","",""
"","html-keyboard-response","63","331460","0.0-6.0-4.0-0.15","nvmpn601oq","many_one","0","indirect_first","0","th07we24","1","20","1","1","3","1","Schriftzeichen, die eigentlich durchweg mit ""positiven"" Bildern dargestellt wurden, waren alle nach außen hin ""abgeschlossen"" durch einen (nahezu) rechtwinkligen Rahmen, der mindestens drei Seiten umschloss, wohingegen Schriftzeichen, die in Verbindung mit ""negativen"" Bildern gezeigt wurden, größtenteils ""offen"" waren und auch chaotischer und weniger aufgeräumt wirkten, da sie durch den fehlenden Rahmen auch loser und freier im Raum schwebten.","0","1","0","null","","","<div class = 'row'><div class = 'column'><img src = 'usneg/9220.bmp' width = '100%;'></div><div class = 'column'><img src = 'category4/CS4.png' width = '70%;'></div></div>","null","neg","CS","CS","4","category4/CS4.png","","","","",""
"","html-keyboard-response","64","333965","0.0-6.0-4.0-0.16","nvmpn601oq","many_one","0","indirect_first","0","th07we24","1","20","1","1","3","1","Schriftzeichen, die eigentlich durchweg mit ""positiven"" Bildern dargestellt wurden, waren alle nach außen hin ""abgeschlossen"" durch einen (nahezu) rechtwinkligen Rahmen, der mindestens drei Seiten umschloss, wohingegen Schriftzeichen, die in Verbindung mit ""negativen"" Bildern gezeigt wurden, größtenteils ""offen"" waren und auch chaotischer und weniger aufgeräumt wirkten, da sie durch den fehlenden Rahmen auch loser und freier im Raum schwebten.","0","1","0","null","","","<div class = 'row'><div class = 'column'><img src = 'uspos/2160.bmp' width = '100%;'></div><div class = 'column'><img src = 'category2/CS2.png' width = '70%;'></div></div>","null","pos","CS","CS","2","category2/CS2.png","","","","",""
"","html-keyboard-response","65","336475","0.0-6.0-4.0-0.17","nvmpn601oq","many_one","0","indirect_first","0","th07we24","1","20","1","1","3","1","Schriftzeichen, die eigentlich durchweg mit ""positiven"" Bildern dargestellt wurden, waren alle nach außen hin ""abgeschlossen"" durch einen (nahezu) rechtwinkligen Rahmen, der mindestens drei Seiten umschloss, wohingegen Schriftzeichen, die in Verbindung mit ""negativen"" Bildern gezeigt wurden, größtenteils ""offen"" waren und auch chaotischer und weniger aufgeräumt wirkten, da sie durch den fehlenden Rahmen auch loser und freier im Raum schwebten.","0","1","0","null","","","<div class = 'row'><div class = 'column'><img src = 'category1/CS8.png' width = '70%;'></div><div class = 'column'><img src = 'usneg/9330.bmp' width = '100%;'></div></div>","null","neg","CS","CS","1","category1/CS8.png","","","","",""
"","html-keyboard-response","66","338984","0.0-6.0-4.0-0.18","nvmpn601oq","many_one","0","indirect_first","0","th07we24","1","20","1","1","3","1","Schriftzeichen, die eigentlich durchweg mit ""positiven"" Bildern dargestellt wurden, waren alle nach außen hin ""abgeschlossen"" durch einen (nahezu) rechtwinkligen Rahmen, der mindestens drei Seiten umschloss, wohingegen Schriftzeichen, die in Verbindung mit ""negativen"" Bildern gezeigt wurden, größtenteils ""offen"" waren und auch chaotischer und weniger aufgeräumt wirkten, da sie durch den fehlenden Rahmen auch loser und freier im Raum schwebten.","0","1","0","null","","","<div class = 'row'><div class = 'column'><img src = 'usneg/9435.bmp' width = '100%;'></div><div class = 'column'><img src = 'category4/CS9.png' width = '70%;'></div></div>","null","neg","CS","CS","4","category4/CS9.png","","","","",""
"","html-keyboard-response","67","341502","0.0-6.0-4.0-0.19","nvmpn601oq","many_one","0","indirect_first","0","th07we24","1","20","1","1","3","1","Schriftzeichen, die eigentlich durchweg mit ""positiven"" Bildern dargestellt wurden, waren alle nach außen hin ""abgeschlossen"" durch einen (nahezu) rechtwinkligen Rahmen, der mindestens drei Seiten umschloss, wohingegen Schriftzeichen, die in Verbindung mit ""negativen"" Bildern gezeigt wurden, größtenteils ""offen"" waren und auch chaotischer und weniger aufgeräumt wirkten, da sie durch den fehlenden Rahmen auch loser und freier im Raum schwebten.","0","1","0","null","","","<div class = 'row'><div class = 'column'><img src = 'uspos/2900.2.bmp' width = '100%;'></div><div class = 'column'><img src = 'category2/CS9.png' width = '70%;'></div></div>","null","pos","CS","CS","2","category2/CS9.png","","","","",""
"","survey-html-form","68","346544","0.0-6.0-5.0","nvmpn601oq","many_one","0","indirect_first","0","th07we24","1","20","1","1","3","1","Schriftzeichen, die eigentlich durchweg mit ""positiven"" Bildern dargestellt wurden, waren alle nach außen hin ""abgeschlossen"" durch einen (nahezu) rechtwinkligen Rahmen, der mindestens drei Seiten umschloss, wohingegen Schriftzeichen, die in Verbindung mit ""negativen"" Bildern gezeigt wurden, größtenteils ""offen"" waren und auch chaotischer und weniger aufgeräumt wirkten, da sie durch den fehlenden Rahmen auch loser und freier im Raum schwebten.","0","1","0","4539.09500001464","","{}","","","","","","","","","","","",""
"","html-keyboard-response","69","350569","0.0-6.0-6.0-0.0","nvmpn601oq","many_one","0","indirect_first","0","th07we24","1","20","1","1","3","1","Schriftzeichen, die eigentlich durchweg mit ""positiven"" Bildern dargestellt wurden, waren alle nach außen hin ""abgeschlossen"" durch einen (nahezu) rechtwinkligen Rahmen, der mindestens drei Seiten umschloss, wohingegen Schriftzeichen, die in Verbindung mit ""negativen"" Bildern gezeigt wurden, größtenteils ""offen"" waren und auch chaotischer und weniger aufgeräumt wirkten, da sie durch den fehlenden Rahmen auch loser und freier im Raum schwebten.","0","1","0","null","","","<div class = 'row'><div class = 'column'><img src = 'category1/CS10.png' width = '70%;'></div><div class = 'column'><img src = 'usneg/9290.bmp' width = '100%;'></div></div>","null","neg","CS","CS","1","category1/CS10.png","","","","",""
"","html-keyboard-response","70","353076","0.0-6.0-6.0-0.1","nvmpn601oq","many_one","0","indirect_first","0","th07we24","1","20","1","1","3","1","Schriftzeichen, die eigentlich durchweg mit ""positiven"" Bildern dargestellt wurden, waren alle nach außen hin ""abgeschlossen"" durch einen (nahezu) rechtwinkligen Rahmen, der mindestens drei Seiten umschloss, wohingegen Schriftzeichen, die in Verbindung mit ""negativen"" Bildern gezeigt wurden, größtenteils ""offen"" waren und auch chaotischer und weniger aufgeräumt wirkten, da sie durch den fehlenden Rahmen auch loser und freier im Raum schwebten.","0","1","0","null","","","<div class = 'row'><div class = 'column'><img src = 'category3/CS6.png' width = '70%;'></div><div class = 'column'><img src = 'uspos/2150.bmp' width = '100%;'></div></div>","null","pos","CS","CS","3","category3/CS6.png","","","","",""
"","html-keyboard-response","71","355583","0.0-6.0-6.0-0.2","nvmpn601oq","many_one","0","indirect_first","0","th07we24","1","20","1","1","3","1","Schriftzeichen, die eigentlich durchweg mit ""positiven"" Bildern dargestellt wurden, waren alle nach außen hin ""abgeschlossen"" durch einen (nahezu) rechtwinkligen Rahmen, der mindestens drei Seiten umschloss, wohingegen Schriftzeichen, die in Verbindung mit ""negativen"" Bildern gezeigt wurden, größtenteils ""offen"" waren und auch chaotischer und weniger aufgeräumt wirkten, da sie durch den fehlenden Rahmen auch loser und freier im Raum schwebten.","0","1","0","null","","","<div class = 'row'><div class = 'column'><img src = 'uspos/4625.bmp' width = '100%;'></div><div class = 'column'><img src = 'category3/CS8.png' width = '70%;'></div></div>","null","pos","CS","CS","3","category3/CS8.png","","","","",""
"","html-keyboard-response","72","358104","0.0-6.0-6.0-0.3","nvmpn601oq","many_one","0","indirect_first","0","th07we24","1","20","1","1","3","1","Schriftzeichen, die eigentlich durchweg mit ""positiven"" Bildern dargestellt wurden, waren alle nach außen hin ""abgeschlossen"" durch einen (nahezu) rechtwinkligen Rahmen, der mindestens drei Seiten umschloss, wohingegen Schriftzeichen, die in Verbindung mit ""negativen"" Bildern gezeigt wurden, größtenteils ""offen"" waren und auch chaotischer und weniger aufgeräumt wirkten, da sie durch den fehlenden Rahmen auch loser und freier im Raum schwebten.","0","1","0","null","","","<div class = 'row'><div class = 'column'><img src = 'uspos/2900.2.bmp' width = '100%;'></div><div class = 'column'><img src = 'category2/CS9.png' width = '70%;'></div></div>","null","pos","CS","CS","2","category2/CS9.png","","","","",""
"","html-keyboard-response","73","360624","0.0-6.0-6.0-0.4","nvmpn601oq","many_one","0","indirect_first","0","th07we24","1","20","1","1","3","1","Schriftzeichen, die eigentlich durchweg mit ""positiven"" Bildern dargestellt wurden, waren alle nach außen hin ""abgeschlossen"" durch einen (nahezu) rechtwinkligen Rahmen, der mindestens drei Seiten umschloss, wohingegen Schriftzeichen, die in Verbindung mit ""negativen"" Bildern gezeigt wurden, größtenteils ""offen"" waren und auch chaotischer und weniger aufgeräumt wirkten, da sie durch den fehlenden Rahmen auch loser und freier im Raum schwebten.","0","1","0","null","","","<div class = 'row'><div class = 'column'><img src = 'category1/CS8.png' width = '70%;'></div><div class = 'column'><img src = 'usneg/9330.bmp' width = '100%;'></div></div>","null","neg","CS","CS","1","category1/CS8.png","","","","",""
"","html-keyboard-response","74","363140","0.0-6.0-6.0-0.5","nvmpn601oq","many_one","0","indirect_first","0","th07we24","1","20","1","1","3","1","Schriftzeichen, die eigentlich durchweg mit ""positiven"" Bildern dargestellt wurden, waren alle nach außen hin ""abgeschlossen"" durch einen (nahezu) rechtwinkligen Rahmen, der mindestens drei Seiten umschloss, wohingegen Schriftzeichen, die in Verbindung mit ""negativen"" Bildern gezeigt wurden, größtenteils ""offen"" waren und auch chaotischer und weniger aufgeräumt wirkten, da sie durch den fehlenden Rahmen auch loser und freier im Raum schwebten.","0","1","0","null","","","<div class = 'row'><div class = 'column'><img src = 'category2/CS1.png' width = '70%;'></div><div class = 'column'><img src = 'uspos/5831.bmp' width = '100%;'></div></div>","null","pos","CS","CS","2","category2/CS1.png","","","","",""
"","html-keyboard-response","75","365656","0.0-6.0-6.0-0.6","nvmpn601oq","many_one","0","indirect_first","0","th07we24","1","20","1","1","3","1","Schriftzeichen, die eigentlich durchweg mit ""positiven"" Bildern dargestellt wurden, waren alle nach außen hin ""abgeschlossen"" durch einen (nahezu) rechtwinkligen Rahmen, der mindestens drei Seiten umschloss, wohingegen Schriftzeichen, die in Verbindung mit ""negativen"" Bildern gezeigt wurden, größtenteils ""offen"" waren und auch chaotischer und weniger aufgeräumt wirkten, da sie durch den fehlenden Rahmen auch loser und freier im Raum schwebten.","0","1","0","null","","","<div class = 'row'><div class = 'column'><img src = 'usneg/6020.bmp' width = '100%;'></div><div class = 'column'><img src = 'category4/CS1.png' width = '70%;'></div></div>","null","neg","CS","CS","4","category4/CS1.png","","","","",""
"","html-keyboard-response","76","368165","0.0-6.0-6.0-0.7","nvmpn601oq","many_one","0","indirect_first","0","th07we24","1","20","1","1","3","1","Schriftzeichen, die eigentlich durchweg mit ""positiven"" Bildern dargestellt wurden, waren alle nach außen hin ""abgeschlossen"" durch einen (nahezu) rechtwinkligen Rahmen, der mindestens drei Seiten umschloss, wohingegen Schriftzeichen, die in Verbindung mit ""negativen"" Bildern gezeigt wurden, größtenteils ""offen"" waren und auch chaotischer und weniger aufgeräumt wirkten, da sie durch den fehlenden Rahmen auch loser und freier im Raum schwebten.","0","1","0","null","","","<div class = 'row'><div class = 'column'><img src = 'category2/CS6.png' width = '70%;'></div><div class = 'column'><img src = 'uspos/5629.bmp' width = '100%;'></div></div>","null","pos","CS","CS","2","category2/CS6.png","","","","",""
"","html-keyboard-response","77","370686","0.0-6.0-6.0-0.8","nvmpn601oq","many_one","0","indirect_first","0","th07we24","1","20","1","1","3","1","Schriftzeichen, die eigentlich durchweg mit ""positiven"" Bildern dargestellt wurden, waren alle nach außen hin ""abgeschlossen"" durch einen (nahezu) rechtwinkligen Rahmen, der mindestens drei Seiten umschloss, wohingegen Schriftzeichen, die in Verbindung mit ""negativen"" Bildern gezeigt wurden, größtenteils ""offen"" waren und auch chaotischer und weniger aufgeräumt wirkten, da sie durch den fehlenden Rahmen auch loser und freier im Raum schwebten.","0","1","0","null","","","<div class = 'row'><div class = 'column'><img src = 'uspos/8080.bmp' width = '100%;'></div><div class = 'column'><img src = 'category3/CS10.png' width = '70%;'></div></div>","null","pos","CS","CS","3","category3/CS10.png","","","","",""
"","html-keyboard-response","78","373200","0.0-6.0-6.0-0.9","nvmpn601oq","many_one","0","indirect_first","0","th07we24","1","20","1","1","3","1","Schriftzeichen, die eigentlich durchweg mit ""positiven"" Bildern dargestellt wurden, waren alle nach außen hin ""abgeschlossen"" durch einen (nahezu) rechtwinkligen Rahmen, der mindestens drei Seiten umschloss, wohingegen Schriftzeichen, die in Verbindung mit ""negativen"" Bildern gezeigt wurden, größtenteils ""offen"" waren und auch chaotischer und weniger aufgeräumt wirkten, da sie durch den fehlenden Rahmen auch loser und freier im Raum schwebten.","0","1","0","null","","","<div class = 'row'><div class = 'column'><img src = 'uspos/8190.bmp' width = '100%;'></div><div class = 'column'><img src = 'category2/CS10.png' width = '70%;'></div></div>","null","pos","CS","CS","2","category2/CS10.png","","","","",""
"","html-keyboard-response","79","375712","0.0-6.0-6.0-0.10","nvmpn601oq","many_one","0","indirect_first","0","th07we24","1","20","1","1","3","1","Schriftzeichen, die eigentlich durchweg mit ""positiven"" Bildern dargestellt wurden, waren alle nach außen hin ""abgeschlossen"" durch einen (nahezu) rechtwinkligen Rahmen, der mindestens drei Seiten umschloss, wohingegen Schriftzeichen, die in Verbindung mit ""negativen"" Bildern gezeigt wurden, größtenteils ""offen"" waren und auch chaotischer und weniger aufgeräumt wirkten, da sie durch den fehlenden Rahmen auch loser und freier im Raum schwebten.","0","1","0","null","","","<div class = 'row'><div class = 'column'><img src = 'usneg/9220.bmp' width = '100%;'></div><div class = 'column'><img src = 'category4/CS4.png' width = '70%;'></div></div>","null","neg","CS","CS","4","category4/CS4.png","","","","",""
"","html-keyboard-response","80","378226","0.0-6.0-6.0-0.11","nvmpn601oq","many_one","0","indirect_first","0","th07we24","1","20","1","1","3","1","Schriftzeichen, die eigentlich durchweg mit ""positiven"" Bildern dargestellt wurden, waren alle nach außen hin ""abgeschlossen"" durch einen (nahezu) rechtwinkligen Rahmen, der mindestens drei Seiten umschloss, wohingegen Schriftzeichen, die in Verbindung mit ""negativen"" Bildern gezeigt wurden, größtenteils ""offen"" waren und auch chaotischer und weniger aufgeräumt wirkten, da sie durch den fehlenden Rahmen auch loser und freier im Raum schwebten.","0","1","0","null","","","<div class = 'row'><div class = 'column'><img src = 'category3/CS3.png' width = '70%;'></div><div class = 'column'><img src = 'uspos/2030.bmp' width = '100%;'></div></div>","null","pos","CS","CS","3","category3/CS3.png","","","","",""
"","html-keyboard-response","81","380733","0.0-6.0-6.0-0.12","nvmpn601oq","many_one","0","indirect_first","0","th07we24","1","20","1","1","3","1","Schriftzeichen, die eigentlich durchweg mit ""positiven"" Bildern dargestellt wurden, waren alle nach außen hin ""abgeschlossen"" durch einen (nahezu) rechtwinkligen Rahmen, der mindestens drei Seiten umschloss, wohingegen Schriftzeichen, die in Verbindung mit ""negativen"" Bildern gezeigt wurden, größtenteils ""offen"" waren und auch chaotischer und weniger aufgeräumt wirkten, da sie durch den fehlenden Rahmen auch loser und freier im Raum schwebten.","0","1","0","null","","","<div class = 'row'><div class = 'column'><img src = 'usneg/9340.bmp' width = '100%;'></div><div class = 'column'><img src = 'category1/CS5.png' width = '70%;'></div></div>","null","neg","CS","CS","1","category1/CS5.png","","","","",""
"","html-keyboard-response","82","383246","0.0-6.0-6.0-0.13","nvmpn601oq","many_one","0","indirect_first","0","th07we24","1","20","1","1","3","1","Schriftzeichen, die eigentlich durchweg mit ""positiven"" Bildern dargestellt wurden, waren alle nach außen hin ""abgeschlossen"" durch einen (nahezu) rechtwinkligen Rahmen, der mindestens drei Seiten umschloss, wohingegen Schriftzeichen, die in Verbindung mit ""negativen"" Bildern gezeigt wurden, größtenteils ""offen"" waren und auch chaotischer und weniger aufgeräumt wirkten, da sie durch den fehlenden Rahmen auch loser und freier im Raum schwebten.","0","1","0","null","","","<div class = 'row'><div class = 'column'><img src = 'category1/CS3.png' width = '70%;'></div><div class = 'column'><img src = 'usneg/9584.bmp' width = '100%;'></div></div>","null","neg","CS","CS","1","category1/CS3.png","","","","",""
"","html-keyboard-response","83","385751","0.0-6.0-6.0-0.14","nvmpn601oq","many_one","0","indirect_first","0","th07we24","1","20","1","1","3","1","Schriftzeichen, die eigentlich durchweg mit ""positiven"" Bildern dargestellt wurden, waren alle nach außen hin ""abgeschlossen"" durch einen (nahezu) rechtwinkligen Rahmen, der mindestens drei Seiten umschloss, wohingegen Schriftzeichen, die in Verbindung mit ""negativen"" Bildern gezeigt wurden, größtenteils ""offen"" waren und auch chaotischer und weniger aufgeräumt wirkten, da sie durch den fehlenden Rahmen auch loser und freier im Raum schwebten.","0","1","0","null","","","<div class = 'row'><div class = 'column'><img src = 'usneg/9435.bmp' width = '100%;'></div><div class = 'column'><img src = 'category4/CS9.png' width = '70%;'></div></div>","null","neg","CS","CS","4","category4/CS9.png","","","","",""
"","html-keyboard-response","84","388264","0.0-6.0-6.0-0.15","nvmpn601oq","many_one","0","indirect_first","0","th07we24","1","20","1","1","3","1","Schriftzeichen, die eigentlich durchweg mit ""positiven"" Bildern dargestellt wurden, waren alle nach außen hin ""abgeschlossen"" durch einen (nahezu) rechtwinkligen Rahmen, der mindestens drei Seiten umschloss, wohingegen Schriftzeichen, die in Verbindung mit ""negativen"" Bildern gezeigt wurden, größtenteils ""offen"" waren und auch chaotischer und weniger aufgeräumt wirkten, da sie durch den fehlenden Rahmen auch loser und freier im Raum schwebten.","0","1","0","null","","","<div class = 'row'><div class = 'column'><img src = 'uspos/2160.bmp' width = '100%;'></div><div class = 'column'><img src = 'category2/CS2.png' width = '70%;'></div></div>","null","pos","CS","CS","2","category2/CS2.png","","","","",""
"","html-keyboard-response","85","390787","0.0-6.0-6.0-0.16","nvmpn601oq","many_one","0","indirect_first","0","th07we24","1","20","1","1","3","1","Schriftzeichen, die eigentlich durchweg mit ""positiven"" Bildern dargestellt wurden, waren alle nach außen hin ""abgeschlossen"" durch einen (nahezu) rechtwinkligen Rahmen, der mindestens drei Seiten umschloss, wohingegen Schriftzeichen, die in Verbindung mit ""negativen"" Bildern gezeigt wurden, größtenteils ""offen"" waren und auch chaotischer und weniger aufgeräumt wirkten, da sie durch den fehlenden Rahmen auch loser und freier im Raum schwebten.","0","1","0","null","","","<div class = 'row'><div class = 'column'><img src = 'category4/CS10.png' width = '70%;'></div><div class = 'column'><img src = 'usneg/9421.bmp' width = '100%;'></div></div>","null","neg","CS","CS","4","category4/CS10.png","","","","",""
"","html-keyboard-response","86","393303","0.0-6.0-6.0-0.17","nvmpn601oq","many_one","0","indirect_first","0","th07we24","1","20","1","1","3","1","Schriftzeichen, die eigentlich durchweg mit ""positiven"" Bildern dargestellt wurden, waren alle nach außen hin ""abgeschlossen"" durch einen (nahezu) rechtwinkligen Rahmen, der mindestens drei Seiten umschloss, wohingegen Schriftzeichen, die in Verbindung mit ""negativen"" Bildern gezeigt wurden, größtenteils ""offen"" waren und auch chaotischer und weniger aufgeräumt wirkten, da sie durch den fehlenden Rahmen auch loser und freier im Raum schwebten.","0","1","0","null","","","<div class = 'row'><div class = 'column'><img src = 'category1/CS9.png' width = '70%;'></div><div class = 'column'><img src = 'usneg/9180.bmp' width = '100%;'></div></div>","null","neg","CS","CS","1","category1/CS9.png","","","","",""
"","html-keyboard-response","87","395819","0.0-6.0-6.0-0.18","nvmpn601oq","many_one","0","indirect_first","0","th07we24","1","20","1","1","3","1","Schriftzeichen, die eigentlich durchweg mit ""positiven"" Bildern dargestellt wurden, waren alle nach außen hin ""abgeschlossen"" durch einen (nahezu) rechtwinkligen Rahmen, der mindestens drei Seiten umschloss, wohingegen Schriftzeichen, die in Verbindung mit ""negativen"" Bildern gezeigt wurden, größtenteils ""offen"" waren und auch chaotischer und weniger aufgeräumt wirkten, da sie durch den fehlenden Rahmen auch loser und freier im Raum schwebten.","0","1","0","null","","","<div class = 'row'><div class = 'column'><img src = 'category4/CS5.png' width = '70%;'></div><div class = 'column'><img src = 'usneg/2205.bmp' width = '100%;'></div></div>","null","neg","CS","CS","4","category4/CS5.png","","","","",""
"","html-keyboard-response","88","398337","0.0-6.0-6.0-0.19","nvmpn601oq","many_one","0","indirect_first","0","th07we24","1","20","1","1","3","1","Schriftzeichen, die eigentlich durchweg mit ""positiven"" Bildern dargestellt wurden, waren alle nach außen hin ""abgeschlossen"" durch einen (nahezu) rechtwinkligen Rahmen, der mindestens drei Seiten umschloss, wohingegen Schriftzeichen, die in Verbindung mit ""negativen"" Bildern gezeigt wurden, größtenteils ""offen"" waren und auch chaotischer und weniger aufgeräumt wirkten, da sie durch den fehlenden Rahmen auch loser und freier im Raum schwebten.","0","1","0","null","","","<div class = 'row'><div class = 'column'><img src = 'category3/CS5.png' width = '70%;'></div><div class = 'column'><img src = 'uspos/5600.bmp' width = '100%;'></div></div>","null","pos","CS","CS","3","category3/CS5.png","","","","",""
"","html-keyboard-response","89","434889","0.0-7.0","nvmpn601oq","many_one","0","indirect_first","0","th07we24","1","20","1","1","3","1","Schriftzeichen, die eigentlich durchweg mit ""positiven"" Bildern dargestellt wurden, waren alle nach außen hin ""abgeschlossen"" durch einen (nahezu) rechtwinkligen Rahmen, der mindestens drei Seiten umschloss, wohingegen Schriftzeichen, die in Verbindung mit ""negativen"" Bildern gezeigt wurden, größtenteils ""offen"" waren und auch chaotischer und weniger aufgeräumt wirkten, da sie durch den fehlenden Rahmen auch loser und freier im Raum schwebten.","0","1","0","36049.29500003345","","","<p>Sie sehen nun die chinesischen Zeichen nur ganz kurz. Danach sehen Sie die jeweilige Aussprache der Zeichen als Silbe auf dem Bildschrim. Ihre Aufgabe ist es, für jede Silbe anzugeben, ob diese etwas angenehmes, oder unangenehmes bedeuten könnte. Verlassen Sie sich hier vor allem auf Ihre Intuition.<br><br>Die Zeichen werden nur zur Orientierung dargestellt, beachten Sie sie deshalb nicht. Konzentrieren Sie sich vor allem auf die Silben. <br>Reagieren Sie mit folgenden zwei Tasten: <br><br><b>'D' </b> wenn die Silbe etwas <b>unangenehmes</b> bedeuten könnte. <br><b>'K'</b> wenn die Silbe etwas <b>angenehmes</b> bedeuten könnte. <br><br>Bitte legen Sie nun den Zeigefinger der linken Hand auf die Taste 'D' und den Zeigefinger der rechten Hand auf die Taste 'K'. <br>Reagieren Sie auf jede Silbe so schnell wie möglich. Uns interessiert Ihre spontane Reaktion. <br> <br> <br>Drücken Sie 'D' oder 'K', um die nächste Aufgabe zu starten. </p>","68","","","","","","","","","",""
"","html-keyboard-response","90","437894","0.0-8.0-0.0","nvmpn601oq","many_one","0","indirect_first","0","th07we24","1","20","1","1","3","1","Schriftzeichen, die eigentlich durchweg mit ""positiven"" Bildern dargestellt wurden, waren alle nach außen hin ""abgeschlossen"" durch einen (nahezu) rechtwinkligen Rahmen, der mindestens drei Seiten umschloss, wohingegen Schriftzeichen, die in Verbindung mit ""negativen"" Bildern gezeigt wurden, größtenteils ""offen"" waren und auch chaotischer und weniger aufgeräumt wirkten, da sie durch den fehlenden Rahmen auch loser und freier im Raum schwebten.","0","1","0","null","","","<div style=""font-size:60px;"">+</div>","null","","","","","","","","","",""
"","html-keyboard-response","91","437986","0.0-8.0-1.0","nvmpn601oq","many_one","0","indirect_first","0","th07we24","1","20","1","1","3","1","Schriftzeichen, die eigentlich durchweg mit ""positiven"" Bildern dargestellt wurden, waren alle nach außen hin ""abgeschlossen"" durch einen (nahezu) rechtwinkligen Rahmen, der mindestens drei Seiten umschloss, wohingegen Schriftzeichen, die in Verbindung mit ""negativen"" Bildern gezeigt wurden, größtenteils ""offen"" waren und auch chaotischer und weniger aufgeräumt wirkten, da sie durch den fehlenden Rahmen auch loser und freier im Raum schwebten.","0","1","0","null","","","<img src = 'category2/CS9.png' width = '100%;'>","null","","","","","","","","","",""
"","html-keyboard-response","92","438245","0.0-8.0-2.0","nvmpn601oq","many_one","0","indirect_first","0","th07we24","1","20","1","1","3","1","Schriftzeichen, die eigentlich durchweg mit ""positiven"" Bildern dargestellt wurden, waren alle nach außen hin ""abgeschlossen"" durch einen (nahezu) rechtwinkligen Rahmen, der mindestens drei Seiten umschloss, wohingegen Schriftzeichen, die in Verbindung mit ""negativen"" Bildern gezeigt wurden, größtenteils ""offen"" waren und auch chaotischer und weniger aufgeräumt wirkten, da sie durch den fehlenden Rahmen auch loser und freier im Raum schwebten.","0","1","0","null","","","<img src = 'targets/39.png' width = '100%;'>","null","","","","","","","","","",""
"","html-keyboard-response","93","444661","0.0-8.0-3.0","nvmpn601oq","many_one","0","indirect_first","0","th07we24","1","20","1","1","3","1","Schriftzeichen, die eigentlich durchweg mit ""positiven"" Bildern dargestellt wurden, waren alle nach außen hin ""abgeschlossen"" durch einen (nahezu) rechtwinkligen Rahmen, der mindestens drei Seiten umschloss, wohingegen Schriftzeichen, die in Verbindung mit ""negativen"" Bildern gezeigt wurden, größtenteils ""offen"" waren und auch chaotischer und weniger aufgeräumt wirkten, da sie durch den fehlenden Rahmen auch loser und freier im Raum schwebten.","0","1","0","6415.754999965429","","","<img src = 'targets/mask.png' width = '100%;'>","68","pos","CS","CS","2","category2/CS9.png","targets/39.png","0","indirect","0",""
"","html-keyboard-response","94","446193","0.0-8.0-0.1","nvmpn601oq","many_one","0","indirect_first","0","th07we24","1","20","1","1","3","1","Schriftzeichen, die eigentlich durchweg mit ""positiven"" Bildern dargestellt wurden, waren alle nach außen hin ""abgeschlossen"" durch einen (nahezu) rechtwinkligen Rahmen, der mindestens drei Seiten umschloss, wohingegen Schriftzeichen, die in Verbindung mit ""negativen"" Bildern gezeigt wurden, größtenteils ""offen"" waren und auch chaotischer und weniger aufgeräumt wirkten, da sie durch den fehlenden Rahmen auch loser und freier im Raum schwebten.","0","1","0","null","","","<div style=""font-size:60px;"">+</div>","null","","","","","","","","","",""
"","html-keyboard-response","95","446284","0.0-8.0-1.1","nvmpn601oq","many_one","0","indirect_first","0","th07we24","1","20","1","1","3","1","Schriftzeichen, die eigentlich durchweg mit ""positiven"" Bildern dargestellt wurden, waren alle nach außen hin ""abgeschlossen"" durch einen (nahezu) rechtwinkligen Rahmen, der mindestens drei Seiten umschloss, wohingegen Schriftzeichen, die in Verbindung mit ""negativen"" Bildern gezeigt wurden, größtenteils ""offen"" waren und auch chaotischer und weniger aufgeräumt wirkten, da sie durch den fehlenden Rahmen auch loser und freier im Raum schwebten.","0","1","0","null","","","<img src = 'category3/CS5.png' width = '100%;'>","null","","","","","","","","","",""
"","html-keyboard-response","96","446538","0.0-8.0-2.1","nvmpn601oq","many_one","0","indirect_first","0","th07we24","1","20","1","1","3","1","Schriftzeichen, die eigentlich durchweg mit ""positiven"" Bildern dargestellt wurden, waren alle nach außen hin ""abgeschlossen"" durch einen (nahezu) rechtwinkligen Rahmen, der mindestens drei Seiten umschloss, wohingegen Schriftzeichen, die in Verbindung mit ""negativen"" Bildern gezeigt wurden, größtenteils ""offen"" waren und auch chaotischer und weniger aufgeräumt wirkten, da sie durch den fehlenden Rahmen auch loser und freier im Raum schwebten.","0","1","0","null","","","<img src = 'targets/27.png' width = '100%;'>","null","","","","","","","","","",""
"","html-keyboard-response","97","448725","0.0-8.0-3.1","nvmpn601oq","many_one","0","indirect_first","0","th07we24","1","20","1","1","3","1","Schriftzeichen, die eigentlich durchweg mit ""positiven"" Bildern dargestellt wurden, waren alle nach außen hin ""abgeschlossen"" durch einen (nahezu) rechtwinkligen Rahmen, der mindestens drei Seiten umschloss, wohingegen Schriftzeichen, die in Verbindung mit ""negativen"" Bildern gezeigt wurden, größtenteils ""offen"" waren und auch chaotischer und weniger aufgeräumt wirkten, da sie durch den fehlenden Rahmen auch loser und freier im Raum schwebten.","0","1","0","2186.6849999642","","","<img src = 'targets/mask.png' width = '100%;'>","75","pos","CS","CS","3","category3/CS5.png","targets/27.png","1","indirect","1",""
"","html-keyboard-response","98","450239","0.0-8.0-0.2","nvmpn601oq","many_one","0","indirect_first","0","th07we24","1","20","1","1","3","1","Schriftzeichen, die eigentlich durchweg mit ""positiven"" Bildern dargestellt wurden, waren alle nach außen hin ""abgeschlossen"" durch einen (nahezu) rechtwinkligen Rahmen, der mindestens drei Seiten umschloss, wohingegen Schriftzeichen, die in Verbindung mit ""negativen"" Bildern gezeigt wurden, größtenteils ""offen"" waren und auch chaotischer und weniger aufgeräumt wirkten, da sie durch den fehlenden Rahmen auch loser und freier im Raum schwebten.","0","1","0","null","","","<div style=""font-size:60px;"">+</div>","null","","","","","","","","","",""
"","html-keyboard-response","99","450335","0.0-8.0-1.2","nvmpn601oq","many_one","0","indirect_first","0","th07we24","1","20","1","1","3","1","Schriftzeichen, die eigentlich durchweg mit ""positiven"" Bildern dargestellt wurden, waren alle nach außen hin ""abgeschlossen"" durch einen (nahezu) rechtwinkligen Rahmen, der mindestens drei Seiten umschloss, wohingegen Schriftzeichen, die in Verbindung mit ""negativen"" Bildern gezeigt wurden, größtenteils ""offen"" waren und auch chaotischer und weniger aufgeräumt wirkten, da sie durch den fehlenden Rahmen auch loser und freier im Raum schwebten.","0","1","0","null","","","<img src = 'category3/CS6.png' width = '100%;'>","null","","","","","","","","","",""
"","html-keyboard-response","100","450589","0.0-8.0-2.2","nvmpn601oq","many_one","0","indirect_first","0","th07we24","1","20","1","1","3","1","Schriftzeichen, die eigentlich durchweg mit ""positiven"" Bildern dargestellt wurden, waren alle nach außen hin ""abgeschlossen"" durch einen (nahezu) rechtwinkligen Rahmen, der mindestens drei Seiten umschloss, wohingegen Schriftzeichen, die in Verbindung mit ""negativen"" Bildern gezeigt wurden, größtenteils ""offen"" waren und auch chaotischer und weniger aufgeräumt wirkten, da sie durch den fehlenden Rahmen auch loser und freier im Raum schwebten.","0","1","0","null","","","<img src = 'targets/25.png' width = '100%;'>","null","","","","","","","","","",""
"","html-keyboard-response","101","453531","0.0-8.0-3.2","nvmpn601oq","many_one","0","indirect_first","0","th07we24","1","20","1","1","3","1","Schriftzeichen, die eigentlich durchweg mit ""positiven"" Bildern dargestellt wurden, waren alle nach außen hin ""abgeschlossen"" durch einen (nahezu) rechtwinkligen Rahmen, der mindestens drei Seiten umschloss, wohingegen Schriftzeichen, die in Verbindung mit ""negativen"" Bildern gezeigt wurden, größtenteils ""offen"" waren und auch chaotischer und weniger aufgeräumt wirkten, da sie durch den fehlenden Rahmen auch loser und freier im Raum schwebten.","0","1","0","2941.2299999967217","","","<img src = 'targets/mask.png' width = '100%;'>","75","pos","CS","CS","3","category3/CS6.png","targets/25.png","1","indirect","2",""
"","html-keyboard-response","102","455048","0.0-8.0-0.3","nvmpn601oq","many_one","0","indirect_first","0","th07we24","1","20","1","1","3","1","Schriftzeichen, die eigentlich durchweg mit ""positiven"" Bildern dargestellt wurden, waren alle nach außen hin ""abgeschlossen"" durch einen (nahezu) rechtwinkligen Rahmen, der mindestens drei Seiten umschloss, wohingegen Schriftzeichen, die in Verbindung mit ""negativen"" Bildern gezeigt wurden, größtenteils ""offen"" waren und auch chaotischer und weniger aufgeräumt wirkten, da sie durch den fehlenden Rahmen auch loser und freier im Raum schwebten.","0","1","0","null","","","<div style=""font-size:60px;"">+</div>","null","","","","","","","","","",""
"","html-keyboard-response","103","455149","0.0-8.0-1.3","nvmpn601oq","many_one","0","indirect_first","0","th07we24","1","20","1","1","3","1","Schriftzeichen, die eigentlich durchweg mit ""positiven"" Bildern dargestellt wurden, waren alle nach außen hin ""abgeschlossen"" durch einen (nahezu) rechtwinkligen Rahmen, der mindestens drei Seiten umschloss, wohingegen Schriftzeichen, die in Verbindung mit ""negativen"" Bildern gezeigt wurden, größtenteils ""offen"" waren und auch chaotischer und weniger aufgeräumt wirkten, da sie durch den fehlenden Rahmen auch loser und freier im Raum schwebten.","0","1","0","null","","","<img src = 'category4/CS6.png' width = '100%;'>","null","","","","","","","","","",""
"","html-keyboard-response","104","455407","0.0-8.0-2.3","nvmpn601oq","many_one","0","indirect_first","0","th07we24","1","20","1","1","3","1","Schriftzeichen, die eigentlich durchweg mit ""positiven"" Bildern dargestellt wurden, waren alle nach außen hin ""abgeschlossen"" durch einen (nahezu) rechtwinkligen Rahmen, der mindestens drei Seiten umschloss, wohingegen Schriftzeichen, die in Verbindung mit ""negativen"" Bildern gezeigt wurden, größtenteils ""offen"" waren und auch chaotischer und weniger aufgeräumt wirkten, da sie durch den fehlenden Rahmen auch loser und freier im Raum schwebten.","0","1","0","null","","","<img src = 'targets/40.png' width = '100%;'>","null","","","","","","","","","",""
"","html-keyboard-response","105","457821","0.0-8.0-3.3","nvmpn601oq","many_one","0","indirect_first","0","th07we24","1","20","1","1","3","1","Schriftzeichen, die eigentlich durchweg mit ""positiven"" Bildern dargestellt wurden, waren alle nach außen hin ""abgeschlossen"" durch einen (nahezu) rechtwinkligen Rahmen, der mindestens drei Seiten umschloss, wohingegen Schriftzeichen, die in Verbindung mit ""negativen"" Bildern gezeigt wurden, größtenteils ""offen"" waren und auch chaotischer und weniger aufgeräumt wirkten, da sie durch den fehlenden Rahmen auch loser und freier im Raum schwebten.","0","1","0","2412.5800000038","","","<img src = 'targets/mask.png' width = '100%;'>","68","neg","GS","GSold","4","category4/CS6.png","targets/40.png","0","indirect","3",""
"","html-keyboard-response","106","459333","0.0-8.0-0.4","nvmpn601oq","many_one","0","indirect_first","0","th07we24","1","20","1","1","3","1","Schriftzeichen, die eigentlich durchweg mit ""positiven"" Bildern dargestellt wurden, waren alle nach außen hin ""abgeschlossen"" durch einen (nahezu) rechtwinkligen Rahmen, der mindestens drei Seiten umschloss, wohingegen Schriftzeichen, die in Verbindung mit ""negativen"" Bildern gezeigt wurden, größtenteils ""offen"" waren und auch chaotischer und weniger aufgeräumt wirkten, da sie durch den fehlenden Rahmen auch loser und freier im Raum schwebten.","0","1","0","null","","","<div style=""font-size:60px;"">+</div>","null","","","","","","","","","",""
"","html-keyboard-response","107","459425","0.0-8.0-1.4","nvmpn601oq","many_one","0","indirect_first","0","th07we24","1","20","1","1","3","1","Schriftzeichen, die eigentlich durchweg mit ""positiven"" Bildern dargestellt wurden, waren alle nach außen hin ""abgeschlossen"" durch einen (nahezu) rechtwinkligen Rahmen, der mindestens drei Seiten umschloss, wohingegen Schriftzeichen, die in Verbindung mit ""negativen"" Bildern gezeigt wurden, größtenteils ""offen"" waren und auch chaotischer und weniger aufgeräumt wirkten, da sie durch den fehlenden Rahmen auch loser und freier im Raum schwebten.","0","1","0","null","","","<img src = 'category4/CS9.png' width = '100%;'>","null","","","","","","","","","",""
"","html-keyboard-response","108","459678","0.0-8.0-2.4","nvmpn601oq","many_one","0","indirect_first","0","th07we24","1","20","1","1","3","1","Schriftzeichen, die eigentlich durchweg mit ""positiven"" Bildern dargestellt wurden, waren alle nach außen hin ""abgeschlossen"" durch einen (nahezu) rechtwinkligen Rahmen, der mindestens drei Seiten umschloss, wohingegen Schriftzeichen, die in Verbindung mit ""negativen"" Bildern gezeigt wurden, größtenteils ""offen"" waren und auch chaotischer und weniger aufgeräumt wirkten, da sie durch den fehlenden Rahmen auch loser und freier im Raum schwebten.","0","1","0","null","","","<img src = 'targets/44.png' width = '100%;'>","null","","","","","","","","","",""
"","html-keyboard-response","109","461752","0.0-8.0-3.4","nvmpn601oq","many_one","0","indirect_first","0","th07we24","1","20","1","1","3","1","Schriftzeichen, die eigentlich durchweg mit ""positiven"" Bildern dargestellt wurden, waren alle nach außen hin ""abgeschlossen"" durch einen (nahezu) rechtwinkligen Rahmen, der mindestens drei Seiten umschloss, wohingegen Schriftzeichen, die in Verbindung mit ""negativen"" Bildern gezeigt wurden, größtenteils ""offen"" waren und auch chaotischer und weniger aufgeräumt wirkten, da sie durch den fehlenden Rahmen auch loser und freier im Raum schwebten.","0","1","0","2072.825000039302","","","<img src = 'targets/mask.png' width = '100%;'>","68","neg","CS","CS","4","category4/CS9.png","targets/44.png","0","indirect","4",""
"","html-keyboard-response","110","463260","0.0-8.0-0.5","nvmpn601oq","many_one","0","indirect_first","0","th07we24","1","20","1","1","3","1","Schriftzeichen, die eigentlich durchweg mit ""positiven"" Bildern dargestellt wurden, waren alle nach außen hin ""abgeschlossen"" durch einen (nahezu) rechtwinkligen Rahmen, der mindestens drei Seiten umschloss, wohingegen Schriftzeichen, die in Verbindung mit ""negativen"" Bildern gezeigt wurden, größtenteils ""offen"" waren und auch chaotischer und weniger aufgeräumt wirkten, da sie durch den fehlenden Rahmen auch loser und freier im Raum schwebten.","0","1","0","null","","","<div style=""font-size:60px;"">+</div>","null","","","","","","","","","",""
"","html-keyboard-response","111","463351","0.0-8.0-1.5","nvmpn601oq","many_one","0","indirect_first","0","th07we24","1","20","1","1","3","1","Schriftzeichen, die eigentlich durchweg mit ""positiven"" Bildern dargestellt wurden, waren alle nach außen hin ""abgeschlossen"" durch einen (nahezu) rechtwinkligen Rahmen, der mindestens drei Seiten umschloss, wohingegen Schriftzeichen, die in Verbindung mit ""negativen"" Bildern gezeigt wurden, größtenteils ""offen"" waren und auch chaotischer und weniger aufgeräumt wirkten, da sie durch den fehlenden Rahmen auch loser und freier im Raum schwebten.","0","1","0","null","","","<img src = 'category3/CS4.png' width = '100%;'>","null","","","","","","","","","",""
"","html-keyboard-response","112","463611","0.0-8.0-2.5","nvmpn601oq","many_one","0","indirect_first","0","th07we24","1","20","1","1","3","1","Schriftzeichen, die eigentlich durchweg mit ""positiven"" Bildern dargestellt wurden, waren alle nach außen hin ""abgeschlossen"" durch einen (nahezu) rechtwinkligen Rahmen, der mindestens drei Seiten umschloss, wohingegen Schriftzeichen, die in Verbindung mit ""negativen"" Bildern gezeigt wurden, größtenteils ""offen"" waren und auch chaotischer und weniger aufgeräumt wirkten, da sie durch den fehlenden Rahmen auch loser und freier im Raum schwebten.","0","1","0","null","","","<img src = 'targets/34.png' width = '100%;'>","null","","","","","","","","","",""
"","html-keyboard-response","113","465071","0.0-8.0-3.5","nvmpn601oq","many_one","0","indirect_first","0","th07we24","1","20","1","1","3","1","Schriftzeichen, die eigentlich durchweg mit ""positiven"" Bildern dargestellt wurden, waren alle nach außen hin ""abgeschlossen"" durch einen (nahezu) rechtwinkligen Rahmen, der mindestens drei Seiten umschloss, wohingegen Schriftzeichen, die in Verbindung mit ""negativen"" Bildern gezeigt wurden, größtenteils ""offen"" waren und auch chaotischer und weniger aufgeräumt wirkten, da sie durch den fehlenden Rahmen auch loser und freier im Raum schwebten.","0","1","0","1459.8100000293925","","","<img src = 'targets/mask.png' width = '100%;'>","68","pos","GS","GSold","3","category3/CS4.png","targets/34.png","0","indirect","5",""
"","html-keyboard-response","114","466585","0.0-8.0-0.6","nvmpn601oq","many_one","0","indirect_first","0","th07we24","1","20","1","1","3","1","Schriftzeichen, die eigentlich durchweg mit ""positiven"" Bildern dargestellt wurden, waren alle nach außen hin ""abgeschlossen"" durch einen (nahezu) rechtwinkligen Rahmen, der mindestens drei Seiten umschloss, wohingegen Schriftzeichen, die in Verbindung mit ""negativen"" Bildern gezeigt wurden, größtenteils ""offen"" waren und auch chaotischer und weniger aufgeräumt wirkten, da sie durch den fehlenden Rahmen auch loser und freier im Raum schwebten.","0","1","0","null","","","<div style=""font-size:60px;"">+</div>","null","","","","","","","","","",""
"","html-keyboard-response","115","466677","0.0-8.0-1.6","nvmpn601oq","many_one","0","indirect_first","0","th07we24","1","20","1","1","3","1","Schriftzeichen, die eigentlich durchweg mit ""positiven"" Bildern dargestellt wurden, waren alle nach außen hin ""abgeschlossen"" durch einen (nahezu) rechtwinkligen Rahmen, der mindestens drei Seiten umschloss, wohingegen Schriftzeichen, die in Verbindung mit ""negativen"" Bildern gezeigt wurden, größtenteils ""offen"" waren und auch chaotischer und weniger aufgeräumt wirkten, da sie durch den fehlenden Rahmen auch loser und freier im Raum schwebten.","0","1","0","null","","","<img src = 'category4/CS10.png' width = '100%;'>","null","","","","","","","","","",""
"","html-keyboard-response","116","466939","0.0-8.0-2.6","nvmpn601oq","many_one","0","indirect_first","0","th07we24","1","20","1","1","3","1","Schriftzeichen, die eigentlich durchweg mit ""positiven"" Bildern dargestellt wurden, waren alle nach außen hin ""abgeschlossen"" durch einen (nahezu) rechtwinkligen Rahmen, der mindestens drei Seiten umschloss, wohingegen Schriftzeichen, die in Verbindung mit ""negativen"" Bildern gezeigt wurden, größtenteils ""offen"" waren und auch chaotischer und weniger aufgeräumt wirkten, da sie durch den fehlenden Rahmen auch loser und freier im Raum schwebten.","0","1","0","null","","","<img src = 'targets/10.png' width = '100%;'>","null","","","","","","","","","",""
"","html-keyboard-response","117","469002","0.0-8.0-3.6","nvmpn601oq","many_one","0","indirect_first","0","th07we24","1","20","1","1","3","1","Schriftzeichen, die eigentlich durchweg mit ""positiven"" Bildern dargestellt wurden, waren alle nach außen hin ""abgeschlossen"" durch einen (nahezu) rechtwinkligen Rahmen, der mindestens drei Seiten umschloss, wohingegen Schriftzeichen, die in Verbindung mit ""negativen"" Bildern gezeigt wurden, größtenteils ""offen"" waren und auch chaotischer und weniger aufgeräumt wirkten, da sie durch den fehlenden Rahmen auch loser und freier im Raum schwebten.","0","1","0","2062.045000027865","","","<img src = 'targets/mask.png' width = '100%;'>","68","neg","CS","CS","4","category4/CS10.png","targets/10.png","0","indirect","6",""
"","html-keyboard-response","118","470512","0.0-8.0-0.7","nvmpn601oq","many_one","0","indirect_first","0","th07we24","1","20","1","1","3","1","Schriftzeichen, die eigentlich durchweg mit ""positiven"" Bildern dargestellt wurden, waren alle nach außen hin ""abgeschlossen"" durch einen (nahezu) rechtwinkligen Rahmen, der mindestens drei Seiten umschloss, wohingegen Schriftzeichen, die in Verbindung mit ""negativen"" Bildern gezeigt wurden, größtenteils ""offen"" waren und auch chaotischer und weniger aufgeräumt wirkten, da sie durch den fehlenden Rahmen auch loser und freier im Raum schwebten.","0","1","0","null","","","<div style=""font-size:60px;"">+</div>","null","","","","","","","","","",""
"","html-keyboard-response","119","470604","0.0-8.0-1.7","nvmpn601oq","many_one","0","indirect_first","0","th07we24","1","20","1","1","3","1","Schriftzeichen, die eigentlich durchweg mit ""positiven"" Bildern dargestellt wurden, waren alle nach außen hin ""abgeschlossen"" durch einen (nahezu) rechtwinkligen Rahmen, der mindestens drei Seiten umschloss, wohingegen Schriftzeichen, die in Verbindung mit ""negativen"" Bildern gezeigt wurden, größtenteils ""offen"" waren und auch chaotischer und weniger aufgeräumt wirkten, da sie durch den fehlenden Rahmen auch loser und freier im Raum schwebten.","0","1","0","null","","","<img src = 'category1/CS10.png' width = '100%;'>","null","","","","","","","","","",""
"","html-keyboard-response","120","470879","0.0-8.0-2.7","nvmpn601oq","many_one","0","indirect_first","0","th07we24","1","20","1","1","3","1","Schriftzeichen, die eigentlich durchweg mit ""positiven"" Bildern dargestellt wurden, waren alle nach außen hin ""abgeschlossen"" durch einen (nahezu) rechtwinkligen Rahmen, der mindestens drei Seiten umschloss, wohingegen Schriftzeichen, die in Verbindung mit ""negativen"" Bildern gezeigt wurden, größtenteils ""offen"" waren und auch chaotischer und weniger aufgeräumt wirkten, da sie durch den fehlenden Rahmen auch loser und freier im Raum schwebten.","0","1","0","null","","","<img src = 'targets/5.png' width = '100%;'>","null","","","","","","","","","",""
