"success","trial_type","trial_index","time_elapsed","internal_node_id","subject","condition","condition_code","measure","measure_code","codeword","gender","age","education","chinese","fach","handedness","comment","hinschauen","ablenkung","gewissenhaft","rt","url","responses","stimulus","key_press","val","type","type_specific","category","cs_selected","response","target","task","indirect","nr_pres"
"true","fullscreen","0","8118","0.0-0.0","4k0vevhgrj","many_one","0","direct_first","1","Jetti899","0","21","1","1","3","1","","0","NA","0","","","","","","","","","","","","","","",""
"","external-html","1","88341","0.0-1.0","4k0vevhgrj","many_one","0","direct_first","1","Jetti899","0","21","1","1","3","1","","0","NA","0","80156.99500000119","text/information.html","","","","","","","","","","","","",""
"","external-html","2","140800","0.0-2.0","4k0vevhgrj","many_one","0","direct_first","1","Jetti899","0","21","1","1","3","1","","0","NA","0","52311.67500000083","text/consent.html","","","","","","","","","","","","",""
"","survey-html-form","3","169332","0.0-3.0","4k0vevhgrj","many_one","0","direct_first","1","Jetti899","0","21","1","1","3","1","","0","NA","0","28522.60500000193","","{""codeword_enter"":""Jetti899""}","","","","","","","","","","","",""
"","survey-html-form","4","188795","0.0-4.0","4k0vevhgrj","many_one","0","direct_first","1","Jetti899","0","21","1","1","3","1","","0","NA","0","19454.4249999999","","{""age"":""21"",""education"":""1"",""subject"":""3"",""gender"":""0"",""handedness"":""1"",""chinese"":""1""}","","","","","","","","","","","",""
"","survey-html-form","5","200829","0.0-5.0","4k0vevhgrj","many_one","0","direct_first","1","Jetti899","0","21","1","1","3","1","","0","NA","0","12029.170000001584","","{}","","","","","","","","","","","",""
"","html-keyboard-response","6","204864","0.0-6.0-0.0-0.0","4k0vevhgrj","many_one","0","direct_first","1","Jetti899","0","21","1","1","3","1","","0","NA","0","null","","","<div class = 'row'><div class = 'column'><img src = 'usneg/7380.bmp' width = '100%;'></div><div class = 'column'><img src = 'category2/CS5.png' width = '70%;'></div></div>","null","neg","CS","CS","2","category2/CS5.png","","","","",""
"","html-keyboard-response","7","207404","0.0-6.0-0.0-0.1","4k0vevhgrj","many_one","0","direct_first","1","Jetti899","0","21","1","1","3","1","","0","NA","0","null","","","<div class = 'row'><div class = 'column'><img src = 'category3/CS1.png' width = '70%;'></div><div class = 'column'><img src = 'uspos/1460.bmp' width = '100%;'></div></div>","null","pos","CS","CS","3","category3/CS1.png","","","","",""
"","html-keyboard-response","8","209924","0.0-6.0-0.0-0.2","4k0vevhgrj","many_one","0","direct_first","1","Jetti899","0","21","1","1","3","1","","0","NA","0","null","","","<div class = 'row'><div class = 'column'><img src = 'usneg/9330.bmp' width = '100%;'></div><div class = 'column'><img src = 'category2/CS2.png' width = '70%;'></div></div>","null","neg","CS","CS","2","category2/CS2.png","","","","",""
"","html-keyboard-response","9","212451","0.0-6.0-0.0-0.3","4k0vevhgrj","many_one","0","direct_first","1","Jetti899","0","21","1","1","3","1","","0","NA","0","null","","","<div class = 'row'><div class = 'column'><img src = 'uspos/2311.bmp' width = '100%;'></div><div class = 'column'><img src = 'category1/CS4.png' width = '70%;'></div></div>","null","pos","CS","CS","1","category1/CS4.png","","","","",""
"","html-keyboard-response","10","214969","0.0-6.0-0.0-0.4","4k0vevhgrj","many_one","0","direct_first","1","Jetti899","0","21","1","1","3","1","","0","NA","0","null","","","<div class = 'row'><div class = 'column'><img src = 'category4/CS10.png' width = '70%;'></div><div class = 'column'><img src = 'usneg/9180.bmp' width = '100%;'></div></div>","null","neg","CS","CS","4","category4/CS10.png","","","","",""
"","html-keyboard-response","11","217480","0.0-6.0-0.0-0.5","4k0vevhgrj","many_one","0","direct_first","1","Jetti899","0","21","1","1","3","1","","0","NA","0","null","","","<div class = 'row'><div class = 'column'><img src = 'uspos/8540.bmp' width = '100%;'></div><div class = 'column'><img src = 'category3/CS5.png' width = '70%;'></div></div>","null","pos","CS","CS","3","category3/CS5.png","","","","",""
"","html-keyboard-response","12","220003","0.0-6.0-0.0-0.6","4k0vevhgrj","many_one","0","direct_first","1","Jetti899","0","21","1","1","3","1","","0","NA","0","null","","","<div class = 'row'><div class = 'column'><img src = 'category3/CS7.png' width = '70%;'></div><div class = 'column'><img src = 'uspos/2040.bmp' width = '100%;'></div></div>","null","pos","CS","CS","3","category3/CS7.png","","","","",""
"","html-keyboard-response","13","222544","0.0-6.0-0.0-0.7","4k0vevhgrj","many_one","0","direct_first","1","Jetti899","0","21","1","1","3","1","","0","NA","0","null","","","<div class = 'row'><div class = 'column'><img src = 'category2/CS6.png' width = '70%;'></div><div class = 'column'><img src = 'usneg/9220.bmp' width = '100%;'></div></div>","null","neg","CS","CS","2","category2/CS6.png","","","","",""
"","html-keyboard-response","14","225064","0.0-6.0-0.0-0.8","4k0vevhgrj","many_one","0","direct_first","1","Jetti899","0","21","1","1","3","1","","0","NA","0","null","","","<div class = 'row'><div class = 'column'><img src = 'usneg/9280.bmp' width = '100%;'></div><div class = 'column'><img src = 'category4/CS2.png' width = '70%;'></div></div>","null","neg","CS","CS","4","category4/CS2.png","","","","",""
"","html-keyboard-response","15","227590","0.0-6.0-0.0-0.9","4k0vevhgrj","many_one","0","direct_first","1","Jetti899","0","21","1","1","3","1","","0","NA","0","null","","","<div class = 'row'><div class = 'column'><img src = 'category1/CS7.png' width = '70%;'></div><div class = 'column'><img src = 'uspos/5700.bmp' width = '100%;'></div></div>","null","pos","CS","CS","1","category1/CS7.png","","","","",""
"","html-keyboard-response","16","230113","0.0-6.0-0.0-0.10","4k0vevhgrj","many_one","0","direct_first","1","Jetti899","0","21","1","1","3","1","","0","NA","0","null","","","<div class = 'row'><div class = 'column'><img src = 'uspos/2530.bmp' width = '100%;'></div><div class = 'column'><img src = 'category1/CS9.png' width = '70%;'></div></div>","null","pos","CS","CS","1","category1/CS9.png","","","","",""
"","html-keyboard-response","17","232627","0.0-6.0-0.0-0.11","4k0vevhgrj","many_one","0","direct_first","1","Jetti899","0","21","1","1","3","1","","0","NA","0","null","","","<div class = 'row'><div class = 'column'><img src = 'usneg/3181.bmp' width = '100%;'></div><div class = 'column'><img src = 'category4/CS3.png' width = '70%;'></div></div>","null","neg","CS","CS","4","category4/CS3.png","","","","",""
"","html-keyboard-response","18","235150","0.0-6.0-0.0-0.12","4k0vevhgrj","many_one","0","direct_first","1","Jetti899","0","21","1","1","3","1","","0","NA","0","null","","","<div class = 'row'><div class = 'column'><img src = 'uspos/8080.bmp' width = '100%;'></div><div class = 'column'><img src = 'category1/CS5.png' width = '70%;'></div></div>","null","pos","CS","CS","1","category1/CS5.png","","","","",""
"","html-keyboard-response","19","237691","0.0-6.0-0.0-0.13","4k0vevhgrj","many_one","0","direct_first","1","Jetti899","0","21","1","1","3","1","","0","NA","0","null","","","<div class = 'row'><div class = 'column'><img src = 'usneg/9290.bmp' width = '100%;'></div><div class = 'column'><img src = 'category2/CS1.png' width = '70%;'></div></div>","null","neg","CS","CS","2","category2/CS1.png","","","","",""
"","html-keyboard-response","20","240226","0.0-6.0-0.0-0.14","4k0vevhgrj","many_one","0","direct_first","1","Jetti899","0","21","1","1","3","1","","0","NA","0","null","","","<div class = 'row'><div class = 'column'><img src = 'category4/CS5.png' width = '70%;'></div><div class = 'column'><img src = 'usneg/6020.bmp' width = '100%;'></div></div>","null","neg","CS","CS","4","category4/CS5.png","","","","",""
"","html-keyboard-response","21","242739","0.0-6.0-0.0-0.15","4k0vevhgrj","many_one","0","direct_first","1","Jetti899","0","21","1","1","3","1","","0","NA","0","null","","","<div class = 'row'><div class = 'column'><img src = 'category2/CS4.png' width = '70%;'></div><div class = 'column'><img src = 'usneg/9561.bmp' width = '100%;'></div></div>","null","neg","CS","CS","2","category2/CS4.png","","","","",""
"","html-keyboard-response","22","245253","0.0-6.0-0.0-0.16","4k0vevhgrj","many_one","0","direct_first","1","Jetti899","0","21","1","1","3","1","","0","NA","0","null","","","<div class = 'row'><div class = 'column'><img src = 'category3/CS4.png' width = '70%;'></div><div class = 'column'><img src = 'uspos/2058.bmp' width = '100%;'></div></div>","null","pos","CS","CS","3","category3/CS4.png","","","","",""
"","html-keyboard-response","23","247767","0.0-6.0-0.0-0.17","4k0vevhgrj","many_one","0","direct_first","1","Jetti899","0","21","1","1","3","1","","0","NA","0","null","","","<div class = 'row'><div class = 'column'><img src = 'uspos/7580.bmp' width = '100%;'></div><div class = 'column'><img src = 'category1/CS8.png' width = '70%;'></div></div>","null","pos","CS","CS","1","category1/CS8.png","","","","",""
"","html-keyboard-response","24","250292","0.0-6.0-0.0-0.18","4k0vevhgrj","many_one","0","direct_first","1","Jetti899","0","21","1","1","3","1","","0","NA","0","null","","","<div class = 'row'><div class = 'column'><img src = 'uspos/2160.bmp' width = '100%;'></div><div class = 'column'><img src = 'category3/CS10.png' width = '70%;'></div></div>","null","pos","CS","CS","3","category3/CS10.png","","","","",""
"","html-keyboard-response","25","252806","0.0-6.0-0.0-0.19","4k0vevhgrj","many_one","0","direct_first","1","Jetti899","0","21","1","1","3","1","","0","NA","0","null","","","<div class = 'row'><div class = 'column'><img src = 'usneg/1280.bmp' width = '100%;'></div><div class = 'column'><img src = 'category4/CS8.png' width = '70%;'></div></div>","null","neg","CS","CS","4","category4/CS8.png","","","","",""
"","survey-html-form","26","258900","0.0-6.0-1.0","4k0vevhgrj","many_one","0","direct_first","1","Jetti899","0","21","1","1","3","1","","0","NA","0","5589.725000001665","","{}","","","","","","","","","","","",""
"","html-keyboard-response","27","262922","0.0-6.0-2.0-0.0","4k0vevhgrj","many_one","0","direct_first","1","Jetti899","0","21","1","1","3","1","","0","NA","0","null","","","<div class = 'row'><div class = 'column'><img src = 'uspos/8540.bmp' width = '100%;'></div><div class = 'column'><img src = 'category3/CS5.png' width = '70%;'></div></div>","null","pos","CS","CS","3","category3/CS5.png","","","","",""
"","html-keyboard-response","28","265455","0.0-6.0-2.0-0.1","4k0vevhgrj","many_one","0","direct_first","1","Jetti899","0","21","1","1","3","1","","0","NA","0","null","","","<div class = 'row'><div class = 'column'><img src = 'category3/CS4.png' width = '70%;'></div><div class = 'column'><img src = 'uspos/2058.bmp' width = '100%;'></div></div>","null","pos","CS","CS","3","category3/CS4.png","","","","",""
"","html-keyboard-response","29","267981","0.0-6.0-2.0-0.2","4k0vevhgrj","many_one","0","direct_first","1","Jetti899","0","21","1","1","3","1","","0","NA","0","null","","","<div class = 'row'><div class = 'column'><img src = 'category1/CS4.png' width = '70%;'></div><div class = 'column'><img src = 'uspos/2311.bmp' width = '100%;'></div></div>","null","pos","CS","CS","1","category1/CS4.png","","","","",""
"","html-keyboard-response","30","270507","0.0-6.0-2.0-0.3","4k0vevhgrj","many_one","0","direct_first","1","Jetti899","0","21","1","1","3","1","","0","NA","0","null","","","<div class = 'row'><div class = 'column'><img src = 'category2/CS4.png' width = '70%;'></div><div class = 'column'><img src = 'usneg/9561.bmp' width = '100%;'></div></div>","null","neg","CS","CS","2","category2/CS4.png","","","","",""
"","html-keyboard-response","31","273028","0.0-6.0-2.0-0.4","4k0vevhgrj","many_one","0","direct_first","1","Jetti899","0","21","1","1","3","1","","0","NA","0","null","","","<div class = 'row'><div class = 'column'><img src = 'uspos/1460.bmp' width = '100%;'></div><div class = 'column'><img src = 'category3/CS1.png' width = '70%;'></div></div>","null","pos","CS","CS","3","category3/CS1.png","","","","",""
"","html-keyboard-response","32","275555","0.0-6.0-2.0-0.5","4k0vevhgrj","many_one","0","direct_first","1","Jetti899","0","21","1","1","3","1","","0","NA","0","null","","","<div class = 'row'><div class = 'column'><img src = 'category2/CS1.png' width = '70%;'></div><div class = 'column'><img src = 'usneg/9290.bmp' width = '100%;'></div></div>","null","neg","CS","CS","2","category2/CS1.png","","","","",""
"","html-keyboard-response","33","278083","0.0-6.0-2.0-0.6","4k0vevhgrj","many_one","0","direct_first","1","Jetti899","0","21","1","1","3","1","","0","NA","0","null","","","<div class = 'row'><div class = 'column'><img src = 'category4/CS2.png' width = '70%;'></div><div class = 'column'><img src = 'usneg/9280.bmp' width = '100%;'></div></div>","null","neg","CS","CS","4","category4/CS2.png","","","","",""
"","html-keyboard-response","34","280599","0.0-6.0-2.0-0.7","4k0vevhgrj","many_one","0","direct_first","1","Jetti899","0","21","1","1","3","1","","0","NA","0","null","","","<div class = 'row'><div class = 'column'><img src = 'category1/CS7.png' width = '70%;'></div><div class = 'column'><img src = 'uspos/5700.bmp' width = '100%;'></div></div>","null","pos","CS","CS","1","category1/CS7.png","","","","",""
"","html-keyboard-response","35","283132","0.0-6.0-2.0-0.8","4k0vevhgrj","many_one","0","direct_first","1","Jetti899","0","21","1","1","3","1","","0","NA","0","null","","","<div class = 'row'><div class = 'column'><img src = 'category3/CS10.png' width = '70%;'></div><div class = 'column'><img src = 'uspos/2160.bmp' width = '100%;'></div></div>","null","pos","CS","CS","3","category3/CS10.png","","","","",""
"","html-keyboard-response","36","285649","0.0-6.0-2.0-0.9","4k0vevhgrj","many_one","0","direct_first","1","Jetti899","0","21","1","1","3","1","","0","NA","0","null","","","<div class = 'row'><div class = 'column'><img src = 'category1/CS9.png' width = '70%;'></div><div class = 'column'><img src = 'uspos/2530.bmp' width = '100%;'></div></div>","null","pos","CS","CS","1","category1/CS9.png","","","","",""
"","html-keyboard-response","37","288164","0.0-6.0-2.0-0.10","4k0vevhgrj","many_one","0","direct_first","1","Jetti899","0","21","1","1","3","1","","0","NA","0","null","","","<div class = 'row'><div class = 'column'><img src = 'category2/CS6.png' width = '70%;'></div><div class = 'column'><img src = 'usneg/9220.bmp' width = '100%;'></div></div>","null","neg","CS","CS","2","category2/CS6.png","","","","",""
"","html-keyboard-response","38","290703","0.0-6.0-2.0-0.11","4k0vevhgrj","many_one","0","direct_first","1","Jetti899","0","21","1","1","3","1","","0","NA","0","null","","","<div class = 'row'><div class = 'column'><img src = 'category2/CS2.png' width = '70%;'></div><div class = 'column'><img src = 'usneg/9330.bmp' width = '100%;'></div></div>","null","neg","CS","CS","2","category2/CS2.png","","","","",""
"","html-keyboard-response","39","293236","0.0-6.0-2.0-0.12","4k0vevhgrj","many_one","0","direct_first","1","Jetti899","0","21","1","1","3","1","","0","NA","0","null","","","<div class = 'row'><div class = 'column'><img src = 'category3/CS7.png' width = '70%;'></div><div class = 'column'><img src = 'uspos/2040.bmp' width = '100%;'></div></div>","null","pos","CS","CS","3","category3/CS7.png","","","","",""
"","html-keyboard-response","40","295745","0.0-6.0-2.0-0.13","4k0vevhgrj","many_one","0","direct_first","1","Jetti899","0","21","1","1","3","1","","0","NA","0","null","","","<div class = 'row'><div class = 'column'><img src = 'category4/CS10.png' width = '70%;'></div><div class = 'column'><img src = 'usneg/9180.bmp' width = '100%;'></div></div>","null","neg","CS","CS","4","category4/CS10.png","","","","",""
"","html-keyboard-response","41","298269","0.0-6.0-2.0-0.14","4k0vevhgrj","many_one","0","direct_first","1","Jetti899","0","21","1","1","3","1","","0","NA","0","null","","","<div class = 'row'><div class = 'column'><img src = 'usneg/6020.bmp' width = '100%;'></div><div class = 'column'><img src = 'category4/CS5.png' width = '70%;'></div></div>","null","neg","CS","CS","4","category4/CS5.png","","","","",""
"","html-keyboard-response","42","300782","0.0-6.0-2.0-0.15","4k0vevhgrj","many_one","0","direct_first","1","Jetti899","0","21","1","1","3","1","","0","NA","0","null","","","<div class = 'row'><div class = 'column'><img src = 'usneg/7380.bmp' width = '100%;'></div><div class = 'column'><img src = 'category2/CS5.png' width = '70%;'></div></div>","null","neg","CS","CS","2","category2/CS5.png","","","","",""
"","html-keyboard-response","43","303304","0.0-6.0-2.0-0.16","4k0vevhgrj","many_one","0","direct_first","1","Jetti899","0","21","1","1","3","1","","0","NA","0","null","","","<div class = 'row'><div class = 'column'><img src = 'category4/CS3.png' width = '70%;'></div><div class = 'column'><img src = 'usneg/3181.bmp' width = '100%;'></div></div>","null","neg","CS","CS","4","category4/CS3.png","","","","",""
"","html-keyboard-response","44","305821","0.0-6.0-2.0-0.17","4k0vevhgrj","many_one","0","direct_first","1","Jetti899","0","21","1","1","3","1","","0","NA","0","null","","","<div class = 'row'><div class = 'column'><img src = 'usneg/1280.bmp' width = '100%;'></div><div class = 'column'><img src = 'category4/CS8.png' width = '70%;'></div></div>","null","neg","CS","CS","4","category4/CS8.png","","","","",""
"","html-keyboard-response","45","308328","0.0-6.0-2.0-0.18","4k0vevhgrj","many_one","0","direct_first","1","Jetti899","0","21","1","1","3","1","","0","NA","0","null","","","<div class = 'row'><div class = 'column'><img src = 'uspos/8080.bmp' width = '100%;'></div><div class = 'column'><img src = 'category1/CS5.png' width = '70%;'></div></div>","null","pos","CS","CS","1","category1/CS5.png","","","","",""
"","html-keyboard-response","46","310849","0.0-6.0-2.0-0.19","4k0vevhgrj","many_one","0","direct_first","1","Jetti899","0","21","1","1","3","1","","0","NA","0","null","","","<div class = 'row'><div class = 'column'><img src = 'uspos/7580.bmp' width = '100%;'></div><div class = 'column'><img src = 'category1/CS8.png' width = '70%;'></div></div>","null","pos","CS","CS","1","category1/CS8.png","","","","",""
"","survey-html-form","47","313738","0.0-6.0-3.0","4k0vevhgrj","many_one","0","direct_first","1","Jetti899","0","21","1","1","3","1","","0","NA","0","2383.284999999858","","{}","","","","","","","","","","","",""
"","html-keyboard-response","48","317766","0.0-6.0-4.0-0.0","4k0vevhgrj","many_one","0","direct_first","1","Jetti899","0","21","1","1","3","1","","0","NA","0","null","","","<div class = 'row'><div class = 'column'><img src = 'uspos/1460.bmp' width = '100%;'></div><div class = 'column'><img src = 'category3/CS1.png' width = '70%;'></div></div>","null","pos","CS","CS","3","category3/CS1.png","","","","",""
"","html-keyboard-response","49","320286","0.0-6.0-4.0-0.1","4k0vevhgrj","many_one","0","direct_first","1","Jetti899","0","21","1","1","3","1","","0","NA","0","null","","","<div class = 'row'><div class = 'column'><img src = 'usneg/9330.bmp' width = '100%;'></div><div class = 'column'><img src = 'category2/CS2.png' width = '70%;'></div></div>","null","neg","CS","CS","2","category2/CS2.png","","","","",""
"","html-keyboard-response","50","322812","0.0-6.0-4.0-0.2","4k0vevhgrj","many_one","0","direct_first","1","Jetti899","0","21","1","1","3","1","","0","NA","0","null","","","<div class = 'row'><div class = 'column'><img src = 'category1/CS7.png' width = '70%;'></div><div class = 'column'><img src = 'uspos/5700.bmp' width = '100%;'></div></div>","null","pos","CS","CS","1","category1/CS7.png","","","","",""
"","html-keyboard-response","51","325335","0.0-6.0-4.0-0.3","4k0vevhgrj","many_one","0","direct_first","1","Jetti899","0","21","1","1","3","1","","0","NA","0","null","","","<div class = 'row'><div class = 'column'><img src = 'uspos/2058.bmp' width = '100%;'></div><div class = 'column'><img src = 'category3/CS4.png' width = '70%;'></div></div>","null","pos","CS","CS","3","category3/CS4.png","","","","",""
"","html-keyboard-response","52","327848","0.0-6.0-4.0-0.4","4k0vevhgrj","many_one","0","direct_first","1","Jetti899","0","21","1","1","3","1","","0","NA","0","null","","","<div class = 'row'><div class = 'column'><img src = 'category3/CS7.png' width = '70%;'></div><div class = 'column'><img src = 'uspos/2040.bmp' width = '100%;'></div></div>","null","pos","CS","CS","3","category3/CS7.png","","","","",""
"","html-keyboard-response","53","330354","0.0-6.0-4.0-0.5","4k0vevhgrj","many_one","0","direct_first","1","Jetti899","0","21","1","1","3","1","","0","NA","0","null","","","<div class = 'row'><div class = 'column'><img src = 'category2/CS1.png' width = '70%;'></div><div class = 'column'><img src = 'usneg/9290.bmp' width = '100%;'></div></div>","null","neg","CS","CS","2","category2/CS1.png","","","","",""
"","html-keyboard-response","54","332875","0.0-6.0-4.0-0.6","4k0vevhgrj","many_one","0","direct_first","1","Jetti899","0","21","1","1","3","1","","0","NA","0","null","","","<div class = 'row'><div class = 'column'><img src = 'category4/CS3.png' width = '70%;'></div><div class = 'column'><img src = 'usneg/3181.bmp' width = '100%;'></div></div>","null","neg","CS","CS","4","category4/CS3.png","","","","",""
"","html-keyboard-response","55","335416","0.0-6.0-4.0-0.7","4k0vevhgrj","many_one","0","direct_first","1","Jetti899","0","21","1","1","3","1","","0","NA","0","null","","","<div class = 'row'><div class = 'column'><img src = 'category1/CS5.png' width = '70%;'></div><div class = 'column'><img src = 'uspos/8080.bmp' width = '100%;'></div></div>","null","pos","CS","CS","1","category1/CS5.png","","","","",""
"","html-keyboard-response","56","337937","0.0-6.0-4.0-0.8","4k0vevhgrj","many_one","0","direct_first","1","Jetti899","0","21","1","1","3","1","","0","NA","0","null","","","<div class = 'row'><div class = 'column'><img src = 'category1/CS8.png' width = '70%;'></div><div class = 'column'><img src = 'uspos/7580.bmp' width = '100%;'></div></div>","null","pos","CS","CS","1","category1/CS8.png","","","","",""
"","html-keyboard-response","57","340464","0.0-6.0-4.0-0.9","4k0vevhgrj","many_one","0","direct_first","1","Jetti899","0","21","1","1","3","1","","0","NA","0","null","","","<div class = 'row'><div class = 'column'><img src = 'category4/CS5.png' width = '70%;'></div><div class = 'column'><img src = 'usneg/6020.bmp' width = '100%;'></div></div>","null","neg","CS","CS","4","category4/CS5.png","","","","",""
"","html-keyboard-response","58","342974","0.0-6.0-4.0-0.10","4k0vevhgrj","many_one","0","direct_first","1","Jetti899","0","21","1","1","3","1","","0","NA","0","null","","","<div class = 'row'><div class = 'column'><img src = 'uspos/8540.bmp' width = '100%;'></div><div class = 'column'><img src = 'category3/CS5.png' width = '70%;'></div></div>","null","pos","CS","CS","3","category3/CS5.png","","","","",""
"","html-keyboard-response","59","345495","0.0-6.0-4.0-0.11","4k0vevhgrj","many_one","0","direct_first","1","Jetti899","0","21","1","1","3","1","","0","NA","0","null","","","<div class = 'row'><div class = 'column'><img src = 'category2/CS6.png' width = '70%;'></div><div class = 'column'><img src = 'usneg/9220.bmp' width = '100%;'></div></div>","null","neg","CS","CS","2","category2/CS6.png","","","","",""
"","html-keyboard-response","60","348008","0.0-6.0-4.0-0.12","4k0vevhgrj","many_one","0","direct_first","1","Jetti899","0","21","1","1","3","1","","0","NA","0","null","","","<div class = 'row'><div class = 'column'><img src = 'category4/CS2.png' width = '70%;'></div><div class = 'column'><img src = 'usneg/9280.bmp' width = '100%;'></div></div>","null","neg","CS","CS","4","category4/CS2.png","","","","",""
"","html-keyboard-response","61","350522","0.0-6.0-4.0-0.13","4k0vevhgrj","many_one","0","direct_first","1","Jetti899","0","21","1","1","3","1","","0","NA","0","null","","","<div class = 'row'><div class = 'column'><img src = 'category3/CS10.png' width = '70%;'></div><div class = 'column'><img src = 'uspos/2160.bmp' width = '100%;'></div></div>","null","pos","CS","CS","3","category3/CS10.png","","","","",""
"","html-keyboard-response","62","353036","0.0-6.0-4.0-0.14","4k0vevhgrj","many_one","0","direct_first","1","Jetti899","0","21","1","1","3","1","","0","NA","0","null","","","<div class = 'row'><div class = 'column'><img src = 'category2/CS5.png' width = '70%;'></div><div class = 'column'><img src = 'usneg/7380.bmp' width = '100%;'></div></div>","null","neg","CS","CS","2","category2/CS5.png","","","","",""
"","html-keyboard-response","63","355551","0.0-6.0-4.0-0.15","4k0vevhgrj","many_one","0","direct_first","1","Jetti899","0","21","1","1","3","1","","0","NA","0","null","","","<div class = 'row'><div class = 'column'><img src = 'category1/CS9.png' width = '70%;'></div><div class = 'column'><img src = 'uspos/2530.bmp' width = '100%;'></div></div>","null","pos","CS","CS","1","category1/CS9.png","","","","",""
"","html-keyboard-response","64","358067","0.0-6.0-4.0-0.16","4k0vevhgrj","many_one","0","direct_first","1","Jetti899","0","21","1","1","3","1","","0","NA","0","null","","","<div class = 'row'><div class = 'column'><img src = 'category2/CS4.png' width = '70%;'></div><div class = 'column'><img src = 'usneg/9561.bmp' width = '100%;'></div></div>","null","neg","CS","CS","2","category2/CS4.png","","","","",""
"","html-keyboard-response","65","360606","0.0-6.0-4.0-0.17","4k0vevhgrj","many_one","0","direct_first","1","Jetti899","0","21","1","1","3","1","","0","NA","0","null","","","<div class = 'row'><div class = 'column'><img src = 'usneg/1280.bmp' width = '100%;'></div><div class = 'column'><img src = 'category4/CS8.png' width = '70%;'></div></div>","null","neg","CS","CS","4","category4/CS8.png","","","","",""
"","html-keyboard-response","66","363133","0.0-6.0-4.0-0.18","4k0vevhgrj","many_one","0","direct_first","1","Jetti899","0","21","1","1","3","1","","0","NA","0","null","","","<div class = 'row'><div class = 'column'><img src = 'category4/CS10.png' width = '70%;'></div><div class = 'column'><img src = 'usneg/9180.bmp' width = '100%;'></div></div>","null","neg","CS","CS","4","category4/CS10.png","","","","",""
"","html-keyboard-response","67","365646","0.0-6.0-4.0-0.19","4k0vevhgrj","many_one","0","direct_first","1","Jetti899","0","21","1","1","3","1","","0","NA","0","null","","","<div class = 'row'><div class = 'column'><img src = 'uspos/2311.bmp' width = '100%;'></div><div class = 'column'><img src = 'category1/CS4.png' width = '70%;'></div></div>","null","pos","CS","CS","1","category1/CS4.png","","","","",""
"","survey-html-form","68","368562","0.0-6.0-5.0","4k0vevhgrj","many_one","0","direct_first","1","Jetti899","0","21","1","1","3","1","","0","NA","0","2408.7949999994016","","{}","","","","","","","","","","","",""
"","html-keyboard-response","69","372597","0.0-6.0-6.0-0.0","4k0vevhgrj","many_one","0","direct_first","1","Jetti899","0","21","1","1","3","1","","0","NA","0","null","","","<div class = 'row'><div class = 'column'><img src = 'category3/CS5.png' width = '70%;'></div><div class = 'column'><img src = 'uspos/8540.bmp' width = '100%;'></div></div>","null","pos","CS","CS","3","category3/CS5.png","","","","",""
"","html-keyboard-response","70","375117","0.0-6.0-6.0-0.1","4k0vevhgrj","many_one","0","direct_first","1","Jetti899","0","21","1","1","3","1","","0","NA","0","null","","","<div class = 'row'><div class = 'column'><img src = 'usneg/9330.bmp' width = '100%;'></div><div class = 'column'><img src = 'category2/CS2.png' width = '70%;'></div></div>","null","neg","CS","CS","2","category2/CS2.png","","","","",""
"","html-keyboard-response","71","377645","0.0-6.0-6.0-0.2","4k0vevhgrj","many_one","0","direct_first","1","Jetti899","0","21","1","1","3","1","","0","NA","0","null","","","<div class = 'row'><div class = 'column'><img src = 'uspos/8080.bmp' width = '100%;'></div><div class = 'column'><img src = 'category1/CS5.png' width = '70%;'></div></div>","null","pos","CS","CS","1","category1/CS5.png","","","","",""
"","html-keyboard-response","72","380170","0.0-6.0-6.0-0.3","4k0vevhgrj","many_one","0","direct_first","1","Jetti899","0","21","1","1","3","1","","0","NA","0","null","","","<div class = 'row'><div class = 'column'><img src = 'uspos/1460.bmp' width = '100%;'></div><div class = 'column'><img src = 'category3/CS1.png' width = '70%;'></div></div>","null","pos","CS","CS","3","category3/CS1.png","","","","",""
"","html-keyboard-response","73","382687","0.0-6.0-6.0-0.4","4k0vevhgrj","many_one","0","direct_first","1","Jetti899","0","21","1","1","3","1","","0","NA","0","null","","","<div class = 'row'><div class = 'column'><img src = 'usneg/1280.bmp' width = '100%;'></div><div class = 'column'><img src = 'category4/CS8.png' width = '70%;'></div></div>","null","neg","CS","CS","4","category4/CS8.png","","","","",""
"","html-keyboard-response","74","385211","0.0-6.0-6.0-0.5","4k0vevhgrj","many_one","0","direct_first","1","Jetti899","0","21","1","1","3","1","","0","NA","0","null","","","<div class = 'row'><div class = 'column'><img src = 'usneg/9280.bmp' width = '100%;'></div><div class = 'column'><img src = 'category4/CS2.png' width = '70%;'></div></div>","null","neg","CS","CS","4","category4/CS2.png","","","","",""
"","html-keyboard-response","75","387726","0.0-6.0-6.0-0.6","4k0vevhgrj","many_one","0","direct_first","1","Jetti899","0","21","1","1","3","1","","0","NA","0","null","","","<div class = 'row'><div class = 'column'><img src = 'uspos/5700.bmp' width = '100%;'></div><div class = 'column'><img src = 'category1/CS7.png' width = '70%;'></div></div>","null","pos","CS","CS","1","category1/CS7.png","","","","",""
"","html-keyboard-response","76","390248","0.0-6.0-6.0-0.7","4k0vevhgrj","many_one","0","direct_first","1","Jetti899","0","21","1","1","3","1","","0","NA","0","null","","","<div class = 'row'><div class = 'column'><img src = 'category2/CS4.png' width = '70%;'></div><div class = 'column'><img src = 'usneg/9561.bmp' width = '100%;'></div></div>","null","neg","CS","CS","2","category2/CS4.png","","","","",""
"","html-keyboard-response","77","392789","0.0-6.0-6.0-0.8","4k0vevhgrj","many_one","0","direct_first","1","Jetti899","0","21","1","1","3","1","","0","NA","0","null","","","<div class = 'row'><div class = 'column'><img src = 'category2/CS5.png' width = '70%;'></div><div class = 'column'><img src = 'usneg/7380.bmp' width = '100%;'></div></div>","null","neg","CS","CS","2","category2/CS5.png","","","","",""
"","html-keyboard-response","78","395308","0.0-6.0-6.0-0.9","4k0vevhgrj","many_one","0","direct_first","1","Jetti899","0","21","1","1","3","1","","0","NA","0","null","","","<div class = 'row'><div class = 'column'><img src = 'usneg/6020.bmp' width = '100%;'></div><div class = 'column'><img src = 'category4/CS5.png' width = '70%;'></div></div>","null","neg","CS","CS","4","category4/CS5.png","","","","",""
"","html-keyboard-response","79","397845","0.0-6.0-6.0-0.10","4k0vevhgrj","many_one","0","direct_first","1","Jetti899","0","21","1","1","3","1","","0","NA","0","null","","","<div class = 'row'><div class = 'column'><img src = 'uspos/2530.bmp' width = '100%;'></div><div class = 'column'><img src = 'category1/CS9.png' width = '70%;'></div></div>","null","pos","CS","CS","1","category1/CS9.png","","","","",""
"","html-keyboard-response","80","400367","0.0-6.0-6.0-0.11","4k0vevhgrj","many_one","0","direct_first","1","Jetti899","0","21","1","1","3","1","","0","NA","0","null","","","<div class = 'row'><div class = 'column'><img src = 'uspos/7580.bmp' width = '100%;'></div><div class = 'column'><img src = 'category1/CS8.png' width = '70%;'></div></div>","null","pos","CS","CS","1","category1/CS8.png","","","","",""
"","html-keyboard-response","81","402908","0.0-6.0-6.0-0.12","4k0vevhgrj","many_one","0","direct_first","1","Jetti899","0","21","1","1","3","1","","0","NA","0","null","","","<div class = 'row'><div class = 'column'><img src = 'category1/CS4.png' width = '70%;'></div><div class = 'column'><img src = 'uspos/2311.bmp' width = '100%;'></div></div>","null","pos","CS","CS","1","category1/CS4.png","","","","",""
"","html-keyboard-response","82","405428","0.0-6.0-6.0-0.13","4k0vevhgrj","many_one","0","direct_first","1","Jetti899","0","21","1","1","3","1","","0","NA","0","null","","","<div class = 'row'><div class = 'column'><img src = 'uspos/2040.bmp' width = '100%;'></div><div class = 'column'><img src = 'category3/CS7.png' width = '70%;'></div></div>","null","pos","CS","CS","3","category3/CS7.png","","","","",""
"","html-keyboard-response","83","407954","0.0-6.0-6.0-0.14","4k0vevhgrj","many_one","0","direct_first","1","Jetti899","0","21","1","1","3","1","","0","NA","0","null","","","<div class = 'row'><div class = 'column'><img src = 'uspos/2160.bmp' width = '100%;'></div><div class = 'column'><img src = 'category3/CS10.png' width = '70%;'></div></div>","null","pos","CS","CS","3","category3/CS10.png","","","","",""
"","html-keyboard-response","84","410462","0.0-6.0-6.0-0.15","4k0vevhgrj","many_one","0","direct_first","1","Jetti899","0","21","1","1","3","1","","0","NA","0","null","","","<div class = 'row'><div class = 'column'><img src = 'usneg/9290.bmp' width = '100%;'></div><div class = 'column'><img src = 'category2/CS1.png' width = '70%;'></div></div>","null","neg","CS","CS","2","category2/CS1.png","","","","",""
"","html-keyboard-response","85","412989","0.0-6.0-6.0-0.16","4k0vevhgrj","many_one","0","direct_first","1","Jetti899","0","21","1","1","3","1","","0","NA","0","null","","","<div class = 'row'><div class = 'column'><img src = 'category4/CS10.png' width = '70%;'></div><div class = 'column'><img src = 'usneg/9180.bmp' width = '100%;'></div></div>","null","neg","CS","CS","4","category4/CS10.png","","","","",""
"","html-keyboard-response","86","415510","0.0-6.0-6.0-0.17","4k0vevhgrj","many_one","0","direct_first","1","Jetti899","0","21","1","1","3","1","","0","NA","0","null","","","<div class = 'row'><div class = 'column'><img src = 'usneg/3181.bmp' width = '100%;'></div><div class = 'column'><img src = 'category4/CS3.png' width = '70%;'></div></div>","null","neg","CS","CS","4","category4/CS3.png","","","","",""
"","html-keyboard-response","87","418051","0.0-6.0-6.0-0.18","4k0vevhgrj","many_one","0","direct_first","1","Jetti899","0","21","1","1","3","1","","0","NA","0","null","","","<div class = 'row'><div class = 'column'><img src = 'uspos/2058.bmp' width = '100%;'></div><div class = 'column'><img src = 'category3/CS4.png' width = '70%;'></div></div>","null","pos","CS","CS","3","category3/CS4.png","","","","",""
"","html-keyboard-response","88","420587","0.0-6.0-6.0-0.19","4k0vevhgrj","many_one","0","direct_first","1","Jetti899","0","21","1","1","3","1","","0","NA","0","null","","","<div class = 'row'><div class = 'column'><img src = 'usneg/9220.bmp' width = '100%;'></div><div class = 'column'><img src = 'category2/CS6.png' width = '70%;'></div></div>","null","neg","CS","CS","2","category2/CS6.png","","","","",""
"","survey-html-form","89","432389","0.0-7.0","4k0vevhgrj","many_one","0","direct_first","1","Jetti899","0","21","1","1","3","1","","0","NA","0","11296.080000000075","","{}","","","","","","","","","","","",""
"","image-slider-response","90","443376","0.0-8.0-0.0","4k0vevhgrj","many_one","0","direct_first","1","Jetti899","0","21","1","1","3","1","","0","NA","0","8974.930000000342","","","","","pos","GS","GSnew","1","category1/GS3.png","2","targets/13.png","direct","",""
"","image-slider-response","91","447488","0.0-8.0-0.1","4k0vevhgrj","many_one","0","direct_first","1","Jetti899","0","21","1","1","3","1","","0","NA","0","4107.189999998838","","","","","pos","GS","GSold","1","category1/CS2.png","-41","targets/9.png","direct","",""
"","image-slider-response","92","452688","0.0-8.0-0.2","4k0vevhgrj","many_one","0","direct_first","1","Jetti899","0","21","1","1","3","1","","0","NA","0","5196.4850000003935","","","","","neg","GS","abstract","4","category4/lin.png","28","targets/10.png","direct","",""
"","image-slider-response","93","458685","0.0-8.0-0.3","4k0vevhgrj","many_one","0","direct_first","1","Jetti899","0","21","1","1","3","1","","0","NA","0","5991.549999998824","","","","","pos","CS","CS","3","category3/CS7.png","49","targets/23.png","direct","",""
"","image-slider-response","94","463593","0.0-8.0-0.4","4k0vevhgrj","many_one","0","direct_first","1","Jetti899","0","21","1","1","3","1","","0","NA","0","4902.825000001001","","","","","neg","GS","GSold","2","category2/CS7.png","-38","targets/28.png","direct","",""
"","image-slider-response","95","468264","0.0-8.0-0.5","4k0vevhgrj","many_one","0","direct_first","1","Jetti899","0","21","1","1","3","1","","0","NA","0","4665.165000002249","","","","","pos","GS","GSold","1","category1/CS10.png","44","targets/42.png","direct","",""
"","image-slider-response","96","474196","0.0-8.0-0.6","4k0vevhgrj","many_one","0","direct_first","1","Jetti899","0","21","1","1","3","1","","0","NA","0","5926.905000000261","","","","","neg","GS","GSold","2","category2/CS9.png","-50","targets/40.png","direct","",""
"","image-slider-response","97","478276","0.0-8.0-0.7","4k0vevhgrj","many_one","0","direct_first","1","Jetti899","0","21","1","1","3","1","","0","NA","0","4074.6450000004843","","","","","pos","CS","CS","1","category1/CS8.png","63","targets/4.png","direct","",""
"","image-slider-response","98","485380","0.0-8.0-0.8","4k0vevhgrj","many_one","0","direct_first","1","Jetti899","0","21","1","1","3","1","","0","NA","0","7098.920000000275","","","","","neg","GS","GSnew","4","category4/GS2.png","-62","targets/16.png","direct","",""
"","image-slider-response","99","490377","0.0-8.0-0.9","4k0vevhgrj","many_one","0","direct_first","1","Jetti899","0","21","1","1","3","1","","0","NA","0","4991.884999999427","","","","","neg","CS","CS","4","category4/CS10.png","60","targets/36.png","direct","",""
"","image-slider-response","100","495585","0.0-8.0-0.10","4k0vevhgrj","many_one","0","direct_first","1","Jetti899","0","21","1","1","3","1","","0","NA","0","5202.825000000303","","","","","neg","GS","GSold","4","category4/CS7.png","-66","targets/30.png","direct","",""
"","image-slider-response","101","500526","0.0-8.0-0.11","4k0vevhgrj","many_one","0","direct_first","1","Jetti899","0","21","1","1","3","1","","0","NA","0","4935.405000000144","","","","","neg","GS","GSnew","4","category4/GS1.png","95","targets/45.png","direct","",""
"","image-slider-response","102","503725","0.0-8.0-0.12","4k0vevhgrj","many_one","0","direct_first","1","Jetti899","0","21","1","1","3","1","","0","NA","0","3194.289999999455","","","","","pos","CS","CS","3","category3/CS5.png","75","targets/31.png","direct","",""
"","image-slider-response","103","507344","0.0-8.0-0.13","4k0vevhgrj","many_one","0","direct_first","1","Jetti899","0","21","1","1","3","1","","0","NA","0","3612.7400000005728","","","","","neg","GS","GSnew","2","category2/GS2.png","41","targets/33.png","direct","",""
"","image-slider-response","104","510863","0.0-8.0-0.14","4k0vevhgrj","many_one","0","direct_first","1","Jetti899","0","21","1","1","3","1","","0","NA","0","3514.015000000596","","","","","pos","GS","GSold","3","category3/CS9.png","80","targets/29.png","direct","",""
"","image-slider-response","105","514413","0.0-8.0-0.15","4k0vevhgrj","many_one","0","direct_first","1","Jetti899","0","21","1","1","3","1","","0","NA","0","3544.9550000012387","","","","","neg","CS","CS","2","category2/CS2.png","-11","targets/18.png","direct","",""
"","image-slider-response","106","520035","0.0-8.0-0.16","4k0vevhgrj","many_one","0","direct_first","1","Jetti899","0","21","1","1","3","1","","0","NA","0","5617.469999997411","","","","","neg","CS","CS","4","category4/CS3.png","-23","targets/14.png","direct","",""
"","image-slider-response","107","523673","0.0-8.0-0.17","4k0vevhgrj","many_one","0","direct_first","1","Jetti899","0","21","1","1","3","1","","0","NA","0","3634.065000001923","","","","","pos","GS","abstract","1","category1/ma.png","73","targets/35.png","direct","",""
"","image-slider-response","108","530710","0.0-8.0-0.18","4k0vevhgrj","many_one","0","direct_first","1","Jetti899","0","21","1","1","3","1","","0","NA","0","7031.634999999427","","","","","neg","CS","CS","2","category2/CS1.png","24","targets/17.png","direct","",""
"","image-slider-response","109","536063","0.0-8.0-0.19","4k0vevhgrj","many_one","0","direct_first","1","Jetti899","0","21","1","1","3","1","","0","NA","0","5347.299999997718","","","","","pos","GS","GSold","3","category3/CS8.png","63","targets/46.png","direct","",""
"","image-slider-response","110","542829","0.0-8.0-0.20","4k0vevhgrj","many_one","0","direct_first","1","Jetti899","0","21","1","1","3","1","","0","NA","0","6760.949999999837","","","","","neg","GS","GSold","4","category4/CS6.png","44","targets/3.png","direct","",""
"","image-slider-response","111","546401","0.0-8.0-0.21","4k0vevhgrj","many_one","0","direct_first","1","Jetti899","0","21","1","1","3","1","","0","NA","0","3567.090000000433","","","","","pos","GS","GSnew","1","category1/GS2.png","100","targets/21.png","direct","",""
"","image-slider-response","112","550955","0.0-8.0-0.22","4k0vevhgrj","many_one","0","direct_first","1","Jetti899","0","21","1","1","3","1","","0","NA","0","4550.624999999884","","","","","pos","CS","CS","3","category3/CS4.png","-57","targets/8.png","direct","",""
"","image-slider-response","113","556041","0.0-8.0-0.23","4k0vevhgrj","many_one","0","direct_first","1","Jetti899","0","21","1","1","3","1","","0","NA","0","5079.910000000382","","","","","pos","GS","GSnew","3","category3/GS1.png","7","targets/26.png","direct","",""
"","image-slider-response","114","559586","0.0-8.0-0.24","4k0vevhgrj","many_one","0","direct_first","1","Jetti899","0","21","1","1","3","1","","0","NA","0","3540.2050000011222","","","","","pos","CS","CS","3","category3/CS1.png","98","targets/37.png","direct","",""
"","image-slider-response","115","563175","0.0-8.0-0.25","4k0vevhgrj","many_one","0","direct_first","1","Jetti899","0","21","1","1","3","1","","0","NA","0","3584.6249999995343","","","","","neg","GS","abstract","2","category2/men.png","99","targets/19.png","direct","",""
"","image-slider-response","116","566312","0.0-8.0-0.26","4k0vevhgrj","many_one","0","direct_first","1","Jetti899","0","21","1","1","3","1","","0","NA","0","3132.324999998673","","","","","pos","CS","CS","3","category3/CS10.png","-39","targets/2.png","direct","",""
"","image-slider-response","117","569504","0.0-8.0-0.27","4k0vevhgrj","many_one","0","direct_first","1","Jetti899","0","21","1","1","3","1","","0","NA","0","3188.239999999525","","","","","pos","CS","CS","1","category1/CS5.png","-59","targets/48.png","direct","",""
"","image-slider-response","118","573363","0.0-8.0-0.28","4k0vevhgrj","many_one","0","direct_first","1","Jetti899","0","21","1","1","3","1","","0","NA","0","3853.6299999977928","","","","","neg","CS","CS","4","category4/CS5.png","47","targets/7.png","direct","",""
"","image-slider-response","119","576927","0.0-8.0-0.29","4k0vevhgrj","many_one","0","direct_first","1","Jetti899","0","21","1","1","3","1","","0","NA","0","3558.729999997071","","","","","pos","GS","GSold","3","category3/CS3.png","100","targets/22.png","direct","",""
"","image-slider-response","120","581541","0.0-8.0-0.30","4k0vevhgrj","many_one","0","direct_first","1","Jetti899","0","21","1","1","3","1","","0","NA","0","4609.1450000022305","","","","","neg","GS","GSnew","2","category2/GS1.png","-24","targets/5.png","direct","",""
"","image-slider-response","121","584857","0.0-8.0-0.31","4k0vevhgrj","many_one","0","direct_first","1","Jetti899","0","21","1","1","3","1","","0","NA","0","3311.10500000068","","","","","neg","GS","GSnew","2","category2/GS3.png","62","targets/11.png","direct","",""
"","image-slider-response","122","588254","0.0-8.0-0.32","4k0vevhgrj","many_one","0","direct_first","1","Jetti899","0","21","1","1","3","1","","0","NA","0","3392.040000002482","","","","","pos","GS","GSnew","3","category3/GS2.png","71","targets/47.png","direct","",""
"","image-slider-response","123","591688","0.0-8.0-0.33","4k0vevhgrj","many_one","0","direct_first","1","Jetti899","0","21","1","1","3","1","","0","NA","0","3429.97000000102","","","","","neg","GS","GSold","4","category4/CS1.png","99","targets/24.png","direct","",""
"","image-slider-response","124","595407","0.0-8.0-0.34","4k0vevhgrj","many_one","0","direct_first","1","Jetti899","0","21","1","1","3","1","","0","NA","0","3713.5050000032643","","","","","neg","CS","CS","2","category2/CS5.png","22","targets/20.png","direct","",""
"","image-slider-response","125","598718","0.0-8.0-0.35","4k0vevhgrj","many_one","0","direct_first","1","Jetti899","0","21","1","1","3","1","","0","NA","0","3307.1500000006054","","","","","pos","GS","abstract","3","category3/wang.png","98","targets/34.png","direct","",""
"","image-slider-response","126","606707","0.0-8.0-0.36","4k0vevhgrj","many_one","0","direct_first","1","Jetti899","0","21","1","1","3","1","","0","NA","0","7984.375","","","","","neg","CS","CS","2","category2/CS4.png","18","targets/38.png","direct","",""
"","image-slider-response","127","610553","0.0-8.0-0.37","4k0vevhgrj","many_one","0","direct_first","1","Jetti899","0","21","1","1","3","1","","0","NA","0","3841.424999998766","","","","","pos","GS","GSnew","3","category3/GS3.png","27","targets/43.png","direct","",""
"","image-slider-response","128","614127","0.0-8.0-0.38","4k0vevhgrj","many_one","0","direct_first","1","Jetti899","0","21","1","1","3","1","","0","NA","0","3569.290000003064","","","","","pos","CS","CS","1","category1/CS7.png","63","targets/39.png","direct","",""
"","image-slider-response","129","617373","0.0-8.0-0.39","4k0vevhgrj","many_one","0","direct_first","1","Jetti899","0","21","1","1","3","1","","0","NA","0","3239.625000001979","","","","","neg","CS","CS","4","category4/CS8.png","100","targets/44.png","direct","",""
"","image-slider-response","130","621246","0.0-8.0-0.40","4k0vevhgrj","many_one","0","direct_first","1","Jetti899","0","21","1","1","3","1","","0","NA","0","3869.0549999992363","","","","","pos","GS","GSold","1","category1/CS6.png","-70","targets/41.png","direct","",""
"","image-slider-response","131","626399","0.0-8.0-0.41","4k0vevhgrj","many_one","0","direct_first","1","Jetti899","0","21","1","1","3","1","","0","NA","0","5147.274999999441","","","","","pos","GS","GSnew","1","category1/GS1.png","-40","targets/25.png","direct","",""
"","image-slider-response","132","630776","0.0-8.0-0.42","4k0vevhgrj","many_one","0","direct_first","1","Jetti899","0","21","1","1","3","1","","0","NA","0","4371.78999999736","","","","","pos","CS","CS","1","category1/CS4.png","-27","targets/1.png","direct","",""
"","image-slider-response","133","633894","0.0-8.0-0.43","4k0vevhgrj","many_one","0","direct_first","1","Jetti899","0","21","1","1","3","1","","0","NA","0","3112.8500000013737","","","","","neg","CS","CS","4","category4/CS2.png","57","targets/12.png","direct","",""
"","image-slider-response","134","638387","0.0-8.0-0.44","4k0vevhgrj","many_one","0","direct_first","1","Jetti899","0","21","1","1","3","1","","0","NA","0","4488.059999999707","","","","","neg","GS","GSold","2","category2/CS3.png","-40","targets/27.png","direct","",""
"","image-slider-response","135","642888","0.0-8.0-0.45","4k0vevhgrj","many_one","0","direct_first","1","Jetti899","0","21","1","1","3","1","","0","NA","0","4496.484999999637","","","","","neg","GS","GSnew","4","category4/GS3.png","-69","targets/32.png","direct","",""
"","image-slider-response","136","646816","0.0-8.0-0.46","4k0vevhgrj","many_one","0","direct_first","1","Jetti899","0","21","1","1","3","1","","0","NA","0","3922.05499999912","","","","","pos","CS","CS","1","category1/CS9.png","100","targets/6.png","direct","",""
"","image-slider-response","137","652736","0.0-8.0-0.47","4k0vevhgrj","many_one","0","direct_first","1","Jetti899","0","21","1","1","3","1","","0","NA","0","5915.485000001383","","","","","neg","CS","CS","2","category2/CS6.png","12","targets/15.png","direct","",""
"","html-keyboard-response","138","692864","0.0-9.0","4k0vevhgrj","many_one","0","direct_first","1","Jetti899","0","21","1","1","3","1","","0","NA","0","40123.980000000214","","","<p>Sie sehen nun die chinesischen Zeichen nur ganz kurz. Danach sehen Sie die jeweilige Aussprache der Zeichen als Silbe auf dem Bildschrim. Ihre Aufgabe ist es, für jede Silbe anzugeben, ob diese etwas angenehmes, oder unangenehmes bedeuten könnte. Verlassen Sie sich hier vor allem auf Ihre Intuition.<br><br>Die Zeichen werden nur zur Orientierung dargestellt, beachten Sie sie deshalb nicht. Konzentrieren Sie sich vor allem auf die Silben. <br>Reagieren Sie mit folgenden zwei Tasten: <br><br><b>'D' </b> wenn die Silbe etwas <b>unangenehmes</b> bedeuten könnte. <br><b>'K'</b> wenn die Silbe etwas <b>angenehmes</b> bedeuten könnte. <br><br>Bitte legen Sie nun den Zeigefinger der linken Hand auf die Taste 'D' und den Zeigefinger der rechten Hand auf die Taste 'K'. <br>Reagieren Sie auf jede Silbe so schnell wie möglich. Uns interessiert Ihre spontane Reaktion. <br> <br> <br>Drücken Sie 'D' oder 'K', um die nächste Aufgabe zu starten. </p>","68","","","","","","","","","",""
"","html-keyboard-response","139","695898","0.0-10.0-0.0","4k0vevhgrj","many_one","0","direct_first","1","Jetti899","0","21","1","1","3","1","","0","NA","0","null","","","<div style=""font-size:60px;"">+</div>","null","","","","","","","","","",""
"","html-keyboard-response","140","695999","0.0-10.0-1.0","4k0vevhgrj","many_one","0","direct_first","1","Jetti899","0","21","1","1","3","1","","0","NA","0","null","","","<img src = 'category3/CS4.png' width = '100%;'>","null","","","","","","","","","",""
"","html-keyboard-response","141","696262","0.0-10.0-2.0","4k0vevhgrj","many_one","0","direct_first","1","Jetti899","0","21","1","1","3","1","","0","NA","0","null","","","<img src = 'targets/8.png' width = '100%;'>","null","","","","","","","","","",""
"","html-keyboard-response","142","699247","0.0-10.0-3.0","4k0vevhgrj","many_one","0","direct_first","1","Jetti899","0","21","1","1","3","1","","0","NA","0","2983.0100000000093","","","<img src = 'targets/mask.png' width = '100%;'>","75","pos","CS","CS","3","category3/CS4.png","","targets/8.png","indirect","1","0"
"","html-keyboard-response","143","700767","0.0-10.0-0.1","4k0vevhgrj","many_one","0","direct_first","1","Jetti899","0","21","1","1","3","1","","0","NA","0","null","","","<div style=""font-size:60px;"">+</div>","null","","","","","","","","","",""
"","html-keyboard-response","144","700872","0.0-10.0-1.1","4k0vevhgrj","many_one","0","direct_first","1","Jetti899","0","21","1","1","3","1","","0","NA","0","null","","","<img src = 'category4/CS7.png' width = '100%;'>","null","","","","","","","","","",""
"","html-keyboard-response","145","701135","0.0-10.0-2.1","4k0vevhgrj","many_one","0","direct_first","1","Jetti899","0","21","1","1","3","1","","0","NA","0","null","","","<img src = 'targets/30.png' width = '100%;'>","null","","","","","","","","","",""
"","html-keyboard-response","146","703378","0.0-10.0-3.1","4k0vevhgrj","many_one","0","direct_first","1","Jetti899","0","21","1","1","3","1","","0","NA","0","2240.194999998552","","","<img src = 'targets/mask.png' width = '100%;'>","68","neg","GS","GSold","4","category4/CS7.png","","targets/30.png","indirect","0","1"
"","html-keyboard-response","147","704908","0.0-10.0-0.2","4k0vevhgrj","many_one","0","direct_first","1","Jetti899","0","21","1","1","3","1","","0","NA","0","null","","","<div style=""font-size:60px;"">+</div>","null","","","","","","","","","",""
"","html-keyboard-response","148","705008","0.0-10.0-1.2","4k0vevhgrj","many_one","0","direct_first","1","Jetti899","0","21","1","1","3","1","","0","NA","0","null","","","<img src = 'category4/CS3.png' width = '100%;'>","null","","","","","","","","","",""
"","html-keyboard-response","149","705282","0.0-10.0-2.2","4k0vevhgrj","many_one","0","direct_first","1","Jetti899","0","21","1","1","3","1","","0","NA","0","null","","","<img src = 'targets/14.png' width = '100%;'>","null","","","","","","","","","",""
"","html-keyboard-response","150","707189","0.0-10.0-3.2","4k0vevhgrj","many_one","0","direct_first","1","Jetti899","0","21","1","1","3","1","","0","NA","0","1902.7700000004843","","","<img src = 'targets/mask.png' width = '100%;'>","68","neg","CS","CS","4","category4/CS3.png","","targets/14.png","indirect","0","2"
"","html-keyboard-response","151","708717","0.0-10.0-0.3","4k0vevhgrj","many_one","0","direct_first","1","Jetti899","0","21","1","1","3","1","","0","NA","0","null","","","<div style=""font-size:60px;"">+</div>","null","","","","","","","","","",""
"","html-keyboard-response","152","708810","0.0-10.0-1.3","4k0vevhgrj","many_one","0","direct_first","1","Jetti899","0","21","1","1","3","1","","0","NA","0","null","","","<img src = 'category1/CS9.png' width = '100%;'>","null","","","","","","","","","",""
"","html-keyboard-response","153","709088","0.0-10.0-2.3","4k0vevhgrj","many_one","0","direct_first","1","Jetti899","0","21","1","1","3","1","","0","NA","0","null","","","<img src = 'targets/6.png' width = '100%;'>","null","","","","","","","","","",""
"","html-keyboard-response","154","709874","0.0-10.0-3.3","4k0vevhgrj","many_one","0","direct_first","1","Jetti899","0","21","1","1","3","1","","0","NA","0","783.1199999999953","","","<img src = 'targets/mask.png' width = '100%;'>","75","pos","CS","CS","1","category1/CS9.png","","targets/6.png","indirect","1","3"
"","html-keyboard-response","155","711406","0.0-10.0-0.4","4k0vevhgrj","many_one","0","direct_first","1","Jetti899","0","21","1","1","3","1","","0","NA","0","null","","","<div style=""font-size:60px;"">+</div>","null","","","","","","","","","",""
"","html-keyboard-response","156","711506","0.0-10.0-1.4","4k0vevhgrj","many_one","0","direct_first","1","Jetti899","0","21","1","1","3","1","","0","NA","0","null","","","<img src = 'category4/CS2.png' width = '100%;'>","null","","","","","","","","","",""
"","html-keyboard-response","157","711780","0.0-10.0-2.4","4k0vevhgrj","many_one","0","direct_first","1","Jetti899","0","21","1","1","3","1","","0","NA","0","null","","","<img src = 'targets/12.png' width = '100%;'>","null","","","","","","","","","",""
"","html-keyboard-response","158","712854","0.0-10.0-3.4","4k0vevhgrj","many_one","0","direct_first","1","Jetti899","0","21","1","1","3","1","","0","NA","0","1071.3800000012852","","","<img src = 'targets/mask.png' width = '100%;'>","75","neg","CS","CS","4","category4/CS2.png","","targets/12.png","indirect","1","4"
"","html-keyboard-response","159","714388","0.0-10.0-0.5","4k0vevhgrj","many_one","0","direct_first","1","Jetti899","0","21","1","1","3","1","","0","NA","0","null","","","<div style=""font-size:60px;"">+</div>","null","","","","","","","","","",""
"","html-keyboard-response","160","714490","0.0-10.0-1.5","4k0vevhgrj","many_one","0","direct_first","1","Jetti899","0","21","1","1","3","1","","0","NA","0","null","","","<img src = 'category4/CS8.png' width = '100%;'>","null","","","","","","","","","",""
"","html-keyboard-response","161","714752","0.0-10.0-2.5","4k0vevhgrj","many_one","0","direct_first","1","Jetti899","0","21","1","1","3","1","","0","NA","0","null","","","<img src = 'targets/44.png' width = '100%;'>","null","","","","","","","","","",""
"","html-keyboard-response","162","715702","0.0-10.0-3.5","4k0vevhgrj","many_one","0","direct_first","1","Jetti899","0","21","1","1","3","1","","0","NA","0","947.2399999976624","","","<img src = 'targets/mask.png' width = '100%;'>","75","neg","CS","CS","4","category4/CS8.png","","targets/44.png","indirect","1","5"
"","html-keyboard-response","163","717231","0.0-10.0-0.6","4k0vevhgrj","many_one","0","direct_first","1","Jetti899","0","21","1","1","3","1","","0","NA","0","null","","","<div style=""font-size:60px;"">+</div>","null","","","","","","","","","",""
"","html-keyboard-response","164","717336","0.0-10.0-1.6","4k0vevhgrj","many_one","0","direct_first","1","Jetti899","0","21","1","1","3","1","","0","NA","0","null","","","<img src = 'category3/CS7.png' width = '100%;'>","null","","","","","","","","","",""
"","html-keyboard-response","165","717611","0.0-10.0-2.6","4k0vevhgrj","many_one","0","direct_first","1","Jetti899","0","21","1","1","3","1","","0","NA","0","null","","","<img src = 'targets/23.png' width = '100%;'>","null","","","","","","","","","",""
"","html-keyboard-response","166","718789","0.0-10.0-3.6","4k0vevhgrj","many_one","0","direct_first","1","Jetti899","0","21","1","1","3","1","","0","NA","0","1175.1350000012899","","","<img src = 'targets/mask.png' width = '100%;'>","75","pos","CS","CS","3","category3/CS7.png","","targets/23.png","indirect","1","6"
"","html-keyboard-response","167","720314","0.0-10.0-0.7","4k0vevhgrj","many_one","0","direct_first","1","Jetti899","0","21","1","1","3","1","","0","NA","0","null","","","<div style=""font-size:60px;"">+</div>","null","","","","","","","","","",""
"","html-keyboard-response","168","720415","0.0-10.0-1.7","4k0vevhgrj","many_one","0","direct_first","1","Jetti899","0","21","1","1","3","1","","0","NA","0","null","","","<img src = 'category2/CS1.png' width = '100%;'>","null","","","","","","","","","",""
"","html-keyboard-response","169","720683","0.0-10.0-2.7","4k0vevhgrj","many_one","0","direct_first","1","Jetti899","0","21","1","1","3","1","","0","NA","0","null","","","<img src = 'targets/17.png' width = '100%;'>","null","","","","","","","","","",""
"","html-keyboard-response","170","721286","0.0-10.0-3.7","4k0vevhgrj","many_one","0","direct_first","1","Jetti899","0","21","1","1","3","1","","0","NA","0","600.3199999977369","","","<img src = 'targets/mask.png' width = '100%;'>","68","neg","CS","CS","2","category2/CS1.png","","targets/17.png","indirect","0","7"
"","html-keyboard-response","171","722796","0.0-10.0-0.8","4k0vevhgrj","many_one","0","direct_first","1","Jetti899","0","21","1","1","3","1","","0","NA","0","null","","","<div style=""font-size:60px;"">+</div>","null","","","","","","","","","",""
"","html-keyboard-response","172","722901","0.0-10.0-1.8","4k0vevhgrj","many_one","0","direct_first","1","Jetti899","0","21","1","1","3","1","","0","NA","0","null","","","<img src = 'category2/CS4.png' width = '100%;'>","null","","","","","","","","","",""
"","html-keyboard-response","173","723174","0.0-10.0-2.8","4k0vevhgrj","many_one","0","direct_first","1","Jetti899","0","21","1","1","3","1","","0","NA","0","null","","","<img src = 'targets/38.png' width = '100%;'>","null","","","","","","","","","",""
"","html-keyboard-response","174","724518","0.0-10.0-3.8","4k0vevhgrj","many_one","0","direct_first","1","Jetti899","0","21","1","1","3","1","","0","NA","0","1341.5650000023888","","","<img src = 'targets/mask.png' width = '100%;'>","68","neg","CS","CS","2","category2/CS4.png","","targets/38.png","indirect","0","8"
"","html-keyboard-response","175","726032","0.0-10.0-0.9","4k0vevhgrj","many_one","0","direct_first","1","Jetti899","0","21","1","1","3","1","","0","NA","0","null","","","<div style=""font-size:60px;"">+</div>","null","","","","","","","","","",""
"","html-keyboard-response","176","726133","0.0-10.0-1.9","4k0vevhgrj","many_one","0","direct_first","1","Jetti899","0","21","1","1","3","1","","0","NA","0","null","","","<img src = 'category4/CS6.png' width = '100%;'>","null","","","","","","","","","",""
"","html-keyboard-response","177","726401","0.0-10.0-2.9","4k0vevhgrj","many_one","0","direct_first","1","Jetti899","0","21","1","1","3","1","","0","NA","0","null","","","<img src = 'targets/3.png' width = '100%;'>","null","","","","","","","","","",""
"","html-keyboard-response","178","727571","0.0-10.0-3.9","4k0vevhgrj","many_one","0","direct_first","1","Jetti899","0","21","1","1","3","1","","0","NA","0","1167.274999999674","","","<img src = 'targets/mask.png' width = '100%;'>","75","neg","GS","GSold","4","category4/CS6.png","","targets/3.png","indirect","1","9"
"","html-keyboard-response","179","729077","0.0-10.0-0.10","4k0vevhgrj","many_one","0","direct_first","1","Jetti899","0","21","1","1","3","1","","0","NA","0","null","","","<div style=""font-size:60px;"">+</div>","null","","","","","","","","","",""
"","html-keyboard-response","180","729178","0.0-10.0-1.10","4k0vevhgrj","many_one","0","direct_first","1","Jetti899","0","21","1","1","3","1","","0","NA","0","null","","","<img src = 'category4/CS10.png' width = '100%;'>","null","","","","","","","","","",""
"","html-keyboard-response","181","729446","0.0-10.0-2.10","4k0vevhgrj","many_one","0","direct_first","1","Jetti899","0","21","1","1","3","1","","0","NA","0","null","","","<img src = 'targets/36.png' width = '100%;'>","null","","","","","","","","","",""
"","html-keyboard-response","182","730723","0.0-10.0-3.10","4k0vevhgrj","many_one","0","direct_first","1","Jetti899","0","21","1","1","3","1","","0","NA","0","1273.0850000007777","","","<img src = 'targets/mask.png' width = '100%;'>","75","neg","CS","CS","4","category4/CS10.png","","targets/36.png","indirect","1","10"
"","html-keyboard-response","183","732240","0.0-10.0-0.11","4k0vevhgrj","many_one","0","direct_first","1","Jetti899","0","21","1","1","3","1","","0","NA","0","null","","","<div style=""font-size:60px;"">+</div>","null","","","","","","","","","",""
"","html-keyboard-response","184","732345","0.0-10.0-1.11","4k0vevhgrj","many_one","0","direct_first","1","Jetti899","0","21","1","1","3","1","","0","NA","0","null","","","<img src = 'category1/CS8.png' width = '100%;'>","null","","","","","","","","","",""
"","html-keyboard-response","185","732618","0.0-10.0-2.11","4k0vevhgrj","many_one","0","direct_first","1","Jetti899","0","21","1","1","3","1","","0","NA","0","null","","","<img src = 'targets/4.png' width = '100%;'>","null","","","","","","","","","",""
"","html-keyboard-response","186","733701","0.0-10.0-3.11","4k0vevhgrj","many_one","0","direct_first","1","Jetti899","0","21","1","1","3","1","","0","NA","0","1081.269999998738","","","<img src = 'targets/mask.png' width = '100%;'>","68","pos","CS","CS","1","category1/CS8.png","","targets/4.png","indirect","0","11"
"","html-keyboard-response","187","735221","0.0-10.0-0.12","4k0vevhgrj","many_one","0","direct_first","1","Jetti899","0","21","1","1","3","1","","0","NA","0","null","","","<div style=""font-size:60px;"">+</div>","null","","","","","","","","","",""
"","html-keyboard-response","188","735316","0.0-10.0-1.12","4k0vevhgrj","many_one","0","direct_first","1","Jetti899","0","21","1","1","3","1","","0","NA","0","null","","","<img src = 'category3/CS1.png' width = '100%;'>","null","","","","","","","","","",""
"","html-keyboard-response","189","735597","0.0-10.0-2.12","4k0vevhgrj","many_one","0","direct_first","1","Jetti899","0","21","1","1","3","1","","0","NA","0","null","","","<img src = 'targets/37.png' width = '100%;'>","null","","","","","","","","","",""
"","html-keyboard-response","190","736675","0.0-10.0-3.12","4k0vevhgrj","many_one","0","direct_first","1","Jetti899","0","21","1","1","3","1","","0","NA","0","1074.5250000000233","","","<img src = 'targets/mask.png' width = '100%;'>","75","pos","CS","CS","3","category3/CS1.png","","targets/37.png","indirect","1","12"
"","html-keyboard-response","191","738200","0.0-10.0-0.13","4k0vevhgrj","many_one","0","direct_first","1","Jetti899","0","21","1","1","3","1","","0","NA","0","null","","","<div style=""font-size:60px;"">+</div>","null","","","","","","","","","",""
"","html-keyboard-response","192","738300","0.0-10.0-1.13","4k0vevhgrj","many_one","0","direct_first","1","Jetti899","0","21","1","1","3","1","","0","NA","0","null","","","<img src = 'category3/CS10.png' width = '100%;'>","null","","","","","","","","","",""
"","html-keyboard-response","193","738561","0.0-10.0-2.13","4k0vevhgrj","many_one","0","direct_first","1","Jetti899","0","21","1","1","3","1","","0","NA","0","null","","","<img src = 'targets/2.png' width = '100%;'>","null","","","","","","","","","",""
"","html-keyboard-response","194","740356","0.0-10.0-3.13","4k0vevhgrj","many_one","0","direct_first","1","Jetti899","0","21","1","1","3","1","","0","NA","0","1791.855000003241","","","<img src = 'targets/mask.png' width = '100%;'>","75","pos","CS","CS","3","category3/CS10.png","","targets/2.png","indirect","1","13"
"","html-keyboard-response","195","741866","0.0-10.0-0.14","4k0vevhgrj","many_one","0","direct_first","1","Jetti899","0","21","1","1","3","1","","0","NA","0","null","","","<div style=""font-size:60px;"">+</div>","null","","","","","","","","","",""
"","html-keyboard-response","196","741975","0.0-10.0-1.14","4k0vevhgrj","many_one","0","direct_first","1","Jetti899","0","21","1","1","3","1","","0","NA","0","null","","","<img src = 'category1/CS5.png' width = '100%;'>","null","","","","","","","","","",""
"","html-keyboard-response","197","742240","0.0-10.0-2.14","4k0vevhgrj","many_one","0","direct_first","1","Jetti899","0","21","1","1","3","1","","0","NA","0","null","","","<img src = 'targets/48.png' width = '100%;'>","null","","","","","","","","","",""
"","html-keyboard-response","198","743116","0.0-10.0-3.14","4k0vevhgrj","many_one","0","direct_first","1","Jetti899","0","21","1","1","3","1","","0","NA","0","872.1799999984214","","","<img src = 'targets/mask.png' width = '100%;'>","75","pos","CS","CS","1","category1/CS5.png","","targets/48.png","indirect","1","14"
"","html-keyboard-response","199","744628","0.0-10.0-0.15","4k0vevhgrj","many_one","0","direct_first","1","Jetti899","0","21","1","1","3","1","","0","NA","0","null","","","<div style=""font-size:60px;"">+</div>","null","","","","","","","","","",""
"","html-keyboard-response","200","744728","0.0-10.0-1.15","4k0vevhgrj","many_one","0","direct_first","1","Jetti899","0","21","1","1","3","1","","0","NA","0","null","","","<img src = 'category3/CS5.png' width = '100%;'>","null","","","","","","","","","",""
"","html-keyboard-response","201","744992","0.0-10.0-2.15","4k0vevhgrj","many_one","0","direct_first","1","Jetti899","0","21","1","1","3","1","","0","NA","0","null","","","<img src = 'targets/31.png' width = '100%;'>","null","","","","","","","","","",""
"","html-keyboard-response","202","746031","0.0-10.0-3.15","4k0vevhgrj","many_one","0","direct_first","1","Jetti899","0","21","1","1","3","1","","0","NA","0","1035.650000001653","","","<img src = 'targets/mask.png' width = '100%;'>","75","pos","CS","CS","3","category3/CS5.png","","targets/31.png","indirect","1","15"
"","html-keyboard-response","203","747552","0.0-10.0-0.16","4k0vevhgrj","many_one","0","direct_first","1","Jetti899","0","21","1","1","3","1","","0","NA","0","null","","","<div style=""font-size:60px;"">+</div>","null","","","","","","","","","",""
"","html-keyboard-response","204","747652","0.0-10.0-1.16","4k0vevhgrj","many_one","0","direct_first","1","Jetti899","0","21","1","1","3","1","","0","NA","0","null","","","<img src = 'category1/CS2.png' width = '100%;'>","null","","","","","","","","","",""
"","html-keyboard-response","205","747919","0.0-10.0-2.16","4k0vevhgrj","many_one","0","direct_first","1","Jetti899","0","21","1","1","3","1","","0","NA","0","null","","","<img src = 'targets/9.png' width = '100%;'>","null","","","","","","","","","",""
"","html-keyboard-response","206","748726","0.0-10.0-3.16","4k0vevhgrj","many_one","0","direct_first","1","Jetti899","0","21","1","1","3","1","","0","NA","0","804.1550000016578","","","<img src = 'targets/mask.png' width = '100%;'>","75","pos","GS","GSold","1","category1/CS2.png","","targets/9.png","indirect","1","16"
"","html-keyboard-response","207","750245","0.0-10.0-0.17","4k0vevhgrj","many_one","0","direct_first","1","Jetti899","0","21","1","1","3","1","","0","NA","0","null","","","<div style=""font-size:60px;"">+</div>","null","","","","","","","","","",""
"","html-keyboard-response","208","750346","0.0-10.0-1.17","4k0vevhgrj","many_one","0","direct_first","1","Jetti899","0","21","1","1","3","1","","0","NA","0","null","","","<img src = 'category2/CS5.png' width = '100%;'>","null","","","","","","","","","",""
"","html-keyboard-response","209","750609","0.0-10.0-2.17","4k0vevhgrj","many_one","0","direct_first","1","Jetti899","0","21","1","1","3","1","","0","NA","0","null","","","<img src = 'targets/20.png' width = '100%;'>","null","","","","","","","","","",""
"","html-keyboard-response","210","751325","0.0-10.0-3.17","4k0vevhgrj","many_one","0","direct_first","1","Jetti899","0","21","1","1","3","1","","0","NA","0","713.980000000447","","","<img src = 'targets/mask.png' width = '100%;'>","68","neg","CS","CS","2","category2/CS5.png","","targets/20.png","indirect","0","17"
"","html-keyboard-response","211","752840","0.0-10.0-0.18","4k0vevhgrj","many_one","0","direct_first","1","Jetti899","0","21","1","1","3","1","","0","NA","0","null","","","<div style=""font-size:60px;"">+</div>","null","","","","","","","","","",""
"","html-keyboard-response","212","752941","0.0-10.0-1.18","4k0vevhgrj","many_one","0","direct_first","1","Jetti899","0","21","1","1","3","1","","0","NA","0","null","","","<img src = 'category4/CS5.png' width = '100%;'>","null","","","","","","","","","",""
"","html-keyboard-response","213","753209","0.0-10.0-2.18","4k0vevhgrj","many_one","0","direct_first","1","Jetti899","0","21","1","1","3","1","","0","NA","0","null","","","<img src = 'targets/7.png' width = '100%;'>","null","","","","","","","","","",""
"","html-keyboard-response","214","754116","0.0-10.0-3.18","4k0vevhgrj","many_one","0","direct_first","1","Jetti899","0","21","1","1","3","1","","0","NA","0","903.4899999969639","","","<img src = 'targets/mask.png' width = '100%;'>","68","neg","CS","CS","4","category4/CS5.png","","targets/7.png","indirect","0","18"
"","html-keyboard-response","215","755633","0.0-10.0-0.19","4k0vevhgrj","many_one","0","direct_first","1","Jetti899","0","21","1","1","3","1","","0","NA","0","null","","","<div style=""font-size:60px;"">+</div>","null","","","","","","","","","",""
"","html-keyboard-response","216","755727","0.0-10.0-1.19","4k0vevhgrj","many_one","0","direct_first","1","Jetti899","0","21","1","1","3","1","","0","NA","0","null","","","<img src = 'category2/CS6.png' width = '100%;'>","null","","","","","","","","","",""
"","html-keyboard-response","217","755992","0.0-10.0-2.19","4k0vevhgrj","many_one","0","direct_first","1","Jetti899","0","21","1","1","3","1","","0","NA","0","null","","","<img src = 'targets/15.png' width = '100%;'>","null","","","","","","","","","",""
"","html-keyboard-response","218","757244","0.0-10.0-3.19","4k0vevhgrj","many_one","0","direct_first","1","Jetti899","0","21","1","1","3","1","","0","NA","0","1249.4450000013458","","","<img src = 'targets/mask.png' width = '100%;'>","75","neg","CS","CS","2","category2/CS6.png","","targets/15.png","indirect","1","19"
"","html-keyboard-response","219","758752","0.0-10.0-0.20","4k0vevhgrj","many_one","0","direct_first","1","Jetti899","0","21","1","1","3","1","","0","NA","0","null","","","<div style=""font-size:60px;"">+</div>","null","","","","","","","","","",""
"","html-keyboard-response","220","758860","0.0-10.0-1.20","4k0vevhgrj","many_one","0","direct_first","1","Jetti899","0","21","1","1","3","1","","0","NA","0","null","","","<img src = 'category4/CS1.png' width = '100%;'>","null","","","","","","","","","",""
"","html-keyboard-response","221","759142","0.0-10.0-2.20","4k0vevhgrj","many_one","0","direct_first","1","Jetti899","0","21","1","1","3","1","","0","NA","0","null","","","<img src = 'targets/24.png' width = '100%;'>","null","","","","","","","","","",""
"","html-keyboard-response","222","760067","0.0-10.0-3.20","4k0vevhgrj","many_one","0","direct_first","1","Jetti899","0","21","1","1","3","1","","0","NA","0","921.3449999988079","","","<img src = 'targets/mask.png' width = '100%;'>","68","neg","GS","GSold","4","category4/CS1.png","","targets/24.png","indirect","0","20"
"","html-keyboard-response","223","761602","0.0-10.0-0.21","4k0vevhgrj","many_one","0","direct_first","1","Jetti899","0","21","1","1","3","1","","0","NA","0","null","","","<div style=""font-size:60px;"">+</div>","null","","","","","","","","","",""
"","html-keyboard-response","224","761702","0.0-10.0-1.21","4k0vevhgrj","many_one","0","direct_first","1","Jetti899","0","21","1","1","3","1","","0","NA","0","null","","","<img src = 'category1/CS4.png' width = '100%;'>","null","","","","","","","","","",""
"","html-keyboard-response","225","761971","0.0-10.0-2.21","4k0vevhgrj","many_one","0","direct_first","1","Jetti899","0","21","1","1","3","1","","0","NA","0","null","","","<img src = 'targets/1.png' width = '100%;'>","null","","","","","","","","","",""
"","html-keyboard-response","226","763405","0.0-10.0-3.21","4k0vevhgrj","many_one","0","direct_first","1","Jetti899","0","21","1","1","3","1","","0","NA","0","1432.3599999989383","","","<img src = 'targets/mask.png' width = '100%;'>","68","pos","CS","CS","1","category1/CS4.png","","targets/1.png","indirect","0","21"
"","html-keyboard-response","227","764930","0.0-10.0-0.22","4k0vevhgrj","many_one","0","direct_first","1","Jetti899","0","21","1","1","3","1","","0","NA","0","null","","","<div style=""font-size:60px;"">+</div>","null","","","","","","","","","",""
"","html-keyboard-response","228","765029","0.0-10.0-1.22","4k0vevhgrj","many_one","0","direct_first","1","Jetti899","0","21","1","1","3","1","","0","NA","0","null","","","<img src = 'category2/CS2.png' width = '100%;'>","null","","","","","","","","","",""
"","html-keyboard-response","229","765298","0.0-10.0-2.22","4k0vevhgrj","many_one","0","direct_first","1","Jetti899","0","21","1","1","3","1","","0","NA","0","null","","","<img src = 'targets/18.png' width = '100%;'>","null","","","","","","","","","",""
"","html-keyboard-response","230","766587","0.0-10.0-3.22","4k0vevhgrj","many_one","0","direct_first","1","Jetti899","0","21","1","1","3","1","","0","NA","0","1285.9300000017975","","","<img src = 'targets/mask.png' width = '100%;'>","68","neg","CS","CS","2","category2/CS2.png","","targets/18.png","indirect","0","22"
"","html-keyboard-response","231","768096","0.0-10.0-0.23","4k0vevhgrj","many_one","0","direct_first","1","Jetti899","0","21","1","1","3","1","","0","NA","0","null","","","<div style=""font-size:60px;"">+</div>","null","","","","","","","","","",""
"","html-keyboard-response","232","768205","0.0-10.0-1.23","4k0vevhgrj","many_one","0","direct_first","1","Jetti899","0","21","1","1","3","1","","0","NA","0","null","","","<img src = 'category1/CS7.png' width = '100%;'>","null","","","","","","","","","",""
"","html-keyboard-response","233","768469","0.0-10.0-2.23","4k0vevhgrj","many_one","0","direct_first","1","Jetti899","0","21","1","1","3","1","","0","NA","0","null","","","<img src = 'targets/39.png' width = '100%;'>","null","","","","","","","","","",""
"","html-keyboard-response","234","769010","0.0-10.0-3.23","4k0vevhgrj","many_one","0","direct_first","1","Jetti899","0","21","1","1","3","1","","0","NA","0","538.3550000005635","","","<img src = 'targets/mask.png' width = '100%;'>","75","pos","CS","CS","1","category1/CS7.png","","targets/39.png","indirect","1","23"
"","survey-html-form","235","772618","0.0-11.0","4k0vevhgrj","many_one","0","direct_first","1","Jetti899","0","21","1","1","3","1","","0","NA","0","3097.4050000004936","","{}","","","","","","","","","","","",""
"","html-keyboard-response","236","775637","0.0-12.0-0.0","4k0vevhgrj","many_one","0","direct_first","1","Jetti899","0","21","1","1","3","1","","0","NA","0","null","","","<div style=""font-size:60px;"">+</div>","null","","","","","","","","","",""
"","html-keyboard-response","237","775733","0.0-12.0-1.0","4k0vevhgrj","many_one","0","direct_first","1","Jetti899","0","21","1","1","3","1","","0","NA","0","null","","","<img src = 'category3/wang.png' width = '100%;'>","null","","","","","","","","","",""
"","html-keyboard-response","238","776004","0.0-12.0-2.0","4k0vevhgrj","many_one","0","direct_first","1","Jetti899","0","21","1","1","3","1","","0","NA","0","null","","","<img src = 'targets/34.png' width = '100%;'>","null","","","","","","","","","",""
"","html-keyboard-response","239","778879","0.0-12.0-3.0","4k0vevhgrj","many_one","0","direct_first","1","Jetti899","0","21","1","1","3","1","","0","NA","0","2871.5250000023516","","","<img src = 'targets/mask.png' width = '100%;'>","75","pos","GS","abstract","3","category3/wang.png","","targets/34.png","indirect","1","24"
"","html-keyboard-response","240","780387","0.0-12.0-0.1","4k0vevhgrj","many_one","0","direct_first","1","Jetti899","0","21","1","1","3","1","","0","NA","0","null","","","<div style=""font-size:60px;"">+</div>","null","","","","","","","","","",""
"","html-keyboard-response","241","780481","0.0-12.0-1.1","4k0vevhgrj","many_one","0","direct_first","1","Jetti899","0","21","1","1","3","1","","0","NA","0","null","","","<img src = 'category2/GS2.png' width = '100%;'>","null","","","","","","","","","",""
"","html-keyboard-response","242","780746","0.0-12.0-2.1","4k0vevhgrj","many_one","0","direct_first","1","Jetti899","0","21","1","1","3","1","","0","NA","0","null","","","<img src = 'targets/33.png' width = '100%;'>","null","","","","","","","","","",""
"","html-keyboard-response","243","782204","0.0-12.0-3.1","4k0vevhgrj","many_one","0","direct_first","1","Jetti899","0","21","1","1","3","1","","0","NA","0","1454.9050000023562","","","<img src = 'targets/mask.png' width = '100%;'>","75","neg","GS","GSnew","2","category2/GS2.png","","targets/33.png","indirect","1","25"
"","html-keyboard-response","244","783714","0.0-12.0-0.2","4k0vevhgrj","many_one","0","direct_first","1","Jetti899","0","21","1","1","3","1","","0","NA","0","null","","","<div style=""font-size:60px;"">+</div>","null","","","","","","","","","",""
"","html-keyboard-response","245","783811","0.0-12.0-1.2","4k0vevhgrj","many_one","0","direct_first","1","Jetti899","0","21","1","1","3","1","","0","NA","0","null","","","<img src = 'category1/GS1.png' width = '100%;'>","null","","","","","","","","","",""
"","html-keyboard-response","246","784092","0.0-12.0-2.2","4k0vevhgrj","many_one","0","direct_first","1","Jetti899","0","21","1","1","3","1","","0","NA","0","null","","","<img src = 'targets/25.png' width = '100%;'>","null","","","","","","","","","",""
"","html-keyboard-response","247","785127","0.0-12.0-3.2","4k0vevhgrj","many_one","0","direct_first","1","Jetti899","0","21","1","1","3","1","","0","NA","0","1030.9850000012666","","","<img src = 'targets/mask.png' width = '100%;'>","75","pos","GS","GSnew","1","category1/GS1.png","","targets/25.png","indirect","1","26"
"","html-keyboard-response","248","786636","0.0-12.0-0.3","4k0vevhgrj","many_one","0","direct_first","1","Jetti899","0","21","1","1","3","1","","0","NA","0","null","","","<div style=""font-size:60px;"">+</div>","null","","","","","","","","","",""
"","html-keyboard-response","249","786733","0.0-12.0-1.3","4k0vevhgrj","many_one","0","direct_first","1","Jetti899","0","21","1","1","3","1","","0","NA","0","null","","","<img src = 'category4/GS2.png' width = '100%;'>","null","","","","","","","","","",""
"","html-keyboard-response","250","787001","0.0-12.0-2.3","4k0vevhgrj","many_one","0","direct_first","1","Jetti899","0","21","1","1","3","1","","0","NA","0","null","","","<img src = 'targets/16.png' width = '100%;'>","null","","","","","","","","","",""
"","html-keyboard-response","251","787859","0.0-12.0-3.3","4k0vevhgrj","many_one","0","direct_first","1","Jetti899","0","21","1","1","3","1","","0","NA","0","855.5149999993155","","","<img src = 'targets/mask.png' width = '100%;'>","75","neg","GS","GSnew","4","category4/GS2.png","","targets/16.png","indirect","1","27"
"","html-keyboard-response","252","789373","0.0-12.0-0.4","4k0vevhgrj","many_one","0","direct_first","1","Jetti899","0","21","1","1","3","1","","0","NA","0","null","","","<div style=""font-size:60px;"">+</div>","null","","","","","","","","","",""
"","html-keyboard-response","253","789475","0.0-12.0-1.4","4k0vevhgrj","many_one","0","direct_first","1","Jetti899","0","21","1","1","3","1","","0","NA","0","null","","","<img src = 'category3/CS8.png' width = '100%;'>","null","","","","","","","","","",""
"","html-keyboard-response","254","789742","0.0-12.0-2.4","4k0vevhgrj","many_one","0","direct_first","1","Jetti899","0","21","1","1","3","1","","0","NA","0","null","","","<img src = 'targets/46.png' width = '100%;'>","null","","","","","","","","","",""
"","html-keyboard-response","255","792560","0.0-12.0-3.4","4k0vevhgrj","many_one","0","direct_first","1","Jetti899","0","21","1","1","3","1","","0","NA","0","2814.3249999993714","","","<img src = 'targets/mask.png' width = '100%;'>","75","pos","GS","GSold","3","category3/CS8.png","","targets/46.png","indirect","1","28"
"","html-keyboard-response","256","794073","0.0-12.0-0.5","4k0vevhgrj","many_one","0","direct_first","1","Jetti899","0","21","1","1","3","1","","0","NA","0","null","","","<div style=""font-size:60px;"">+</div>","null","","","","","","","","","",""
"","html-keyboard-response","257","794168","0.0-12.0-1.5","4k0vevhgrj","many_one","0","direct_first","1","Jetti899","0","21","1","1","3","1","","0","NA","0","null","","","<img src = 'category3/CS3.png' width = '100%;'>","null","","","","","","","","","",""
"","html-keyboard-response","258","794441","0.0-12.0-2.5","4k0vevhgrj","many_one","0","direct_first","1","Jetti899","0","21","1","1","3","1","","0","NA","0","null","","","<img src = 'targets/22.png' width = '100%;'>","null","","","","","","","","","",""
"","html-keyboard-response","259","796080","0.0-12.0-3.5","4k0vevhgrj","many_one","0","direct_first","1","Jetti899","0","21","1","1","3","1","","0","NA","0","1635.6899999991292","","","<img src = 'targets/mask.png' width = '100%;'>","75","pos","GS","GSold","3","category3/CS3.png","","targets/22.png","indirect","1","29"
"","html-keyboard-response","260","797590","0.0-12.0-0.6","4k0vevhgrj","many_one","0","direct_first","1","Jetti899","0","21","1","1","3","1","","0","NA","0","null","","","<div style=""font-size:60px;"">+</div>","null","","","","","","","","","",""
"","html-keyboard-response","261","797695","0.0-12.0-1.6","4k0vevhgrj","many_one","0","direct_first","1","Jetti899","0","21","1","1","3","1","","0","NA","0","null","","","<img src = 'category1/ma.png' width = '100%;'>","null","","","","","","","","","",""
"","html-keyboard-response","262","797967","0.0-12.0-2.6","4k0vevhgrj","many_one","0","direct_first","1","Jetti899","0","21","1","1","3","1","","0","NA","0","null","","","<img src = 'targets/35.png' width = '100%;'>","null","","","","","","","","","",""
"","html-keyboard-response","263","799003","0.0-12.0-3.6","4k0vevhgrj","many_one","0","direct_first","1","Jetti899","0","21","1","1","3","1","","0","NA","0","1032.615000000107","","","<img src = 'targets/mask.png' width = '100%;'>","68","pos","GS","abstract","1","category1/ma.png","","targets/35.png","indirect","0","30"
"","html-keyboard-response","264","800541","0.0-12.0-0.7","4k0vevhgrj","many_one","0","direct_first","1","Jetti899","0","21","1","1","3","1","","0","NA","0","null","","","<div style=""font-size:60px;"">+</div>","null","","","","","","","","","",""
"","html-keyboard-response","265","800642","0.0-12.0-1.7","4k0vevhgrj","many_one","0","direct_first","1","Jetti899","0","21","1","1","3","1","","0","NA","0","null","","","<img src = 'category3/CS9.png' width = '100%;'>","null","","","","","","","","","",""
"","html-keyboard-response","266","800905","0.0-12.0-2.7","4k0vevhgrj","many_one","0","direct_first","1","Jetti899","0","21","1","1","3","1","","0","NA","0","null","","","<img src = 'targets/29.png' width = '100%;'>","null","","","","","","","","","",""
"","html-keyboard-response","267","802171","0.0-12.0-3.7","4k0vevhgrj","many_one","0","direct_first","1","Jetti899","0","21","1","1","3","1","","0","NA","0","1263.6649999986403","","","<img src = 'targets/mask.png' width = '100%;'>","75","pos","GS","GSold","3","category3/CS9.png","","targets/29.png","indirect","1","31"
"","html-keyboard-response","268","803696","0.0-12.0-0.8","4k0vevhgrj","many_one","0","direct_first","1","Jetti899","0","21","1","1","3","1","","0","NA","0","null","","","<div style=""font-size:60px;"">+</div>","null","","","","","","","","","",""
"","html-keyboard-response","269","803793","0.0-12.0-1.8","4k0vevhgrj","many_one","0","direct_first","1","Jetti899","0","21","1","1","3","1","","0","NA","0","null","","","<img src = 'category3/GS2.png' width = '100%;'>","null","","","","","","","","","",""
"","html-keyboard-response","270","804061","0.0-12.0-2.8","4k0vevhgrj","many_one","0","direct_first","1","Jetti899","0","21","1","1","3","1","","0","NA","0","null","","","<img src = 'targets/47.png' width = '100%;'>","null","","","","","","","","","",""
"","html-keyboard-response","271","804879","0.0-12.0-3.8","4k0vevhgrj","many_one","0","direct_first","1","Jetti899","0","21","1","1","3","1","","0","NA","0","813.9349999983096","","","<img src = 'targets/mask.png' width = '100%;'>","75","pos","GS","GSnew","3","category3/GS2.png","","targets/47.png","indirect","1","32"
"","html-keyboard-response","272","806411","0.0-12.0-0.9","4k0vevhgrj","many_one","0","direct_first","1","Jetti899","0","21","1","1","3","1","","0","NA","0","null","","","<div style=""font-size:60px;"">+</div>","null","","","","","","","","","",""
"","html-keyboard-response","273","806508","0.0-12.0-1.9","4k0vevhgrj","many_one","0","direct_first","1","Jetti899","0","21","1","1","3","1","","0","NA","0","null","","","<img src = 'category2/CS7.png' width = '100%;'>","null","","","","","","","","","",""
"","html-keyboard-response","274","806778","0.0-12.0-2.9","4k0vevhgrj","many_one","0","direct_first","1","Jetti899","0","21","1","1","3","1","","0","NA","0","null","","","<img src = 'targets/28.png' width = '100%;'>","null","","","","","","","","","",""
"","html-keyboard-response","275","808917","0.0-12.0-3.9","4k0vevhgrj","many_one","0","direct_first","1","Jetti899","0","21","1","1","3","1","","0","NA","0","2137.1199999994133","","","<img src = 'targets/mask.png' width = '100%;'>","75","neg","GS","GSold","2","category2/CS7.png","","targets/28.png","indirect","1","33"
"","html-keyboard-response","276","810435","0.0-12.0-0.10","4k0vevhgrj","many_one","0","direct_first","1","Jetti899","0","21","1","1","3","1","","0","NA","0","null","","","<div style=""font-size:60px;"">+</div>","null","","","","","","","","","",""
"","html-keyboard-response","277","810541","0.0-12.0-1.10","4k0vevhgrj","many_one","0","direct_first","1","Jetti899","0","21","1","1","3","1","","0","NA","0","null","","","<img src = 'category1/GS3.png' width = '100%;'>","null","","","","","","","","","",""
"","html-keyboard-response","278","810806","0.0-12.0-2.10","4k0vevhgrj","many_one","0","direct_first","1","Jetti899","0","21","1","1","3","1","","0","NA","0","null","","","<img src = 'targets/13.png' width = '100%;'>","null","","","","","","","","","",""
"","html-keyboard-response","279","811626","0.0-12.0-3.10","4k0vevhgrj","many_one","0","direct_first","1","Jetti899","0","21","1","1","3","1","","0","NA","0","817.0050000008196","","","<img src = 'targets/mask.png' width = '100%;'>","75","pos","GS","GSnew","1","category1/GS3.png","","targets/13.png","indirect","1","34"
"","html-keyboard-response","280","813141","0.0-12.0-0.11","4k0vevhgrj","many_one","0","direct_first","1","Jetti899","0","21","1","1","3","1","","0","NA","0","null","","","<div style=""font-size:60px;"">+</div>","null","","","","","","","","","",""
"","html-keyboard-response","281","813241","0.0-12.0-1.11","4k0vevhgrj","many_one","0","direct_first","1","Jetti899","0","21","1","1","3","1","","0","NA","0","null","","","<img src = 'category3/GS1.png' width = '100%;'>","null","","","","","","","","","",""
"","html-keyboard-response","282","813523","0.0-12.0-2.11","4k0vevhgrj","many_one","0","direct_first","1","Jetti899","0","21","1","1","3","1","","0","NA","0","null","","","<img src = 'targets/26.png' width = '100%;'>","null","","","","","","","","","",""
"","html-keyboard-response","283","814752","0.0-12.0-3.11","4k0vevhgrj","many_one","0","direct_first","1","Jetti899","0","21","1","1","3","1","","0","NA","0","1225.9750000012573","","","<img src = 'targets/mask.png' width = '100%;'>","68","pos","GS","GSnew","3","category3/GS1.png","","targets/26.png","indirect","0","35"
"","html-keyboard-response","284","816273","0.0-12.0-0.12","4k0vevhgrj","many_one","0","direct_first","1","Jetti899","0","21","1","1","3","1","","0","NA","0","null","","","<div style=""font-size:60px;"">+</div>","null","","","","","","","","","",""
"","html-keyboard-response","285","816370","0.0-12.0-1.12","4k0vevhgrj","many_one","0","direct_first","1","Jetti899","0","21","1","1","3","1","","0","NA","0","null","","","<img src = 'category1/GS2.png' width = '100%;'>","null","","","","","","","","","",""
"","html-keyboard-response","286","816640","0.0-12.0-2.12","4k0vevhgrj","many_one","0","direct_first","1","Jetti899","0","21","1","1","3","1","","0","NA","0","null","","","<img src = 'targets/21.png' width = '100%;'>","null","","","","","","","","","",""
"","html-keyboard-response","287","818651","0.0-12.0-3.12","4k0vevhgrj","many_one","0","direct_first","1","Jetti899","0","21","1","1","3","1","","0","NA","0","2008.7800000001444","","","<img src = 'targets/mask.png' width = '100%;'>","75","pos","GS","GSnew","1","category1/GS2.png","","targets/21.png","indirect","1","36"
"","html-keyboard-response","288","820162","0.0-12.0-0.13","4k0vevhgrj","many_one","0","direct_first","1","Jetti899","0","21","1","1","3","1","","0","NA","0","null","","","<div style=""font-size:60px;"">+</div>","null","","","","","","","","","",""
"","html-keyboard-response","289","820262","0.0-12.0-1.13","4k0vevhgrj","many_one","0","direct_first","1","Jetti899","0","21","1","1","3","1","","0","NA","0","null","","","<img src = 'category4/GS1.png' width = '100%;'>","null","","","","","","","","","",""
"","html-keyboard-response","290","820547","0.0-12.0-2.13","4k0vevhgrj","many_one","0","direct_first","1","Jetti899","0","21","1","1","3","1","","0","NA","0","null","","","<img src = 'targets/45.png' width = '100%;'>","null","","","","","","","","","",""
"","html-keyboard-response","291","821394","0.0-12.0-3.13","4k0vevhgrj","many_one","0","direct_first","1","Jetti899","0","21","1","1","3","1","","0","NA","0","843.56000000122","","","<img src = 'targets/mask.png' width = '100%;'>","75","neg","GS","GSnew","4","category4/GS1.png","","targets/45.png","indirect","1","37"
"","html-keyboard-response","292","822919","0.0-12.0-0.14","4k0vevhgrj","many_one","0","direct_first","1","Jetti899","0","21","1","1","3","1","","0","NA","0","null","","","<div style=""font-size:60px;"">+</div>","null","","","","","","","","","",""
"","html-keyboard-response","293","823015","0.0-12.0-1.14","4k0vevhgrj","many_one","0","direct_first","1","Jetti899","0","21","1","1","3","1","","0","NA","0","null","","","<img src = 'category2/CS9.png' width = '100%;'>","null","","","","","","","","","",""
"","html-keyboard-response","294","823295","0.0-12.0-2.14","4k0vevhgrj","many_one","0","direct_first","1","Jetti899","0","21","1","1","3","1","","0","NA","0","null","","","<img src = 'targets/40.png' width = '100%;'>","null","","","","","","","","","",""
"","html-keyboard-response","295","825267","0.0-12.0-3.14","4k0vevhgrj","many_one","0","direct_first","1","Jetti899","0","21","1","1","3","1","","0","NA","0","1969.600000000326","","","<img src = 'targets/mask.png' width = '100%;'>","68","neg","GS","GSold","2","category2/CS9.png","","targets/40.png","indirect","0","38"
"","html-keyboard-response","296","826779","0.0-12.0-0.15","4k0vevhgrj","many_one","0","direct_first","1","Jetti899","0","21","1","1","3","1","","0","NA","0","null","","","<div style=""font-size:60px;"">+</div>","null","","","","","","","","","",""
"","html-keyboard-response","297","826882","0.0-12.0-1.15","4k0vevhgrj","many_one","0","direct_first","1","Jetti899","0","21","1","1","3","1","","0","NA","0","null","","","<img src = 'category2/GS3.png' width = '100%;'>","null","","","","","","","","","",""
"","html-keyboard-response","298","827147","0.0-12.0-2.15","4k0vevhgrj","many_one","0","direct_first","1","Jetti899","0","21","1","1","3","1","","0","NA","0","null","","","<img src = 'targets/11.png' width = '100%;'>","null","","","","","","","","","",""
"","html-keyboard-response","299","828420","0.0-12.0-3.15","4k0vevhgrj","many_one","0","direct_first","1","Jetti899","0","21","1","1","3","1","","0","NA","0","1269.8149999995949","","","<img src = 'targets/mask.png' width = '100%;'>","75","neg","GS","GSnew","2","category2/GS3.png","","targets/11.png","indirect","1","39"
"","html-keyboard-response","300","829937","0.0-12.0-0.16","4k0vevhgrj","many_one","0","direct_first","1","Jetti899","0","21","1","1","3","1","","0","NA","0","null","","","<div style=""font-size:60px;"">+</div>","null","","","","","","","","","",""
"","html-keyboard-response","301","830034","0.0-12.0-1.16","4k0vevhgrj","many_one","0","direct_first","1","Jetti899","0","21","1","1","3","1","","0","NA","0","null","","","<img src = 'category3/GS3.png' width = '100%;'>","null","","","","","","","","","",""
"","html-keyboard-response","302","830305","0.0-12.0-2.16","4k0vevhgrj","many_one","0","direct_first","1","Jetti899","0","21","1","1","3","1","","0","NA","0","null","","","<img src = 'targets/43.png' width = '100%;'>","null","","","","","","","","","",""
"","html-keyboard-response","303","831762","0.0-12.0-3.16","4k0vevhgrj","many_one","0","direct_first","1","Jetti899","0","21","1","1","3","1","","0","NA","0","1453.939999999362","","","<img src = 'targets/mask.png' width = '100%;'>","68","pos","GS","GSnew","3","category3/GS3.png","","targets/43.png","indirect","0","40"
"","html-keyboard-response","304","833280","0.0-12.0-0.17","4k0vevhgrj","many_one","0","direct_first","1","Jetti899","0","21","1","1","3","1","","0","NA","0","null","","","<div style=""font-size:60px;"">+</div>","null","","","","","","","","","",""
"","html-keyboard-response","305","833385","0.0-12.0-1.17","4k0vevhgrj","many_one","0","direct_first","1","Jetti899","0","21","1","1","3","1","","0","NA","0","null","","","<img src = 'category2/men.png' width = '100%;'>","null","","","","","","","","","",""
"","html-keyboard-response","306","833658","0.0-12.0-2.17","4k0vevhgrj","many_one","0","direct_first","1","Jetti899","0","21","1","1","3","1","","0","NA","0","null","","","<img src = 'targets/19.png' width = '100%;'>","null","","","","","","","","","",""
"","html-keyboard-response","307","834580","0.0-12.0-3.17","4k0vevhgrj","many_one","0","direct_first","1","Jetti899","0","21","1","1","3","1","","0","NA","0","918.4500000011176","","","<img src = 'targets/mask.png' width = '100%;'>","68","neg","GS","abstract","2","category2/men.png","","targets/19.png","indirect","0","41"
"","html-keyboard-response","308","836101","0.0-12.0-0.18","4k0vevhgrj","many_one","0","direct_first","1","Jetti899","0","21","1","1","3","1","","0","NA","0","null","","","<div style=""font-size:60px;"">+</div>","null","","","","","","","","","",""
"","html-keyboard-response","309","836198","0.0-12.0-1.18","4k0vevhgrj","many_one","0","direct_first","1","Jetti899","0","21","1","1","3","1","","0","NA","0","null","","","<img src = 'category4/GS3.png' width = '100%;'>","null","","","","","","","","","",""
"","html-keyboard-response","310","836463","0.0-12.0-2.18","4k0vevhgrj","many_one","0","direct_first","1","Jetti899","0","21","1","1","3","1","","0","NA","0","null","","","<img src = 'targets/32.png' width = '100%;'>","null","","","","","","","","","",""
"","html-keyboard-response","311","837539","0.0-12.0-3.18","4k0vevhgrj","many_one","0","direct_first","1","Jetti899","0","21","1","1","3","1","","0","NA","0","1073.230000001844","","","<img src = 'targets/mask.png' width = '100%;'>","68","neg","GS","GSnew","4","category4/GS3.png","","targets/32.png","indirect","0","42"
"","html-keyboard-response","312","839054","0.0-12.0-0.19","4k0vevhgrj","many_one","0","direct_first","1","Jetti899","0","21","1","1","3","1","","0","NA","0","null","","","<div style=""font-size:60px;"">+</div>","null","","","","","","","","","",""
"","html-keyboard-response","313","839147","0.0-12.0-1.19","4k0vevhgrj","many_one","0","direct_first","1","Jetti899","0","21","1","1","3","1","","0","NA","0","null","","","<img src = 'category4/lin.png' width = '100%;'>","null","","","","","","","","","",""
"","html-keyboard-response","314","839414","0.0-12.0-2.19","4k0vevhgrj","many_one","0","direct_first","1","Jetti899","0","21","1","1","3","1","","0","NA","0","null","","","<img src = 'targets/10.png' width = '100%;'>","null","","","","","","","","","",""
"","html-keyboard-response","315","840796","0.0-12.0-3.19","4k0vevhgrj","many_one","0","direct_first","1","Jetti899","0","21","1","1","3","1","","0","NA","0","1378.6949999994831","","","<img src = 'targets/mask.png' width = '100%;'>","75","neg","GS","abstract","4","category4/lin.png","","targets/10.png","indirect","1","43"
"","html-keyboard-response","316","842315","0.0-12.0-0.20","4k0vevhgrj","many_one","0","direct_first","1","Jetti899","0","21","1","1","3","1","","0","NA","0","null","","","<div style=""font-size:60px;"">+</div>","null","","","","","","","","","",""
"","html-keyboard-response","317","842414","0.0-12.0-1.20","4k0vevhgrj","many_one","0","direct_first","1","Jetti899","0","21","1","1","3","1","","0","NA","0","null","","","<img src = 'category2/GS1.png' width = '100%;'>","null","","","","","","","","","",""
"","html-keyboard-response","318","842685","0.0-12.0-2.20","4k0vevhgrj","many_one","0","direct_first","1","Jetti899","0","21","1","1","3","1","","0","NA","0","null","","","<img src = 'targets/5.png' width = '100%;'>","null","","","","","","","","","",""
"","html-keyboard-response","319","843495","0.0-12.0-3.20","4k0vevhgrj","many_one","0","direct_first","1","Jetti899","0","21","1","1","3","1","","0","NA","0","806.9250000007451","","","<img src = 'targets/mask.png' width = '100%;'>","75","neg","GS","GSnew","2","category2/GS1.png","","targets/5.png","indirect","1","44"
"","html-keyboard-response","320","845019","0.0-12.0-0.21","4k0vevhgrj","many_one","0","direct_first","1","Jetti899","0","21","1","1","3","1","","0","NA","0","null","","","<div style=""font-size:60px;"">+</div>","null","","","","","","","","","",""
"","html-keyboard-response","321","845115","0.0-12.0-1.21","4k0vevhgrj","many_one","0","direct_first","1","Jetti899","0","21","1","1","3","1","","0","NA","0","null","","","<img src = 'category2/CS3.png' width = '100%;'>","null","","","","","","","","","",""
"","html-keyboard-response","322","845396","0.0-12.0-2.21","4k0vevhgrj","many_one","0","direct_first","1","Jetti899","0","21","1","1","3","1","","0","NA","0","null","","","<img src = 'targets/27.png' width = '100%;'>","null","","","","","","","","","",""
"","html-keyboard-response","323","846081","0.0-12.0-3.21","4k0vevhgrj","many_one","0","direct_first","1","Jetti899","0","21","1","1","3","1","","0","NA","0","682.5950000020675","","","<img src = 'targets/mask.png' width = '100%;'>","75","neg","GS","GSold","2","category2/CS3.png","","targets/27.png","indirect","1","45"
"","html-keyboard-response","324","847598","0.0-12.0-0.22","4k0vevhgrj","many_one","0","direct_first","1","Jetti899","0","21","1","1","3","1","","0","NA","0","null","","","<div style=""font-size:60px;"">+</div>","null","","","","","","","","","",""
"","html-keyboard-response","325","847698","0.0-12.0-1.22","4k0vevhgrj","many_one","0","direct_first","1","Jetti899","0","21","1","1","3","1","","0","NA","0","null","","","<img src = 'category1/CS6.png' width = '100%;'>","null","","","","","","","","","",""
"","html-keyboard-response","326","847962","0.0-12.0-2.22","4k0vevhgrj","many_one","0","direct_first","1","Jetti899","0","21","1","1","3","1","","0","NA","0","null","","","<img src = 'targets/41.png' width = '100%;'>","null","","","","","","","","","",""
