"success","trial_type","trial_index","time_elapsed","internal_node_id","subject","condition","condition_code","measure","measure_code","codeword","gender","age","education","chinese","fach","handedness","comment","hinschauen","ablenkung","gewissenhaft","rt","url","responses","stimulus","key_press","val","type","type_specific","category","cs_selected","response","target","task","indirect","nr_pres"
"true","fullscreen","0","5239","0.0-0.0","9nay5s46ya","many_one","0","direct_first","1","lt06no05","0","21","1","1","3","1","","0","1","0","","","","","","","","","","","","","","",""
"","external-html","1","32313","0.0-1.0","9nay5s46ya","many_one","0","direct_first","1","lt06no05","0","21","1","1","3","1","","0","1","0","26990.36499997601","text/information.html","","","","","","","","","","","","",""
"","external-html","2","51739","0.0-2.0","9nay5s46ya","many_one","0","direct_first","1","lt06no05","0","21","1","1","3","1","","0","1","0","19364.33000024408","text/consent.html","","","","","","","","","","","","",""
"","survey-html-form","3","95713","0.0-3.0","9nay5s46ya","many_one","0","direct_first","1","lt06no05","0","21","1","1","3","1","","0","1","0","43968.88000005856","","{""codeword_enter"":""lt06no05""}","","","","","","","","","","","",""
"","survey-html-form","4","119530","0.0-4.0","9nay5s46ya","many_one","0","direct_first","1","lt06no05","0","21","1","1","3","1","","0","1","0","23803.234999999404","","{""age"":""21"",""education"":""1"",""subject"":""3"",""gender"":""0"",""handedness"":""1"",""chinese"":""1""}","","","","","","","","","","","",""
"","survey-html-form","5","127685","0.0-5.0","9nay5s46ya","many_one","0","direct_first","1","lt06no05","0","21","1","1","3","1","","0","1","0","8149.445000104606","","{}","","","","","","","","","","","",""
"","html-keyboard-response","6","131703","0.0-6.0-0.0-0.0","9nay5s46ya","many_one","0","direct_first","1","lt06no05","0","21","1","1","3","1","","0","1","0","null","","","<div class = 'row'><div class = 'column'><img src = 'category3/CS2.png' width = '70%;'></div><div class = 'column'><img src = 'uspos/5830.bmp' width = '100%;'></div></div>","null","pos","CS","CS","3","category3/CS2.png","","","","",""
"","html-keyboard-response","7","134223","0.0-6.0-0.0-0.1","9nay5s46ya","many_one","0","direct_first","1","lt06no05","0","21","1","1","3","1","","0","1","0","null","","","<div class = 'row'><div class = 'column'><img src = 'usneg/6570.1.bmp' width = '100%;'></div><div class = 'column'><img src = 'category4/CS10.png' width = '70%;'></div></div>","null","neg","CS","CS","4","category4/CS10.png","","","","",""
"","html-keyboard-response","8","136728","0.0-6.0-0.0-0.2","9nay5s46ya","many_one","0","direct_first","1","lt06no05","0","21","1","1","3","1","","0","1","0","null","","","<div class = 'row'><div class = 'column'><img src = 'usneg/9280.bmp' width = '100%;'></div><div class = 'column'><img src = 'category4/CS3.png' width = '70%;'></div></div>","null","neg","CS","CS","4","category4/CS3.png","","","","",""
"","html-keyboard-response","9","139234","0.0-6.0-0.0-0.3","9nay5s46ya","many_one","0","direct_first","1","lt06no05","0","21","1","1","3","1","","0","1","0","null","","","<div class = 'row'><div class = 'column'><img src = 'uspos/4625.bmp' width = '100%;'></div><div class = 'column'><img src = 'category3/CS7.png' width = '70%;'></div></div>","null","pos","CS","CS","3","category3/CS7.png","","","","",""
"","html-keyboard-response","10","141742","0.0-6.0-0.0-0.4","9nay5s46ya","many_one","0","direct_first","1","lt06no05","0","21","1","1","3","1","","0","1","0","null","","","<div class = 'row'><div class = 'column'><img src = 'uspos/5700.bmp' width = '100%;'></div><div class = 'column'><img src = 'category2/CS10.png' width = '70%;'></div></div>","null","pos","CS","CS","2","category2/CS10.png","","","","",""
"","html-keyboard-response","11","144248","0.0-6.0-0.0-0.5","9nay5s46ya","many_one","0","direct_first","1","lt06no05","0","21","1","1","3","1","","0","1","0","null","","","<div class = 'row'><div class = 'column'><img src = 'category2/CS5.png' width = '70%;'></div><div class = 'column'><img src = 'uspos/2058.bmp' width = '100%;'></div></div>","null","pos","CS","CS","2","category2/CS5.png","","","","",""
"","html-keyboard-response","12","146763","0.0-6.0-0.0-0.6","9nay5s46ya","many_one","0","direct_first","1","lt06no05","0","21","1","1","3","1","","0","1","0","null","","","<div class = 'row'><div class = 'column'><img src = 'category1/CS9.png' width = '70%;'></div><div class = 'column'><img src = 'usneg/9050.bmp' width = '100%;'></div></div>","null","neg","CS","CS","1","category1/CS9.png","","","","",""
"","html-keyboard-response","13","149272","0.0-6.0-0.0-0.7","9nay5s46ya","many_one","0","direct_first","1","lt06no05","0","21","1","1","3","1","","0","1","0","null","","","<div class = 'row'><div class = 'column'><img src = 'usneg/6838.bmp' width = '100%;'></div><div class = 'column'><img src = 'category4/CS2.png' width = '70%;'></div></div>","null","neg","CS","CS","4","category4/CS2.png","","","","",""
"","html-keyboard-response","14","151792","0.0-6.0-0.0-0.8","9nay5s46ya","many_one","0","direct_first","1","lt06no05","0","21","1","1","3","1","","0","1","0","null","","","<div class = 'row'><div class = 'column'><img src = 'usneg/8485.bmp' width = '100%;'></div><div class = 'column'><img src = 'category4/CS4.png' width = '70%;'></div></div>","null","neg","CS","CS","4","category4/CS4.png","","","","",""
"","html-keyboard-response","15","154303","0.0-6.0-0.0-0.9","9nay5s46ya","many_one","0","direct_first","1","lt06no05","0","21","1","1","3","1","","0","1","0","null","","","<div class = 'row'><div class = 'column'><img src = 'category2/CS9.png' width = '70%;'></div><div class = 'column'><img src = 'uspos/8190.bmp' width = '100%;'></div></div>","null","pos","CS","CS","2","category2/CS9.png","","","","",""
"","html-keyboard-response","16","156816","0.0-6.0-0.0-0.10","9nay5s46ya","many_one","0","direct_first","1","lt06no05","0","21","1","1","3","1","","0","1","0","null","","","<div class = 'row'><div class = 'column'><img src = 'uspos/2311.bmp' width = '100%;'></div><div class = 'column'><img src = 'category3/CS6.png' width = '70%;'></div></div>","null","pos","CS","CS","3","category3/CS6.png","","","","",""
"","html-keyboard-response","17","159322","0.0-6.0-0.0-0.11","9nay5s46ya","many_one","0","direct_first","1","lt06no05","0","21","1","1","3","1","","0","1","0","null","","","<div class = 'row'><div class = 'column'><img src = 'uspos/2340.bmp' width = '100%;'></div><div class = 'column'><img src = 'category2/CS1.png' width = '70%;'></div></div>","null","pos","CS","CS","2","category2/CS1.png","","","","",""
"","html-keyboard-response","18","161828","0.0-6.0-0.0-0.12","9nay5s46ya","many_one","0","direct_first","1","lt06no05","0","21","1","1","3","1","","0","1","0","null","","","<div class = 'row'><div class = 'column'><img src = 'usneg/2750.bmp' width = '100%;'></div><div class = 'column'><img src = 'category1/CS8.png' width = '70%;'></div></div>","null","neg","CS","CS","1","category1/CS8.png","","","","",""
"","html-keyboard-response","19","164342","0.0-6.0-0.0-0.13","9nay5s46ya","many_one","0","direct_first","1","lt06no05","0","21","1","1","3","1","","0","1","0","null","","","<div class = 'row'><div class = 'column'><img src = 'usneg/3300.bmp' width = '100%;'></div><div class = 'column'><img src = 'category1/CS5.png' width = '70%;'></div></div>","null","neg","CS","CS","1","category1/CS5.png","","","","",""
"","html-keyboard-response","20","166847","0.0-6.0-0.0-0.14","9nay5s46ya","many_one","0","direct_first","1","lt06no05","0","21","1","1","3","1","","0","1","0","null","","","<div class = 'row'><div class = 'column'><img src = 'uspos/1710.bmp' width = '100%;'></div><div class = 'column'><img src = 'category3/CS5.png' width = '70%;'></div></div>","null","pos","CS","CS","3","category3/CS5.png","","","","",""
"","html-keyboard-response","21","169357","0.0-6.0-0.0-0.15","9nay5s46ya","many_one","0","direct_first","1","lt06no05","0","21","1","1","3","1","","0","1","0","null","","","<div class = 'row'><div class = 'column'><img src = 'category2/CS2.png' width = '70%;'></div><div class = 'column'><img src = 'uspos/2030.bmp' width = '100%;'></div></div>","null","pos","CS","CS","2","category2/CS2.png","","","","",""
"","html-keyboard-response","22","171872","0.0-6.0-0.0-0.16","9nay5s46ya","many_one","0","direct_first","1","lt06no05","0","21","1","1","3","1","","0","1","0","null","","","<div class = 'row'><div class = 'column'><img src = 'category3/CS1.png' width = '70%;'></div><div class = 'column'><img src = 'uspos/2341.bmp' width = '100%;'></div></div>","null","pos","CS","CS","3","category3/CS1.png","","","","",""
"","html-keyboard-response","23","174378","0.0-6.0-0.0-0.17","9nay5s46ya","many_one","0","direct_first","1","lt06no05","0","21","1","1","3","1","","0","1","0","null","","","<div class = 'row'><div class = 'column'><img src = 'usneg/9584.bmp' width = '100%;'></div><div class = 'column'><img src = 'category4/CS6.png' width = '70%;'></div></div>","null","neg","CS","CS","4","category4/CS6.png","","","","",""
"","html-keyboard-response","24","176883","0.0-6.0-0.0-0.18","9nay5s46ya","many_one","0","direct_first","1","lt06no05","0","21","1","1","3","1","","0","1","0","null","","","<div class = 'row'><div class = 'column'><img src = 'category1/CS6.png' width = '70%;'></div><div class = 'column'><img src = 'usneg/9340.bmp' width = '100%;'></div></div>","null","neg","CS","CS","1","category1/CS6.png","","","","",""
"","html-keyboard-response","25","179393","0.0-6.0-0.0-0.19","9nay5s46ya","many_one","0","direct_first","1","lt06no05","0","21","1","1","3","1","","0","1","0","null","","","<div class = 'row'><div class = 'column'><img src = 'usneg/9920.bmp' width = '100%;'></div><div class = 'column'><img src = 'category1/CS4.png' width = '70%;'></div></div>","null","neg","CS","CS","1","category1/CS4.png","","","","",""
"","survey-html-form","26","183255","0.0-6.0-1.0","9nay5s46ya","many_one","0","direct_first","1","lt06no05","0","21","1","1","3","1","","0","1","0","3359.259999822825","","{}","","","","","","","","","","","",""
"","html-keyboard-response","27","187268","0.0-6.0-2.0-0.0","9nay5s46ya","many_one","0","direct_first","1","lt06no05","0","21","1","1","3","1","","0","1","0","null","","","<div class = 'row'><div class = 'column'><img src = 'uspos/8190.bmp' width = '100%;'></div><div class = 'column'><img src = 'category2/CS9.png' width = '70%;'></div></div>","null","pos","CS","CS","2","category2/CS9.png","","","","",""
"","html-keyboard-response","28","189782","0.0-6.0-2.0-0.1","9nay5s46ya","many_one","0","direct_first","1","lt06no05","0","21","1","1","3","1","","0","1","0","null","","","<div class = 'row'><div class = 'column'><img src = 'category3/CS7.png' width = '70%;'></div><div class = 'column'><img src = 'uspos/4625.bmp' width = '100%;'></div></div>","null","pos","CS","CS","3","category3/CS7.png","","","","",""
"","html-keyboard-response","29","192293","0.0-6.0-2.0-0.2","9nay5s46ya","many_one","0","direct_first","1","lt06no05","0","21","1","1","3","1","","0","1","0","null","","","<div class = 'row'><div class = 'column'><img src = 'uspos/2340.bmp' width = '100%;'></div><div class = 'column'><img src = 'category2/CS1.png' width = '70%;'></div></div>","null","pos","CS","CS","2","category2/CS1.png","","","","",""
"","html-keyboard-response","30","194797","0.0-6.0-2.0-0.3","9nay5s46ya","many_one","0","direct_first","1","lt06no05","0","21","1","1","3","1","","0","1","0","null","","","<div class = 'row'><div class = 'column'><img src = 'usneg/9280.bmp' width = '100%;'></div><div class = 'column'><img src = 'category4/CS3.png' width = '70%;'></div></div>","null","neg","CS","CS","4","category4/CS3.png","","","","",""
"","html-keyboard-response","31","197303","0.0-6.0-2.0-0.4","9nay5s46ya","many_one","0","direct_first","1","lt06no05","0","21","1","1","3","1","","0","1","0","null","","","<div class = 'row'><div class = 'column'><img src = 'category4/CS6.png' width = '70%;'></div><div class = 'column'><img src = 'usneg/9584.bmp' width = '100%;'></div></div>","null","neg","CS","CS","4","category4/CS6.png","","","","",""
"","html-keyboard-response","32","199807","0.0-6.0-2.0-0.5","9nay5s46ya","many_one","0","direct_first","1","lt06no05","0","21","1","1","3","1","","0","1","0","null","","","<div class = 'row'><div class = 'column'><img src = 'uspos/2058.bmp' width = '100%;'></div><div class = 'column'><img src = 'category2/CS5.png' width = '70%;'></div></div>","null","pos","CS","CS","2","category2/CS5.png","","","","",""
"","html-keyboard-response","33","202322","0.0-6.0-2.0-0.6","9nay5s46ya","many_one","0","direct_first","1","lt06no05","0","21","1","1","3","1","","0","1","0","null","","","<div class = 'row'><div class = 'column'><img src = 'uspos/2341.bmp' width = '100%;'></div><div class = 'column'><img src = 'category3/CS1.png' width = '70%;'></div></div>","null","pos","CS","CS","3","category3/CS1.png","","","","",""
"","html-keyboard-response","34","204844","0.0-6.0-2.0-0.7","9nay5s46ya","many_one","0","direct_first","1","lt06no05","0","21","1","1","3","1","","0","1","0","null","","","<div class = 'row'><div class = 'column'><img src = 'usneg/3300.bmp' width = '100%;'></div><div class = 'column'><img src = 'category1/CS5.png' width = '70%;'></div></div>","null","neg","CS","CS","1","category1/CS5.png","","","","",""
"","html-keyboard-response","35","207349","0.0-6.0-2.0-0.8","9nay5s46ya","many_one","0","direct_first","1","lt06no05","0","21","1","1","3","1","","0","1","0","null","","","<div class = 'row'><div class = 'column'><img src = 'usneg/9340.bmp' width = '100%;'></div><div class = 'column'><img src = 'category1/CS6.png' width = '70%;'></div></div>","null","neg","CS","CS","1","category1/CS6.png","","","","",""
"","html-keyboard-response","36","209855","0.0-6.0-2.0-0.9","9nay5s46ya","many_one","0","direct_first","1","lt06no05","0","21","1","1","3","1","","0","1","0","null","","","<div class = 'row'><div class = 'column'><img src = 'uspos/5830.bmp' width = '100%;'></div><div class = 'column'><img src = 'category3/CS2.png' width = '70%;'></div></div>","null","pos","CS","CS","3","category3/CS2.png","","","","",""
"","html-keyboard-response","37","212366","0.0-6.0-2.0-0.10","9nay5s46ya","many_one","0","direct_first","1","lt06no05","0","21","1","1","3","1","","0","1","0","null","","","<div class = 'row'><div class = 'column'><img src = 'category3/CS6.png' width = '70%;'></div><div class = 'column'><img src = 'uspos/2311.bmp' width = '100%;'></div></div>","null","pos","CS","CS","3","category3/CS6.png","","","","",""
"","html-keyboard-response","38","214872","0.0-6.0-2.0-0.11","9nay5s46ya","many_one","0","direct_first","1","lt06no05","0","21","1","1","3","1","","0","1","0","null","","","<div class = 'row'><div class = 'column'><img src = 'usneg/6570.1.bmp' width = '100%;'></div><div class = 'column'><img src = 'category4/CS10.png' width = '70%;'></div></div>","null","neg","CS","CS","4","category4/CS10.png","","","","",""
"","html-keyboard-response","39","217377","0.0-6.0-2.0-0.12","9nay5s46ya","many_one","0","direct_first","1","lt06no05","0","21","1","1","3","1","","0","1","0","null","","","<div class = 'row'><div class = 'column'><img src = 'uspos/5700.bmp' width = '100%;'></div><div class = 'column'><img src = 'category2/CS10.png' width = '70%;'></div></div>","null","pos","CS","CS","2","category2/CS10.png","","","","",""
"","html-keyboard-response","40","219884","0.0-6.0-2.0-0.13","9nay5s46ya","many_one","0","direct_first","1","lt06no05","0","21","1","1","3","1","","0","1","0","null","","","<div class = 'row'><div class = 'column'><img src = 'category1/CS9.png' width = '70%;'></div><div class = 'column'><img src = 'usneg/9050.bmp' width = '100%;'></div></div>","null","neg","CS","CS","1","category1/CS9.png","","","","",""
"","html-keyboard-response","41","222389","0.0-6.0-2.0-0.14","9nay5s46ya","many_one","0","direct_first","1","lt06no05","0","21","1","1","3","1","","0","1","0","null","","","<div class = 'row'><div class = 'column'><img src = 'uspos/1710.bmp' width = '100%;'></div><div class = 'column'><img src = 'category3/CS5.png' width = '70%;'></div></div>","null","pos","CS","CS","3","category3/CS5.png","","","","",""
"","html-keyboard-response","42","224894","0.0-6.0-2.0-0.15","9nay5s46ya","many_one","0","direct_first","1","lt06no05","0","21","1","1","3","1","","0","1","0","null","","","<div class = 'row'><div class = 'column'><img src = 'category1/CS4.png' width = '70%;'></div><div class = 'column'><img src = 'usneg/9920.bmp' width = '100%;'></div></div>","null","neg","CS","CS","1","category1/CS4.png","","","","",""
"","html-keyboard-response","43","227399","0.0-6.0-2.0-0.16","9nay5s46ya","many_one","0","direct_first","1","lt06no05","0","21","1","1","3","1","","0","1","0","null","","","<div class = 'row'><div class = 'column'><img src = 'category1/CS8.png' width = '70%;'></div><div class = 'column'><img src = 'usneg/2750.bmp' width = '100%;'></div></div>","null","neg","CS","CS","1","category1/CS8.png","","","","",""
"","html-keyboard-response","44","229911","0.0-6.0-2.0-0.17","9nay5s46ya","many_one","0","direct_first","1","lt06no05","0","21","1","1","3","1","","0","1","0","null","","","<div class = 'row'><div class = 'column'><img src = 'category4/CS2.png' width = '70%;'></div><div class = 'column'><img src = 'usneg/6838.bmp' width = '100%;'></div></div>","null","neg","CS","CS","4","category4/CS2.png","","","","",""
"","html-keyboard-response","45","232416","0.0-6.0-2.0-0.18","9nay5s46ya","many_one","0","direct_first","1","lt06no05","0","21","1","1","3","1","","0","1","0","null","","","<div class = 'row'><div class = 'column'><img src = 'uspos/2030.bmp' width = '100%;'></div><div class = 'column'><img src = 'category2/CS2.png' width = '70%;'></div></div>","null","pos","CS","CS","2","category2/CS2.png","","","","",""
"","html-keyboard-response","46","234921","0.0-6.0-2.0-0.19","9nay5s46ya","many_one","0","direct_first","1","lt06no05","0","21","1","1","3","1","","0","1","0","null","","","<div class = 'row'><div class = 'column'><img src = 'category4/CS4.png' width = '70%;'></div><div class = 'column'><img src = 'usneg/8485.bmp' width = '100%;'></div></div>","null","neg","CS","CS","4","category4/CS4.png","","","","",""
"","survey-html-form","47","236925","0.0-6.0-3.0","9nay5s46ya","many_one","0","direct_first","1","lt06no05","0","21","1","1","3","1","","0","1","0","1500.9650001302361","","{}","","","","","","","","","","","",""
"","html-keyboard-response","48","240932","0.0-6.0-4.0-0.0","9nay5s46ya","many_one","0","direct_first","1","lt06no05","0","21","1","1","3","1","","0","1","0","null","","","<div class = 'row'><div class = 'column'><img src = 'uspos/5700.bmp' width = '100%;'></div><div class = 'column'><img src = 'category2/CS10.png' width = '70%;'></div></div>","null","pos","CS","CS","2","category2/CS10.png","","","","",""
"","html-keyboard-response","49","243437","0.0-6.0-4.0-0.1","9nay5s46ya","many_one","0","direct_first","1","lt06no05","0","21","1","1","3","1","","0","1","0","null","","","<div class = 'row'><div class = 'column'><img src = 'category2/CS5.png' width = '70%;'></div><div class = 'column'><img src = 'uspos/2058.bmp' width = '100%;'></div></div>","null","pos","CS","CS","2","category2/CS5.png","","","","",""
"","html-keyboard-response","50","245941","0.0-6.0-4.0-0.2","9nay5s46ya","many_one","0","direct_first","1","lt06no05","0","21","1","1","3","1","","0","1","0","null","","","<div class = 'row'><div class = 'column'><img src = 'category3/CS1.png' width = '70%;'></div><div class = 'column'><img src = 'uspos/2341.bmp' width = '100%;'></div></div>","null","pos","CS","CS","3","category3/CS1.png","","","","",""
"","html-keyboard-response","51","248452","0.0-6.0-4.0-0.3","9nay5s46ya","many_one","0","direct_first","1","lt06no05","0","21","1","1","3","1","","0","1","0","null","","","<div class = 'row'><div class = 'column'><img src = 'category2/CS1.png' width = '70%;'></div><div class = 'column'><img src = 'uspos/2340.bmp' width = '100%;'></div></div>","null","pos","CS","CS","2","category2/CS1.png","","","","",""
"","html-keyboard-response","52","250961","0.0-6.0-4.0-0.4","9nay5s46ya","many_one","0","direct_first","1","lt06no05","0","21","1","1","3","1","","0","1","0","null","","","<div class = 'row'><div class = 'column'><img src = 'usneg/9280.bmp' width = '100%;'></div><div class = 'column'><img src = 'category4/CS3.png' width = '70%;'></div></div>","null","neg","CS","CS","4","category4/CS3.png","","","","",""
"","html-keyboard-response","53","253472","0.0-6.0-4.0-0.5","9nay5s46ya","many_one","0","direct_first","1","lt06no05","0","21","1","1","3","1","","0","1","0","null","","","<div class = 'row'><div class = 'column'><img src = 'category3/CS6.png' width = '70%;'></div><div class = 'column'><img src = 'uspos/2311.bmp' width = '100%;'></div></div>","null","pos","CS","CS","3","category3/CS6.png","","","","",""
"","html-keyboard-response","54","255991","0.0-6.0-4.0-0.6","9nay5s46ya","many_one","0","direct_first","1","lt06no05","0","21","1","1","3","1","","0","1","0","null","","","<div class = 'row'><div class = 'column'><img src = 'category4/CS2.png' width = '70%;'></div><div class = 'column'><img src = 'usneg/6838.bmp' width = '100%;'></div></div>","null","neg","CS","CS","4","category4/CS2.png","","","","",""
"","html-keyboard-response","55","258504","0.0-6.0-4.0-0.7","9nay5s46ya","many_one","0","direct_first","1","lt06no05","0","21","1","1","3","1","","0","1","0","null","","","<div class = 'row'><div class = 'column'><img src = 'usneg/9584.bmp' width = '100%;'></div><div class = 'column'><img src = 'category4/CS6.png' width = '70%;'></div></div>","null","neg","CS","CS","4","category4/CS6.png","","","","",""
"","html-keyboard-response","56","261011","0.0-6.0-4.0-0.8","9nay5s46ya","many_one","0","direct_first","1","lt06no05","0","21","1","1","3","1","","0","1","0","null","","","<div class = 'row'><div class = 'column'><img src = 'usneg/9050.bmp' width = '100%;'></div><div class = 'column'><img src = 'category1/CS9.png' width = '70%;'></div></div>","null","neg","CS","CS","1","category1/CS9.png","","","","",""
"","html-keyboard-response","57","263517","0.0-6.0-4.0-0.9","9nay5s46ya","many_one","0","direct_first","1","lt06no05","0","21","1","1","3","1","","0","1","0","null","","","<div class = 'row'><div class = 'column'><img src = 'category1/CS8.png' width = '70%;'></div><div class = 'column'><img src = 'usneg/2750.bmp' width = '100%;'></div></div>","null","neg","CS","CS","1","category1/CS8.png","","","","",""
"","html-keyboard-response","58","266031","0.0-6.0-4.0-0.10","9nay5s46ya","many_one","0","direct_first","1","lt06no05","0","21","1","1","3","1","","0","1","0","null","","","<div class = 'row'><div class = 'column'><img src = 'category1/CS5.png' width = '70%;'></div><div class = 'column'><img src = 'usneg/3300.bmp' width = '100%;'></div></div>","null","neg","CS","CS","1","category1/CS5.png","","","","",""
"","html-keyboard-response","59","268551","0.0-6.0-4.0-0.11","9nay5s46ya","many_one","0","direct_first","1","lt06no05","0","21","1","1","3","1","","0","1","0","null","","","<div class = 'row'><div class = 'column'><img src = 'category2/CS9.png' width = '70%;'></div><div class = 'column'><img src = 'uspos/8190.bmp' width = '100%;'></div></div>","null","pos","CS","CS","2","category2/CS9.png","","","","",""
"","html-keyboard-response","60","271056","0.0-6.0-4.0-0.12","9nay5s46ya","many_one","0","direct_first","1","lt06no05","0","21","1","1","3","1","","0","1","0","null","","","<div class = 'row'><div class = 'column'><img src = 'uspos/2030.bmp' width = '100%;'></div><div class = 'column'><img src = 'category2/CS2.png' width = '70%;'></div></div>","null","pos","CS","CS","2","category2/CS2.png","","","","",""
"","html-keyboard-response","61","273561","0.0-6.0-4.0-0.13","9nay5s46ya","many_one","0","direct_first","1","lt06no05","0","21","1","1","3","1","","0","1","0","null","","","<div class = 'row'><div class = 'column'><img src = 'category4/CS10.png' width = '70%;'></div><div class = 'column'><img src = 'usneg/6570.1.bmp' width = '100%;'></div></div>","null","neg","CS","CS","4","category4/CS10.png","","","","",""
"","html-keyboard-response","62","276070","0.0-6.0-4.0-0.14","9nay5s46ya","many_one","0","direct_first","1","lt06no05","0","21","1","1","3","1","","0","1","0","null","","","<div class = 'row'><div class = 'column'><img src = 'category3/CS5.png' width = '70%;'></div><div class = 'column'><img src = 'uspos/1710.bmp' width = '100%;'></div></div>","null","pos","CS","CS","3","category3/CS5.png","","","","",""
"","html-keyboard-response","63","278575","0.0-6.0-4.0-0.15","9nay5s46ya","many_one","0","direct_first","1","lt06no05","0","21","1","1","3","1","","0","1","0","null","","","<div class = 'row'><div class = 'column'><img src = 'usneg/9920.bmp' width = '100%;'></div><div class = 'column'><img src = 'category1/CS4.png' width = '70%;'></div></div>","null","neg","CS","CS","1","category1/CS4.png","","","","",""
"","html-keyboard-response","64","281080","0.0-6.0-4.0-0.16","9nay5s46ya","many_one","0","direct_first","1","lt06no05","0","21","1","1","3","1","","0","1","0","null","","","<div class = 'row'><div class = 'column'><img src = 'category1/CS6.png' width = '70%;'></div><div class = 'column'><img src = 'usneg/9340.bmp' width = '100%;'></div></div>","null","neg","CS","CS","1","category1/CS6.png","","","","",""
"","html-keyboard-response","65","283587","0.0-6.0-4.0-0.17","9nay5s46ya","many_one","0","direct_first","1","lt06no05","0","21","1","1","3","1","","0","1","0","null","","","<div class = 'row'><div class = 'column'><img src = 'category3/CS7.png' width = '70%;'></div><div class = 'column'><img src = 'uspos/4625.bmp' width = '100%;'></div></div>","null","pos","CS","CS","3","category3/CS7.png","","","","",""
"","html-keyboard-response","66","286101","0.0-6.0-4.0-0.18","9nay5s46ya","many_one","0","direct_first","1","lt06no05","0","21","1","1","3","1","","0","1","0","null","","","<div class = 'row'><div class = 'column'><img src = 'usneg/8485.bmp' width = '100%;'></div><div class = 'column'><img src = 'category4/CS4.png' width = '70%;'></div></div>","null","neg","CS","CS","4","category4/CS4.png","","","","",""
"","html-keyboard-response","67","288605","0.0-6.0-4.0-0.19","9nay5s46ya","many_one","0","direct_first","1","lt06no05","0","21","1","1","3","1","","0","1","0","null","","","<div class = 'row'><div class = 'column'><img src = 'category3/CS2.png' width = '70%;'></div><div class = 'column'><img src = 'uspos/5830.bmp' width = '100%;'></div></div>","null","pos","CS","CS","3","category3/CS2.png","","","","",""
"","survey-html-form","68","309344","0.0-6.0-5.0","9nay5s46ya","many_one","0","direct_first","1","lt06no05","0","21","1","1","3","1","","0","1","0","20237.35500033945","","{}","","","","","","","","","","","",""
"","html-keyboard-response","69","313361","0.0-6.0-6.0-0.0","9nay5s46ya","many_one","0","direct_first","1","lt06no05","0","21","1","1","3","1","","0","1","0","null","","","<div class = 'row'><div class = 'column'><img src = 'uspos/2058.bmp' width = '100%;'></div><div class = 'column'><img src = 'category2/CS5.png' width = '70%;'></div></div>","null","pos","CS","CS","2","category2/CS5.png","","","","",""
"","html-keyboard-response","70","315871","0.0-6.0-6.0-0.1","9nay5s46ya","many_one","0","direct_first","1","lt06no05","0","21","1","1","3","1","","0","1","0","null","","","<div class = 'row'><div class = 'column'><img src = 'uspos/2340.bmp' width = '100%;'></div><div class = 'column'><img src = 'category2/CS1.png' width = '70%;'></div></div>","null","pos","CS","CS","2","category2/CS1.png","","","","",""
"","html-keyboard-response","71","318384","0.0-6.0-6.0-0.2","9nay5s46ya","many_one","0","direct_first","1","lt06no05","0","21","1","1","3","1","","0","1","0","null","","","<div class = 'row'><div class = 'column'><img src = 'usneg/9050.bmp' width = '100%;'></div><div class = 'column'><img src = 'category1/CS9.png' width = '70%;'></div></div>","null","neg","CS","CS","1","category1/CS9.png","","","","",""
"","html-keyboard-response","72","320888","0.0-6.0-6.0-0.3","9nay5s46ya","many_one","0","direct_first","1","lt06no05","0","21","1","1","3","1","","0","1","0","null","","","<div class = 'row'><div class = 'column'><img src = 'category4/CS4.png' width = '70%;'></div><div class = 'column'><img src = 'usneg/8485.bmp' width = '100%;'></div></div>","null","neg","CS","CS","4","category4/CS4.png","","","","",""
"","html-keyboard-response","73","323397","0.0-6.0-6.0-0.4","9nay5s46ya","many_one","0","direct_first","1","lt06no05","0","21","1","1","3","1","","0","1","0","null","","","<div class = 'row'><div class = 'column'><img src = 'uspos/1710.bmp' width = '100%;'></div><div class = 'column'><img src = 'category3/CS5.png' width = '70%;'></div></div>","null","pos","CS","CS","3","category3/CS5.png","","","","",""
"","html-keyboard-response","74","325902","0.0-6.0-6.0-0.5","9nay5s46ya","many_one","0","direct_first","1","lt06no05","0","21","1","1","3","1","","0","1","0","null","","","<div class = 'row'><div class = 'column'><img src = 'uspos/5700.bmp' width = '100%;'></div><div class = 'column'><img src = 'category2/CS10.png' width = '70%;'></div></div>","null","pos","CS","CS","2","category2/CS10.png","","","","",""
"","html-keyboard-response","75","328407","0.0-6.0-6.0-0.6","9nay5s46ya","many_one","0","direct_first","1","lt06no05","0","21","1","1","3","1","","0","1","0","null","","","<div class = 'row'><div class = 'column'><img src = 'category3/CS2.png' width = '70%;'></div><div class = 'column'><img src = 'uspos/5830.bmp' width = '100%;'></div></div>","null","pos","CS","CS","3","category3/CS2.png","","","","",""
"","html-keyboard-response","76","330921","0.0-6.0-6.0-0.7","9nay5s46ya","many_one","0","direct_first","1","lt06no05","0","21","1","1","3","1","","0","1","0","null","","","<div class = 'row'><div class = 'column'><img src = 'uspos/4625.bmp' width = '100%;'></div><div class = 'column'><img src = 'category3/CS7.png' width = '70%;'></div></div>","null","pos","CS","CS","3","category3/CS7.png","","","","",""
"","html-keyboard-response","77","333426","0.0-6.0-6.0-0.8","9nay5s46ya","many_one","0","direct_first","1","lt06no05","0","21","1","1","3","1","","0","1","0","null","","","<div class = 'row'><div class = 'column'><img src = 'category1/CS8.png' width = '70%;'></div><div class = 'column'><img src = 'usneg/2750.bmp' width = '100%;'></div></div>","null","neg","CS","CS","1","category1/CS8.png","","","","",""
"","html-keyboard-response","78","335931","0.0-6.0-6.0-0.9","9nay5s46ya","many_one","0","direct_first","1","lt06no05","0","21","1","1","3","1","","0","1","0","null","","","<div class = 'row'><div class = 'column'><img src = 'usneg/6570.1.bmp' width = '100%;'></div><div class = 'column'><img src = 'category4/CS10.png' width = '70%;'></div></div>","null","neg","CS","CS","4","category4/CS10.png","","","","",""
"","html-keyboard-response","79","338444","0.0-6.0-6.0-0.10","9nay5s46ya","many_one","0","direct_first","1","lt06no05","0","21","1","1","3","1","","0","1","0","null","","","<div class = 'row'><div class = 'column'><img src = 'category4/CS2.png' width = '70%;'></div><div class = 'column'><img src = 'usneg/6838.bmp' width = '100%;'></div></div>","null","neg","CS","CS","4","category4/CS2.png","","","","",""
"","html-keyboard-response","80","340949","0.0-6.0-6.0-0.11","9nay5s46ya","many_one","0","direct_first","1","lt06no05","0","21","1","1","3","1","","0","1","0","null","","","<div class = 'row'><div class = 'column'><img src = 'uspos/2311.bmp' width = '100%;'></div><div class = 'column'><img src = 'category3/CS6.png' width = '70%;'></div></div>","null","pos","CS","CS","3","category3/CS6.png","","","","",""
"","html-keyboard-response","81","343460","0.0-6.0-6.0-0.12","9nay5s46ya","many_one","0","direct_first","1","lt06no05","0","21","1","1","3","1","","0","1","0","null","","","<div class = 'row'><div class = 'column'><img src = 'usneg/9584.bmp' width = '100%;'></div><div class = 'column'><img src = 'category4/CS6.png' width = '70%;'></div></div>","null","neg","CS","CS","4","category4/CS6.png","","","","",""
"","html-keyboard-response","82","345971","0.0-6.0-6.0-0.13","9nay5s46ya","many_one","0","direct_first","1","lt06no05","0","21","1","1","3","1","","0","1","0","null","","","<div class = 'row'><div class = 'column'><img src = 'category3/CS1.png' width = '70%;'></div><div class = 'column'><img src = 'uspos/2341.bmp' width = '100%;'></div></div>","null","pos","CS","CS","3","category3/CS1.png","","","","",""
"","html-keyboard-response","83","348476","0.0-6.0-6.0-0.14","9nay5s46ya","many_one","0","direct_first","1","lt06no05","0","21","1","1","3","1","","0","1","0","null","","","<div class = 'row'><div class = 'column'><img src = 'category2/CS9.png' width = '70%;'></div><div class = 'column'><img src = 'uspos/8190.bmp' width = '100%;'></div></div>","null","pos","CS","CS","2","category2/CS9.png","","","","",""
"","html-keyboard-response","84","350981","0.0-6.0-6.0-0.15","9nay5s46ya","many_one","0","direct_first","1","lt06no05","0","21","1","1","3","1","","0","1","0","null","","","<div class = 'row'><div class = 'column'><img src = 'category1/CS5.png' width = '70%;'></div><div class = 'column'><img src = 'usneg/3300.bmp' width = '100%;'></div></div>","null","neg","CS","CS","1","category1/CS5.png","","","","",""
"","html-keyboard-response","85","353487","0.0-6.0-6.0-0.16","9nay5s46ya","many_one","0","direct_first","1","lt06no05","0","21","1","1","3","1","","0","1","0","null","","","<div class = 'row'><div class = 'column'><img src = 'usneg/9340.bmp' width = '100%;'></div><div class = 'column'><img src = 'category1/CS6.png' width = '70%;'></div></div>","null","neg","CS","CS","1","category1/CS6.png","","","","",""
"","html-keyboard-response","86","355992","0.0-6.0-6.0-0.17","9nay5s46ya","many_one","0","direct_first","1","lt06no05","0","21","1","1","3","1","","0","1","0","null","","","<div class = 'row'><div class = 'column'><img src = 'usneg/9280.bmp' width = '100%;'></div><div class = 'column'><img src = 'category4/CS3.png' width = '70%;'></div></div>","null","neg","CS","CS","4","category4/CS3.png","","","","",""
"","html-keyboard-response","87","358501","0.0-6.0-6.0-0.18","9nay5s46ya","many_one","0","direct_first","1","lt06no05","0","21","1","1","3","1","","0","1","0","null","","","<div class = 'row'><div class = 'column'><img src = 'uspos/2030.bmp' width = '100%;'></div><div class = 'column'><img src = 'category2/CS2.png' width = '70%;'></div></div>","null","pos","CS","CS","2","category2/CS2.png","","","","",""
"","html-keyboard-response","88","361011","0.0-6.0-6.0-0.19","9nay5s46ya","many_one","0","direct_first","1","lt06no05","0","21","1","1","3","1","","0","1","0","null","","","<div class = 'row'><div class = 'column'><img src = 'usneg/9920.bmp' width = '100%;'></div><div class = 'column'><img src = 'category1/CS4.png' width = '70%;'></div></div>","null","neg","CS","CS","1","category1/CS4.png","","","","",""
"","survey-html-form","89","369783","0.0-7.0","9nay5s46ya","many_one","0","direct_first","1","lt06no05","0","21","1","1","3","1","","0","1","0","8270.459999796003","","{}","","","","","","","","","","","",""
"","image-slider-response","90","377763","0.0-8.0-0.0","9nay5s46ya","many_one","0","direct_first","1","lt06no05","0","21","1","1","3","1","","0","1","0","5973.075000103563","","","","","pos","CS","CS","3","category3/CS7.png","61","targets/3.png","direct","",""
"","image-slider-response","91","382001","0.0-8.0-0.1","9nay5s46ya","many_one","0","direct_first","1","lt06no05","0","21","1","1","3","1","","0","1","0","4232.679999899119","","","","","neg","CS","CS","1","category1/CS8.png","-49","targets/29.png","direct","",""
"","image-slider-response","92","386233","0.0-8.0-0.2","9nay5s46ya","many_one","0","direct_first","1","lt06no05","0","21","1","1","3","1","","0","1","0","4229.274999815971","","","","","neg","GS","GSnew","4","category4/GS1.png","-54","targets/38.png","direct","",""
"","image-slider-response","93","389253","0.0-8.0-0.3","9nay5s46ya","many_one","0","direct_first","1","lt06no05","0","21","1","1","3","1","","0","1","0","3016.079999972135","","","","","pos","GS","GSnew","3","category3/GS3.png","68","targets/19.png","direct","",""
"","image-slider-response","94","393063","0.0-8.0-0.4","9nay5s46ya","many_one","0","direct_first","1","lt06no05","0","21","1","1","3","1","","0","1","0","3805.5749996565282","","","","","neg","GS","GSnew","1","category1/GS1.png","73","targets/39.png","direct","",""
"","image-slider-response","95","396797","0.0-8.0-0.5","9nay5s46ya","many_one","0","direct_first","1","lt06no05","0","21","1","1","3","1","","0","1","0","3729.344999883324","","","","","neg","CS","CS","4","category4/CS2.png","-88","targets/48.png","direct","",""
"","image-slider-response","96","400700","0.0-8.0-0.6","9nay5s46ya","many_one","0","direct_first","1","lt06no05","0","21","1","1","3","1","","0","1","0","3898.8100001588464","","","","","pos","GS","GSold","2","category2/CS6.png","96","targets/23.png","direct","",""
"","image-slider-response","97","403731","0.0-8.0-0.7","9nay5s46ya","many_one","0","direct_first","1","lt06no05","0","21","1","1","3","1","","0","1","0","3027.5250002741814","","","","","neg","GS","GSold","1","category1/CS3.png","-30","targets/30.png","direct","",""
"","image-slider-response","98","407811","0.0-8.0-0.8","9nay5s46ya","many_one","0","direct_first","1","lt06no05","0","21","1","1","3","1","","0","1","0","4077.1099999547005","","","","","pos","CS","CS","2","category2/CS5.png","-65","targets/13.png","direct","",""
"","image-slider-response","99","410984","0.0-8.0-0.9","9nay5s46ya","many_one","0","direct_first","1","lt06no05","0","21","1","1","3","1","","0","1","0","3167.6650000736117","","","","","neg","GS","GSnew","4","category4/GS3.png","-78","targets/36.png","direct","",""
"","image-slider-response","100","414232","0.0-8.0-0.10","9nay5s46ya","many_one","0","direct_first","1","lt06no05","0","21","1","1","3","1","","0","1","0","3243.935000151396","","","","","pos","GS","GSold","3","category3/CS10.png","33","targets/11.png","direct","",""
"","image-slider-response","101","420841","0.0-8.0-0.11","9nay5s46ya","many_one","0","direct_first","1","lt06no05","0","21","1","1","3","1","","0","1","0","6606.780000030994","","","","","pos","CS","CS","2","category2/CS10.png","80","targets/24.png","direct","",""
"","image-slider-response","102","424997","0.0-8.0-0.12","9nay5s46ya","many_one","0","direct_first","1","lt06no05","0","21","1","1","3","1","","0","1","0","4153.985000215471","","","","","neg","CS","CS","4","category4/CS6.png","-58","targets/40.png","direct","",""
"","image-slider-response","103","428219","0.0-8.0-0.13","9nay5s46ya","many_one","0","direct_first","1","lt06no05","0","21","1","1","3","1","","0","1","0","3218.804999720305","","","","","pos","GS","GSnew","2","category2/GS2.png","-77","targets/14.png","direct","",""
"","image-slider-response","104","431551","0.0-8.0-0.14","9nay5s46ya","many_one","0","direct_first","1","lt06no05","0","21","1","1","3","1","","0","1","0","3326.989999972284","","","","","neg","GS","GSold","1","category1/CS7.png","-65","targets/8.png","direct","",""
"","image-slider-response","105","434374","0.0-8.0-0.15","9nay5s46ya","many_one","0","direct_first","1","lt06no05","0","21","1","1","3","1","","0","1","0","2820.619999896735","","","","","neg","CS","CS","4","category4/CS4.png","56","targets/10.png","direct","",""
"","image-slider-response","106","437360","0.0-8.0-0.16","9nay5s46ya","many_one","0","direct_first","1","lt06no05","0","21","1","1","3","1","","0","1","0","2980.9799999929965","","","","","neg","GS","GSold","4","category4/CS5.png","-52","targets/20.png","direct","",""
"","image-slider-response","107","440032","0.0-8.0-0.17","9nay5s46ya","many_one","0","direct_first","1","lt06no05","0","21","1","1","3","1","","0","1","0","2667.1500001102686","","","","","pos","CS","CS","2","category2/CS1.png","71","targets/47.png","direct","",""
"","image-slider-response","108","444973","0.0-8.0-0.18","9nay5s46ya","many_one","0","direct_first","1","lt06no05","0","21","1","1","3","1","","0","1","0","4936.599999666214","","","","","pos","GS","GSold","2","category2/CS8.png","61","targets/1.png","direct","",""
"","image-slider-response","109","448623","0.0-8.0-0.19","9nay5s46ya","many_one","0","direct_first","1","lt06no05","0","21","1","1","3","1","","0","1","0","3645.6149998120964","","","","","neg","CS","CS","4","category4/CS10.png","66","targets/46.png","direct","",""
"","image-slider-response","110","454058","0.0-8.0-0.20","9nay5s46ya","many_one","0","direct_first","1","lt06no05","0","21","1","1","3","1","","0","1","0","5431.420000270009","","","","","pos","GS","GSnew","2","category2/GS3.png","-57","targets/12.png","direct","",""
"","image-slider-response","111","457030","0.0-8.0-0.21","9nay5s46ya","many_one","0","direct_first","1","lt06no05","0","21","1","1","3","1","","0","1","0","2970.2950003556907","","","","","pos","GS","abstract","3","category3/wang.png","89","targets/43.png","direct","",""
"","image-slider-response","112","459670","0.0-8.0-0.22","9nay5s46ya","many_one","0","direct_first","1","lt06no05","0","21","1","1","3","1","","0","1","0","2638.1699997000396","","","","","pos","GS","GSold","3","category3/CS4.png","-46","targets/33.png","direct","",""
"","image-slider-response","113","463340","0.0-8.0-0.23","9nay5s46ya","many_one","0","direct_first","1","lt06no05","0","21","1","1","3","1","","0","1","0","3668.5349997133017","","","","","pos","GS","GSnew","3","category3/GS2.png","-29","targets/26.png","direct","",""
"","image-slider-response","114","466551","0.0-8.0-0.24","9nay5s46ya","many_one","0","direct_first","1","lt06no05","0","21","1","1","3","1","","0","1","0","3208.139999769628","","","","","neg","GS","GSold","4","category4/CS1.png","68","targets/17.png","direct","",""
"","image-slider-response","115","471294","0.0-8.0-0.25","9nay5s46ya","many_one","0","direct_first","1","lt06no05","0","21","1","1","3","1","","0","1","0","4741.520000156015","","","","","pos","CS","CS","2","category2/CS9.png","-63","targets/21.png","direct","",""
"","image-slider-response","116","473842","0.0-8.0-0.26","9nay5s46ya","many_one","0","direct_first","1","lt06no05","0","21","1","1","3","1","","0","1","0","2545.5050002783537","","","","","neg","GS","GSold","4","category4/CS8.png","51","targets/28.png","direct","",""
"","image-slider-response","117","477231","0.0-8.0-0.27","9nay5s46ya","many_one","0","direct_first","1","lt06no05","0","21","1","1","3","1","","0","1","0","3387.645000126213","","","","","neg","GS","abstract","1","category1/ma.png","63","targets/22.png","direct","",""
"","image-slider-response","118","480142","0.0-8.0-0.28","9nay5s46ya","many_one","0","direct_first","1","lt06no05","0","21","1","1","3","1","","0","1","0","2909.059999976307","","","","","neg","CS","CS","4","category4/CS3.png","-45","targets/2.png","direct","",""
"","image-slider-response","119","483268","0.0-8.0-0.29","9nay5s46ya","many_one","0","direct_first","1","lt06no05","0","21","1","1","3","1","","0","1","0","3124.3300000205636","","","","","pos","GS","GSnew","2","category2/GS1.png","-55","targets/37.png","direct","",""
"","image-slider-response","120","485949","0.0-8.0-0.30","9nay5s46ya","many_one","0","direct_first","1","lt06no05","0","21","1","1","3","1","","0","1","0","2679.7000002115965","","","","","pos","CS","CS","3","category3/CS5.png","90","targets/32.png","direct","",""
"","image-slider-response","121","488920","0.0-8.0-0.31","9nay5s46ya","many_one","0","direct_first","1","lt06no05","0","21","1","1","3","1","","0","1","0","2969.1400001756847","","","","","neg","GS","GSnew","1","category1/GS2.png","58","targets/45.png","direct","",""
"","image-slider-response","122","492671","0.0-8.0-0.32","9nay5s46ya","many_one","0","direct_first","1","lt06no05","0","21","1","1","3","1","","0","1","0","3748.945000115782","","","","","neg","GS","GSnew","4","category4/GS2.png","-52","targets/16.png","direct","",""
"","image-slider-response","123","497875","0.0-8.0-0.33","9nay5s46ya","many_one","0","direct_first","1","lt06no05","0","21","1","1","3","1","","0","1","0","5202.079999726266","","","","","neg","CS","CS","1","category1/CS9.png","-21","targets/15.png","direct","",""
"","image-slider-response","124","502501","0.0-8.0-0.34","9nay5s46ya","many_one","0","direct_first","1","lt06no05","0","21","1","1","3","1","","0","1","0","4624.014999717474","","","","","pos","CS","CS","2","category2/CS2.png","-37","targets/42.png","direct","",""
"","image-slider-response","125","504919","0.0-8.0-0.35","9nay5s46ya","many_one","0","direct_first","1","lt06no05","0","21","1","1","3","1","","0","1","0","2416.5349998511374","","","","","pos","CS","CS","3","category3/CS2.png","59","targets/7.png","direct","",""
"","image-slider-response","126","509061","0.0-8.0-0.36","9nay5s46ya","many_one","0","direct_first","1","lt06no05","0","21","1","1","3","1","","0","1","0","4139.719999860972","","","","","pos","GS","abstract","2","category2/men.png","51","targets/41.png","direct","",""
"","image-slider-response","127","513904","0.0-8.0-0.37","9nay5s46ya","many_one","0","direct_first","1","lt06no05","0","21","1","1","3","1","","0","1","0","4840.995000209659","","","","","pos","GS","GSold","2","category2/CS7.png","-28","targets/27.png","direct","",""
"","image-slider-response","128","516673","0.0-8.0-0.38","9nay5s46ya","many_one","0","direct_first","1","lt06no05","0","21","1","1","3","1","","0","1","0","2767.0900002121925","","","","","pos","GS","GSold","3","category3/CS3.png","73","targets/25.png","direct","",""
"","image-slider-response","129","519703","0.0-8.0-0.39","9nay5s46ya","many_one","0","direct_first","1","lt06no05","0","21","1","1","3","1","","0","1","0","3029.6249999664724","","","","","pos","CS","CS","3","category3/CS6.png","27","targets/34.png","direct","",""
"","image-slider-response","130","522718","0.0-8.0-0.40","9nay5s46ya","many_one","0","direct_first","1","lt06no05","0","21","1","1","3","1","","0","1","0","3012.980000115931","","","","","pos","GS","GSnew","3","category3/GS1.png","69","targets/35.png","direct","",""
"","image-slider-response","131","527031","0.0-8.0-0.41","9nay5s46ya","many_one","0","direct_first","1","lt06no05","0","21","1","1","3","1","","0","1","0","4311.205000150949","","","","","neg","GS","abstract","4","category4/lin.png","36","targets/6.png","direct","",""
"","image-slider-response","132","529717","0.0-8.0-0.42","9nay5s46ya","many_one","0","direct_first","1","lt06no05","0","21","1","1","3","1","","0","1","0","2684.4550003297627","","","","","neg","CS","CS","1","category1/CS4.png","-42","targets/31.png","direct","",""
"","image-slider-response","133","532231","0.0-8.0-0.43","9nay5s46ya","many_one","0","direct_first","1","lt06no05","0","21","1","1","3","1","","0","1","0","2512.3000000603497","","","","","neg","CS","CS","1","category1/CS6.png","-32","targets/9.png","direct","",""
"","image-slider-response","134","536324","0.0-8.0-0.44","9nay5s46ya","many_one","0","direct_first","1","lt06no05","0","21","1","1","3","1","","0","1","0","4091.8399998918176","","","","","neg","GS","GSnew","1","category1/GS3.png","46","targets/5.png","direct","",""
"","image-slider-response","135","539247","0.0-8.0-0.45","9nay5s46ya","many_one","0","direct_first","1","lt06no05","0","21","1","1","3","1","","0","1","0","2920.535000041127","","","","","neg","GS","GSold","1","category1/CS10.png","-26","targets/44.png","direct","",""
"","image-slider-response","136","541801","0.0-8.0-0.46","9nay5s46ya","many_one","0","direct_first","1","lt06no05","0","21","1","1","3","1","","0","1","0","2552.545000333339","","","","","pos","CS","CS","3","category3/CS1.png","75","targets/18.png","direct","",""
"","image-slider-response","137","546405","0.0-8.0-0.47","9nay5s46ya","many_one","0","direct_first","1","lt06no05","0","21","1","1","3","1","","0","1","0","4602.895000018179","","","","","neg","CS","CS","1","category1/CS5.png","-46","targets/4.png","direct","",""
"","html-keyboard-response","138","582009","0.0-9.0","9nay5s46ya","many_one","0","direct_first","1","lt06no05","0","21","1","1","3","1","","0","1","0","35601.624999661","","","<p>Sie sehen nun die chinesischen Zeichen nur ganz kurz. Danach sehen Sie die jeweilige Aussprache der Zeichen als Silbe auf dem Bildschrim. Ihre Aufgabe ist es, für jede Silbe anzugeben, ob diese etwas angenehmes, oder unangenehmes bedeuten könnte. Verlassen Sie sich hier vor allem auf Ihre Intuition.<br><br>Die Zeichen werden nur zur Orientierung dargestellt, beachten Sie sie deshalb nicht. Konzentrieren Sie sich vor allem auf die Silben. <br>Reagieren Sie mit folgenden zwei Tasten: <br><br><b>'D' </b> wenn die Silbe etwas <b>unangenehmes</b> bedeuten könnte. <br><b>'K'</b> wenn die Silbe etwas <b>angenehmes</b> bedeuten könnte. <br><br>Bitte legen Sie nun den Zeigefinger der linken Hand auf die Taste 'D' und den Zeigefinger der rechten Hand auf die Taste 'K'. <br>Reagieren Sie auf jede Silbe so schnell wie möglich. Uns interessiert Ihre spontane Reaktion. <br> <br> <br>Drücken Sie 'D' oder 'K', um die nächste Aufgabe zu starten. </p>","75","","","","","","","","","",""
"","html-keyboard-response","139","585016","0.0-10.0-0.0","9nay5s46ya","many_one","0","direct_first","1","lt06no05","0","21","1","1","3","1","","0","1","0","null","","","<div style=""font-size:60px;"">+</div>","null","","","","","","","","","",""
"","html-keyboard-response","140","585113","0.0-10.0-1.0","9nay5s46ya","many_one","0","direct_first","1","lt06no05","0","21","1","1","3","1","","0","1","0","null","","","<img src = 'category1/CS8.png' width = '100%;'>","null","","","","","","","","","",""
"","html-keyboard-response","141","585368","0.0-10.0-2.0","9nay5s46ya","many_one","0","direct_first","1","lt06no05","0","21","1","1","3","1","","0","1","0","null","","","<img src = 'targets/29.png' width = '100%;'>","null","","","","","","","","","",""
"","html-keyboard-response","142","588575","0.0-10.0-3.0","9nay5s46ya","many_one","0","direct_first","1","lt06no05","0","21","1","1","3","1","","0","1","0","3205.155000090599","","","<img src = 'targets/mask.png' width = '100%;'>","75","neg","CS","CS","1","category1/CS8.png","","targets/29.png","indirect","1","0"
"","html-keyboard-response","143","590090","0.0-10.0-0.1","9nay5s46ya","many_one","0","direct_first","1","lt06no05","0","21","1","1","3","1","","0","1","0","null","","","<div style=""font-size:60px;"">+</div>","null","","","","","","","","","",""
"","html-keyboard-response","144","590193","0.0-10.0-1.1","9nay5s46ya","many_one","0","direct_first","1","lt06no05","0","21","1","1","3","1","","0","1","0","null","","","<img src = 'category1/CS5.png' width = '100%;'>","null","","","","","","","","","",""
"","html-keyboard-response","145","590457","0.0-10.0-2.1","9nay5s46ya","many_one","0","direct_first","1","lt06no05","0","21","1","1","3","1","","0","1","0","null","","","<img src = 'targets/4.png' width = '100%;'>","null","","","","","","","","","",""
"","html-keyboard-response","146","591640","0.0-10.0-3.1","9nay5s46ya","many_one","0","direct_first","1","lt06no05","0","21","1","1","3","1","","0","1","0","1180.9249999932945","","","<img src = 'targets/mask.png' width = '100%;'>","68","neg","CS","CS","1","category1/CS5.png","","targets/4.png","indirect","0","1"
"","html-keyboard-response","147","593170","0.0-10.0-0.2","9nay5s46ya","many_one","0","direct_first","1","lt06no05","0","21","1","1","3","1","","0","1","0","null","","","<div style=""font-size:60px;"">+</div>","null","","","","","","","","","",""
"","html-keyboard-response","148","593273","0.0-10.0-1.2","9nay5s46ya","many_one","0","direct_first","1","lt06no05","0","21","1","1","3","1","","0","1","0","null","","","<img src = 'category2/CS6.png' width = '100%;'>","null","","","","","","","","","",""
"","html-keyboard-response","149","593536","0.0-10.0-2.2","9nay5s46ya","many_one","0","direct_first","1","lt06no05","0","21","1","1","3","1","","0","1","0","null","","","<img src = 'targets/23.png' width = '100%;'>","null","","","","","","","","","",""
"","html-keyboard-response","150","594226","0.0-10.0-3.2","9nay5s46ya","many_one","0","direct_first","1","lt06no05","0","21","1","1","3","1","","0","1","0","688.8200002722442","","","<img src = 'targets/mask.png' width = '100%;'>","75","pos","GS","GSold","2","category2/CS6.png","","targets/23.png","indirect","1","2"
"","html-keyboard-response","151","595741","0.0-10.0-0.3","9nay5s46ya","many_one","0","direct_first","1","lt06no05","0","21","1","1","3","1","","0","1","0","null","","","<div style=""font-size:60px;"">+</div>","null","","","","","","","","","",""
"","html-keyboard-response","152","595837","0.0-10.0-1.3","9nay5s46ya","many_one","0","direct_first","1","lt06no05","0","21","1","1","3","1","","0","1","0","null","","","<img src = 'category4/CS6.png' width = '100%;'>","null","","","","","","","","","",""
"","html-keyboard-response","153","596094","0.0-10.0-2.3","9nay5s46ya","many_one","0","direct_first","1","lt06no05","0","21","1","1","3","1","","0","1","0","null","","","<img src = 'targets/40.png' width = '100%;'>","null","","","","","","","","","",""
"","html-keyboard-response","154","598835","0.0-10.0-3.3","9nay5s46ya","many_one","0","direct_first","1","lt06no05","0","21","1","1","3","1","","0","1","0","2738.900000229478","","","<img src = 'targets/mask.png' width = '100%;'>","68","neg","CS","CS","4","category4/CS6.png","","targets/40.png","indirect","0","3"
"","html-keyboard-response","155","600360","0.0-10.0-0.4","9nay5s46ya","many_one","0","direct_first","1","lt06no05","0","21","1","1","3","1","","0","1","0","null","","","<div style=""font-size:60px;"">+</div>","null","","","","","","","","","",""
"","html-keyboard-response","156","600456","0.0-10.0-1.4","9nay5s46ya","many_one","0","direct_first","1","lt06no05","0","21","1","1","3","1","","0","1","0","null","","","<img src = 'category2/CS9.png' width = '100%;'>","null","","","","","","","","","",""
"","html-keyboard-response","157","600714","0.0-10.0-2.4","9nay5s46ya","many_one","0","direct_first","1","lt06no05","0","21","1","1","3","1","","0","1","0","null","","","<img src = 'targets/21.png' width = '100%;'>","null","","","","","","","","","",""
"","html-keyboard-response","158","601331","0.0-10.0-3.4","9nay5s46ya","many_one","0","direct_first","1","lt06no05","0","21","1","1","3","1","","0","1","0","615.3499996289611","","","<img src = 'targets/mask.png' width = '100%;'>","75","pos","CS","CS","2","category2/CS9.png","","targets/21.png","indirect","1","4"
"","html-keyboard-response","159","602849","0.0-10.0-0.5","9nay5s46ya","many_one","0","direct_first","1","lt06no05","0","21","1","1","3","1","","0","1","0","null","","","<div style=""font-size:60px;"">+</div>","null","","","","","","","","","",""
"","html-keyboard-response","160","602945","0.0-10.0-1.5","9nay5s46ya","many_one","0","direct_first","1","lt06no05","0","21","1","1","3","1","","0","1","0","null","","","<img src = 'category4/CS3.png' width = '100%;'>","null","","","","","","","","","",""
"","html-keyboard-response","161","603212","0.0-10.0-2.5","9nay5s46ya","many_one","0","direct_first","1","lt06no05","0","21","1","1","3","1","","0","1","0","null","","","<img src = 'targets/2.png' width = '100%;'>","null","","","","","","","","","",""
"","html-keyboard-response","162","603714","0.0-10.0-3.5","9nay5s46ya","many_one","0","direct_first","1","lt06no05","0","21","1","1","3","1","","0","1","0","500.3299997188151","","","<img src = 'targets/mask.png' width = '100%;'>","75","neg","CS","CS","4","category4/CS3.png","","targets/2.png","indirect","1","5"
"","html-keyboard-response","163","605232","0.0-10.0-0.6","9nay5s46ya","many_one","0","direct_first","1","lt06no05","0","21","1","1","3","1","","0","1","0","null","","","<div style=""font-size:60px;"">+</div>","null","","","","","","","","","",""
"","html-keyboard-response","164","605327","0.0-10.0-1.6","9nay5s46ya","many_one","0","direct_first","1","lt06no05","0","21","1","1","3","1","","0","1","0","null","","","<img src = 'category3/CS5.png' width = '100%;'>","null","","","","","","","","","",""
"","html-keyboard-response","165","605591","0.0-10.0-2.6","9nay5s46ya","many_one","0","direct_first","1","lt06no05","0","21","1","1","3","1","","0","1","0","null","","","<img src = 'targets/32.png' width = '100%;'>","null","","","","","","","","","",""
"","html-keyboard-response","166","606083","0.0-10.0-3.6","9nay5s46ya","many_one","0","direct_first","1","lt06no05","0","21","1","1","3","1","","0","1","0","489.62000012397766","","","<img src = 'targets/mask.png' width = '100%;'>","68","pos","CS","CS","3","category3/CS5.png","","targets/32.png","indirect","0","6"
"","html-keyboard-response","167","607593","0.0-10.0-0.7","9nay5s46ya","many_one","0","direct_first","1","lt06no05","0","21","1","1","3","1","","0","1","0","null","","","<div style=""font-size:60px;"">+</div>","null","","","","","","","","","",""
"","html-keyboard-response","168","607689","0.0-10.0-1.7","9nay5s46ya","many_one","0","direct_first","1","lt06no05","0","21","1","1","3","1","","0","1","0","null","","","<img src = 'category4/CS8.png' width = '100%;'>","null","","","","","","","","","",""
"","html-keyboard-response","169","607952","0.0-10.0-2.7","9nay5s46ya","many_one","0","direct_first","1","lt06no05","0","21","1","1","3","1","","0","1","0","null","","","<img src = 'targets/28.png' width = '100%;'>","null","","","","","","","","","",""
"","html-keyboard-response","170","608463","0.0-10.0-3.7","9nay5s46ya","many_one","0","direct_first","1","lt06no05","0","21","1","1","3","1","","0","1","0","508.6599998176098","","","<img src = 'targets/mask.png' width = '100%;'>","75","neg","GS","GSold","4","category4/CS8.png","","targets/28.png","indirect","1","7"
"","html-keyboard-response","171","609974","0.0-10.0-0.8","9nay5s46ya","many_one","0","direct_first","1","lt06no05","0","21","1","1","3","1","","0","1","0","null","","","<div style=""font-size:60px;"">+</div>","null","","","","","","","","","",""
"","html-keyboard-response","172","610081","0.0-10.0-1.8","9nay5s46ya","many_one","0","direct_first","1","lt06no05","0","21","1","1","3","1","","0","1","0","null","","","<img src = 'category3/CS2.png' width = '100%;'>","null","","","","","","","","","",""
"","html-keyboard-response","173","610344","0.0-10.0-2.8","9nay5s46ya","many_one","0","direct_first","1","lt06no05","0","21","1","1","3","1","","0","1","0","null","","","<img src = 'targets/7.png' width = '100%;'>","null","","","","","","","","","",""
"","html-keyboard-response","174","610788","0.0-10.0-3.8","9nay5s46ya","many_one","0","direct_first","1","lt06no05","0","21","1","1","3","1","","0","1","0","442.9000001400709","","","<img src = 'targets/mask.png' width = '100%;'>","75","pos","CS","CS","3","category3/CS2.png","","targets/7.png","indirect","1","8"
"","html-keyboard-response","175","612305","0.0-10.0-0.9","9nay5s46ya","many_one","0","direct_first","1","lt06no05","0","21","1","1","3","1","","0","1","0","null","","","<div style=""font-size:60px;"">+</div>","null","","","","","","","","","",""
"","html-keyboard-response","176","612409","0.0-10.0-1.9","9nay5s46ya","many_one","0","direct_first","1","lt06no05","0","21","1","1","3","1","","0","1","0","null","","","<img src = 'category4/CS4.png' width = '100%;'>","null","","","","","","","","","",""
"","html-keyboard-response","177","612671","0.0-10.0-2.9","9nay5s46ya","many_one","0","direct_first","1","lt06no05","0","21","1","1","3","1","","0","1","0","null","","","<img src = 'targets/10.png' width = '100%;'>","null","","","","","","","","","",""
"","html-keyboard-response","178","613201","0.0-10.0-3.9","9nay5s46ya","many_one","0","direct_first","1","lt06no05","0","21","1","1","3","1","","0","1","0","528.154999949038","","","<img src = 'targets/mask.png' width = '100%;'>","75","neg","CS","CS","4","category4/CS4.png","","targets/10.png","indirect","1","9"
"","html-keyboard-response","179","614711","0.0-10.0-0.10","9nay5s46ya","many_one","0","direct_first","1","lt06no05","0","21","1","1","3","1","","0","1","0","null","","","<div style=""font-size:60px;"">+</div>","null","","","","","","","","","",""
"","html-keyboard-response","180","614807","0.0-10.0-1.10","9nay5s46ya","many_one","0","direct_first","1","lt06no05","0","21","1","1","3","1","","0","1","0","null","","","<img src = 'category1/CS9.png' width = '100%;'>","null","","","","","","","","","",""
"","html-keyboard-response","181","615077","0.0-10.0-2.10","9nay5s46ya","many_one","0","direct_first","1","lt06no05","0","21","1","1","3","1","","0","1","0","null","","","<img src = 'targets/15.png' width = '100%;'>","null","","","","","","","","","",""
"","html-keyboard-response","182","615794","0.0-10.0-3.10","9nay5s46ya","many_one","0","direct_first","1","lt06no05","0","21","1","1","3","1","","0","1","0","715.7450001686811","","","<img src = 'targets/mask.png' width = '100%;'>","75","neg","CS","CS","1","category1/CS9.png","","targets/15.png","indirect","1","10"
"","html-keyboard-response","183","617320","0.0-10.0-0.11","9nay5s46ya","many_one","0","direct_first","1","lt06no05","0","21","1","1","3","1","","0","1","0","null","","","<div style=""font-size:60px;"">+</div>","null","","","","","","","","","",""
"","html-keyboard-response","184","617424","0.0-10.0-1.11","9nay5s46ya","many_one","0","direct_first","1","lt06no05","0","21","1","1","3","1","","0","1","0","null","","","<img src = 'category4/CS5.png' width = '100%;'>","null","","","","","","","","","",""
"","html-keyboard-response","185","617698","0.0-10.0-2.11","9nay5s46ya","many_one","0","direct_first","1","lt06no05","0","21","1","1","3","1","","0","1","0","null","","","<img src = 'targets/20.png' width = '100%;'>","null","","","","","","","","","",""
"","html-keyboard-response","186","618339","0.0-10.0-3.11","9nay5s46ya","many_one","0","direct_first","1","lt06no05","0","21","1","1","3","1","","0","1","0","639.8800001479685","","","<img src = 'targets/mask.png' width = '100%;'>","75","neg","GS","GSold","4","category4/CS5.png","","targets/20.png","indirect","1","11"
"","html-keyboard-response","187","619860","0.0-10.0-0.12","9nay5s46ya","many_one","0","direct_first","1","lt06no05","0","21","1","1","3","1","","0","1","0","null","","","<div style=""font-size:60px;"">+</div>","null","","","","","","","","","",""
"","html-keyboard-response","188","619963","0.0-10.0-1.12","9nay5s46ya","many_one","0","direct_first","1","lt06no05","0","21","1","1","3","1","","0","1","0","null","","","<img src = 'category2/CS5.png' width = '100%;'>","null","","","","","","","","","",""
"","html-keyboard-response","189","620220","0.0-10.0-2.12","9nay5s46ya","many_one","0","direct_first","1","lt06no05","0","21","1","1","3","1","","0","1","0","null","","","<img src = 'targets/13.png' width = '100%;'>","null","","","","","","","","","",""
"","html-keyboard-response","190","620974","0.0-10.0-3.12","9nay5s46ya","many_one","0","direct_first","1","lt06no05","0","21","1","1","3","1","","0","1","0","750.450000166893","","","<img src = 'targets/mask.png' width = '100%;'>","75","pos","CS","CS","2","category2/CS5.png","","targets/13.png","indirect","1","12"
"","html-keyboard-response","191","622494","0.0-10.0-0.13","9nay5s46ya","many_one","0","direct_first","1","lt06no05","0","21","1","1","3","1","","0","1","0","null","","","<div style=""font-size:60px;"">+</div>","null","","","","","","","","","",""
"","html-keyboard-response","192","622590","0.0-10.0-1.13","9nay5s46ya","many_one","0","direct_first","1","lt06no05","0","21","1","1","3","1","","0","1","0","null","","","<img src = 'category4/CS2.png' width = '100%;'>","null","","","","","","","","","",""
"","html-keyboard-response","193","622854","0.0-10.0-2.13","9nay5s46ya","many_one","0","direct_first","1","lt06no05","0","21","1","1","3","1","","0","1","0","null","","","<img src = 'targets/48.png' width = '100%;'>","null","","","","","","","","","",""
"","html-keyboard-response","194","623623","0.0-10.0-3.13","9nay5s46ya","many_one","0","direct_first","1","lt06no05","0","21","1","1","3","1","","0","1","0","766.960000153631","","","<img src = 'targets/mask.png' width = '100%;'>","68","neg","CS","CS","4","category4/CS2.png","","targets/48.png","indirect","0","13"
"","html-keyboard-response","195","625135","0.0-10.0-0.14","9nay5s46ya","many_one","0","direct_first","1","lt06no05","0","21","1","1","3","1","","0","1","0","null","","","<div style=""font-size:60px;"">+</div>","null","","","","","","","","","",""
"","html-keyboard-response","196","625239","0.0-10.0-1.14","9nay5s46ya","many_one","0","direct_first","1","lt06no05","0","21","1","1","3","1","","0","1","0","null","","","<img src = 'category1/CS6.png' width = '100%;'>","null","","","","","","","","","",""
"","html-keyboard-response","197","625511","0.0-10.0-2.14","9nay5s46ya","many_one","0","direct_first","1","lt06no05","0","21","1","1","3","1","","0","1","0","null","","","<img src = 'targets/9.png' width = '100%;'>","null","","","","","","","","","",""
"","html-keyboard-response","198","626341","0.0-10.0-3.14","9nay5s46ya","many_one","0","direct_first","1","lt06no05","0","21","1","1","3","1","","0","1","0","828.2750002108514","","","<img src = 'targets/mask.png' width = '100%;'>","68","neg","CS","CS","1","category1/CS6.png","","targets/9.png","indirect","0","14"
"","html-keyboard-response","199","627867","0.0-10.0-0.15","9nay5s46ya","many_one","0","direct_first","1","lt06no05","0","21","1","1","3","1","","0","1","0","null","","","<div style=""font-size:60px;"">+</div>","null","","","","","","","","","",""
"","html-keyboard-response","200","627971","0.0-10.0-1.15","9nay5s46ya","many_one","0","direct_first","1","lt06no05","0","21","1","1","3","1","","0","1","0","null","","","<img src = 'category2/CS2.png' width = '100%;'>","null","","","","","","","","","",""
"","html-keyboard-response","201","628238","0.0-10.0-2.15","9nay5s46ya","many_one","0","direct_first","1","lt06no05","0","21","1","1","3","1","","0","1","0","null","","","<img src = 'targets/42.png' width = '100%;'>","null","","","","","","","","","",""
"","html-keyboard-response","202","628856","0.0-10.0-3.15","9nay5s46ya","many_one","0","direct_first","1","lt06no05","0","21","1","1","3","1","","0","1","0","614.950000308454","","","<img src = 'targets/mask.png' width = '100%;'>","75","pos","CS","CS","2","category2/CS2.png","","targets/42.png","indirect","1","15"
"","html-keyboard-response","203","630366","0.0-10.0-0.16","9nay5s46ya","many_one","0","direct_first","1","lt06no05","0","21","1","1","3","1","","0","1","0","null","","","<div style=""font-size:60px;"">+</div>","null","","","","","","","","","",""
"","html-keyboard-response","204","630470","0.0-10.0-1.16","9nay5s46ya","many_one","0","direct_first","1","lt06no05","0","21","1","1","3","1","","0","1","0","null","","","<img src = 'category4/CS10.png' width = '100%;'>","null","","","","","","","","","",""
"","html-keyboard-response","205","630731","0.0-10.0-2.16","9nay5s46ya","many_one","0","direct_first","1","lt06no05","0","21","1","1","3","1","","0","1","0","null","","","<img src = 'targets/46.png' width = '100%;'>","null","","","","","","","","","",""
"","html-keyboard-response","206","631194","0.0-10.0-3.16","9nay5s46ya","many_one","0","direct_first","1","lt06no05","0","21","1","1","3","1","","0","1","0","461.7249998264015","","","<img src = 'targets/mask.png' width = '100%;'>","75","neg","CS","CS","4","category4/CS10.png","","targets/46.png","indirect","1","16"
"","html-keyboard-response","207","632714","0.0-10.0-0.17","9nay5s46ya","many_one","0","direct_first","1","lt06no05","0","21","1","1","3","1","","0","1","0","null","","","<div style=""font-size:60px;"">+</div>","null","","","","","","","","","",""
"","html-keyboard-response","208","632821","0.0-10.0-1.17","9nay5s46ya","many_one","0","direct_first","1","lt06no05","0","21","1","1","3","1","","0","1","0","null","","","<img src = 'category3/CS7.png' width = '100%;'>","null","","","","","","","","","",""
"","html-keyboard-response","209","633094","0.0-10.0-2.17","9nay5s46ya","many_one","0","direct_first","1","lt06no05","0","21","1","1","3","1","","0","1","0","null","","","<img src = 'targets/3.png' width = '100%;'>","null","","","","","","","","","",""
"","html-keyboard-response","210","633478","0.0-10.0-3.17","9nay5s46ya","many_one","0","direct_first","1","lt06no05","0","21","1","1","3","1","","0","1","0","381.49499986320734","","","<img src = 'targets/mask.png' width = '100%;'>","68","pos","CS","CS","3","category3/CS7.png","","targets/3.png","indirect","0","17"
"","html-keyboard-response","211","634982","0.0-10.0-0.18","9nay5s46ya","many_one","0","direct_first","1","lt06no05","0","21","1","1","3","1","","0","1","0","null","","","<div style=""font-size:60px;"">+</div>","null","","","","","","","","","",""
"","html-keyboard-response","212","635087","0.0-10.0-1.18","9nay5s46ya","many_one","0","direct_first","1","lt06no05","0","21","1","1","3","1","","0","1","0","null","","","<img src = 'category3/CS1.png' width = '100%;'>","null","","","","","","","","","",""
"","html-keyboard-response","213","635360","0.0-10.0-2.18","9nay5s46ya","many_one","0","direct_first","1","lt06no05","0","21","1","1","3","1","","0","1","0","null","","","<img src = 'targets/18.png' width = '100%;'>","null","","","","","","","","","",""
"","html-keyboard-response","214","635806","0.0-10.0-3.18","9nay5s46ya","many_one","0","direct_first","1","lt06no05","0","21","1","1","3","1","","0","1","0","444.81500005349517","","","<img src = 'targets/mask.png' width = '100%;'>","75","pos","CS","CS","3","category3/CS1.png","","targets/18.png","indirect","1","18"
"","html-keyboard-response","215","637318","0.0-10.0-0.19","9nay5s46ya","many_one","0","direct_first","1","lt06no05","0","21","1","1","3","1","","0","1","0","null","","","<div style=""font-size:60px;"">+</div>","null","","","","","","","","","",""
"","html-keyboard-response","216","637413","0.0-10.0-1.19","9nay5s46ya","many_one","0","direct_first","1","lt06no05","0","21","1","1","3","1","","0","1","0","null","","","<img src = 'category4/CS1.png' width = '100%;'>","null","","","","","","","","","",""
"","html-keyboard-response","217","637670","0.0-10.0-2.19","9nay5s46ya","many_one","0","direct_first","1","lt06no05","0","21","1","1","3","1","","0","1","0","null","","","<img src = 'targets/17.png' width = '100%;'>","null","","","","","","","","","",""
"","html-keyboard-response","218","638115","0.0-10.0-3.19","9nay5s46ya","many_one","0","direct_first","1","lt06no05","0","21","1","1","3","1","","0","1","0","443.57499992474914","","","<img src = 'targets/mask.png' width = '100%;'>","68","neg","GS","GSold","4","category4/CS1.png","","targets/17.png","indirect","0","19"
"","html-keyboard-response","219","639623","0.0-10.0-0.20","9nay5s46ya","many_one","0","direct_first","1","lt06no05","0","21","1","1","3","1","","0","1","0","null","","","<div style=""font-size:60px;"">+</div>","null","","","","","","","","","",""
"","html-keyboard-response","220","639727","0.0-10.0-1.20","9nay5s46ya","many_one","0","direct_first","1","lt06no05","0","21","1","1","3","1","","0","1","0","null","","","<img src = 'category3/CS6.png' width = '100%;'>","null","","","","","","","","","",""
"","html-keyboard-response","221","639990","0.0-10.0-2.20","9nay5s46ya","many_one","0","direct_first","1","lt06no05","0","21","1","1","3","1","","0","1","0","null","","","<img src = 'targets/34.png' width = '100%;'>","null","","","","","","","","","",""
"","html-keyboard-response","222","640465","0.0-10.0-3.20","9nay5s46ya","many_one","0","direct_first","1","lt06no05","0","21","1","1","3","1","","0","1","0","473.424999974668","","","<img src = 'targets/mask.png' width = '100%;'>","75","pos","CS","CS","3","category3/CS6.png","","targets/34.png","indirect","1","20"
"","html-keyboard-response","223","641969","0.0-10.0-0.21","9nay5s46ya","many_one","0","direct_first","1","lt06no05","0","21","1","1","3","1","","0","1","0","null","","","<div style=""font-size:60px;"">+</div>","null","","","","","","","","","",""
"","html-keyboard-response","224","642073","0.0-10.0-1.21","9nay5s46ya","many_one","0","direct_first","1","lt06no05","0","21","1","1","3","1","","0","1","0","null","","","<img src = 'category2/CS1.png' width = '100%;'>","null","","","","","","","","","",""
"","html-keyboard-response","225","642338","0.0-10.0-2.21","9nay5s46ya","many_one","0","direct_first","1","lt06no05","0","21","1","1","3","1","","0","1","0","null","","","<img src = 'targets/47.png' width = '100%;'>","null","","","","","","","","","",""
"","html-keyboard-response","226","642726","0.0-10.0-3.21","9nay5s46ya","many_one","0","direct_first","1","lt06no05","0","21","1","1","3","1","","0","1","0","384.12500033155084","","","<img src = 'targets/mask.png' width = '100%;'>","75","pos","CS","CS","2","category2/CS1.png","","targets/47.png","indirect","1","21"
"","html-keyboard-response","227","644253","0.0-10.0-0.22","9nay5s46ya","many_one","0","direct_first","1","lt06no05","0","21","1","1","3","1","","0","1","0","null","","","<div style=""font-size:60px;"">+</div>","null","","","","","","","","","",""
"","html-keyboard-response","228","644357","0.0-10.0-1.22","9nay5s46ya","many_one","0","direct_first","1","lt06no05","0","21","1","1","3","1","","0","1","0","null","","","<img src = 'category1/CS4.png' width = '100%;'>","null","","","","","","","","","",""
"","html-keyboard-response","229","644624","0.0-10.0-2.22","9nay5s46ya","many_one","0","direct_first","1","lt06no05","0","21","1","1","3","1","","0","1","0","null","","","<img src = 'targets/31.png' width = '100%;'>","null","","","","","","","","","",""
"","html-keyboard-response","230","645163","0.0-10.0-3.22","9nay5s46ya","many_one","0","direct_first","1","lt06no05","0","21","1","1","3","1","","0","1","0","537.4050000682473","","","<img src = 'targets/mask.png' width = '100%;'>","75","neg","CS","CS","1","category1/CS4.png","","targets/31.png","indirect","1","22"
"","html-keyboard-response","231","646671","0.0-10.0-0.23","9nay5s46ya","many_one","0","direct_first","1","lt06no05","0","21","1","1","3","1","","0","1","0","null","","","<div style=""font-size:60px;"">+</div>","null","","","","","","","","","",""
"","html-keyboard-response","232","646774","0.0-10.0-1.23","9nay5s46ya","many_one","0","direct_first","1","lt06no05","0","21","1","1","3","1","","0","1","0","null","","","<img src = 'category2/CS10.png' width = '100%;'>","null","","","","","","","","","",""
"","html-keyboard-response","233","647038","0.0-10.0-2.23","9nay5s46ya","many_one","0","direct_first","1","lt06no05","0","21","1","1","3","1","","0","1","0","null","","","<img src = 'targets/24.png' width = '100%;'>","null","","","","","","","","","",""
"","html-keyboard-response","234","647472","0.0-10.0-3.23","9nay5s46ya","many_one","0","direct_first","1","lt06no05","0","21","1","1","3","1","","0","1","0","432.2150000371039","","","<img src = 'targets/mask.png' width = '100%;'>","68","pos","CS","CS","2","category2/CS10.png","","targets/24.png","indirect","0","23"
"","survey-html-form","235","650159","0.0-11.0","9nay5s46ya","many_one","0","direct_first","1","lt06no05","0","21","1","1","3","1","","0","1","0","2175.040000118315","","{}","","","","","","","","","","","",""
"","html-keyboard-response","236","653166","0.0-12.0-0.0","9nay5s46ya","many_one","0","direct_first","1","lt06no05","0","21","1","1","3","1","","0","1","0","null","","","<div style=""font-size:60px;"">+</div>","null","","","","","","","","","",""
"","html-keyboard-response","237","653263","0.0-12.0-1.0","9nay5s46ya","many_one","0","direct_first","1","lt06no05","0","21","1","1","3","1","","0","1","0","null","","","<img src = 'category1/CS10.png' width = '100%;'>","null","","","","","","","","","",""
"","html-keyboard-response","238","653527","0.0-12.0-2.0","9nay5s46ya","many_one","0","direct_first","1","lt06no05","0","21","1","1","3","1","","0","1","0","null","","","<img src = 'targets/44.png' width = '100%;'>","null","","","","","","","","","",""
"","html-keyboard-response","239","653795","0.0-12.0-3.0","9nay5s46ya","many_one","0","direct_first","1","lt06no05","0","21","1","1","3","1","","0","1","0","265.08000027388334","","","<img src = 'targets/mask.png' width = '100%;'>","75","neg","GS","GSold","1","category1/CS10.png","","targets/44.png","indirect","1","24"
"","html-keyboard-response","240","655300","0.0-12.0-0.1","9nay5s46ya","many_one","0","direct_first","1","lt06no05","0","21","1","1","3","1","","0","1","0","null","","","<div style=""font-size:60px;"">+</div>","null","","","","","","","","","",""
"","html-keyboard-response","241","655395","0.0-12.0-1.1","9nay5s46ya","many_one","0","direct_first","1","lt06no05","0","21","1","1","3","1","","0","1","0","null","","","<img src = 'category3/CS4.png' width = '100%;'>","null","","","","","","","","","",""
"","html-keyboard-response","242","655654","0.0-12.0-2.1","9nay5s46ya","many_one","0","direct_first","1","lt06no05","0","21","1","1","3","1","","0","1","0","null","","","<img src = 'targets/33.png' width = '100%;'>","null","","","","","","","","","",""
"","html-keyboard-response","243","656120","0.0-12.0-3.1","9nay5s46ya","many_one","0","direct_first","1","lt06no05","0","21","1","1","3","1","","0","1","0","464.31999979540706","","","<img src = 'targets/mask.png' width = '100%;'>","68","pos","GS","GSold","3","category3/CS4.png","","targets/33.png","indirect","0","25"
"","html-keyboard-response","244","657637","0.0-12.0-0.2","9nay5s46ya","many_one","0","direct_first","1","lt06no05","0","21","1","1","3","1","","0","1","0","null","","","<div style=""font-size:60px;"">+</div>","null","","","","","","","","","",""
"","html-keyboard-response","245","657733","0.0-12.0-1.2","9nay5s46ya","many_one","0","direct_first","1","lt06no05","0","21","1","1","3","1","","0","1","0","null","","","<img src = 'category4/GS2.png' width = '100%;'>","null","","","","","","","","","",""
"","html-keyboard-response","246","657987","0.0-12.0-2.2","9nay5s46ya","many_one","0","direct_first","1","lt06no05","0","21","1","1","3","1","","0","1","0","null","","","<img src = 'targets/16.png' width = '100%;'>","null","","","","","","","","","",""
"","html-keyboard-response","247","658546","0.0-12.0-3.2","9nay5s46ya","many_one","0","direct_first","1","lt06no05","0","21","1","1","3","1","","0","1","0","558.2799999974668","","","<img src = 'targets/mask.png' width = '100%;'>","75","neg","GS","GSnew","4","category4/GS2.png","","targets/16.png","indirect","1","26"
"","html-keyboard-response","248","660053","0.0-12.0-0.3","9nay5s46ya","many_one","0","direct_first","1","lt06no05","0","21","1","1","3","1","","0","1","0","null","","","<div style=""font-size:60px;"">+</div>","null","","","","","","","","","",""
"","html-keyboard-response","249","660157","0.0-12.0-1.3","9nay5s46ya","many_one","0","direct_first","1","lt06no05","0","21","1","1","3","1","","0","1","0","null","","","<img src = 'category2/GS2.png' width = '100%;'>","null","","","","","","","","","",""
"","html-keyboard-response","250","660425","0.0-12.0-2.3","9nay5s46ya","many_one","0","direct_first","1","lt06no05","0","21","1","1","3","1","","0","1","0","null","","","<img src = 'targets/14.png' width = '100%;'>","null","","","","","","","","","",""
"","html-keyboard-response","251","661044","0.0-12.0-3.3","9nay5s46ya","many_one","0","direct_first","1","lt06no05","0","21","1","1","3","1","","0","1","0","615.1850000023842","","","<img src = 'targets/mask.png' width = '100%;'>","75","pos","GS","GSnew","2","category2/GS2.png","","targets/14.png","indirect","1","27"
"","html-keyboard-response","252","662561","0.0-12.0-0.4","9nay5s46ya","many_one","0","direct_first","1","lt06no05","0","21","1","1","3","1","","0","1","0","null","","","<div style=""font-size:60px;"">+</div>","null","","","","","","","","","",""
"","html-keyboard-response","253","662661","0.0-12.0-1.4","9nay5s46ya","many_one","0","direct_first","1","lt06no05","0","21","1","1","3","1","","0","1","0","null","","","<img src = 'category1/CS3.png' width = '100%;'>","null","","","","","","","","","",""
"","html-keyboard-response","254","662924","0.0-12.0-2.4","9nay5s46ya","many_one","0","direct_first","1","lt06no05","0","21","1","1","3","1","","0","1","0","null","","","<img src = 'targets/30.png' width = '100%;'>","null","","","","","","","","","",""
"","html-keyboard-response","255","663962","0.0-12.0-3.4","9nay5s46ya","many_one","0","direct_first","1","lt06no05","0","21","1","1","3","1","","0","1","0","1035.6250000186265","","","<img src = 'targets/mask.png' width = '100%;'>","68","neg","GS","GSold","1","category1/CS3.png","","targets/30.png","indirect","0","28"
"","html-keyboard-response","256","665479","0.0-12.0-0.5","9nay5s46ya","many_one","0","direct_first","1","lt06no05","0","21","1","1","3","1","","0","1","0","null","","","<div style=""font-size:60px;"">+</div>","null","","","","","","","","","",""
"","html-keyboard-response","257","665575","0.0-12.0-1.5","9nay5s46ya","many_one","0","direct_first","1","lt06no05","0","21","1","1","3","1","","0","1","0","null","","","<img src = 'category4/GS1.png' width = '100%;'>","null","","","","","","","","","",""
"","html-keyboard-response","258","665837","0.0-12.0-2.5","9nay5s46ya","many_one","0","direct_first","1","lt06no05","0","21","1","1","3","1","","0","1","0","null","","","<img src = 'targets/38.png' width = '100%;'>","null","","","","","","","","","",""
"","html-keyboard-response","259","666329","0.0-12.0-3.5","9nay5s46ya","many_one","0","direct_first","1","lt06no05","0","21","1","1","3","1","","0","1","0","490.28500029817224","","","<img src = 'targets/mask.png' width = '100%;'>","75","neg","GS","GSnew","4","category4/GS1.png","","targets/38.png","indirect","1","29"
"","html-keyboard-response","260","667841","0.0-12.0-0.6","9nay5s46ya","many_one","0","direct_first","1","lt06no05","0","21","1","1","3","1","","0","1","0","null","","","<div style=""font-size:60px;"">+</div>","null","","","","","","","","","",""
"","html-keyboard-response","261","667945","0.0-12.0-1.6","9nay5s46ya","many_one","0","direct_first","1","lt06no05","0","21","1","1","3","1","","0","1","0","null","","","<img src = 'category2/GS1.png' width = '100%;'>","null","","","","","","","","","",""
"","html-keyboard-response","262","668210","0.0-12.0-2.6","9nay5s46ya","many_one","0","direct_first","1","lt06no05","0","21","1","1","3","1","","0","1","0","null","","","<img src = 'targets/37.png' width = '100%;'>","null","","","","","","","","","",""
"","html-keyboard-response","263","668850","0.0-12.0-3.6","9nay5s46ya","many_one","0","direct_first","1","lt06no05","0","21","1","1","3","1","","0","1","0","637.6000000163913","","","<img src = 'targets/mask.png' width = '100%;'>","75","pos","GS","GSnew","2","category2/GS1.png","","targets/37.png","indirect","1","30"
"","html-keyboard-response","264","670377","0.0-12.0-0.7","9nay5s46ya","many_one","0","direct_first","1","lt06no05","0","21","1","1","3","1","","0","1","0","null","","","<div style=""font-size:60px;"">+</div>","null","","","","","","","","","",""
"","html-keyboard-response","265","670473","0.0-12.0-1.7","9nay5s46ya","many_one","0","direct_first","1","lt06no05","0","21","1","1","3","1","","0","1","0","null","","","<img src = 'category3/GS3.png' width = '100%;'>","null","","","","","","","","","",""
"","html-keyboard-response","266","670732","0.0-12.0-2.7","9nay5s46ya","many_one","0","direct_first","1","lt06no05","0","21","1","1","3","1","","0","1","0","null","","","<img src = 'targets/19.png' width = '100%;'>","null","","","","","","","","","",""
"","html-keyboard-response","267","671265","0.0-12.0-3.7","9nay5s46ya","many_one","0","direct_first","1","lt06no05","0","21","1","1","3","1","","0","1","0","530.7499999180436","","","<img src = 'targets/mask.png' width = '100%;'>","75","pos","GS","GSnew","3","category3/GS3.png","","targets/19.png","indirect","1","31"
"","html-keyboard-response","268","672772","0.0-12.0-0.8","9nay5s46ya","many_one","0","direct_first","1","lt06no05","0","21","1","1","3","1","","0","1","0","null","","","<div style=""font-size:60px;"">+</div>","null","","","","","","","","","",""
"","html-keyboard-response","269","672868","0.0-12.0-1.8","9nay5s46ya","many_one","0","direct_first","1","lt06no05","0","21","1","1","3","1","","0","1","0","null","","","<img src = 'category4/lin.png' width = '100%;'>","null","","","","","","","","","",""
"","html-keyboard-response","270","673124","0.0-12.0-2.8","9nay5s46ya","many_one","0","direct_first","1","lt06no05","0","21","1","1","3","1","","0","1","0","null","","","<img src = 'targets/6.png' width = '100%;'>","null","","","","","","","","","",""
"","html-keyboard-response","271","673828","0.0-12.0-3.8","9nay5s46ya","many_one","0","direct_first","1","lt06no05","0","21","1","1","3","1","","0","1","0","701.9700002856553","","","<img src = 'targets/mask.png' width = '100%;'>","75","neg","GS","abstract","4","category4/lin.png","","targets/6.png","indirect","1","32"
"","html-keyboard-response","272","675348","0.0-12.0-0.9","9nay5s46ya","many_one","0","direct_first","1","lt06no05","0","21","1","1","3","1","","0","1","0","null","","","<div style=""font-size:60px;"">+</div>","null","","","","","","","","","",""
"","html-keyboard-response","273","675445","0.0-12.0-1.9","9nay5s46ya","many_one","0","direct_first","1","lt06no05","0","21","1","1","3","1","","0","1","0","null","","","<img src = 'category1/ma.png' width = '100%;'>","null","","","","","","","","","",""
"","html-keyboard-response","274","675701","0.0-12.0-2.9","9nay5s46ya","many_one","0","direct_first","1","lt06no05","0","21","1","1","3","1","","0","1","0","null","","","<img src = 'targets/22.png' width = '100%;'>","null","","","","","","","","","",""
"","html-keyboard-response","275","676308","0.0-12.0-3.9","9nay5s46ya","many_one","0","direct_first","1","lt06no05","0","21","1","1","3","1","","0","1","0","604.4149999506772","","","<img src = 'targets/mask.png' width = '100%;'>","68","neg","GS","abstract","1","category1/ma.png","","targets/22.png","indirect","0","33"
"","html-keyboard-response","276","677832","0.0-12.0-0.10","9nay5s46ya","many_one","0","direct_first","1","lt06no05","0","21","1","1","3","1","","0","1","0","null","","","<div style=""font-size:60px;"">+</div>","null","","","","","","","","","",""
"","html-keyboard-response","277","677937","0.0-12.0-1.10","9nay5s46ya","many_one","0","direct_first","1","lt06no05","0","21","1","1","3","1","","0","1","0","null","","","<img src = 'category2/GS3.png' width = '100%;'>","null","","","","","","","","","",""
"","html-keyboard-response","278","678205","0.0-12.0-2.10","9nay5s46ya","many_one","0","direct_first","1","lt06no05","0","21","1","1","3","1","","0","1","0","null","","","<img src = 'targets/12.png' width = '100%;'>","null","","","","","","","","","",""
"","html-keyboard-response","279","678659","0.0-12.0-3.10","9nay5s46ya","many_one","0","direct_first","1","lt06no05","0","21","1","1","3","1","","0","1","0","451.88499987125397","","","<img src = 'targets/mask.png' width = '100%;'>","68","pos","GS","GSnew","2","category2/GS3.png","","targets/12.png","indirect","0","34"
"","html-keyboard-response","280","680166","0.0-12.0-0.11","9nay5s46ya","many_one","0","direct_first","1","lt06no05","0","21","1","1","3","1","","0","1","0","null","","","<div style=""font-size:60px;"">+</div>","null","","","","","","","","","",""
"","html-keyboard-response","281","680263","0.0-12.0-1.11","9nay5s46ya","many_one","0","direct_first","1","lt06no05","0","21","1","1","3","1","","0","1","0","null","","","<img src = 'category3/CS3.png' width = '100%;'>","null","","","","","","","","","",""
"","html-keyboard-response","282","680520","0.0-12.0-2.11","9nay5s46ya","many_one","0","direct_first","1","lt06no05","0","21","1","1","3","1","","0","1","0","null","","","<img src = 'targets/25.png' width = '100%;'>","null","","","","","","","","","",""
"","html-keyboard-response","283","680991","0.0-12.0-3.11","9nay5s46ya","many_one","0","direct_first","1","lt06no05","0","21","1","1","3","1","","0","1","0","468.34499994292855","","","<img src = 'targets/mask.png' width = '100%;'>","75","pos","GS","GSold","3","category3/CS3.png","","targets/25.png","indirect","1","35"
"","html-keyboard-response","284","682512","0.0-12.0-0.12","9nay5s46ya","many_one","0","direct_first","1","lt06no05","0","21","1","1","3","1","","0","1","0","null","","","<div style=""font-size:60px;"">+</div>","null","","","","","","","","","",""
"","html-keyboard-response","285","682610","0.0-12.0-1.12","9nay5s46ya","many_one","0","direct_first","1","lt06no05","0","21","1","1","3","1","","0","1","0","null","","","<img src = 'category2/CS7.png' width = '100%;'>","null","","","","","","","","","",""
"","html-keyboard-response","286","682872","0.0-12.0-2.12","9nay5s46ya","many_one","0","direct_first","1","lt06no05","0","21","1","1","3","1","","0","1","0","null","","","<img src = 'targets/27.png' width = '100%;'>","null","","","","","","","","","",""
"","html-keyboard-response","287","684021","0.0-12.0-3.12","9nay5s46ya","many_one","0","direct_first","1","lt06no05","0","21","1","1","3","1","","0","1","0","1146.3199998252094","","","<img src = 'targets/mask.png' width = '100%;'>","68","pos","GS","GSold","2","category2/CS7.png","","targets/27.png","indirect","0","36"
"","html-keyboard-response","288","685535","0.0-12.0-0.13","9nay5s46ya","many_one","0","direct_first","1","lt06no05","0","21","1","1","3","1","","0","1","0","null","","","<div style=""font-size:60px;"">+</div>","null","","","","","","","","","",""
"","html-keyboard-response","289","685631","0.0-12.0-1.13","9nay5s46ya","many_one","0","direct_first","1","lt06no05","0","21","1","1","3","1","","0","1","0","null","","","<img src = 'category3/GS1.png' width = '100%;'>","null","","","","","","","","","",""
"","html-keyboard-response","290","685888","0.0-12.0-2.13","9nay5s46ya","many_one","0","direct_first","1","lt06no05","0","21","1","1","3","1","","0","1","0","null","","","<img src = 'targets/35.png' width = '100%;'>","null","","","","","","","","","",""
"","html-keyboard-response","291","686298","0.0-12.0-3.13","9nay5s46ya","many_one","0","direct_first","1","lt06no05","0","21","1","1","3","1","","0","1","0","407.7349998988211","","","<img src = 'targets/mask.png' width = '100%;'>","75","pos","GS","GSnew","3","category3/GS1.png","","targets/35.png","indirect","1","37"
"","html-keyboard-response","292","687821","0.0-12.0-0.14","9nay5s46ya","many_one","0","direct_first","1","lt06no05","0","21","1","1","3","1","","0","1","0","null","","","<div style=""font-size:60px;"">+</div>","null","","","","","","","","","",""
"","html-keyboard-response","293","687913","0.0-12.0-1.14","9nay5s46ya","many_one","0","direct_first","1","lt06no05","0","21","1","1","3","1","","0","1","0","null","","","<img src = 'category4/GS3.png' width = '100%;'>","null","","","","","","","","","",""
"","html-keyboard-response","294","688176","0.0-12.0-2.14","9nay5s46ya","many_one","0","direct_first","1","lt06no05","0","21","1","1","3","1","","0","1","0","null","","","<img src = 'targets/36.png' width = '100%;'>","null","","","","","","","","","",""
"","html-keyboard-response","295","688766","0.0-12.0-3.14","9nay5s46ya","many_one","0","direct_first","1","lt06no05","0","21","1","1","3","1","","0","1","0","587.5999997369945","","","<img src = 'targets/mask.png' width = '100%;'>","68","neg","GS","GSnew","4","category4/GS3.png","","targets/36.png","indirect","0","38"
"","html-keyboard-response","296","690292","0.0-12.0-0.15","9nay5s46ya","many_one","0","direct_first","1","lt06no05","0","21","1","1","3","1","","0","1","0","null","","","<div style=""font-size:60px;"">+</div>","null","","","","","","","","","",""
"","html-keyboard-response","297","690388","0.0-12.0-1.15","9nay5s46ya","many_one","0","direct_first","1","lt06no05","0","21","1","1","3","1","","0","1","0","null","","","<img src = 'category3/wang.png' width = '100%;'>","null","","","","","","","","","",""
"","html-keyboard-response","298","690655","0.0-12.0-2.15","9nay5s46ya","many_one","0","direct_first","1","lt06no05","0","21","1","1","3","1","","0","1","0","null","","","<img src = 'targets/43.png' width = '100%;'>","null","","","","","","","","","",""
"","html-keyboard-response","299","691157","0.0-12.0-3.15","9nay5s46ya","many_one","0","direct_first","1","lt06no05","0","21","1","1","3","1","","0","1","0","499.54500002786517","","","<img src = 'targets/mask.png' width = '100%;'>","75","pos","GS","abstract","3","category3/wang.png","","targets/43.png","indirect","1","39"
"","html-keyboard-response","300","692676","0.0-12.0-0.16","9nay5s46ya","many_one","0","direct_first","1","lt06no05","0","21","1","1","3","1","","0","1","0","null","","","<div style=""font-size:60px;"">+</div>","null","","","","","","","","","",""
"","html-keyboard-response","301","692772","0.0-12.0-1.16","9nay5s46ya","many_one","0","direct_first","1","lt06no05","0","21","1","1","3","1","","0","1","0","null","","","<img src = 'category1/GS1.png' width = '100%;'>","null","","","","","","","","","",""
"","html-keyboard-response","302","693038","0.0-12.0-2.16","9nay5s46ya","many_one","0","direct_first","1","lt06no05","0","21","1","1","3","1","","0","1","0","null","","","<img src = 'targets/39.png' width = '100%;'>","null","","","","","","","","","",""
"","html-keyboard-response","303","693712","0.0-12.0-3.16","9nay5s46ya","many_one","0","direct_first","1","lt06no05","0","21","1","1","3","1","","0","1","0","672.0150001347065","","","<img src = 'targets/mask.png' width = '100%;'>","75","neg","GS","GSnew","1","category1/GS1.png","","targets/39.png","indirect","1","40"
"","html-keyboard-response","304","695225","0.0-12.0-0.17","9nay5s46ya","many_one","0","direct_first","1","lt06no05","0","21","1","1","3","1","","0","1","0","null","","","<div style=""font-size:60px;"">+</div>","null","","","","","","","","","",""
"","html-keyboard-response","305","695329","0.0-12.0-1.17","9nay5s46ya","many_one","0","direct_first","1","lt06no05","0","21","1","1","3","1","","0","1","0","null","","","<img src = 'category1/CS7.png' width = '100%;'>","null","","","","","","","","","",""
"","html-keyboard-response","306","695592","0.0-12.0-2.17","9nay5s46ya","many_one","0","direct_first","1","lt06no05","0","21","1","1","3","1","","0","1","0","null","","","<img src = 'targets/8.png' width = '100%;'>","null","","","","","","","","","",""
"","html-keyboard-response","307","696172","0.0-12.0-3.17","9nay5s46ya","many_one","0","direct_first","1","lt06no05","0","21","1","1","3","1","","0","1","0","577.9949999414384","","","<img src = 'targets/mask.png' width = '100%;'>","75","neg","GS","GSold","1","category1/CS7.png","","targets/8.png","indirect","1","41"
"","html-keyboard-response","308","697685","0.0-12.0-0.18","9nay5s46ya","many_one","0","direct_first","1","lt06no05","0","21","1","1","3","1","","0","1","0","null","","","<div style=""font-size:60px;"">+</div>","null","","","","","","","","","",""
"","html-keyboard-response","309","697789","0.0-12.0-1.18","9nay5s46ya","many_one","0","direct_first","1","lt06no05","0","21","1","1","3","1","","0","1","0","null","","","<img src = 'category2/men.png' width = '100%;'>","null","","","","","","","","","",""
"","html-keyboard-response","310","698060","0.0-12.0-2.18","9nay5s46ya","many_one","0","direct_first","1","lt06no05","0","21","1","1","3","1","","0","1","0","null","","","<img src = 'targets/41.png' width = '100%;'>","null","","","","","","","","","",""
"","html-keyboard-response","311","698666","0.0-12.0-3.18","9nay5s46ya","many_one","0","direct_first","1","lt06no05","0","21","1","1","3","1","","0","1","0","604.5500002801418","","","<img src = 'targets/mask.png' width = '100%;'>","75","pos","GS","abstract","2","category2/men.png","","targets/41.png","indirect","1","42"
"","html-keyboard-response","312","700183","0.0-12.0-0.19","9nay5s46ya","many_one","0","direct_first","1","lt06no05","0","21","1","1","3","1","","0","1","0","null","","","<div style=""font-size:60px;"">+</div>","null","","","","","","","","","",""
"","html-keyboard-response","313","700279","0.0-12.0-1.19","9nay5s46ya","many_one","0","direct_first","1","lt06no05","0","21","1","1","3","1","","0","1","0","null","","","<img src = 'category1/GS3.png' width = '100%;'>","null","","","","","","","","","",""
"","html-keyboard-response","314","700542","0.0-12.0-2.19","9nay5s46ya","many_one","0","direct_first","1","lt06no05","0","21","1","1","3","1","","0","1","0","null","","","<img src = 'targets/5.png' width = '100%;'>","null","","","","","","","","","",""
"","html-keyboard-response","315","700998","0.0-12.0-3.19","9nay5s46ya","many_one","0","direct_first","1","lt06no05","0","21","1","1","3","1","","0","1","0","453.2400001771748","","","<img src = 'targets/mask.png' width = '100%;'>","75","neg","GS","GSnew","1","category1/GS3.png","","targets/5.png","indirect","1","43"
"","html-keyboard-response","316","702506","0.0-12.0-0.20","9nay5s46ya","many_one","0","direct_first","1","lt06no05","0","21","1","1","3","1","","0","1","0","null","","","<div style=""font-size:60px;"">+</div>","null","","","","","","","","","",""
"","html-keyboard-response","317","702606","0.0-12.0-1.20","9nay5s46ya","many_one","0","direct_first","1","lt06no05","0","21","1","1","3","1","","0","1","0","null","","","<img src = 'category1/GS2.png' width = '100%;'>","null","","","","","","","","","",""
"","html-keyboard-response","318","702876","0.0-12.0-2.20","9nay5s46ya","many_one","0","direct_first","1","lt06no05","0","21","1","1","3","1","","0","1","0","null","","","<img src = 'targets/45.png' width = '100%;'>","null","","","","","","","","","",""
"","html-keyboard-response","319","703304","0.0-12.0-3.20","9nay5s46ya","many_one","0","direct_first","1","lt06no05","0","21","1","1","3","1","","0","1","0","425.57999957352877","","","<img src = 'targets/mask.png' width = '100%;'>","75","neg","GS","GSnew","1","category1/GS2.png","","targets/45.png","indirect","1","44"
"","html-keyboard-response","320","704816","0.0-12.0-0.21","9nay5s46ya","many_one","0","direct_first","1","lt06no05","0","21","1","1","3","1","","0","1","0","null","","","<div style=""font-size:60px;"">+</div>","null","","","","","","","","","",""
"","html-keyboard-response","321","704920","0.0-12.0-1.21","9nay5s46ya","many_one","0","direct_first","1","lt06no05","0","21","1","1","3","1","","0","1","0","null","","","<img src = 'category3/GS2.png' width = '100%;'>","null","","","","","","","","","",""
"","html-keyboard-response","322","705187","0.0-12.0-2.21","9nay5s46ya","many_one","0","direct_first","1","lt06no05","0","21","1","1","3","1","","0","1","0","null","","","<img src = 'targets/26.png' width = '100%;'>","null","","","","","","","","","",""
"","html-keyboard-response","323","705824","0.0-12.0-3.21","9nay5s46ya","many_one","0","direct_first","1","lt06no05","0","21","1","1","3","1","","0","1","0","634.699999820441","","","<img src = 'targets/mask.png' width = '100%;'>","68","pos","GS","GSnew","3","category3/GS2.png","","targets/26.png","indirect","0","45"
"","html-keyboard-response","324","707335","0.0-12.0-0.22","9nay5s46ya","many_one","0","direct_first","1","lt06no05","0","21","1","1","3","1","","0","1","0","null","","","<div style=""font-size:60px;"">+</div>","null","","","","","","","","","",""
"","html-keyboard-response","325","707439","0.0-12.0-1.22","9nay5s46ya","many_one","0","direct_first","1","lt06no05","0","21","1","1","3","1","","0","1","0","null","","","<img src = 'category3/CS10.png' width = '100%;'>","null","","","","","","","","","",""
"","html-keyboard-response","326","707706","0.0-12.0-2.22","9nay5s46ya","many_one","0","direct_first","1","lt06no05","0","21","1","1","3","1","","0","1","0","null","","","<img src = 'targets/11.png' width = '100%;'>","null","","","","","","","","","",""
"","html-keyboard-response","327","708321","0.0-12.0-3.22","9nay5s46ya","many_one","0","direct_first","1","lt06no05","0","21","1","1","3","1","","0","1","0","613.5649997740984","","","<img src = 'targets/mask.png' width = '100%;'>","75","pos","GS","GSold","3","category3/CS10.png","","targets/11.png","indirect","1","46"
