"success","trial_type","trial_index","time_elapsed","internal_node_id","subject","condition","condition_code","measure","measure_code","codeword","gender","age","education","chinese","fach","handedness","comment","hinschauen","ablenkung","gewissenhaft","rt","url","responses","stimulus","key_press","val","type","type_specific","category","cs_selected","response","target","task","indirect","nr_pres"
"true","fullscreen","0","26316","0.0-0.0","gyujd0ok02","one_one","1","direct_first","1","ch06in19","1","22","1","1","3","1","Mir viel auf, dass verschiedene Muster in den chinesischen Zeichen negativ oder positiv asoziiert werden sollten, bei mir bspw. kastenformen, diagonale und vertikale striche postitv, unsymmetrische und statisch unsichere Linien dafür negativ. Auch ist mir bei den positiv konotierten Zeichen ein bildlicher Zusammenhang mit den Aufnahmen aufgefallen. Dies beides hat mich in der Bewertung später sehr beeinflusst, da ich vermehrt daran gedacht habe, die Zeichen ""richtig"" zuzuordnen und nicht nach meinem ersten Eindruck.","0","1","0","","","","","","","","","","","","","","",""
"","external-html","1","91673","0.0-1.0","gyujd0ok02","one_one","1","direct_first","1","ch06in19","1","22","1","1","3","1","Mir viel auf, dass verschiedene Muster in den chinesischen Zeichen negativ oder positiv asoziiert werden sollten, bei mir bspw. kastenformen, diagonale und vertikale striche postitv, unsymmetrische und statisch unsichere Linien dafür negativ. Auch ist mir bei den positiv konotierten Zeichen ein bildlicher Zusammenhang mit den Aufnahmen aufgefallen. Dies beides hat mich in der Bewertung später sehr beeinflusst, da ich vermehrt daran gedacht habe, die Zeichen ""richtig"" zuzuordnen und nicht nach meinem ersten Eindruck.","0","1","0","65315","text/information.html","","","","","","","","","","","","",""
"","external-html","2","111214","0.0-2.0","gyujd0ok02","one_one","1","direct_first","1","ch06in19","1","22","1","1","3","1","Mir viel auf, dass verschiedene Muster in den chinesischen Zeichen negativ oder positiv asoziiert werden sollten, bei mir bspw. kastenformen, diagonale und vertikale striche postitv, unsymmetrische und statisch unsichere Linien dafür negativ. Auch ist mir bei den positiv konotierten Zeichen ein bildlicher Zusammenhang mit den Aufnahmen aufgefallen. Dies beides hat mich in der Bewertung später sehr beeinflusst, da ich vermehrt daran gedacht habe, die Zeichen ""richtig"" zuzuordnen und nicht nach meinem ersten Eindruck.","0","1","0","19499","text/consent.html","","","","","","","","","","","","",""
"","survey-html-form","3","200779","0.0-3.0","gyujd0ok02","one_one","1","direct_first","1","ch06in19","1","22","1","1","3","1","Mir viel auf, dass verschiedene Muster in den chinesischen Zeichen negativ oder positiv asoziiert werden sollten, bei mir bspw. kastenformen, diagonale und vertikale striche postitv, unsymmetrische und statisch unsichere Linien dafür negativ. Auch ist mir bei den positiv konotierten Zeichen ein bildlicher Zusammenhang mit den Aufnahmen aufgefallen. Dies beides hat mich in der Bewertung später sehr beeinflusst, da ich vermehrt daran gedacht habe, die Zeichen ""richtig"" zuzuordnen und nicht nach meinem ersten Eindruck.","0","1","0","89564","","{""codeword_enter"":""ch06in19""}","","","","","","","","","","","",""
"","survey-html-form","4","230381","0.0-4.0","gyujd0ok02","one_one","1","direct_first","1","ch06in19","1","22","1","1","3","1","Mir viel auf, dass verschiedene Muster in den chinesischen Zeichen negativ oder positiv asoziiert werden sollten, bei mir bspw. kastenformen, diagonale und vertikale striche postitv, unsymmetrische und statisch unsichere Linien dafür negativ. Auch ist mir bei den positiv konotierten Zeichen ein bildlicher Zusammenhang mit den Aufnahmen aufgefallen. Dies beides hat mich in der Bewertung später sehr beeinflusst, da ich vermehrt daran gedacht habe, die Zeichen ""richtig"" zuzuordnen und nicht nach meinem ersten Eindruck.","0","1","0","29599.00000000003","","{""age"":""22"",""education"":""1"",""subject"":""3"",""gender"":""1"",""handedness"":""1"",""chinese"":""1""}","","","","","","","","","","","",""
"","survey-html-form","5","246511","0.0-5.0","gyujd0ok02","one_one","1","direct_first","1","ch06in19","1","22","1","1","3","1","Mir viel auf, dass verschiedene Muster in den chinesischen Zeichen negativ oder positiv asoziiert werden sollten, bei mir bspw. kastenformen, diagonale und vertikale striche postitv, unsymmetrische und statisch unsichere Linien dafür negativ. Auch ist mir bei den positiv konotierten Zeichen ein bildlicher Zusammenhang mit den Aufnahmen aufgefallen. Dies beides hat mich in der Bewertung später sehr beeinflusst, da ich vermehrt daran gedacht habe, die Zeichen ""richtig"" zuzuordnen und nicht nach meinem ersten Eindruck.","0","1","0","16129","","{}","","","","","","","","","","","",""
"","html-keyboard-response","6","250519","0.0-6.0-0.0-0.0","gyujd0ok02","one_one","1","direct_first","1","ch06in19","1","22","1","1","3","1","Mir viel auf, dass verschiedene Muster in den chinesischen Zeichen negativ oder positiv asoziiert werden sollten, bei mir bspw. kastenformen, diagonale und vertikale striche postitv, unsymmetrische und statisch unsichere Linien dafür negativ. Auch ist mir bei den positiv konotierten Zeichen ein bildlicher Zusammenhang mit den Aufnahmen aufgefallen. Dies beides hat mich in der Bewertung später sehr beeinflusst, da ich vermehrt daran gedacht habe, die Zeichen ""richtig"" zuzuordnen und nicht nach meinem ersten Eindruck.","0","1","0","null","","","<div class = 'row'><div class = 'column'><img src = 'uspos/2040.bmp' width = '100%;'></div><div class = 'column'><img src = 'category2/CS6.png' width = '70%;'></div></div>","null","pos","CS","CS","2","category2/CS6.png","","","","",""
"","html-keyboard-response","7","253024","0.0-6.0-0.0-0.1","gyujd0ok02","one_one","1","direct_first","1","ch06in19","1","22","1","1","3","1","Mir viel auf, dass verschiedene Muster in den chinesischen Zeichen negativ oder positiv asoziiert werden sollten, bei mir bspw. kastenformen, diagonale und vertikale striche postitv, unsymmetrische und statisch unsichere Linien dafür negativ. Auch ist mir bei den positiv konotierten Zeichen ein bildlicher Zusammenhang mit den Aufnahmen aufgefallen. Dies beides hat mich in der Bewertung später sehr beeinflusst, da ich vermehrt daran gedacht habe, die Zeichen ""richtig"" zuzuordnen und nicht nach meinem ersten Eindruck.","0","1","0","null","","","<div class = 'row'><div class = 'column'><img src = 'category1/CS6.png' width = '70%;'></div><div class = 'column'><img src = 'usneg/3160.bmp' width = '100%;'></div></div>","null","neg","CS","CS","1","category1/CS6.png","","","","",""
"","html-keyboard-response","8","255530","0.0-6.0-0.0-0.2","gyujd0ok02","one_one","1","direct_first","1","ch06in19","1","22","1","1","3","1","Mir viel auf, dass verschiedene Muster in den chinesischen Zeichen negativ oder positiv asoziiert werden sollten, bei mir bspw. kastenformen, diagonale und vertikale striche postitv, unsymmetrische und statisch unsichere Linien dafür negativ. Auch ist mir bei den positiv konotierten Zeichen ein bildlicher Zusammenhang mit den Aufnahmen aufgefallen. Dies beides hat mich in der Bewertung später sehr beeinflusst, da ich vermehrt daran gedacht habe, die Zeichen ""richtig"" zuzuordnen und nicht nach meinem ersten Eindruck.","0","1","0","null","","","<div class = 'row'><div class = 'column'><img src = 'uspos/8461.bmp' width = '100%;'></div><div class = 'column'><img src = 'category3/CS3.png' width = '70%;'></div></div>","null","pos","CS","CS","3","category3/CS3.png","","","","",""
"","html-keyboard-response","9","258035","0.0-6.0-0.0-0.3","gyujd0ok02","one_one","1","direct_first","1","ch06in19","1","22","1","1","3","1","Mir viel auf, dass verschiedene Muster in den chinesischen Zeichen negativ oder positiv asoziiert werden sollten, bei mir bspw. kastenformen, diagonale und vertikale striche postitv, unsymmetrische und statisch unsichere Linien dafür negativ. Auch ist mir bei den positiv konotierten Zeichen ein bildlicher Zusammenhang mit den Aufnahmen aufgefallen. Dies beides hat mich in der Bewertung später sehr beeinflusst, da ich vermehrt daran gedacht habe, die Zeichen ""richtig"" zuzuordnen und nicht nach meinem ersten Eindruck.","0","1","0","null","","","<div class = 'row'><div class = 'column'><img src = 'category2/CS6.png' width = '70%;'></div><div class = 'column'><img src = 'uspos/2040.bmp' width = '100%;'></div></div>","null","pos","CS","CS","2","category2/CS6.png","","","","",""
"","html-keyboard-response","10","260541","0.0-6.0-0.0-0.4","gyujd0ok02","one_one","1","direct_first","1","ch06in19","1","22","1","1","3","1","Mir viel auf, dass verschiedene Muster in den chinesischen Zeichen negativ oder positiv asoziiert werden sollten, bei mir bspw. kastenformen, diagonale und vertikale striche postitv, unsymmetrische und statisch unsichere Linien dafür negativ. Auch ist mir bei den positiv konotierten Zeichen ein bildlicher Zusammenhang mit den Aufnahmen aufgefallen. Dies beides hat mich in der Bewertung später sehr beeinflusst, da ich vermehrt daran gedacht habe, die Zeichen ""richtig"" zuzuordnen und nicht nach meinem ersten Eindruck.","0","1","0","null","","","<div class = 'row'><div class = 'column'><img src = 'category3/CS3.png' width = '70%;'></div><div class = 'column'><img src = 'uspos/8461.bmp' width = '100%;'></div></div>","null","pos","CS","CS","3","category3/CS3.png","","","","",""
"","html-keyboard-response","11","263047","0.0-6.0-0.0-0.5","gyujd0ok02","one_one","1","direct_first","1","ch06in19","1","22","1","1","3","1","Mir viel auf, dass verschiedene Muster in den chinesischen Zeichen negativ oder positiv asoziiert werden sollten, bei mir bspw. kastenformen, diagonale und vertikale striche postitv, unsymmetrische und statisch unsichere Linien dafür negativ. Auch ist mir bei den positiv konotierten Zeichen ein bildlicher Zusammenhang mit den Aufnahmen aufgefallen. Dies beides hat mich in der Bewertung später sehr beeinflusst, da ich vermehrt daran gedacht habe, die Zeichen ""richtig"" zuzuordnen und nicht nach meinem ersten Eindruck.","0","1","0","null","","","<div class = 'row'><div class = 'column'><img src = 'category4/CS5.png' width = '70%;'></div><div class = 'column'><img src = 'usneg/9330.bmp' width = '100%;'></div></div>","null","neg","CS","CS","4","category4/CS5.png","","","","",""
"","html-keyboard-response","12","265552","0.0-6.0-0.0-0.6","gyujd0ok02","one_one","1","direct_first","1","ch06in19","1","22","1","1","3","1","Mir viel auf, dass verschiedene Muster in den chinesischen Zeichen negativ oder positiv asoziiert werden sollten, bei mir bspw. kastenformen, diagonale und vertikale striche postitv, unsymmetrische und statisch unsichere Linien dafür negativ. Auch ist mir bei den positiv konotierten Zeichen ein bildlicher Zusammenhang mit den Aufnahmen aufgefallen. Dies beides hat mich in der Bewertung später sehr beeinflusst, da ich vermehrt daran gedacht habe, die Zeichen ""richtig"" zuzuordnen und nicht nach meinem ersten Eindruck.","0","1","0","null","","","<div class = 'row'><div class = 'column'><img src = 'usneg/3160.bmp' width = '100%;'></div><div class = 'column'><img src = 'category1/CS6.png' width = '70%;'></div></div>","null","neg","CS","CS","1","category1/CS6.png","","","","",""
"","html-keyboard-response","13","268058","0.0-6.0-0.0-0.7","gyujd0ok02","one_one","1","direct_first","1","ch06in19","1","22","1","1","3","1","Mir viel auf, dass verschiedene Muster in den chinesischen Zeichen negativ oder positiv asoziiert werden sollten, bei mir bspw. kastenformen, diagonale und vertikale striche postitv, unsymmetrische und statisch unsichere Linien dafür negativ. Auch ist mir bei den positiv konotierten Zeichen ein bildlicher Zusammenhang mit den Aufnahmen aufgefallen. Dies beides hat mich in der Bewertung später sehr beeinflusst, da ich vermehrt daran gedacht habe, die Zeichen ""richtig"" zuzuordnen und nicht nach meinem ersten Eindruck.","0","1","0","null","","","<div class = 'row'><div class = 'column'><img src = 'category2/CS6.png' width = '70%;'></div><div class = 'column'><img src = 'uspos/2040.bmp' width = '100%;'></div></div>","null","pos","CS","CS","2","category2/CS6.png","","","","",""
"","html-keyboard-response","14","270563","0.0-6.0-0.0-0.8","gyujd0ok02","one_one","1","direct_first","1","ch06in19","1","22","1","1","3","1","Mir viel auf, dass verschiedene Muster in den chinesischen Zeichen negativ oder positiv asoziiert werden sollten, bei mir bspw. kastenformen, diagonale und vertikale striche postitv, unsymmetrische und statisch unsichere Linien dafür negativ. Auch ist mir bei den positiv konotierten Zeichen ein bildlicher Zusammenhang mit den Aufnahmen aufgefallen. Dies beides hat mich in der Bewertung später sehr beeinflusst, da ich vermehrt daran gedacht habe, die Zeichen ""richtig"" zuzuordnen und nicht nach meinem ersten Eindruck.","0","1","0","null","","","<div class = 'row'><div class = 'column'><img src = 'category4/CS5.png' width = '70%;'></div><div class = 'column'><img src = 'usneg/9330.bmp' width = '100%;'></div></div>","null","neg","CS","CS","4","category4/CS5.png","","","","",""
"","html-keyboard-response","15","273068","0.0-6.0-0.0-0.9","gyujd0ok02","one_one","1","direct_first","1","ch06in19","1","22","1","1","3","1","Mir viel auf, dass verschiedene Muster in den chinesischen Zeichen negativ oder positiv asoziiert werden sollten, bei mir bspw. kastenformen, diagonale und vertikale striche postitv, unsymmetrische und statisch unsichere Linien dafür negativ. Auch ist mir bei den positiv konotierten Zeichen ein bildlicher Zusammenhang mit den Aufnahmen aufgefallen. Dies beides hat mich in der Bewertung später sehr beeinflusst, da ich vermehrt daran gedacht habe, die Zeichen ""richtig"" zuzuordnen und nicht nach meinem ersten Eindruck.","0","1","0","null","","","<div class = 'row'><div class = 'column'><img src = 'category1/CS6.png' width = '70%;'></div><div class = 'column'><img src = 'usneg/3160.bmp' width = '100%;'></div></div>","null","neg","CS","CS","1","category1/CS6.png","","","","",""
"","html-keyboard-response","16","275574","0.0-6.0-0.0-0.10","gyujd0ok02","one_one","1","direct_first","1","ch06in19","1","22","1","1","3","1","Mir viel auf, dass verschiedene Muster in den chinesischen Zeichen negativ oder positiv asoziiert werden sollten, bei mir bspw. kastenformen, diagonale und vertikale striche postitv, unsymmetrische und statisch unsichere Linien dafür negativ. Auch ist mir bei den positiv konotierten Zeichen ein bildlicher Zusammenhang mit den Aufnahmen aufgefallen. Dies beides hat mich in der Bewertung später sehr beeinflusst, da ich vermehrt daran gedacht habe, die Zeichen ""richtig"" zuzuordnen und nicht nach meinem ersten Eindruck.","0","1","0","null","","","<div class = 'row'><div class = 'column'><img src = 'usneg/9330.bmp' width = '100%;'></div><div class = 'column'><img src = 'category4/CS5.png' width = '70%;'></div></div>","null","neg","CS","CS","4","category4/CS5.png","","","","",""
"","html-keyboard-response","17","278080","0.0-6.0-0.0-0.11","gyujd0ok02","one_one","1","direct_first","1","ch06in19","1","22","1","1","3","1","Mir viel auf, dass verschiedene Muster in den chinesischen Zeichen negativ oder positiv asoziiert werden sollten, bei mir bspw. kastenformen, diagonale und vertikale striche postitv, unsymmetrische und statisch unsichere Linien dafür negativ. Auch ist mir bei den positiv konotierten Zeichen ein bildlicher Zusammenhang mit den Aufnahmen aufgefallen. Dies beides hat mich in der Bewertung später sehr beeinflusst, da ich vermehrt daran gedacht habe, die Zeichen ""richtig"" zuzuordnen und nicht nach meinem ersten Eindruck.","0","1","0","null","","","<div class = 'row'><div class = 'column'><img src = 'uspos/2040.bmp' width = '100%;'></div><div class = 'column'><img src = 'category2/CS6.png' width = '70%;'></div></div>","null","pos","CS","CS","2","category2/CS6.png","","","","",""
"","html-keyboard-response","18","280585","0.0-6.0-0.0-0.12","gyujd0ok02","one_one","1","direct_first","1","ch06in19","1","22","1","1","3","1","Mir viel auf, dass verschiedene Muster in den chinesischen Zeichen negativ oder positiv asoziiert werden sollten, bei mir bspw. kastenformen, diagonale und vertikale striche postitv, unsymmetrische und statisch unsichere Linien dafür negativ. Auch ist mir bei den positiv konotierten Zeichen ein bildlicher Zusammenhang mit den Aufnahmen aufgefallen. Dies beides hat mich in der Bewertung später sehr beeinflusst, da ich vermehrt daran gedacht habe, die Zeichen ""richtig"" zuzuordnen und nicht nach meinem ersten Eindruck.","0","1","0","null","","","<div class = 'row'><div class = 'column'><img src = 'uspos/8461.bmp' width = '100%;'></div><div class = 'column'><img src = 'category3/CS3.png' width = '70%;'></div></div>","null","pos","CS","CS","3","category3/CS3.png","","","","",""
"","html-keyboard-response","19","283091","0.0-6.0-0.0-0.13","gyujd0ok02","one_one","1","direct_first","1","ch06in19","1","22","1","1","3","1","Mir viel auf, dass verschiedene Muster in den chinesischen Zeichen negativ oder positiv asoziiert werden sollten, bei mir bspw. kastenformen, diagonale und vertikale striche postitv, unsymmetrische und statisch unsichere Linien dafür negativ. Auch ist mir bei den positiv konotierten Zeichen ein bildlicher Zusammenhang mit den Aufnahmen aufgefallen. Dies beides hat mich in der Bewertung später sehr beeinflusst, da ich vermehrt daran gedacht habe, die Zeichen ""richtig"" zuzuordnen und nicht nach meinem ersten Eindruck.","0","1","0","null","","","<div class = 'row'><div class = 'column'><img src = 'usneg/3160.bmp' width = '100%;'></div><div class = 'column'><img src = 'category1/CS6.png' width = '70%;'></div></div>","null","neg","CS","CS","1","category1/CS6.png","","","","",""
"","html-keyboard-response","20","285595","0.0-6.0-0.0-0.14","gyujd0ok02","one_one","1","direct_first","1","ch06in19","1","22","1","1","3","1","Mir viel auf, dass verschiedene Muster in den chinesischen Zeichen negativ oder positiv asoziiert werden sollten, bei mir bspw. kastenformen, diagonale und vertikale striche postitv, unsymmetrische und statisch unsichere Linien dafür negativ. Auch ist mir bei den positiv konotierten Zeichen ein bildlicher Zusammenhang mit den Aufnahmen aufgefallen. Dies beides hat mich in der Bewertung später sehr beeinflusst, da ich vermehrt daran gedacht habe, die Zeichen ""richtig"" zuzuordnen und nicht nach meinem ersten Eindruck.","0","1","0","null","","","<div class = 'row'><div class = 'column'><img src = 'uspos/8461.bmp' width = '100%;'></div><div class = 'column'><img src = 'category3/CS3.png' width = '70%;'></div></div>","null","pos","CS","CS","3","category3/CS3.png","","","","",""
"","html-keyboard-response","21","288100","0.0-6.0-0.0-0.15","gyujd0ok02","one_one","1","direct_first","1","ch06in19","1","22","1","1","3","1","Mir viel auf, dass verschiedene Muster in den chinesischen Zeichen negativ oder positiv asoziiert werden sollten, bei mir bspw. kastenformen, diagonale und vertikale striche postitv, unsymmetrische und statisch unsichere Linien dafür negativ. Auch ist mir bei den positiv konotierten Zeichen ein bildlicher Zusammenhang mit den Aufnahmen aufgefallen. Dies beides hat mich in der Bewertung später sehr beeinflusst, da ich vermehrt daran gedacht habe, die Zeichen ""richtig"" zuzuordnen und nicht nach meinem ersten Eindruck.","0","1","0","null","","","<div class = 'row'><div class = 'column'><img src = 'category4/CS5.png' width = '70%;'></div><div class = 'column'><img src = 'usneg/9330.bmp' width = '100%;'></div></div>","null","neg","CS","CS","4","category4/CS5.png","","","","",""
"","html-keyboard-response","22","290606","0.0-6.0-0.0-0.16","gyujd0ok02","one_one","1","direct_first","1","ch06in19","1","22","1","1","3","1","Mir viel auf, dass verschiedene Muster in den chinesischen Zeichen negativ oder positiv asoziiert werden sollten, bei mir bspw. kastenformen, diagonale und vertikale striche postitv, unsymmetrische und statisch unsichere Linien dafür negativ. Auch ist mir bei den positiv konotierten Zeichen ein bildlicher Zusammenhang mit den Aufnahmen aufgefallen. Dies beides hat mich in der Bewertung später sehr beeinflusst, da ich vermehrt daran gedacht habe, die Zeichen ""richtig"" zuzuordnen und nicht nach meinem ersten Eindruck.","0","1","0","null","","","<div class = 'row'><div class = 'column'><img src = 'category3/CS3.png' width = '70%;'></div><div class = 'column'><img src = 'uspos/8461.bmp' width = '100%;'></div></div>","null","pos","CS","CS","3","category3/CS3.png","","","","",""
"","html-keyboard-response","23","293110","0.0-6.0-0.0-0.17","gyujd0ok02","one_one","1","direct_first","1","ch06in19","1","22","1","1","3","1","Mir viel auf, dass verschiedene Muster in den chinesischen Zeichen negativ oder positiv asoziiert werden sollten, bei mir bspw. kastenformen, diagonale und vertikale striche postitv, unsymmetrische und statisch unsichere Linien dafür negativ. Auch ist mir bei den positiv konotierten Zeichen ein bildlicher Zusammenhang mit den Aufnahmen aufgefallen. Dies beides hat mich in der Bewertung später sehr beeinflusst, da ich vermehrt daran gedacht habe, die Zeichen ""richtig"" zuzuordnen und nicht nach meinem ersten Eindruck.","0","1","0","null","","","<div class = 'row'><div class = 'column'><img src = 'uspos/2040.bmp' width = '100%;'></div><div class = 'column'><img src = 'category2/CS6.png' width = '70%;'></div></div>","null","pos","CS","CS","2","category2/CS6.png","","","","",""
"","html-keyboard-response","24","295616","0.0-6.0-0.0-0.18","gyujd0ok02","one_one","1","direct_first","1","ch06in19","1","22","1","1","3","1","Mir viel auf, dass verschiedene Muster in den chinesischen Zeichen negativ oder positiv asoziiert werden sollten, bei mir bspw. kastenformen, diagonale und vertikale striche postitv, unsymmetrische und statisch unsichere Linien dafür negativ. Auch ist mir bei den positiv konotierten Zeichen ein bildlicher Zusammenhang mit den Aufnahmen aufgefallen. Dies beides hat mich in der Bewertung später sehr beeinflusst, da ich vermehrt daran gedacht habe, die Zeichen ""richtig"" zuzuordnen und nicht nach meinem ersten Eindruck.","0","1","0","null","","","<div class = 'row'><div class = 'column'><img src = 'category4/CS5.png' width = '70%;'></div><div class = 'column'><img src = 'usneg/9330.bmp' width = '100%;'></div></div>","null","neg","CS","CS","4","category4/CS5.png","","","","",""
"","html-keyboard-response","25","298121","0.0-6.0-0.0-0.19","gyujd0ok02","one_one","1","direct_first","1","ch06in19","1","22","1","1","3","1","Mir viel auf, dass verschiedene Muster in den chinesischen Zeichen negativ oder positiv asoziiert werden sollten, bei mir bspw. kastenformen, diagonale und vertikale striche postitv, unsymmetrische und statisch unsichere Linien dafür negativ. Auch ist mir bei den positiv konotierten Zeichen ein bildlicher Zusammenhang mit den Aufnahmen aufgefallen. Dies beides hat mich in der Bewertung später sehr beeinflusst, da ich vermehrt daran gedacht habe, die Zeichen ""richtig"" zuzuordnen und nicht nach meinem ersten Eindruck.","0","1","0","null","","","<div class = 'row'><div class = 'column'><img src = 'usneg/3160.bmp' width = '100%;'></div><div class = 'column'><img src = 'category1/CS6.png' width = '70%;'></div></div>","null","neg","CS","CS","1","category1/CS6.png","","","","",""
"","survey-html-form","26","313295","0.0-6.0-1.0","gyujd0ok02","one_one","1","direct_first","1","ch06in19","1","22","1","1","3","1","Mir viel auf, dass verschiedene Muster in den chinesischen Zeichen negativ oder positiv asoziiert werden sollten, bei mir bspw. kastenformen, diagonale und vertikale striche postitv, unsymmetrische und statisch unsichere Linien dafür negativ. Auch ist mir bei den positiv konotierten Zeichen ein bildlicher Zusammenhang mit den Aufnahmen aufgefallen. Dies beides hat mich in der Bewertung später sehr beeinflusst, da ich vermehrt daran gedacht habe, die Zeichen ""richtig"" zuzuordnen und nicht nach meinem ersten Eindruck.","0","1","0","14671","","{}","","","","","","","","","","","",""
"","html-keyboard-response","27","317312","0.0-6.0-2.0-0.0","gyujd0ok02","one_one","1","direct_first","1","ch06in19","1","22","1","1","3","1","Mir viel auf, dass verschiedene Muster in den chinesischen Zeichen negativ oder positiv asoziiert werden sollten, bei mir bspw. kastenformen, diagonale und vertikale striche postitv, unsymmetrische und statisch unsichere Linien dafür negativ. Auch ist mir bei den positiv konotierten Zeichen ein bildlicher Zusammenhang mit den Aufnahmen aufgefallen. Dies beides hat mich in der Bewertung später sehr beeinflusst, da ich vermehrt daran gedacht habe, die Zeichen ""richtig"" zuzuordnen und nicht nach meinem ersten Eindruck.","0","1","0","null","","","<div class = 'row'><div class = 'column'><img src = 'uspos/2040.bmp' width = '100%;'></div><div class = 'column'><img src = 'category2/CS6.png' width = '70%;'></div></div>","null","pos","CS","CS","2","category2/CS6.png","","","","",""
"","html-keyboard-response","28","319956","0.0-6.0-2.0-0.1","gyujd0ok02","one_one","1","direct_first","1","ch06in19","1","22","1","1","3","1","Mir viel auf, dass verschiedene Muster in den chinesischen Zeichen negativ oder positiv asoziiert werden sollten, bei mir bspw. kastenformen, diagonale und vertikale striche postitv, unsymmetrische und statisch unsichere Linien dafür negativ. Auch ist mir bei den positiv konotierten Zeichen ein bildlicher Zusammenhang mit den Aufnahmen aufgefallen. Dies beides hat mich in der Bewertung später sehr beeinflusst, da ich vermehrt daran gedacht habe, die Zeichen ""richtig"" zuzuordnen und nicht nach meinem ersten Eindruck.","0","1","0","null","","","<div class = 'row'><div class = 'column'><img src = 'usneg/3160.bmp' width = '100%;'></div><div class = 'column'><img src = 'category1/CS6.png' width = '70%;'></div></div>","null","neg","CS","CS","1","category1/CS6.png","","","","",""
"","html-keyboard-response","29","322460","0.0-6.0-2.0-0.2","gyujd0ok02","one_one","1","direct_first","1","ch06in19","1","22","1","1","3","1","Mir viel auf, dass verschiedene Muster in den chinesischen Zeichen negativ oder positiv asoziiert werden sollten, bei mir bspw. kastenformen, diagonale und vertikale striche postitv, unsymmetrische und statisch unsichere Linien dafür negativ. Auch ist mir bei den positiv konotierten Zeichen ein bildlicher Zusammenhang mit den Aufnahmen aufgefallen. Dies beides hat mich in der Bewertung später sehr beeinflusst, da ich vermehrt daran gedacht habe, die Zeichen ""richtig"" zuzuordnen und nicht nach meinem ersten Eindruck.","0","1","0","null","","","<div class = 'row'><div class = 'column'><img src = 'uspos/8461.bmp' width = '100%;'></div><div class = 'column'><img src = 'category3/CS3.png' width = '70%;'></div></div>","null","pos","CS","CS","3","category3/CS3.png","","","","",""
"","html-keyboard-response","30","324965","0.0-6.0-2.0-0.3","gyujd0ok02","one_one","1","direct_first","1","ch06in19","1","22","1","1","3","1","Mir viel auf, dass verschiedene Muster in den chinesischen Zeichen negativ oder positiv asoziiert werden sollten, bei mir bspw. kastenformen, diagonale und vertikale striche postitv, unsymmetrische und statisch unsichere Linien dafür negativ. Auch ist mir bei den positiv konotierten Zeichen ein bildlicher Zusammenhang mit den Aufnahmen aufgefallen. Dies beides hat mich in der Bewertung später sehr beeinflusst, da ich vermehrt daran gedacht habe, die Zeichen ""richtig"" zuzuordnen und nicht nach meinem ersten Eindruck.","0","1","0","null","","","<div class = 'row'><div class = 'column'><img src = 'category1/CS6.png' width = '70%;'></div><div class = 'column'><img src = 'usneg/3160.bmp' width = '100%;'></div></div>","null","neg","CS","CS","1","category1/CS6.png","","","","",""
"","html-keyboard-response","31","327471","0.0-6.0-2.0-0.4","gyujd0ok02","one_one","1","direct_first","1","ch06in19","1","22","1","1","3","1","Mir viel auf, dass verschiedene Muster in den chinesischen Zeichen negativ oder positiv asoziiert werden sollten, bei mir bspw. kastenformen, diagonale und vertikale striche postitv, unsymmetrische und statisch unsichere Linien dafür negativ. Auch ist mir bei den positiv konotierten Zeichen ein bildlicher Zusammenhang mit den Aufnahmen aufgefallen. Dies beides hat mich in der Bewertung später sehr beeinflusst, da ich vermehrt daran gedacht habe, die Zeichen ""richtig"" zuzuordnen und nicht nach meinem ersten Eindruck.","0","1","0","null","","","<div class = 'row'><div class = 'column'><img src = 'category4/CS5.png' width = '70%;'></div><div class = 'column'><img src = 'usneg/9330.bmp' width = '100%;'></div></div>","null","neg","CS","CS","4","category4/CS5.png","","","","",""
"","html-keyboard-response","32","329977","0.0-6.0-2.0-0.5","gyujd0ok02","one_one","1","direct_first","1","ch06in19","1","22","1","1","3","1","Mir viel auf, dass verschiedene Muster in den chinesischen Zeichen negativ oder positiv asoziiert werden sollten, bei mir bspw. kastenformen, diagonale und vertikale striche postitv, unsymmetrische und statisch unsichere Linien dafür negativ. Auch ist mir bei den positiv konotierten Zeichen ein bildlicher Zusammenhang mit den Aufnahmen aufgefallen. Dies beides hat mich in der Bewertung später sehr beeinflusst, da ich vermehrt daran gedacht habe, die Zeichen ""richtig"" zuzuordnen und nicht nach meinem ersten Eindruck.","0","1","0","null","","","<div class = 'row'><div class = 'column'><img src = 'uspos/2040.bmp' width = '100%;'></div><div class = 'column'><img src = 'category2/CS6.png' width = '70%;'></div></div>","null","pos","CS","CS","2","category2/CS6.png","","","","",""
"","html-keyboard-response","33","332489","0.0-6.0-2.0-0.6","gyujd0ok02","one_one","1","direct_first","1","ch06in19","1","22","1","1","3","1","Mir viel auf, dass verschiedene Muster in den chinesischen Zeichen negativ oder positiv asoziiert werden sollten, bei mir bspw. kastenformen, diagonale und vertikale striche postitv, unsymmetrische und statisch unsichere Linien dafür negativ. Auch ist mir bei den positiv konotierten Zeichen ein bildlicher Zusammenhang mit den Aufnahmen aufgefallen. Dies beides hat mich in der Bewertung später sehr beeinflusst, da ich vermehrt daran gedacht habe, die Zeichen ""richtig"" zuzuordnen und nicht nach meinem ersten Eindruck.","0","1","0","null","","","<div class = 'row'><div class = 'column'><img src = 'category4/CS5.png' width = '70%;'></div><div class = 'column'><img src = 'usneg/9330.bmp' width = '100%;'></div></div>","null","neg","CS","CS","4","category4/CS5.png","","","","",""
"","html-keyboard-response","34","334994","0.0-6.0-2.0-0.7","gyujd0ok02","one_one","1","direct_first","1","ch06in19","1","22","1","1","3","1","Mir viel auf, dass verschiedene Muster in den chinesischen Zeichen negativ oder positiv asoziiert werden sollten, bei mir bspw. kastenformen, diagonale und vertikale striche postitv, unsymmetrische und statisch unsichere Linien dafür negativ. Auch ist mir bei den positiv konotierten Zeichen ein bildlicher Zusammenhang mit den Aufnahmen aufgefallen. Dies beides hat mich in der Bewertung später sehr beeinflusst, da ich vermehrt daran gedacht habe, die Zeichen ""richtig"" zuzuordnen und nicht nach meinem ersten Eindruck.","0","1","0","null","","","<div class = 'row'><div class = 'column'><img src = 'category2/CS6.png' width = '70%;'></div><div class = 'column'><img src = 'uspos/2040.bmp' width = '100%;'></div></div>","null","pos","CS","CS","2","category2/CS6.png","","","","",""
"","html-keyboard-response","35","337500","0.0-6.0-2.0-0.8","gyujd0ok02","one_one","1","direct_first","1","ch06in19","1","22","1","1","3","1","Mir viel auf, dass verschiedene Muster in den chinesischen Zeichen negativ oder positiv asoziiert werden sollten, bei mir bspw. kastenformen, diagonale und vertikale striche postitv, unsymmetrische und statisch unsichere Linien dafür negativ. Auch ist mir bei den positiv konotierten Zeichen ein bildlicher Zusammenhang mit den Aufnahmen aufgefallen. Dies beides hat mich in der Bewertung später sehr beeinflusst, da ich vermehrt daran gedacht habe, die Zeichen ""richtig"" zuzuordnen und nicht nach meinem ersten Eindruck.","0","1","0","null","","","<div class = 'row'><div class = 'column'><img src = 'usneg/3160.bmp' width = '100%;'></div><div class = 'column'><img src = 'category1/CS6.png' width = '70%;'></div></div>","null","neg","CS","CS","1","category1/CS6.png","","","","",""
"","html-keyboard-response","36","340005","0.0-6.0-2.0-0.9","gyujd0ok02","one_one","1","direct_first","1","ch06in19","1","22","1","1","3","1","Mir viel auf, dass verschiedene Muster in den chinesischen Zeichen negativ oder positiv asoziiert werden sollten, bei mir bspw. kastenformen, diagonale und vertikale striche postitv, unsymmetrische und statisch unsichere Linien dafür negativ. Auch ist mir bei den positiv konotierten Zeichen ein bildlicher Zusammenhang mit den Aufnahmen aufgefallen. Dies beides hat mich in der Bewertung später sehr beeinflusst, da ich vermehrt daran gedacht habe, die Zeichen ""richtig"" zuzuordnen und nicht nach meinem ersten Eindruck.","0","1","0","null","","","<div class = 'row'><div class = 'column'><img src = 'category3/CS3.png' width = '70%;'></div><div class = 'column'><img src = 'uspos/8461.bmp' width = '100%;'></div></div>","null","pos","CS","CS","3","category3/CS3.png","","","","",""
"","html-keyboard-response","37","342511","0.0-6.0-2.0-0.10","gyujd0ok02","one_one","1","direct_first","1","ch06in19","1","22","1","1","3","1","Mir viel auf, dass verschiedene Muster in den chinesischen Zeichen negativ oder positiv asoziiert werden sollten, bei mir bspw. kastenformen, diagonale und vertikale striche postitv, unsymmetrische und statisch unsichere Linien dafür negativ. Auch ist mir bei den positiv konotierten Zeichen ein bildlicher Zusammenhang mit den Aufnahmen aufgefallen. Dies beides hat mich in der Bewertung später sehr beeinflusst, da ich vermehrt daran gedacht habe, die Zeichen ""richtig"" zuzuordnen und nicht nach meinem ersten Eindruck.","0","1","0","null","","","<div class = 'row'><div class = 'column'><img src = 'category4/CS5.png' width = '70%;'></div><div class = 'column'><img src = 'usneg/9330.bmp' width = '100%;'></div></div>","null","neg","CS","CS","4","category4/CS5.png","","","","",""
"","html-keyboard-response","38","345016","0.0-6.0-2.0-0.11","gyujd0ok02","one_one","1","direct_first","1","ch06in19","1","22","1","1","3","1","Mir viel auf, dass verschiedene Muster in den chinesischen Zeichen negativ oder positiv asoziiert werden sollten, bei mir bspw. kastenformen, diagonale und vertikale striche postitv, unsymmetrische und statisch unsichere Linien dafür negativ. Auch ist mir bei den positiv konotierten Zeichen ein bildlicher Zusammenhang mit den Aufnahmen aufgefallen. Dies beides hat mich in der Bewertung später sehr beeinflusst, da ich vermehrt daran gedacht habe, die Zeichen ""richtig"" zuzuordnen und nicht nach meinem ersten Eindruck.","0","1","0","null","","","<div class = 'row'><div class = 'column'><img src = 'uspos/8461.bmp' width = '100%;'></div><div class = 'column'><img src = 'category3/CS3.png' width = '70%;'></div></div>","null","pos","CS","CS","3","category3/CS3.png","","","","",""
"","html-keyboard-response","39","347535","0.0-6.0-2.0-0.12","gyujd0ok02","one_one","1","direct_first","1","ch06in19","1","22","1","1","3","1","Mir viel auf, dass verschiedene Muster in den chinesischen Zeichen negativ oder positiv asoziiert werden sollten, bei mir bspw. kastenformen, diagonale und vertikale striche postitv, unsymmetrische und statisch unsichere Linien dafür negativ. Auch ist mir bei den positiv konotierten Zeichen ein bildlicher Zusammenhang mit den Aufnahmen aufgefallen. Dies beides hat mich in der Bewertung später sehr beeinflusst, da ich vermehrt daran gedacht habe, die Zeichen ""richtig"" zuzuordnen und nicht nach meinem ersten Eindruck.","0","1","0","null","","","<div class = 'row'><div class = 'column'><img src = 'category2/CS6.png' width = '70%;'></div><div class = 'column'><img src = 'uspos/2040.bmp' width = '100%;'></div></div>","null","pos","CS","CS","2","category2/CS6.png","","","","",""
"","html-keyboard-response","40","350041","0.0-6.0-2.0-0.13","gyujd0ok02","one_one","1","direct_first","1","ch06in19","1","22","1","1","3","1","Mir viel auf, dass verschiedene Muster in den chinesischen Zeichen negativ oder positiv asoziiert werden sollten, bei mir bspw. kastenformen, diagonale und vertikale striche postitv, unsymmetrische und statisch unsichere Linien dafür negativ. Auch ist mir bei den positiv konotierten Zeichen ein bildlicher Zusammenhang mit den Aufnahmen aufgefallen. Dies beides hat mich in der Bewertung später sehr beeinflusst, da ich vermehrt daran gedacht habe, die Zeichen ""richtig"" zuzuordnen und nicht nach meinem ersten Eindruck.","0","1","0","null","","","<div class = 'row'><div class = 'column'><img src = 'uspos/8461.bmp' width = '100%;'></div><div class = 'column'><img src = 'category3/CS3.png' width = '70%;'></div></div>","null","pos","CS","CS","3","category3/CS3.png","","","","",""
"","html-keyboard-response","41","352547","0.0-6.0-2.0-0.14","gyujd0ok02","one_one","1","direct_first","1","ch06in19","1","22","1","1","3","1","Mir viel auf, dass verschiedene Muster in den chinesischen Zeichen negativ oder positiv asoziiert werden sollten, bei mir bspw. kastenformen, diagonale und vertikale striche postitv, unsymmetrische und statisch unsichere Linien dafür negativ. Auch ist mir bei den positiv konotierten Zeichen ein bildlicher Zusammenhang mit den Aufnahmen aufgefallen. Dies beides hat mich in der Bewertung später sehr beeinflusst, da ich vermehrt daran gedacht habe, die Zeichen ""richtig"" zuzuordnen und nicht nach meinem ersten Eindruck.","0","1","0","null","","","<div class = 'row'><div class = 'column'><img src = 'usneg/9330.bmp' width = '100%;'></div><div class = 'column'><img src = 'category4/CS5.png' width = '70%;'></div></div>","null","neg","CS","CS","4","category4/CS5.png","","","","",""
"","html-keyboard-response","42","355052","0.0-6.0-2.0-0.15","gyujd0ok02","one_one","1","direct_first","1","ch06in19","1","22","1","1","3","1","Mir viel auf, dass verschiedene Muster in den chinesischen Zeichen negativ oder positiv asoziiert werden sollten, bei mir bspw. kastenformen, diagonale und vertikale striche postitv, unsymmetrische und statisch unsichere Linien dafür negativ. Auch ist mir bei den positiv konotierten Zeichen ein bildlicher Zusammenhang mit den Aufnahmen aufgefallen. Dies beides hat mich in der Bewertung später sehr beeinflusst, da ich vermehrt daran gedacht habe, die Zeichen ""richtig"" zuzuordnen und nicht nach meinem ersten Eindruck.","0","1","0","null","","","<div class = 'row'><div class = 'column'><img src = 'category1/CS6.png' width = '70%;'></div><div class = 'column'><img src = 'usneg/3160.bmp' width = '100%;'></div></div>","null","neg","CS","CS","1","category1/CS6.png","","","","",""
"","html-keyboard-response","43","357557","0.0-6.0-2.0-0.16","gyujd0ok02","one_one","1","direct_first","1","ch06in19","1","22","1","1","3","1","Mir viel auf, dass verschiedene Muster in den chinesischen Zeichen negativ oder positiv asoziiert werden sollten, bei mir bspw. kastenformen, diagonale und vertikale striche postitv, unsymmetrische und statisch unsichere Linien dafür negativ. Auch ist mir bei den positiv konotierten Zeichen ein bildlicher Zusammenhang mit den Aufnahmen aufgefallen. Dies beides hat mich in der Bewertung später sehr beeinflusst, da ich vermehrt daran gedacht habe, die Zeichen ""richtig"" zuzuordnen und nicht nach meinem ersten Eindruck.","0","1","0","null","","","<div class = 'row'><div class = 'column'><img src = 'category4/CS5.png' width = '70%;'></div><div class = 'column'><img src = 'usneg/9330.bmp' width = '100%;'></div></div>","null","neg","CS","CS","4","category4/CS5.png","","","","",""
"","html-keyboard-response","44","360063","0.0-6.0-2.0-0.17","gyujd0ok02","one_one","1","direct_first","1","ch06in19","1","22","1","1","3","1","Mir viel auf, dass verschiedene Muster in den chinesischen Zeichen negativ oder positiv asoziiert werden sollten, bei mir bspw. kastenformen, diagonale und vertikale striche postitv, unsymmetrische und statisch unsichere Linien dafür negativ. Auch ist mir bei den positiv konotierten Zeichen ein bildlicher Zusammenhang mit den Aufnahmen aufgefallen. Dies beides hat mich in der Bewertung später sehr beeinflusst, da ich vermehrt daran gedacht habe, die Zeichen ""richtig"" zuzuordnen und nicht nach meinem ersten Eindruck.","0","1","0","null","","","<div class = 'row'><div class = 'column'><img src = 'uspos/8461.bmp' width = '100%;'></div><div class = 'column'><img src = 'category3/CS3.png' width = '70%;'></div></div>","null","pos","CS","CS","3","category3/CS3.png","","","","",""
"","html-keyboard-response","45","362569","0.0-6.0-2.0-0.18","gyujd0ok02","one_one","1","direct_first","1","ch06in19","1","22","1","1","3","1","Mir viel auf, dass verschiedene Muster in den chinesischen Zeichen negativ oder positiv asoziiert werden sollten, bei mir bspw. kastenformen, diagonale und vertikale striche postitv, unsymmetrische und statisch unsichere Linien dafür negativ. Auch ist mir bei den positiv konotierten Zeichen ein bildlicher Zusammenhang mit den Aufnahmen aufgefallen. Dies beides hat mich in der Bewertung später sehr beeinflusst, da ich vermehrt daran gedacht habe, die Zeichen ""richtig"" zuzuordnen und nicht nach meinem ersten Eindruck.","0","1","0","null","","","<div class = 'row'><div class = 'column'><img src = 'uspos/2040.bmp' width = '100%;'></div><div class = 'column'><img src = 'category2/CS6.png' width = '70%;'></div></div>","null","pos","CS","CS","2","category2/CS6.png","","","","",""
"","html-keyboard-response","46","365075","0.0-6.0-2.0-0.19","gyujd0ok02","one_one","1","direct_first","1","ch06in19","1","22","1","1","3","1","Mir viel auf, dass verschiedene Muster in den chinesischen Zeichen negativ oder positiv asoziiert werden sollten, bei mir bspw. kastenformen, diagonale und vertikale striche postitv, unsymmetrische und statisch unsichere Linien dafür negativ. Auch ist mir bei den positiv konotierten Zeichen ein bildlicher Zusammenhang mit den Aufnahmen aufgefallen. Dies beides hat mich in der Bewertung später sehr beeinflusst, da ich vermehrt daran gedacht habe, die Zeichen ""richtig"" zuzuordnen und nicht nach meinem ersten Eindruck.","0","1","0","null","","","<div class = 'row'><div class = 'column'><img src = 'usneg/3160.bmp' width = '100%;'></div><div class = 'column'><img src = 'category1/CS6.png' width = '70%;'></div></div>","null","neg","CS","CS","1","category1/CS6.png","","","","",""
"","survey-html-form","47","368926","0.0-6.0-3.0","gyujd0ok02","one_one","1","direct_first","1","ch06in19","1","22","1","1","3","1","Mir viel auf, dass verschiedene Muster in den chinesischen Zeichen negativ oder positiv asoziiert werden sollten, bei mir bspw. kastenformen, diagonale und vertikale striche postitv, unsymmetrische und statisch unsichere Linien dafür negativ. Auch ist mir bei den positiv konotierten Zeichen ein bildlicher Zusammenhang mit den Aufnahmen aufgefallen. Dies beides hat mich in der Bewertung später sehr beeinflusst, da ich vermehrt daran gedacht habe, die Zeichen ""richtig"" zuzuordnen und nicht nach meinem ersten Eindruck.","0","1","0","3349","","{}","","","","","","","","","","","",""
"","html-keyboard-response","48","372931","0.0-6.0-4.0-0.0","gyujd0ok02","one_one","1","direct_first","1","ch06in19","1","22","1","1","3","1","Mir viel auf, dass verschiedene Muster in den chinesischen Zeichen negativ oder positiv asoziiert werden sollten, bei mir bspw. kastenformen, diagonale und vertikale striche postitv, unsymmetrische und statisch unsichere Linien dafür negativ. Auch ist mir bei den positiv konotierten Zeichen ein bildlicher Zusammenhang mit den Aufnahmen aufgefallen. Dies beides hat mich in der Bewertung später sehr beeinflusst, da ich vermehrt daran gedacht habe, die Zeichen ""richtig"" zuzuordnen und nicht nach meinem ersten Eindruck.","0","1","0","null","","","<div class = 'row'><div class = 'column'><img src = 'category4/CS5.png' width = '70%;'></div><div class = 'column'><img src = 'usneg/9330.bmp' width = '100%;'></div></div>","null","neg","CS","CS","4","category4/CS5.png","","","","",""
"","html-keyboard-response","49","375435","0.0-6.0-4.0-0.1","gyujd0ok02","one_one","1","direct_first","1","ch06in19","1","22","1","1","3","1","Mir viel auf, dass verschiedene Muster in den chinesischen Zeichen negativ oder positiv asoziiert werden sollten, bei mir bspw. kastenformen, diagonale und vertikale striche postitv, unsymmetrische und statisch unsichere Linien dafür negativ. Auch ist mir bei den positiv konotierten Zeichen ein bildlicher Zusammenhang mit den Aufnahmen aufgefallen. Dies beides hat mich in der Bewertung später sehr beeinflusst, da ich vermehrt daran gedacht habe, die Zeichen ""richtig"" zuzuordnen und nicht nach meinem ersten Eindruck.","0","1","0","null","","","<div class = 'row'><div class = 'column'><img src = 'uspos/8461.bmp' width = '100%;'></div><div class = 'column'><img src = 'category3/CS3.png' width = '70%;'></div></div>","null","pos","CS","CS","3","category3/CS3.png","","","","",""
"","html-keyboard-response","50","377941","0.0-6.0-4.0-0.2","gyujd0ok02","one_one","1","direct_first","1","ch06in19","1","22","1","1","3","1","Mir viel auf, dass verschiedene Muster in den chinesischen Zeichen negativ oder positiv asoziiert werden sollten, bei mir bspw. kastenformen, diagonale und vertikale striche postitv, unsymmetrische und statisch unsichere Linien dafür negativ. Auch ist mir bei den positiv konotierten Zeichen ein bildlicher Zusammenhang mit den Aufnahmen aufgefallen. Dies beides hat mich in der Bewertung später sehr beeinflusst, da ich vermehrt daran gedacht habe, die Zeichen ""richtig"" zuzuordnen und nicht nach meinem ersten Eindruck.","0","1","0","null","","","<div class = 'row'><div class = 'column'><img src = 'category1/CS6.png' width = '70%;'></div><div class = 'column'><img src = 'usneg/3160.bmp' width = '100%;'></div></div>","null","neg","CS","CS","1","category1/CS6.png","","","","",""
"","html-keyboard-response","51","380446","0.0-6.0-4.0-0.3","gyujd0ok02","one_one","1","direct_first","1","ch06in19","1","22","1","1","3","1","Mir viel auf, dass verschiedene Muster in den chinesischen Zeichen negativ oder positiv asoziiert werden sollten, bei mir bspw. kastenformen, diagonale und vertikale striche postitv, unsymmetrische und statisch unsichere Linien dafür negativ. Auch ist mir bei den positiv konotierten Zeichen ein bildlicher Zusammenhang mit den Aufnahmen aufgefallen. Dies beides hat mich in der Bewertung später sehr beeinflusst, da ich vermehrt daran gedacht habe, die Zeichen ""richtig"" zuzuordnen und nicht nach meinem ersten Eindruck.","0","1","0","null","","","<div class = 'row'><div class = 'column'><img src = 'usneg/9330.bmp' width = '100%;'></div><div class = 'column'><img src = 'category4/CS5.png' width = '70%;'></div></div>","null","neg","CS","CS","4","category4/CS5.png","","","","",""
"","html-keyboard-response","52","382952","0.0-6.0-4.0-0.4","gyujd0ok02","one_one","1","direct_first","1","ch06in19","1","22","1","1","3","1","Mir viel auf, dass verschiedene Muster in den chinesischen Zeichen negativ oder positiv asoziiert werden sollten, bei mir bspw. kastenformen, diagonale und vertikale striche postitv, unsymmetrische und statisch unsichere Linien dafür negativ. Auch ist mir bei den positiv konotierten Zeichen ein bildlicher Zusammenhang mit den Aufnahmen aufgefallen. Dies beides hat mich in der Bewertung später sehr beeinflusst, da ich vermehrt daran gedacht habe, die Zeichen ""richtig"" zuzuordnen und nicht nach meinem ersten Eindruck.","0","1","0","null","","","<div class = 'row'><div class = 'column'><img src = 'uspos/8461.bmp' width = '100%;'></div><div class = 'column'><img src = 'category3/CS3.png' width = '70%;'></div></div>","null","pos","CS","CS","3","category3/CS3.png","","","","",""
"","html-keyboard-response","53","385457","0.0-6.0-4.0-0.5","gyujd0ok02","one_one","1","direct_first","1","ch06in19","1","22","1","1","3","1","Mir viel auf, dass verschiedene Muster in den chinesischen Zeichen negativ oder positiv asoziiert werden sollten, bei mir bspw. kastenformen, diagonale und vertikale striche postitv, unsymmetrische und statisch unsichere Linien dafür negativ. Auch ist mir bei den positiv konotierten Zeichen ein bildlicher Zusammenhang mit den Aufnahmen aufgefallen. Dies beides hat mich in der Bewertung später sehr beeinflusst, da ich vermehrt daran gedacht habe, die Zeichen ""richtig"" zuzuordnen und nicht nach meinem ersten Eindruck.","0","1","0","null","","","<div class = 'row'><div class = 'column'><img src = 'category1/CS6.png' width = '70%;'></div><div class = 'column'><img src = 'usneg/3160.bmp' width = '100%;'></div></div>","null","neg","CS","CS","1","category1/CS6.png","","","","",""
"","html-keyboard-response","54","387963","0.0-6.0-4.0-0.6","gyujd0ok02","one_one","1","direct_first","1","ch06in19","1","22","1","1","3","1","Mir viel auf, dass verschiedene Muster in den chinesischen Zeichen negativ oder positiv asoziiert werden sollten, bei mir bspw. kastenformen, diagonale und vertikale striche postitv, unsymmetrische und statisch unsichere Linien dafür negativ. Auch ist mir bei den positiv konotierten Zeichen ein bildlicher Zusammenhang mit den Aufnahmen aufgefallen. Dies beides hat mich in der Bewertung später sehr beeinflusst, da ich vermehrt daran gedacht habe, die Zeichen ""richtig"" zuzuordnen und nicht nach meinem ersten Eindruck.","0","1","0","null","","","<div class = 'row'><div class = 'column'><img src = 'category2/CS6.png' width = '70%;'></div><div class = 'column'><img src = 'uspos/2040.bmp' width = '100%;'></div></div>","null","pos","CS","CS","2","category2/CS6.png","","","","",""
"","html-keyboard-response","55","390468","0.0-6.0-4.0-0.7","gyujd0ok02","one_one","1","direct_first","1","ch06in19","1","22","1","1","3","1","Mir viel auf, dass verschiedene Muster in den chinesischen Zeichen negativ oder positiv asoziiert werden sollten, bei mir bspw. kastenformen, diagonale und vertikale striche postitv, unsymmetrische und statisch unsichere Linien dafür negativ. Auch ist mir bei den positiv konotierten Zeichen ein bildlicher Zusammenhang mit den Aufnahmen aufgefallen. Dies beides hat mich in der Bewertung später sehr beeinflusst, da ich vermehrt daran gedacht habe, die Zeichen ""richtig"" zuzuordnen und nicht nach meinem ersten Eindruck.","0","1","0","null","","","<div class = 'row'><div class = 'column'><img src = 'usneg/9330.bmp' width = '100%;'></div><div class = 'column'><img src = 'category4/CS5.png' width = '70%;'></div></div>","null","neg","CS","CS","4","category4/CS5.png","","","","",""
"","html-keyboard-response","56","392974","0.0-6.0-4.0-0.8","gyujd0ok02","one_one","1","direct_first","1","ch06in19","1","22","1","1","3","1","Mir viel auf, dass verschiedene Muster in den chinesischen Zeichen negativ oder positiv asoziiert werden sollten, bei mir bspw. kastenformen, diagonale und vertikale striche postitv, unsymmetrische und statisch unsichere Linien dafür negativ. Auch ist mir bei den positiv konotierten Zeichen ein bildlicher Zusammenhang mit den Aufnahmen aufgefallen. Dies beides hat mich in der Bewertung später sehr beeinflusst, da ich vermehrt daran gedacht habe, die Zeichen ""richtig"" zuzuordnen und nicht nach meinem ersten Eindruck.","0","1","0","null","","","<div class = 'row'><div class = 'column'><img src = 'category2/CS6.png' width = '70%;'></div><div class = 'column'><img src = 'uspos/2040.bmp' width = '100%;'></div></div>","null","pos","CS","CS","2","category2/CS6.png","","","","",""
"","html-keyboard-response","57","395480","0.0-6.0-4.0-0.9","gyujd0ok02","one_one","1","direct_first","1","ch06in19","1","22","1","1","3","1","Mir viel auf, dass verschiedene Muster in den chinesischen Zeichen negativ oder positiv asoziiert werden sollten, bei mir bspw. kastenformen, diagonale und vertikale striche postitv, unsymmetrische und statisch unsichere Linien dafür negativ. Auch ist mir bei den positiv konotierten Zeichen ein bildlicher Zusammenhang mit den Aufnahmen aufgefallen. Dies beides hat mich in der Bewertung später sehr beeinflusst, da ich vermehrt daran gedacht habe, die Zeichen ""richtig"" zuzuordnen und nicht nach meinem ersten Eindruck.","0","1","0","null","","","<div class = 'row'><div class = 'column'><img src = 'usneg/3160.bmp' width = '100%;'></div><div class = 'column'><img src = 'category1/CS6.png' width = '70%;'></div></div>","null","neg","CS","CS","1","category1/CS6.png","","","","",""
"","html-keyboard-response","58","397985","0.0-6.0-4.0-0.10","gyujd0ok02","one_one","1","direct_first","1","ch06in19","1","22","1","1","3","1","Mir viel auf, dass verschiedene Muster in den chinesischen Zeichen negativ oder positiv asoziiert werden sollten, bei mir bspw. kastenformen, diagonale und vertikale striche postitv, unsymmetrische und statisch unsichere Linien dafür negativ. Auch ist mir bei den positiv konotierten Zeichen ein bildlicher Zusammenhang mit den Aufnahmen aufgefallen. Dies beides hat mich in der Bewertung später sehr beeinflusst, da ich vermehrt daran gedacht habe, die Zeichen ""richtig"" zuzuordnen und nicht nach meinem ersten Eindruck.","0","1","0","null","","","<div class = 'row'><div class = 'column'><img src = 'category4/CS5.png' width = '70%;'></div><div class = 'column'><img src = 'usneg/9330.bmp' width = '100%;'></div></div>","null","neg","CS","CS","4","category4/CS5.png","","","","",""
"","html-keyboard-response","59","400490","0.0-6.0-4.0-0.11","gyujd0ok02","one_one","1","direct_first","1","ch06in19","1","22","1","1","3","1","Mir viel auf, dass verschiedene Muster in den chinesischen Zeichen negativ oder positiv asoziiert werden sollten, bei mir bspw. kastenformen, diagonale und vertikale striche postitv, unsymmetrische und statisch unsichere Linien dafür negativ. Auch ist mir bei den positiv konotierten Zeichen ein bildlicher Zusammenhang mit den Aufnahmen aufgefallen. Dies beides hat mich in der Bewertung später sehr beeinflusst, da ich vermehrt daran gedacht habe, die Zeichen ""richtig"" zuzuordnen und nicht nach meinem ersten Eindruck.","0","1","0","null","","","<div class = 'row'><div class = 'column'><img src = 'uspos/2040.bmp' width = '100%;'></div><div class = 'column'><img src = 'category2/CS6.png' width = '70%;'></div></div>","null","pos","CS","CS","2","category2/CS6.png","","","","",""
"","html-keyboard-response","60","402996","0.0-6.0-4.0-0.12","gyujd0ok02","one_one","1","direct_first","1","ch06in19","1","22","1","1","3","1","Mir viel auf, dass verschiedene Muster in den chinesischen Zeichen negativ oder positiv asoziiert werden sollten, bei mir bspw. kastenformen, diagonale und vertikale striche postitv, unsymmetrische und statisch unsichere Linien dafür negativ. Auch ist mir bei den positiv konotierten Zeichen ein bildlicher Zusammenhang mit den Aufnahmen aufgefallen. Dies beides hat mich in der Bewertung später sehr beeinflusst, da ich vermehrt daran gedacht habe, die Zeichen ""richtig"" zuzuordnen und nicht nach meinem ersten Eindruck.","0","1","0","null","","","<div class = 'row'><div class = 'column'><img src = 'category1/CS6.png' width = '70%;'></div><div class = 'column'><img src = 'usneg/3160.bmp' width = '100%;'></div></div>","null","neg","CS","CS","1","category1/CS6.png","","","","",""
"","html-keyboard-response","61","405501","0.0-6.0-4.0-0.13","gyujd0ok02","one_one","1","direct_first","1","ch06in19","1","22","1","1","3","1","Mir viel auf, dass verschiedene Muster in den chinesischen Zeichen negativ oder positiv asoziiert werden sollten, bei mir bspw. kastenformen, diagonale und vertikale striche postitv, unsymmetrische und statisch unsichere Linien dafür negativ. Auch ist mir bei den positiv konotierten Zeichen ein bildlicher Zusammenhang mit den Aufnahmen aufgefallen. Dies beides hat mich in der Bewertung später sehr beeinflusst, da ich vermehrt daran gedacht habe, die Zeichen ""richtig"" zuzuordnen und nicht nach meinem ersten Eindruck.","0","1","0","null","","","<div class = 'row'><div class = 'column'><img src = 'uspos/8461.bmp' width = '100%;'></div><div class = 'column'><img src = 'category3/CS3.png' width = '70%;'></div></div>","null","pos","CS","CS","3","category3/CS3.png","","","","",""
"","html-keyboard-response","62","408007","0.0-6.0-4.0-0.14","gyujd0ok02","one_one","1","direct_first","1","ch06in19","1","22","1","1","3","1","Mir viel auf, dass verschiedene Muster in den chinesischen Zeichen negativ oder positiv asoziiert werden sollten, bei mir bspw. kastenformen, diagonale und vertikale striche postitv, unsymmetrische und statisch unsichere Linien dafür negativ. Auch ist mir bei den positiv konotierten Zeichen ein bildlicher Zusammenhang mit den Aufnahmen aufgefallen. Dies beides hat mich in der Bewertung später sehr beeinflusst, da ich vermehrt daran gedacht habe, die Zeichen ""richtig"" zuzuordnen und nicht nach meinem ersten Eindruck.","0","1","0","null","","","<div class = 'row'><div class = 'column'><img src = 'usneg/9330.bmp' width = '100%;'></div><div class = 'column'><img src = 'category4/CS5.png' width = '70%;'></div></div>","null","neg","CS","CS","4","category4/CS5.png","","","","",""
"","html-keyboard-response","63","410512","0.0-6.0-4.0-0.15","gyujd0ok02","one_one","1","direct_first","1","ch06in19","1","22","1","1","3","1","Mir viel auf, dass verschiedene Muster in den chinesischen Zeichen negativ oder positiv asoziiert werden sollten, bei mir bspw. kastenformen, diagonale und vertikale striche postitv, unsymmetrische und statisch unsichere Linien dafür negativ. Auch ist mir bei den positiv konotierten Zeichen ein bildlicher Zusammenhang mit den Aufnahmen aufgefallen. Dies beides hat mich in der Bewertung später sehr beeinflusst, da ich vermehrt daran gedacht habe, die Zeichen ""richtig"" zuzuordnen und nicht nach meinem ersten Eindruck.","0","1","0","null","","","<div class = 'row'><div class = 'column'><img src = 'category3/CS3.png' width = '70%;'></div><div class = 'column'><img src = 'uspos/8461.bmp' width = '100%;'></div></div>","null","pos","CS","CS","3","category3/CS3.png","","","","",""
"","html-keyboard-response","64","413018","0.0-6.0-4.0-0.16","gyujd0ok02","one_one","1","direct_first","1","ch06in19","1","22","1","1","3","1","Mir viel auf, dass verschiedene Muster in den chinesischen Zeichen negativ oder positiv asoziiert werden sollten, bei mir bspw. kastenformen, diagonale und vertikale striche postitv, unsymmetrische und statisch unsichere Linien dafür negativ. Auch ist mir bei den positiv konotierten Zeichen ein bildlicher Zusammenhang mit den Aufnahmen aufgefallen. Dies beides hat mich in der Bewertung später sehr beeinflusst, da ich vermehrt daran gedacht habe, die Zeichen ""richtig"" zuzuordnen und nicht nach meinem ersten Eindruck.","0","1","0","null","","","<div class = 'row'><div class = 'column'><img src = 'uspos/2040.bmp' width = '100%;'></div><div class = 'column'><img src = 'category2/CS6.png' width = '70%;'></div></div>","null","pos","CS","CS","2","category2/CS6.png","","","","",""
"","html-keyboard-response","65","415532","0.0-6.0-4.0-0.17","gyujd0ok02","one_one","1","direct_first","1","ch06in19","1","22","1","1","3","1","Mir viel auf, dass verschiedene Muster in den chinesischen Zeichen negativ oder positiv asoziiert werden sollten, bei mir bspw. kastenformen, diagonale und vertikale striche postitv, unsymmetrische und statisch unsichere Linien dafür negativ. Auch ist mir bei den positiv konotierten Zeichen ein bildlicher Zusammenhang mit den Aufnahmen aufgefallen. Dies beides hat mich in der Bewertung später sehr beeinflusst, da ich vermehrt daran gedacht habe, die Zeichen ""richtig"" zuzuordnen und nicht nach meinem ersten Eindruck.","0","1","0","null","","","<div class = 'row'><div class = 'column'><img src = 'usneg/3160.bmp' width = '100%;'></div><div class = 'column'><img src = 'category1/CS6.png' width = '70%;'></div></div>","null","neg","CS","CS","1","category1/CS6.png","","","","",""
"","html-keyboard-response","66","418050","0.0-6.0-4.0-0.18","gyujd0ok02","one_one","1","direct_first","1","ch06in19","1","22","1","1","3","1","Mir viel auf, dass verschiedene Muster in den chinesischen Zeichen negativ oder positiv asoziiert werden sollten, bei mir bspw. kastenformen, diagonale und vertikale striche postitv, unsymmetrische und statisch unsichere Linien dafür negativ. Auch ist mir bei den positiv konotierten Zeichen ein bildlicher Zusammenhang mit den Aufnahmen aufgefallen. Dies beides hat mich in der Bewertung später sehr beeinflusst, da ich vermehrt daran gedacht habe, die Zeichen ""richtig"" zuzuordnen und nicht nach meinem ersten Eindruck.","0","1","0","null","","","<div class = 'row'><div class = 'column'><img src = 'category3/CS3.png' width = '70%;'></div><div class = 'column'><img src = 'uspos/8461.bmp' width = '100%;'></div></div>","null","pos","CS","CS","3","category3/CS3.png","","","","",""
"","html-keyboard-response","67","420556","0.0-6.0-4.0-0.19","gyujd0ok02","one_one","1","direct_first","1","ch06in19","1","22","1","1","3","1","Mir viel auf, dass verschiedene Muster in den chinesischen Zeichen negativ oder positiv asoziiert werden sollten, bei mir bspw. kastenformen, diagonale und vertikale striche postitv, unsymmetrische und statisch unsichere Linien dafür negativ. Auch ist mir bei den positiv konotierten Zeichen ein bildlicher Zusammenhang mit den Aufnahmen aufgefallen. Dies beides hat mich in der Bewertung später sehr beeinflusst, da ich vermehrt daran gedacht habe, die Zeichen ""richtig"" zuzuordnen und nicht nach meinem ersten Eindruck.","0","1","0","null","","","<div class = 'row'><div class = 'column'><img src = 'uspos/2040.bmp' width = '100%;'></div><div class = 'column'><img src = 'category2/CS6.png' width = '70%;'></div></div>","null","pos","CS","CS","2","category2/CS6.png","","","","",""
"","survey-html-form","68","423473","0.0-6.0-5.0","gyujd0ok02","one_one","1","direct_first","1","ch06in19","1","22","1","1","3","1","Mir viel auf, dass verschiedene Muster in den chinesischen Zeichen negativ oder positiv asoziiert werden sollten, bei mir bspw. kastenformen, diagonale und vertikale striche postitv, unsymmetrische und statisch unsichere Linien dafür negativ. Auch ist mir bei den positiv konotierten Zeichen ein bildlicher Zusammenhang mit den Aufnahmen aufgefallen. Dies beides hat mich in der Bewertung später sehr beeinflusst, da ich vermehrt daran gedacht habe, die Zeichen ""richtig"" zuzuordnen und nicht nach meinem ersten Eindruck.","0","1","0","2414","","{}","","","","","","","","","","","",""
"","html-keyboard-response","69","427478","0.0-6.0-6.0-0.0","gyujd0ok02","one_one","1","direct_first","1","ch06in19","1","22","1","1","3","1","Mir viel auf, dass verschiedene Muster in den chinesischen Zeichen negativ oder positiv asoziiert werden sollten, bei mir bspw. kastenformen, diagonale und vertikale striche postitv, unsymmetrische und statisch unsichere Linien dafür negativ. Auch ist mir bei den positiv konotierten Zeichen ein bildlicher Zusammenhang mit den Aufnahmen aufgefallen. Dies beides hat mich in der Bewertung später sehr beeinflusst, da ich vermehrt daran gedacht habe, die Zeichen ""richtig"" zuzuordnen und nicht nach meinem ersten Eindruck.","0","1","0","null","","","<div class = 'row'><div class = 'column'><img src = 'category4/CS5.png' width = '70%;'></div><div class = 'column'><img src = 'usneg/9330.bmp' width = '100%;'></div></div>","null","neg","CS","CS","4","category4/CS5.png","","","","",""
"","html-keyboard-response","70","429983","0.0-6.0-6.0-0.1","gyujd0ok02","one_one","1","direct_first","1","ch06in19","1","22","1","1","3","1","Mir viel auf, dass verschiedene Muster in den chinesischen Zeichen negativ oder positiv asoziiert werden sollten, bei mir bspw. kastenformen, diagonale und vertikale striche postitv, unsymmetrische und statisch unsichere Linien dafür negativ. Auch ist mir bei den positiv konotierten Zeichen ein bildlicher Zusammenhang mit den Aufnahmen aufgefallen. Dies beides hat mich in der Bewertung später sehr beeinflusst, da ich vermehrt daran gedacht habe, die Zeichen ""richtig"" zuzuordnen und nicht nach meinem ersten Eindruck.","0","1","0","null","","","<div class = 'row'><div class = 'column'><img src = 'category1/CS6.png' width = '70%;'></div><div class = 'column'><img src = 'usneg/3160.bmp' width = '100%;'></div></div>","null","neg","CS","CS","1","category1/CS6.png","","","","",""
"","html-keyboard-response","71","432488","0.0-6.0-6.0-0.2","gyujd0ok02","one_one","1","direct_first","1","ch06in19","1","22","1","1","3","1","Mir viel auf, dass verschiedene Muster in den chinesischen Zeichen negativ oder positiv asoziiert werden sollten, bei mir bspw. kastenformen, diagonale und vertikale striche postitv, unsymmetrische und statisch unsichere Linien dafür negativ. Auch ist mir bei den positiv konotierten Zeichen ein bildlicher Zusammenhang mit den Aufnahmen aufgefallen. Dies beides hat mich in der Bewertung später sehr beeinflusst, da ich vermehrt daran gedacht habe, die Zeichen ""richtig"" zuzuordnen und nicht nach meinem ersten Eindruck.","0","1","0","null","","","<div class = 'row'><div class = 'column'><img src = 'category2/CS6.png' width = '70%;'></div><div class = 'column'><img src = 'uspos/2040.bmp' width = '100%;'></div></div>","null","pos","CS","CS","2","category2/CS6.png","","","","",""
"","html-keyboard-response","72","434994","0.0-6.0-6.0-0.3","gyujd0ok02","one_one","1","direct_first","1","ch06in19","1","22","1","1","3","1","Mir viel auf, dass verschiedene Muster in den chinesischen Zeichen negativ oder positiv asoziiert werden sollten, bei mir bspw. kastenformen, diagonale und vertikale striche postitv, unsymmetrische und statisch unsichere Linien dafür negativ. Auch ist mir bei den positiv konotierten Zeichen ein bildlicher Zusammenhang mit den Aufnahmen aufgefallen. Dies beides hat mich in der Bewertung später sehr beeinflusst, da ich vermehrt daran gedacht habe, die Zeichen ""richtig"" zuzuordnen und nicht nach meinem ersten Eindruck.","0","1","0","null","","","<div class = 'row'><div class = 'column'><img src = 'uspos/8461.bmp' width = '100%;'></div><div class = 'column'><img src = 'category3/CS3.png' width = '70%;'></div></div>","null","pos","CS","CS","3","category3/CS3.png","","","","",""
"","html-keyboard-response","73","437500","0.0-6.0-6.0-0.4","gyujd0ok02","one_one","1","direct_first","1","ch06in19","1","22","1","1","3","1","Mir viel auf, dass verschiedene Muster in den chinesischen Zeichen negativ oder positiv asoziiert werden sollten, bei mir bspw. kastenformen, diagonale und vertikale striche postitv, unsymmetrische und statisch unsichere Linien dafür negativ. Auch ist mir bei den positiv konotierten Zeichen ein bildlicher Zusammenhang mit den Aufnahmen aufgefallen. Dies beides hat mich in der Bewertung später sehr beeinflusst, da ich vermehrt daran gedacht habe, die Zeichen ""richtig"" zuzuordnen und nicht nach meinem ersten Eindruck.","0","1","0","null","","","<div class = 'row'><div class = 'column'><img src = 'usneg/3160.bmp' width = '100%;'></div><div class = 'column'><img src = 'category1/CS6.png' width = '70%;'></div></div>","null","neg","CS","CS","1","category1/CS6.png","","","","",""
"","html-keyboard-response","74","440005","0.0-6.0-6.0-0.5","gyujd0ok02","one_one","1","direct_first","1","ch06in19","1","22","1","1","3","1","Mir viel auf, dass verschiedene Muster in den chinesischen Zeichen negativ oder positiv asoziiert werden sollten, bei mir bspw. kastenformen, diagonale und vertikale striche postitv, unsymmetrische und statisch unsichere Linien dafür negativ. Auch ist mir bei den positiv konotierten Zeichen ein bildlicher Zusammenhang mit den Aufnahmen aufgefallen. Dies beides hat mich in der Bewertung später sehr beeinflusst, da ich vermehrt daran gedacht habe, die Zeichen ""richtig"" zuzuordnen und nicht nach meinem ersten Eindruck.","0","1","0","null","","","<div class = 'row'><div class = 'column'><img src = 'uspos/8461.bmp' width = '100%;'></div><div class = 'column'><img src = 'category3/CS3.png' width = '70%;'></div></div>","null","pos","CS","CS","3","category3/CS3.png","","","","",""
"","html-keyboard-response","75","442511","0.0-6.0-6.0-0.6","gyujd0ok02","one_one","1","direct_first","1","ch06in19","1","22","1","1","3","1","Mir viel auf, dass verschiedene Muster in den chinesischen Zeichen negativ oder positiv asoziiert werden sollten, bei mir bspw. kastenformen, diagonale und vertikale striche postitv, unsymmetrische und statisch unsichere Linien dafür negativ. Auch ist mir bei den positiv konotierten Zeichen ein bildlicher Zusammenhang mit den Aufnahmen aufgefallen. Dies beides hat mich in der Bewertung später sehr beeinflusst, da ich vermehrt daran gedacht habe, die Zeichen ""richtig"" zuzuordnen und nicht nach meinem ersten Eindruck.","0","1","0","null","","","<div class = 'row'><div class = 'column'><img src = 'category1/CS6.png' width = '70%;'></div><div class = 'column'><img src = 'usneg/3160.bmp' width = '100%;'></div></div>","null","neg","CS","CS","1","category1/CS6.png","","","","",""
"","html-keyboard-response","76","445017","0.0-6.0-6.0-0.7","gyujd0ok02","one_one","1","direct_first","1","ch06in19","1","22","1","1","3","1","Mir viel auf, dass verschiedene Muster in den chinesischen Zeichen negativ oder positiv asoziiert werden sollten, bei mir bspw. kastenformen, diagonale und vertikale striche postitv, unsymmetrische und statisch unsichere Linien dafür negativ. Auch ist mir bei den positiv konotierten Zeichen ein bildlicher Zusammenhang mit den Aufnahmen aufgefallen. Dies beides hat mich in der Bewertung später sehr beeinflusst, da ich vermehrt daran gedacht habe, die Zeichen ""richtig"" zuzuordnen und nicht nach meinem ersten Eindruck.","0","1","0","null","","","<div class = 'row'><div class = 'column'><img src = 'category4/CS5.png' width = '70%;'></div><div class = 'column'><img src = 'usneg/9330.bmp' width = '100%;'></div></div>","null","neg","CS","CS","4","category4/CS5.png","","","","",""
"","html-keyboard-response","77","447522","0.0-6.0-6.0-0.8","gyujd0ok02","one_one","1","direct_first","1","ch06in19","1","22","1","1","3","1","Mir viel auf, dass verschiedene Muster in den chinesischen Zeichen negativ oder positiv asoziiert werden sollten, bei mir bspw. kastenformen, diagonale und vertikale striche postitv, unsymmetrische und statisch unsichere Linien dafür negativ. Auch ist mir bei den positiv konotierten Zeichen ein bildlicher Zusammenhang mit den Aufnahmen aufgefallen. Dies beides hat mich in der Bewertung später sehr beeinflusst, da ich vermehrt daran gedacht habe, die Zeichen ""richtig"" zuzuordnen und nicht nach meinem ersten Eindruck.","0","1","0","null","","","<div class = 'row'><div class = 'column'><img src = 'uspos/8461.bmp' width = '100%;'></div><div class = 'column'><img src = 'category3/CS3.png' width = '70%;'></div></div>","null","pos","CS","CS","3","category3/CS3.png","","","","",""
"","html-keyboard-response","78","450035","0.0-6.0-6.0-0.9","gyujd0ok02","one_one","1","direct_first","1","ch06in19","1","22","1","1","3","1","Mir viel auf, dass verschiedene Muster in den chinesischen Zeichen negativ oder positiv asoziiert werden sollten, bei mir bspw. kastenformen, diagonale und vertikale striche postitv, unsymmetrische und statisch unsichere Linien dafür negativ. Auch ist mir bei den positiv konotierten Zeichen ein bildlicher Zusammenhang mit den Aufnahmen aufgefallen. Dies beides hat mich in der Bewertung später sehr beeinflusst, da ich vermehrt daran gedacht habe, die Zeichen ""richtig"" zuzuordnen und nicht nach meinem ersten Eindruck.","0","1","0","null","","","<div class = 'row'><div class = 'column'><img src = 'category1/CS6.png' width = '70%;'></div><div class = 'column'><img src = 'usneg/3160.bmp' width = '100%;'></div></div>","null","neg","CS","CS","1","category1/CS6.png","","","","",""
"","html-keyboard-response","79","452540","0.0-6.0-6.0-0.10","gyujd0ok02","one_one","1","direct_first","1","ch06in19","1","22","1","1","3","1","Mir viel auf, dass verschiedene Muster in den chinesischen Zeichen negativ oder positiv asoziiert werden sollten, bei mir bspw. kastenformen, diagonale und vertikale striche postitv, unsymmetrische und statisch unsichere Linien dafür negativ. Auch ist mir bei den positiv konotierten Zeichen ein bildlicher Zusammenhang mit den Aufnahmen aufgefallen. Dies beides hat mich in der Bewertung später sehr beeinflusst, da ich vermehrt daran gedacht habe, die Zeichen ""richtig"" zuzuordnen und nicht nach meinem ersten Eindruck.","0","1","0","null","","","<div class = 'row'><div class = 'column'><img src = 'category2/CS6.png' width = '70%;'></div><div class = 'column'><img src = 'uspos/2040.bmp' width = '100%;'></div></div>","null","pos","CS","CS","2","category2/CS6.png","","","","",""
"","html-keyboard-response","80","455046","0.0-6.0-6.0-0.11","gyujd0ok02","one_one","1","direct_first","1","ch06in19","1","22","1","1","3","1","Mir viel auf, dass verschiedene Muster in den chinesischen Zeichen negativ oder positiv asoziiert werden sollten, bei mir bspw. kastenformen, diagonale und vertikale striche postitv, unsymmetrische und statisch unsichere Linien dafür negativ. Auch ist mir bei den positiv konotierten Zeichen ein bildlicher Zusammenhang mit den Aufnahmen aufgefallen. Dies beides hat mich in der Bewertung später sehr beeinflusst, da ich vermehrt daran gedacht habe, die Zeichen ""richtig"" zuzuordnen und nicht nach meinem ersten Eindruck.","0","1","0","null","","","<div class = 'row'><div class = 'column'><img src = 'usneg/9330.bmp' width = '100%;'></div><div class = 'column'><img src = 'category4/CS5.png' width = '70%;'></div></div>","null","neg","CS","CS","4","category4/CS5.png","","","","",""
"","html-keyboard-response","81","457559","0.0-6.0-6.0-0.12","gyujd0ok02","one_one","1","direct_first","1","ch06in19","1","22","1","1","3","1","Mir viel auf, dass verschiedene Muster in den chinesischen Zeichen negativ oder positiv asoziiert werden sollten, bei mir bspw. kastenformen, diagonale und vertikale striche postitv, unsymmetrische und statisch unsichere Linien dafür negativ. Auch ist mir bei den positiv konotierten Zeichen ein bildlicher Zusammenhang mit den Aufnahmen aufgefallen. Dies beides hat mich in der Bewertung später sehr beeinflusst, da ich vermehrt daran gedacht habe, die Zeichen ""richtig"" zuzuordnen und nicht nach meinem ersten Eindruck.","0","1","0","null","","","<div class = 'row'><div class = 'column'><img src = 'category2/CS6.png' width = '70%;'></div><div class = 'column'><img src = 'uspos/2040.bmp' width = '100%;'></div></div>","null","pos","CS","CS","2","category2/CS6.png","","","","",""
"","html-keyboard-response","82","460065","0.0-6.0-6.0-0.13","gyujd0ok02","one_one","1","direct_first","1","ch06in19","1","22","1","1","3","1","Mir viel auf, dass verschiedene Muster in den chinesischen Zeichen negativ oder positiv asoziiert werden sollten, bei mir bspw. kastenformen, diagonale und vertikale striche postitv, unsymmetrische und statisch unsichere Linien dafür negativ. Auch ist mir bei den positiv konotierten Zeichen ein bildlicher Zusammenhang mit den Aufnahmen aufgefallen. Dies beides hat mich in der Bewertung später sehr beeinflusst, da ich vermehrt daran gedacht habe, die Zeichen ""richtig"" zuzuordnen und nicht nach meinem ersten Eindruck.","0","1","0","null","","","<div class = 'row'><div class = 'column'><img src = 'category4/CS5.png' width = '70%;'></div><div class = 'column'><img src = 'usneg/9330.bmp' width = '100%;'></div></div>","null","neg","CS","CS","4","category4/CS5.png","","","","",""
"","html-keyboard-response","83","462570","0.0-6.0-6.0-0.14","gyujd0ok02","one_one","1","direct_first","1","ch06in19","1","22","1","1","3","1","Mir viel auf, dass verschiedene Muster in den chinesischen Zeichen negativ oder positiv asoziiert werden sollten, bei mir bspw. kastenformen, diagonale und vertikale striche postitv, unsymmetrische und statisch unsichere Linien dafür negativ. Auch ist mir bei den positiv konotierten Zeichen ein bildlicher Zusammenhang mit den Aufnahmen aufgefallen. Dies beides hat mich in der Bewertung später sehr beeinflusst, da ich vermehrt daran gedacht habe, die Zeichen ""richtig"" zuzuordnen und nicht nach meinem ersten Eindruck.","0","1","0","null","","","<div class = 'row'><div class = 'column'><img src = 'uspos/2040.bmp' width = '100%;'></div><div class = 'column'><img src = 'category2/CS6.png' width = '70%;'></div></div>","null","pos","CS","CS","2","category2/CS6.png","","","","",""
"","html-keyboard-response","84","465076","0.0-6.0-6.0-0.15","gyujd0ok02","one_one","1","direct_first","1","ch06in19","1","22","1","1","3","1","Mir viel auf, dass verschiedene Muster in den chinesischen Zeichen negativ oder positiv asoziiert werden sollten, bei mir bspw. kastenformen, diagonale und vertikale striche postitv, unsymmetrische und statisch unsichere Linien dafür negativ. Auch ist mir bei den positiv konotierten Zeichen ein bildlicher Zusammenhang mit den Aufnahmen aufgefallen. Dies beides hat mich in der Bewertung später sehr beeinflusst, da ich vermehrt daran gedacht habe, die Zeichen ""richtig"" zuzuordnen und nicht nach meinem ersten Eindruck.","0","1","0","null","","","<div class = 'row'><div class = 'column'><img src = 'usneg/3160.bmp' width = '100%;'></div><div class = 'column'><img src = 'category1/CS6.png' width = '70%;'></div></div>","null","neg","CS","CS","1","category1/CS6.png","","","","",""
"","html-keyboard-response","85","467580","0.0-6.0-6.0-0.16","gyujd0ok02","one_one","1","direct_first","1","ch06in19","1","22","1","1","3","1","Mir viel auf, dass verschiedene Muster in den chinesischen Zeichen negativ oder positiv asoziiert werden sollten, bei mir bspw. kastenformen, diagonale und vertikale striche postitv, unsymmetrische und statisch unsichere Linien dafür negativ. Auch ist mir bei den positiv konotierten Zeichen ein bildlicher Zusammenhang mit den Aufnahmen aufgefallen. Dies beides hat mich in der Bewertung später sehr beeinflusst, da ich vermehrt daran gedacht habe, die Zeichen ""richtig"" zuzuordnen und nicht nach meinem ersten Eindruck.","0","1","0","null","","","<div class = 'row'><div class = 'column'><img src = 'category3/CS3.png' width = '70%;'></div><div class = 'column'><img src = 'uspos/8461.bmp' width = '100%;'></div></div>","null","pos","CS","CS","3","category3/CS3.png","","","","",""
"","html-keyboard-response","86","470085","0.0-6.0-6.0-0.17","gyujd0ok02","one_one","1","direct_first","1","ch06in19","1","22","1","1","3","1","Mir viel auf, dass verschiedene Muster in den chinesischen Zeichen negativ oder positiv asoziiert werden sollten, bei mir bspw. kastenformen, diagonale und vertikale striche postitv, unsymmetrische und statisch unsichere Linien dafür negativ. Auch ist mir bei den positiv konotierten Zeichen ein bildlicher Zusammenhang mit den Aufnahmen aufgefallen. Dies beides hat mich in der Bewertung später sehr beeinflusst, da ich vermehrt daran gedacht habe, die Zeichen ""richtig"" zuzuordnen und nicht nach meinem ersten Eindruck.","0","1","0","null","","","<div class = 'row'><div class = 'column'><img src = 'usneg/9330.bmp' width = '100%;'></div><div class = 'column'><img src = 'category4/CS5.png' width = '70%;'></div></div>","null","neg","CS","CS","4","category4/CS5.png","","","","",""
"","html-keyboard-response","87","472591","0.0-6.0-6.0-0.18","gyujd0ok02","one_one","1","direct_first","1","ch06in19","1","22","1","1","3","1","Mir viel auf, dass verschiedene Muster in den chinesischen Zeichen negativ oder positiv asoziiert werden sollten, bei mir bspw. kastenformen, diagonale und vertikale striche postitv, unsymmetrische und statisch unsichere Linien dafür negativ. Auch ist mir bei den positiv konotierten Zeichen ein bildlicher Zusammenhang mit den Aufnahmen aufgefallen. Dies beides hat mich in der Bewertung später sehr beeinflusst, da ich vermehrt daran gedacht habe, die Zeichen ""richtig"" zuzuordnen und nicht nach meinem ersten Eindruck.","0","1","0","null","","","<div class = 'row'><div class = 'column'><img src = 'uspos/2040.bmp' width = '100%;'></div><div class = 'column'><img src = 'category2/CS6.png' width = '70%;'></div></div>","null","pos","CS","CS","2","category2/CS6.png","","","","",""
"","html-keyboard-response","88","475096","0.0-6.0-6.0-0.19","gyujd0ok02","one_one","1","direct_first","1","ch06in19","1","22","1","1","3","1","Mir viel auf, dass verschiedene Muster in den chinesischen Zeichen negativ oder positiv asoziiert werden sollten, bei mir bspw. kastenformen, diagonale und vertikale striche postitv, unsymmetrische und statisch unsichere Linien dafür negativ. Auch ist mir bei den positiv konotierten Zeichen ein bildlicher Zusammenhang mit den Aufnahmen aufgefallen. Dies beides hat mich in der Bewertung später sehr beeinflusst, da ich vermehrt daran gedacht habe, die Zeichen ""richtig"" zuzuordnen und nicht nach meinem ersten Eindruck.","0","1","0","null","","","<div class = 'row'><div class = 'column'><img src = 'uspos/8461.bmp' width = '100%;'></div><div class = 'column'><img src = 'category3/CS3.png' width = '70%;'></div></div>","null","pos","CS","CS","3","category3/CS3.png","","","","",""
"","survey-html-form","89","486369","0.0-7.0","gyujd0ok02","one_one","1","direct_first","1","ch06in19","1","22","1","1","3","1","Mir viel auf, dass verschiedene Muster in den chinesischen Zeichen negativ oder positiv asoziiert werden sollten, bei mir bspw. kastenformen, diagonale und vertikale striche postitv, unsymmetrische und statisch unsichere Linien dafür negativ. Auch ist mir bei den positiv konotierten Zeichen ein bildlicher Zusammenhang mit den Aufnahmen aufgefallen. Dies beides hat mich in der Bewertung später sehr beeinflusst, da ich vermehrt daran gedacht habe, die Zeichen ""richtig"" zuzuordnen und nicht nach meinem ersten Eindruck.","0","1","0","10769","","{}","","","","","","","","","","","",""
"","image-slider-response","90","501244","0.0-8.0-0.0","gyujd0ok02","one_one","1","direct_first","1","ch06in19","1","22","1","1","3","1","Mir viel auf, dass verschiedene Muster in den chinesischen Zeichen negativ oder positiv asoziiert werden sollten, bei mir bspw. kastenformen, diagonale und vertikale striche postitv, unsymmetrische und statisch unsichere Linien dafür negativ. Auch ist mir bei den positiv konotierten Zeichen ein bildlicher Zusammenhang mit den Aufnahmen aufgefallen. Dies beides hat mich in der Bewertung später sehr beeinflusst, da ich vermehrt daran gedacht habe, die Zeichen ""richtig"" zuzuordnen und nicht nach meinem ersten Eindruck.","0","1","0","12860","","","","","pos","GS","GSnew","2","category2/GS1.png","-26","targets/33.png","direct","",""
"","image-slider-response","91","504444","0.0-8.0-0.1","gyujd0ok02","one_one","1","direct_first","1","ch06in19","1","22","1","1","3","1","Mir viel auf, dass verschiedene Muster in den chinesischen Zeichen negativ oder positiv asoziiert werden sollten, bei mir bspw. kastenformen, diagonale und vertikale striche postitv, unsymmetrische und statisch unsichere Linien dafür negativ. Auch ist mir bei den positiv konotierten Zeichen ein bildlicher Zusammenhang mit den Aufnahmen aufgefallen. Dies beides hat mich in der Bewertung später sehr beeinflusst, da ich vermehrt daran gedacht habe, die Zeichen ""richtig"" zuzuordnen und nicht nach meinem ersten Eindruck.","0","1","0","3197","","","","","pos","GS","abstract","3","category3/wang.png","22","targets/47.png","direct","",""
"","image-slider-response","92","509062","0.0-8.0-0.2","gyujd0ok02","one_one","1","direct_first","1","ch06in19","1","22","1","1","3","1","Mir viel auf, dass verschiedene Muster in den chinesischen Zeichen negativ oder positiv asoziiert werden sollten, bei mir bspw. kastenformen, diagonale und vertikale striche postitv, unsymmetrische und statisch unsichere Linien dafür negativ. Auch ist mir bei den positiv konotierten Zeichen ein bildlicher Zusammenhang mit den Aufnahmen aufgefallen. Dies beides hat mich in der Bewertung später sehr beeinflusst, da ich vermehrt daran gedacht habe, die Zeichen ""richtig"" zuzuordnen und nicht nach meinem ersten Eindruck.","0","1","0","4618.000000000058","","","","","neg","GS","GSold","1","category1/CS3.png","-41","targets/25.png","direct","",""
"","image-slider-response","93","521546","0.0-8.0-0.3","gyujd0ok02","one_one","1","direct_first","1","ch06in19","1","22","1","1","3","1","Mir viel auf, dass verschiedene Muster in den chinesischen Zeichen negativ oder positiv asoziiert werden sollten, bei mir bspw. kastenformen, diagonale und vertikale striche postitv, unsymmetrische und statisch unsichere Linien dafür negativ. Auch ist mir bei den positiv konotierten Zeichen ein bildlicher Zusammenhang mit den Aufnahmen aufgefallen. Dies beides hat mich in der Bewertung später sehr beeinflusst, da ich vermehrt daran gedacht habe, die Zeichen ""richtig"" zuzuordnen und nicht nach meinem ersten Eindruck.","0","1","0","12482","","","","","pos","GS","abstract","2","category2/men.png","-10","targets/12.png","direct","",""
"","image-slider-response","94","527247","0.0-8.0-0.4","gyujd0ok02","one_one","1","direct_first","1","ch06in19","1","22","1","1","3","1","Mir viel auf, dass verschiedene Muster in den chinesischen Zeichen negativ oder positiv asoziiert werden sollten, bei mir bspw. kastenformen, diagonale und vertikale striche postitv, unsymmetrische und statisch unsichere Linien dafür negativ. Auch ist mir bei den positiv konotierten Zeichen ein bildlicher Zusammenhang mit den Aufnahmen aufgefallen. Dies beides hat mich in der Bewertung später sehr beeinflusst, da ich vermehrt daran gedacht habe, die Zeichen ""richtig"" zuzuordnen und nicht nach meinem ersten Eindruck.","0","1","0","5700","","","","","neg","GS","GSold","4","category4/CS10.png","43","targets/11.png","direct","",""
"","image-slider-response","95","531132","0.0-8.0-0.5","gyujd0ok02","one_one","1","direct_first","1","ch06in19","1","22","1","1","3","1","Mir viel auf, dass verschiedene Muster in den chinesischen Zeichen negativ oder positiv asoziiert werden sollten, bei mir bspw. kastenformen, diagonale und vertikale striche postitv, unsymmetrische und statisch unsichere Linien dafür negativ. Auch ist mir bei den positiv konotierten Zeichen ein bildlicher Zusammenhang mit den Aufnahmen aufgefallen. Dies beides hat mich in der Bewertung später sehr beeinflusst, da ich vermehrt daran gedacht habe, die Zeichen ""richtig"" zuzuordnen und nicht nach meinem ersten Eindruck.","0","1","0","3884","","","","","neg","GS","abstract","4","category4/lin.png","-11","targets/36.png","direct","",""
"","image-slider-response","96","535374","0.0-8.0-0.6","gyujd0ok02","one_one","1","direct_first","1","ch06in19","1","22","1","1","3","1","Mir viel auf, dass verschiedene Muster in den chinesischen Zeichen negativ oder positiv asoziiert werden sollten, bei mir bspw. kastenformen, diagonale und vertikale striche postitv, unsymmetrische und statisch unsichere Linien dafür negativ. Auch ist mir bei den positiv konotierten Zeichen ein bildlicher Zusammenhang mit den Aufnahmen aufgefallen. Dies beides hat mich in der Bewertung später sehr beeinflusst, da ich vermehrt daran gedacht habe, die Zeichen ""richtig"" zuzuordnen und nicht nach meinem ersten Eindruck.","0","1","0","4240","","","","","neg","GS","GSold","4","category4/CS4.png","-15","targets/19.png","direct","",""
"","image-slider-response","97","542257","0.0-8.0-0.7","gyujd0ok02","one_one","1","direct_first","1","ch06in19","1","22","1","1","3","1","Mir viel auf, dass verschiedene Muster in den chinesischen Zeichen negativ oder positiv asoziiert werden sollten, bei mir bspw. kastenformen, diagonale und vertikale striche postitv, unsymmetrische und statisch unsichere Linien dafür negativ. Auch ist mir bei den positiv konotierten Zeichen ein bildlicher Zusammenhang mit den Aufnahmen aufgefallen. Dies beides hat mich in der Bewertung später sehr beeinflusst, da ich vermehrt daran gedacht habe, die Zeichen ""richtig"" zuzuordnen und nicht nach meinem ersten Eindruck.","0","1","0","6880","","","","","pos","GS","GSold","3","category3/CS10.png","21","targets/29.png","direct","",""
"","image-slider-response","98","548836","0.0-8.0-0.8","gyujd0ok02","one_one","1","direct_first","1","ch06in19","1","22","1","1","3","1","Mir viel auf, dass verschiedene Muster in den chinesischen Zeichen negativ oder positiv asoziiert werden sollten, bei mir bspw. kastenformen, diagonale und vertikale striche postitv, unsymmetrische und statisch unsichere Linien dafür negativ. Auch ist mir bei den positiv konotierten Zeichen ein bildlicher Zusammenhang mit den Aufnahmen aufgefallen. Dies beides hat mich in der Bewertung später sehr beeinflusst, da ich vermehrt daran gedacht habe, die Zeichen ""richtig"" zuzuordnen und nicht nach meinem ersten Eindruck.","0","1","0","6577.000000000116","","","","","pos","GS","GSold","3","category3/CS2.png","63","targets/5.png","direct","",""
"","image-slider-response","99","556757","0.0-8.0-0.9","gyujd0ok02","one_one","1","direct_first","1","ch06in19","1","22","1","1","3","1","Mir viel auf, dass verschiedene Muster in den chinesischen Zeichen negativ oder positiv asoziiert werden sollten, bei mir bspw. kastenformen, diagonale und vertikale striche postitv, unsymmetrische und statisch unsichere Linien dafür negativ. Auch ist mir bei den positiv konotierten Zeichen ein bildlicher Zusammenhang mit den Aufnahmen aufgefallen. Dies beides hat mich in der Bewertung später sehr beeinflusst, da ich vermehrt daran gedacht habe, die Zeichen ""richtig"" zuzuordnen und nicht nach meinem ersten Eindruck.","0","1","0","7920","","","","","neg","GS","GSnew","4","category4/GS3.png","26","targets/44.png","direct","",""
"","image-slider-response","100","563566","0.0-8.0-0.10","gyujd0ok02","one_one","1","direct_first","1","ch06in19","1","22","1","1","3","1","Mir viel auf, dass verschiedene Muster in den chinesischen Zeichen negativ oder positiv asoziiert werden sollten, bei mir bspw. kastenformen, diagonale und vertikale striche postitv, unsymmetrische und statisch unsichere Linien dafür negativ. Auch ist mir bei den positiv konotierten Zeichen ein bildlicher Zusammenhang mit den Aufnahmen aufgefallen. Dies beides hat mich in der Bewertung später sehr beeinflusst, da ich vermehrt daran gedacht habe, die Zeichen ""richtig"" zuzuordnen und nicht nach meinem ersten Eindruck.","0","1","0","6808.000000000116","","","","","neg","GS","GSold","4","category4/CS2.png","13","targets/6.png","direct","",""
"","image-slider-response","101","581058","0.0-8.0-0.11","gyujd0ok02","one_one","1","direct_first","1","ch06in19","1","22","1","1","3","1","Mir viel auf, dass verschiedene Muster in den chinesischen Zeichen negativ oder positiv asoziiert werden sollten, bei mir bspw. kastenformen, diagonale und vertikale striche postitv, unsymmetrische und statisch unsichere Linien dafür negativ. Auch ist mir bei den positiv konotierten Zeichen ein bildlicher Zusammenhang mit den Aufnahmen aufgefallen. Dies beides hat mich in der Bewertung später sehr beeinflusst, da ich vermehrt daran gedacht habe, die Zeichen ""richtig"" zuzuordnen und nicht nach meinem ersten Eindruck.","0","1","0","17490","","","","","pos","GS","GSnew","3","category3/GS2.png","-17","targets/22.png","direct","",""
"","image-slider-response","102","584707","0.0-8.0-0.12","gyujd0ok02","one_one","1","direct_first","1","ch06in19","1","22","1","1","3","1","Mir viel auf, dass verschiedene Muster in den chinesischen Zeichen negativ oder positiv asoziiert werden sollten, bei mir bspw. kastenformen, diagonale und vertikale striche postitv, unsymmetrische und statisch unsichere Linien dafür negativ. Auch ist mir bei den positiv konotierten Zeichen ein bildlicher Zusammenhang mit den Aufnahmen aufgefallen. Dies beides hat mich in der Bewertung später sehr beeinflusst, da ich vermehrt daran gedacht habe, die Zeichen ""richtig"" zuzuordnen und nicht nach meinem ersten Eindruck.","0","1","0","3645.9999999998836","","","","","neg","GS","abstract","1","category1/ma.png","-48","targets/40.png","direct","",""
"","image-slider-response","103","589076","0.0-8.0-0.13","gyujd0ok02","one_one","1","direct_first","1","ch06in19","1","22","1","1","3","1","Mir viel auf, dass verschiedene Muster in den chinesischen Zeichen negativ oder positiv asoziiert werden sollten, bei mir bspw. kastenformen, diagonale und vertikale striche postitv, unsymmetrische und statisch unsichere Linien dafür negativ. Auch ist mir bei den positiv konotierten Zeichen ein bildlicher Zusammenhang mit den Aufnahmen aufgefallen. Dies beides hat mich in der Bewertung später sehr beeinflusst, da ich vermehrt daran gedacht habe, die Zeichen ""richtig"" zuzuordnen und nicht nach meinem ersten Eindruck.","0","1","0","4367","","","","","pos","GS","GSold","2","category2/CS5.png","45","targets/21.png","direct","",""
"","image-slider-response","104","592354","0.0-8.0-0.14","gyujd0ok02","one_one","1","direct_first","1","ch06in19","1","22","1","1","3","1","Mir viel auf, dass verschiedene Muster in den chinesischen Zeichen negativ oder positiv asoziiert werden sollten, bei mir bspw. kastenformen, diagonale und vertikale striche postitv, unsymmetrische und statisch unsichere Linien dafür negativ. Auch ist mir bei den positiv konotierten Zeichen ein bildlicher Zusammenhang mit den Aufnahmen aufgefallen. Dies beides hat mich in der Bewertung später sehr beeinflusst, da ich vermehrt daran gedacht habe, die Zeichen ""richtig"" zuzuordnen und nicht nach meinem ersten Eindruck.","0","1","0","3277","","","","","neg","GS","GSnew","1","category1/GS2.png","-24","targets/17.png","direct","",""
"","image-slider-response","105","597643","0.0-8.0-0.15","gyujd0ok02","one_one","1","direct_first","1","ch06in19","1","22","1","1","3","1","Mir viel auf, dass verschiedene Muster in den chinesischen Zeichen negativ oder positiv asoziiert werden sollten, bei mir bspw. kastenformen, diagonale und vertikale striche postitv, unsymmetrische und statisch unsichere Linien dafür negativ. Auch ist mir bei den positiv konotierten Zeichen ein bildlicher Zusammenhang mit den Aufnahmen aufgefallen. Dies beides hat mich in der Bewertung später sehr beeinflusst, da ich vermehrt daran gedacht habe, die Zeichen ""richtig"" zuzuordnen und nicht nach meinem ersten Eindruck.","0","1","0","5290","","","","","neg","GS","GSold","1","category1/CS8.png","-56","targets/28.png","direct","",""
"","image-slider-response","106","602869","0.0-8.0-0.16","gyujd0ok02","one_one","1","direct_first","1","ch06in19","1","22","1","1","3","1","Mir viel auf, dass verschiedene Muster in den chinesischen Zeichen negativ oder positiv asoziiert werden sollten, bei mir bspw. kastenformen, diagonale und vertikale striche postitv, unsymmetrische und statisch unsichere Linien dafür negativ. Auch ist mir bei den positiv konotierten Zeichen ein bildlicher Zusammenhang mit den Aufnahmen aufgefallen. Dies beides hat mich in der Bewertung später sehr beeinflusst, da ich vermehrt daran gedacht habe, die Zeichen ""richtig"" zuzuordnen und nicht nach meinem ersten Eindruck.","0","1","0","5224.000000000116","","","","","pos","GS","GSnew","2","category2/GS3.png","-18","targets/13.png","direct","",""
"","image-slider-response","107","606716","0.0-8.0-0.17","gyujd0ok02","one_one","1","direct_first","1","ch06in19","1","22","1","1","3","1","Mir viel auf, dass verschiedene Muster in den chinesischen Zeichen negativ oder positiv asoziiert werden sollten, bei mir bspw. kastenformen, diagonale und vertikale striche postitv, unsymmetrische und statisch unsichere Linien dafür negativ. Auch ist mir bei den positiv konotierten Zeichen ein bildlicher Zusammenhang mit den Aufnahmen aufgefallen. Dies beides hat mich in der Bewertung später sehr beeinflusst, da ich vermehrt daran gedacht habe, die Zeichen ""richtig"" zuzuordnen und nicht nach meinem ersten Eindruck.","0","1","0","3846","","","","","neg","GS","GSnew","1","category1/GS1.png","-8","targets/9.png","direct","",""
"","image-slider-response","108","612409","0.0-8.0-0.18","gyujd0ok02","one_one","1","direct_first","1","ch06in19","1","22","1","1","3","1","Mir viel auf, dass verschiedene Muster in den chinesischen Zeichen negativ oder positiv asoziiert werden sollten, bei mir bspw. kastenformen, diagonale und vertikale striche postitv, unsymmetrische und statisch unsichere Linien dafür negativ. Auch ist mir bei den positiv konotierten Zeichen ein bildlicher Zusammenhang mit den Aufnahmen aufgefallen. Dies beides hat mich in der Bewertung später sehr beeinflusst, da ich vermehrt daran gedacht habe, die Zeichen ""richtig"" zuzuordnen und nicht nach meinem ersten Eindruck.","0","1","0","5691","","","","","pos","CS","CS","2","category2/CS6.png","38","targets/18.png","direct","",""
"","image-slider-response","109","615886","0.0-8.0-0.19","gyujd0ok02","one_one","1","direct_first","1","ch06in19","1","22","1","1","3","1","Mir viel auf, dass verschiedene Muster in den chinesischen Zeichen negativ oder positiv asoziiert werden sollten, bei mir bspw. kastenformen, diagonale und vertikale striche postitv, unsymmetrische und statisch unsichere Linien dafür negativ. Auch ist mir bei den positiv konotierten Zeichen ein bildlicher Zusammenhang mit den Aufnahmen aufgefallen. Dies beides hat mich in der Bewertung später sehr beeinflusst, da ich vermehrt daran gedacht habe, die Zeichen ""richtig"" zuzuordnen und nicht nach meinem ersten Eindruck.","0","1","0","3476","","","","","pos","GS","GSnew","2","category2/GS2.png","-38","targets/20.png","direct","",""
"","image-slider-response","110","620901","0.0-8.0-0.20","gyujd0ok02","one_one","1","direct_first","1","ch06in19","1","22","1","1","3","1","Mir viel auf, dass verschiedene Muster in den chinesischen Zeichen negativ oder positiv asoziiert werden sollten, bei mir bspw. kastenformen, diagonale und vertikale striche postitv, unsymmetrische und statisch unsichere Linien dafür negativ. Auch ist mir bei den positiv konotierten Zeichen ein bildlicher Zusammenhang mit den Aufnahmen aufgefallen. Dies beides hat mich in der Bewertung später sehr beeinflusst, da ich vermehrt daran gedacht habe, die Zeichen ""richtig"" zuzuordnen und nicht nach meinem ersten Eindruck.","0","1","0","5012","","","","","pos","CS","CS","3","category3/CS3.png","14","targets/30.png","direct","",""
"","image-slider-response","111","625797","0.0-8.0-0.21","gyujd0ok02","one_one","1","direct_first","1","ch06in19","1","22","1","1","3","1","Mir viel auf, dass verschiedene Muster in den chinesischen Zeichen negativ oder positiv asoziiert werden sollten, bei mir bspw. kastenformen, diagonale und vertikale striche postitv, unsymmetrische und statisch unsichere Linien dafür negativ. Auch ist mir bei den positiv konotierten Zeichen ein bildlicher Zusammenhang mit den Aufnahmen aufgefallen. Dies beides hat mich in der Bewertung später sehr beeinflusst, da ich vermehrt daran gedacht habe, die Zeichen ""richtig"" zuzuordnen und nicht nach meinem ersten Eindruck.","0","1","0","4896","","","","","pos","GS","GSnew","3","category3/GS3.png","33","targets/4.png","direct","",""
