"success","trial_type","trial_index","time_elapsed","internal_node_id","subject","condition","condition_code","measure","measure_code","codeword","gender","age","education","chinese","fach","handedness","comment","hinschauen","ablenkung","gewissenhaft","rt","url","responses","stimulus","key_press","val","type","type_specific","category","cs_selected","response","target","task","indirect","nr_pres"
"true","fullscreen","0","8012","0.0-0.0","659u5pb0vr","one_one","1","direct_first","1","er05if08","1","38","1","1","3","1","","0","1","0","","","","","","","","","","","","","","",""
"","external-html","1","12307","0.0-1.0","659u5pb0vr","one_one","1","direct_first","1","er05if08","1","38","1","1","3","1","","0","1","0","4258","text/information.html","","","","","","","","","","","","",""
"","external-html","2","52901","0.0-2.0","659u5pb0vr","one_one","1","direct_first","1","er05if08","1","38","1","1","3","1","","0","1","0","40559","text/consent.html","","","","","","","","","","","","",""
"","survey-html-form","3","123718","0.0-3.0","659u5pb0vr","one_one","1","direct_first","1","er05if08","1","38","1","1","3","1","","0","1","0","70814","","{""codeword_enter"":""er05if08""}","","","","","","","","","","","",""
"","survey-html-form","4","145703","0.0-4.0","659u5pb0vr","one_one","1","direct_first","1","er05if08","1","38","1","1","3","1","","0","1","0","21983","","{""age"":""38"",""education"":""1"",""subject"":""3"",""gender"":""1"",""handedness"":""1"",""chinese"":""1""}","","","","","","","","","","","",""
"","survey-html-form","5","148513","0.0-5.0","659u5pb0vr","one_one","1","direct_first","1","er05if08","1","38","1","1","3","1","","0","1","0","2806","","{}","","","","","","","","","","","",""
"","html-keyboard-response","6","152518","0.0-6.0-0.0-0.0","659u5pb0vr","one_one","1","direct_first","1","er05if08","1","38","1","1","3","1","","0","1","0","null","","","<div class = 'row'><div class = 'column'><img src = 'category4/CS1.png' width = '70%;'></div><div class = 'column'><img src = 'uspos/2040.bmp' width = '100%;'></div></div>","null","pos","CS","CS","4","category4/CS1.png","","","","",""
"","html-keyboard-response","7","155023","0.0-6.0-0.0-0.1","659u5pb0vr","one_one","1","direct_first","1","er05if08","1","38","1","1","3","1","","0","1","0","null","","","<div class = 'row'><div class = 'column'><img src = 'category2/CS3.png' width = '70%;'></div><div class = 'column'><img src = 'usneg/9520.bmp' width = '100%;'></div></div>","null","neg","CS","CS","2","category2/CS3.png","","","","",""
"","html-keyboard-response","8","157531","0.0-6.0-0.0-0.2","659u5pb0vr","one_one","1","direct_first","1","er05if08","1","38","1","1","3","1","","0","1","0","null","","","<div class = 'row'><div class = 'column'><img src = 'uspos/1340.bmp' width = '100%;'></div><div class = 'column'><img src = 'category3/CS1.png' width = '70%;'></div></div>","null","pos","CS","CS","3","category3/CS1.png","","","","",""
"","html-keyboard-response","9","160035","0.0-6.0-0.0-0.3","659u5pb0vr","one_one","1","direct_first","1","er05if08","1","38","1","1","3","1","","0","1","0","null","","","<div class = 'row'><div class = 'column'><img src = 'uspos/2040.bmp' width = '100%;'></div><div class = 'column'><img src = 'category4/CS1.png' width = '70%;'></div></div>","null","pos","CS","CS","4","category4/CS1.png","","","","",""
"","html-keyboard-response","10","162539","0.0-6.0-0.0-0.4","659u5pb0vr","one_one","1","direct_first","1","er05if08","1","38","1","1","3","1","","0","1","0","null","","","<div class = 'row'><div class = 'column'><img src = 'category1/CS10.png' width = '70%;'></div><div class = 'column'><img src = 'usneg/9561.bmp' width = '100%;'></div></div>","null","neg","CS","CS","1","category1/CS10.png","","","","",""
"","html-keyboard-response","11","165042","0.0-6.0-0.0-0.5","659u5pb0vr","one_one","1","direct_first","1","er05if08","1","38","1","1","3","1","","0","1","0","null","","","<div class = 'row'><div class = 'column'><img src = 'uspos/2040.bmp' width = '100%;'></div><div class = 'column'><img src = 'category4/CS1.png' width = '70%;'></div></div>","null","pos","CS","CS","4","category4/CS1.png","","","","",""
"","html-keyboard-response","12","167545","0.0-6.0-0.0-0.6","659u5pb0vr","one_one","1","direct_first","1","er05if08","1","38","1","1","3","1","","0","1","0","null","","","<div class = 'row'><div class = 'column'><img src = 'usneg/9520.bmp' width = '100%;'></div><div class = 'column'><img src = 'category2/CS3.png' width = '70%;'></div></div>","null","neg","CS","CS","2","category2/CS3.png","","","","",""
"","html-keyboard-response","13","170049","0.0-6.0-0.0-0.7","659u5pb0vr","one_one","1","direct_first","1","er05if08","1","38","1","1","3","1","","0","1","0","null","","","<div class = 'row'><div class = 'column'><img src = 'uspos/1340.bmp' width = '100%;'></div><div class = 'column'><img src = 'category3/CS1.png' width = '70%;'></div></div>","null","pos","CS","CS","3","category3/CS1.png","","","","",""
"","html-keyboard-response","14","172553","0.0-6.0-0.0-0.8","659u5pb0vr","one_one","1","direct_first","1","er05if08","1","38","1","1","3","1","","0","1","0","null","","","<div class = 'row'><div class = 'column'><img src = 'usneg/9561.bmp' width = '100%;'></div><div class = 'column'><img src = 'category1/CS10.png' width = '70%;'></div></div>","null","neg","CS","CS","1","category1/CS10.png","","","","",""
"","html-keyboard-response","15","175057","0.0-6.0-0.0-0.9","659u5pb0vr","one_one","1","direct_first","1","er05if08","1","38","1","1","3","1","","0","1","0","null","","","<div class = 'row'><div class = 'column'><img src = 'usneg/9520.bmp' width = '100%;'></div><div class = 'column'><img src = 'category2/CS3.png' width = '70%;'></div></div>","null","neg","CS","CS","2","category2/CS3.png","","","","",""
"","html-keyboard-response","16","177561","0.0-6.0-0.0-0.10","659u5pb0vr","one_one","1","direct_first","1","er05if08","1","38","1","1","3","1","","0","1","0","null","","","<div class = 'row'><div class = 'column'><img src = 'category3/CS1.png' width = '70%;'></div><div class = 'column'><img src = 'uspos/1340.bmp' width = '100%;'></div></div>","null","pos","CS","CS","3","category3/CS1.png","","","","",""
"","html-keyboard-response","17","180064","0.0-6.0-0.0-0.11","659u5pb0vr","one_one","1","direct_first","1","er05if08","1","38","1","1","3","1","","0","1","0","null","","","<div class = 'row'><div class = 'column'><img src = 'category1/CS10.png' width = '70%;'></div><div class = 'column'><img src = 'usneg/9561.bmp' width = '100%;'></div></div>","null","neg","CS","CS","1","category1/CS10.png","","","","",""
"","html-keyboard-response","18","182568","0.0-6.0-0.0-0.12","659u5pb0vr","one_one","1","direct_first","1","er05if08","1","38","1","1","3","1","","0","1","0","null","","","<div class = 'row'><div class = 'column'><img src = 'category2/CS3.png' width = '70%;'></div><div class = 'column'><img src = 'usneg/9520.bmp' width = '100%;'></div></div>","null","neg","CS","CS","2","category2/CS3.png","","","","",""
"","html-keyboard-response","19","185072","0.0-6.0-0.0-0.13","659u5pb0vr","one_one","1","direct_first","1","er05if08","1","38","1","1","3","1","","0","1","0","null","","","<div class = 'row'><div class = 'column'><img src = 'uspos/1340.bmp' width = '100%;'></div><div class = 'column'><img src = 'category3/CS1.png' width = '70%;'></div></div>","null","pos","CS","CS","3","category3/CS1.png","","","","",""
"","html-keyboard-response","20","187576","0.0-6.0-0.0-0.14","659u5pb0vr","one_one","1","direct_first","1","er05if08","1","38","1","1","3","1","","0","1","0","null","","","<div class = 'row'><div class = 'column'><img src = 'uspos/2040.bmp' width = '100%;'></div><div class = 'column'><img src = 'category4/CS1.png' width = '70%;'></div></div>","null","pos","CS","CS","4","category4/CS1.png","","","","",""
"","html-keyboard-response","21","190082","0.0-6.0-0.0-0.15","659u5pb0vr","one_one","1","direct_first","1","er05if08","1","38","1","1","3","1","","0","1","0","null","","","<div class = 'row'><div class = 'column'><img src = 'category1/CS10.png' width = '70%;'></div><div class = 'column'><img src = 'usneg/9561.bmp' width = '100%;'></div></div>","null","neg","CS","CS","1","category1/CS10.png","","","","",""
"","html-keyboard-response","22","192586","0.0-6.0-0.0-0.16","659u5pb0vr","one_one","1","direct_first","1","er05if08","1","38","1","1","3","1","","0","1","0","null","","","<div class = 'row'><div class = 'column'><img src = 'usneg/9520.bmp' width = '100%;'></div><div class = 'column'><img src = 'category2/CS3.png' width = '70%;'></div></div>","null","neg","CS","CS","2","category2/CS3.png","","","","",""
"","html-keyboard-response","23","195090","0.0-6.0-0.0-0.17","659u5pb0vr","one_one","1","direct_first","1","er05if08","1","38","1","1","3","1","","0","1","0","null","","","<div class = 'row'><div class = 'column'><img src = 'category3/CS1.png' width = '70%;'></div><div class = 'column'><img src = 'uspos/1340.bmp' width = '100%;'></div></div>","null","pos","CS","CS","3","category3/CS1.png","","","","",""
"","html-keyboard-response","24","197594","0.0-6.0-0.0-0.18","659u5pb0vr","one_one","1","direct_first","1","er05if08","1","38","1","1","3","1","","0","1","0","null","","","<div class = 'row'><div class = 'column'><img src = 'usneg/9561.bmp' width = '100%;'></div><div class = 'column'><img src = 'category1/CS10.png' width = '70%;'></div></div>","null","neg","CS","CS","1","category1/CS10.png","","","","",""
"","html-keyboard-response","25","200096","0.0-6.0-0.0-0.19","659u5pb0vr","one_one","1","direct_first","1","er05if08","1","38","1","1","3","1","","0","1","0","null","","","<div class = 'row'><div class = 'column'><img src = 'category4/CS1.png' width = '70%;'></div><div class = 'column'><img src = 'uspos/2040.bmp' width = '100%;'></div></div>","null","pos","CS","CS","4","category4/CS1.png","","","","",""
"","survey-html-form","26","214120","0.0-6.0-1.0","659u5pb0vr","one_one","1","direct_first","1","er05if08","1","38","1","1","3","1","","0","1","0","13520.99999999997","","{}","","","","","","","","","","","",""
"","html-keyboard-response","27","218124","0.0-6.0-2.0-0.0","659u5pb0vr","one_one","1","direct_first","1","er05if08","1","38","1","1","3","1","","0","1","0","null","","","<div class = 'row'><div class = 'column'><img src = 'uspos/1340.bmp' width = '100%;'></div><div class = 'column'><img src = 'category3/CS1.png' width = '70%;'></div></div>","null","pos","CS","CS","3","category3/CS1.png","","","","",""
"","html-keyboard-response","28","220628","0.0-6.0-2.0-0.1","659u5pb0vr","one_one","1","direct_first","1","er05if08","1","38","1","1","3","1","","0","1","0","null","","","<div class = 'row'><div class = 'column'><img src = 'usneg/9520.bmp' width = '100%;'></div><div class = 'column'><img src = 'category2/CS3.png' width = '70%;'></div></div>","null","neg","CS","CS","2","category2/CS3.png","","","","",""
"","html-keyboard-response","29","223132","0.0-6.0-2.0-0.2","659u5pb0vr","one_one","1","direct_first","1","er05if08","1","38","1","1","3","1","","0","1","0","null","","","<div class = 'row'><div class = 'column'><img src = 'category4/CS1.png' width = '70%;'></div><div class = 'column'><img src = 'uspos/2040.bmp' width = '100%;'></div></div>","null","pos","CS","CS","4","category4/CS1.png","","","","",""
"","html-keyboard-response","30","225635","0.0-6.0-2.0-0.3","659u5pb0vr","one_one","1","direct_first","1","er05if08","1","38","1","1","3","1","","0","1","0","null","","","<div class = 'row'><div class = 'column'><img src = 'uspos/1340.bmp' width = '100%;'></div><div class = 'column'><img src = 'category3/CS1.png' width = '70%;'></div></div>","null","pos","CS","CS","3","category3/CS1.png","","","","",""
"","html-keyboard-response","31","228138","0.0-6.0-2.0-0.4","659u5pb0vr","one_one","1","direct_first","1","er05if08","1","38","1","1","3","1","","0","1","0","null","","","<div class = 'row'><div class = 'column'><img src = 'uspos/2040.bmp' width = '100%;'></div><div class = 'column'><img src = 'category4/CS1.png' width = '70%;'></div></div>","null","pos","CS","CS","4","category4/CS1.png","","","","",""
"","html-keyboard-response","32","230643","0.0-6.0-2.0-0.5","659u5pb0vr","one_one","1","direct_first","1","er05if08","1","38","1","1","3","1","","0","1","0","null","","","<div class = 'row'><div class = 'column'><img src = 'usneg/9520.bmp' width = '100%;'></div><div class = 'column'><img src = 'category2/CS3.png' width = '70%;'></div></div>","null","neg","CS","CS","2","category2/CS3.png","","","","",""
"","html-keyboard-response","33","233147","0.0-6.0-2.0-0.6","659u5pb0vr","one_one","1","direct_first","1","er05if08","1","38","1","1","3","1","","0","1","0","null","","","<div class = 'row'><div class = 'column'><img src = 'usneg/9561.bmp' width = '100%;'></div><div class = 'column'><img src = 'category1/CS10.png' width = '70%;'></div></div>","null","neg","CS","CS","1","category1/CS10.png","","","","",""
"","html-keyboard-response","34","235651","0.0-6.0-2.0-0.7","659u5pb0vr","one_one","1","direct_first","1","er05if08","1","38","1","1","3","1","","0","1","0","null","","","<div class = 'row'><div class = 'column'><img src = 'category2/CS3.png' width = '70%;'></div><div class = 'column'><img src = 'usneg/9520.bmp' width = '100%;'></div></div>","null","neg","CS","CS","2","category2/CS3.png","","","","",""
"","html-keyboard-response","35","238155","0.0-6.0-2.0-0.8","659u5pb0vr","one_one","1","direct_first","1","er05if08","1","38","1","1","3","1","","0","1","0","null","","","<div class = 'row'><div class = 'column'><img src = 'category4/CS1.png' width = '70%;'></div><div class = 'column'><img src = 'uspos/2040.bmp' width = '100%;'></div></div>","null","pos","CS","CS","4","category4/CS1.png","","","","",""
"","html-keyboard-response","36","240664","0.0-6.0-2.0-0.9","659u5pb0vr","one_one","1","direct_first","1","er05if08","1","38","1","1","3","1","","0","1","0","null","","","<div class = 'row'><div class = 'column'><img src = 'category3/CS1.png' width = '70%;'></div><div class = 'column'><img src = 'uspos/1340.bmp' width = '100%;'></div></div>","null","pos","CS","CS","3","category3/CS1.png","","","","",""
"","html-keyboard-response","37","243168","0.0-6.0-2.0-0.10","659u5pb0vr","one_one","1","direct_first","1","er05if08","1","38","1","1","3","1","","0","1","0","null","","","<div class = 'row'><div class = 'column'><img src = 'category1/CS10.png' width = '70%;'></div><div class = 'column'><img src = 'usneg/9561.bmp' width = '100%;'></div></div>","null","neg","CS","CS","1","category1/CS10.png","","","","",""
"","html-keyboard-response","38","245674","0.0-6.0-2.0-0.11","659u5pb0vr","one_one","1","direct_first","1","er05if08","1","38","1","1","3","1","","0","1","0","null","","","<div class = 'row'><div class = 'column'><img src = 'category2/CS3.png' width = '70%;'></div><div class = 'column'><img src = 'usneg/9520.bmp' width = '100%;'></div></div>","null","neg","CS","CS","2","category2/CS3.png","","","","",""
"","html-keyboard-response","39","248178","0.0-6.0-2.0-0.12","659u5pb0vr","one_one","1","direct_first","1","er05if08","1","38","1","1","3","1","","0","1","0","null","","","<div class = 'row'><div class = 'column'><img src = 'category1/CS10.png' width = '70%;'></div><div class = 'column'><img src = 'usneg/9561.bmp' width = '100%;'></div></div>","null","neg","CS","CS","1","category1/CS10.png","","","","",""
"","html-keyboard-response","40","250682","0.0-6.0-2.0-0.13","659u5pb0vr","one_one","1","direct_first","1","er05if08","1","38","1","1","3","1","","0","1","0","null","","","<div class = 'row'><div class = 'column'><img src = 'usneg/9520.bmp' width = '100%;'></div><div class = 'column'><img src = 'category2/CS3.png' width = '70%;'></div></div>","null","neg","CS","CS","2","category2/CS3.png","","","","",""
"","html-keyboard-response","41","253186","0.0-6.0-2.0-0.14","659u5pb0vr","one_one","1","direct_first","1","er05if08","1","38","1","1","3","1","","0","1","0","null","","","<div class = 'row'><div class = 'column'><img src = 'uspos/1340.bmp' width = '100%;'></div><div class = 'column'><img src = 'category3/CS1.png' width = '70%;'></div></div>","null","pos","CS","CS","3","category3/CS1.png","","","","",""
"","html-keyboard-response","42","255688","0.0-6.0-2.0-0.15","659u5pb0vr","one_one","1","direct_first","1","er05if08","1","38","1","1","3","1","","0","1","0","null","","","<div class = 'row'><div class = 'column'><img src = 'usneg/9561.bmp' width = '100%;'></div><div class = 'column'><img src = 'category1/CS10.png' width = '70%;'></div></div>","null","neg","CS","CS","1","category1/CS10.png","","","","",""
"","html-keyboard-response","43","258192","0.0-6.0-2.0-0.16","659u5pb0vr","one_one","1","direct_first","1","er05if08","1","38","1","1","3","1","","0","1","0","null","","","<div class = 'row'><div class = 'column'><img src = 'uspos/2040.bmp' width = '100%;'></div><div class = 'column'><img src = 'category4/CS1.png' width = '70%;'></div></div>","null","pos","CS","CS","4","category4/CS1.png","","","","",""
"","html-keyboard-response","44","260695","0.0-6.0-2.0-0.17","659u5pb0vr","one_one","1","direct_first","1","er05if08","1","38","1","1","3","1","","0","1","0","null","","","<div class = 'row'><div class = 'column'><img src = 'usneg/9561.bmp' width = '100%;'></div><div class = 'column'><img src = 'category1/CS10.png' width = '70%;'></div></div>","null","neg","CS","CS","1","category1/CS10.png","","","","",""
"","html-keyboard-response","45","263198","0.0-6.0-2.0-0.18","659u5pb0vr","one_one","1","direct_first","1","er05if08","1","38","1","1","3","1","","0","1","0","null","","","<div class = 'row'><div class = 'column'><img src = 'category4/CS1.png' width = '70%;'></div><div class = 'column'><img src = 'uspos/2040.bmp' width = '100%;'></div></div>","null","pos","CS","CS","4","category4/CS1.png","","","","",""
"","html-keyboard-response","46","265706","0.0-6.0-2.0-0.19","659u5pb0vr","one_one","1","direct_first","1","er05if08","1","38","1","1","3","1","","0","1","0","null","","","<div class = 'row'><div class = 'column'><img src = 'category3/CS1.png' width = '70%;'></div><div class = 'column'><img src = 'uspos/1340.bmp' width = '100%;'></div></div>","null","pos","CS","CS","3","category3/CS1.png","","","","",""
"","survey-html-form","47","289718","0.0-6.0-3.0","659u5pb0vr","one_one","1","direct_first","1","er05if08","1","38","1","1","3","1","","0","1","0","23511","","{}","","","","","","","","","","","",""
"","html-keyboard-response","48","293723","0.0-6.0-4.0-0.0","659u5pb0vr","one_one","1","direct_first","1","er05if08","1","38","1","1","3","1","","0","1","0","null","","","<div class = 'row'><div class = 'column'><img src = 'usneg/9561.bmp' width = '100%;'></div><div class = 'column'><img src = 'category1/CS10.png' width = '70%;'></div></div>","null","neg","CS","CS","1","category1/CS10.png","","","","",""
"","html-keyboard-response","49","296226","0.0-6.0-4.0-0.1","659u5pb0vr","one_one","1","direct_first","1","er05if08","1","38","1","1","3","1","","0","1","0","null","","","<div class = 'row'><div class = 'column'><img src = 'usneg/9520.bmp' width = '100%;'></div><div class = 'column'><img src = 'category2/CS3.png' width = '70%;'></div></div>","null","neg","CS","CS","2","category2/CS3.png","","","","",""
"","html-keyboard-response","50","299673","0.0-6.0-4.0-0.2","659u5pb0vr","one_one","1","direct_first","1","er05if08","1","38","1","1","3","1","","0","1","0","null","","","<div class = 'row'><div class = 'column'><img src = 'category3/CS1.png' width = '70%;'></div><div class = 'column'><img src = 'uspos/1340.bmp' width = '100%;'></div></div>","null","pos","CS","CS","3","category3/CS1.png","","","","",""
"","html-keyboard-response","51","312649","0.0-6.0-4.0-0.3","659u5pb0vr","one_one","1","direct_first","1","er05if08","1","38","1","1","3","1","","0","1","0","null","","","<div class = 'row'><div class = 'column'><img src = 'category4/CS1.png' width = '70%;'></div><div class = 'column'><img src = 'uspos/2040.bmp' width = '100%;'></div></div>","null","pos","CS","CS","4","category4/CS1.png","","","","",""
"","html-keyboard-response","52","342792","0.0-6.0-4.0-0.4","659u5pb0vr","one_one","1","direct_first","1","er05if08","1","38","1","1","3","1","","0","1","0","null","","","<div class = 'row'><div class = 'column'><img src = 'usneg/9520.bmp' width = '100%;'></div><div class = 'column'><img src = 'category2/CS3.png' width = '70%;'></div></div>","null","neg","CS","CS","2","category2/CS3.png","","","","",""
"","html-keyboard-response","53","400528","0.0-6.0-4.0-0.5","659u5pb0vr","one_one","1","direct_first","1","er05if08","1","38","1","1","3","1","","0","1","0","null","","","<div class = 'row'><div class = 'column'><img src = 'category3/CS1.png' width = '70%;'></div><div class = 'column'><img src = 'uspos/1340.bmp' width = '100%;'></div></div>","null","pos","CS","CS","3","category3/CS1.png","","","","",""
"","html-keyboard-response","54","482958","0.0-6.0-4.0-0.6","659u5pb0vr","one_one","1","direct_first","1","er05if08","1","38","1","1","3","1","","0","1","0","null","","","<div class = 'row'><div class = 'column'><img src = 'usneg/9520.bmp' width = '100%;'></div><div class = 'column'><img src = 'category2/CS3.png' width = '70%;'></div></div>","null","neg","CS","CS","2","category2/CS3.png","","","","",""
"","html-keyboard-response","55","529509","0.0-6.0-4.0-0.7","659u5pb0vr","one_one","1","direct_first","1","er05if08","1","38","1","1","3","1","","0","1","0","null","","","<div class = 'row'><div class = 'column'><img src = 'category4/CS1.png' width = '70%;'></div><div class = 'column'><img src = 'uspos/2040.bmp' width = '100%;'></div></div>","null","pos","CS","CS","4","category4/CS1.png","","","","",""
"","html-keyboard-response","56","532013","0.0-6.0-4.0-0.8","659u5pb0vr","one_one","1","direct_first","1","er05if08","1","38","1","1","3","1","","0","1","0","null","","","<div class = 'row'><div class = 'column'><img src = 'category1/CS10.png' width = '70%;'></div><div class = 'column'><img src = 'usneg/9561.bmp' width = '100%;'></div></div>","null","neg","CS","CS","1","category1/CS10.png","","","","",""
"","html-keyboard-response","57","534516","0.0-6.0-4.0-0.9","659u5pb0vr","one_one","1","direct_first","1","er05if08","1","38","1","1","3","1","","0","1","0","null","","","<div class = 'row'><div class = 'column'><img src = 'category4/CS1.png' width = '70%;'></div><div class = 'column'><img src = 'uspos/2040.bmp' width = '100%;'></div></div>","null","pos","CS","CS","4","category4/CS1.png","","","","",""
"","html-keyboard-response","58","537026","0.0-6.0-4.0-0.10","659u5pb0vr","one_one","1","direct_first","1","er05if08","1","38","1","1","3","1","","0","1","0","null","","","<div class = 'row'><div class = 'column'><img src = 'usneg/9561.bmp' width = '100%;'></div><div class = 'column'><img src = 'category1/CS10.png' width = '70%;'></div></div>","null","neg","CS","CS","1","category1/CS10.png","","","","",""
"","html-keyboard-response","59","539530","0.0-6.0-4.0-0.11","659u5pb0vr","one_one","1","direct_first","1","er05if08","1","38","1","1","3","1","","0","1","0","null","","","<div class = 'row'><div class = 'column'><img src = 'category3/CS1.png' width = '70%;'></div><div class = 'column'><img src = 'uspos/1340.bmp' width = '100%;'></div></div>","null","pos","CS","CS","3","category3/CS1.png","","","","",""
"","html-keyboard-response","60","542035","0.0-6.0-4.0-0.12","659u5pb0vr","one_one","1","direct_first","1","er05if08","1","38","1","1","3","1","","0","1","0","null","","","<div class = 'row'><div class = 'column'><img src = 'category4/CS1.png' width = '70%;'></div><div class = 'column'><img src = 'uspos/2040.bmp' width = '100%;'></div></div>","null","pos","CS","CS","4","category4/CS1.png","","","","",""
"","html-keyboard-response","61","544539","0.0-6.0-4.0-0.13","659u5pb0vr","one_one","1","direct_first","1","er05if08","1","38","1","1","3","1","","0","1","0","null","","","<div class = 'row'><div class = 'column'><img src = 'uspos/1340.bmp' width = '100%;'></div><div class = 'column'><img src = 'category3/CS1.png' width = '70%;'></div></div>","null","pos","CS","CS","3","category3/CS1.png","","","","",""
"","html-keyboard-response","62","547043","0.0-6.0-4.0-0.14","659u5pb0vr","one_one","1","direct_first","1","er05if08","1","38","1","1","3","1","","0","1","0","null","","","<div class = 'row'><div class = 'column'><img src = 'category2/CS3.png' width = '70%;'></div><div class = 'column'><img src = 'usneg/9520.bmp' width = '100%;'></div></div>","null","neg","CS","CS","2","category2/CS3.png","","","","",""
"","html-keyboard-response","63","549548","0.0-6.0-4.0-0.15","659u5pb0vr","one_one","1","direct_first","1","er05if08","1","38","1","1","3","1","","0","1","0","null","","","<div class = 'row'><div class = 'column'><img src = 'usneg/9561.bmp' width = '100%;'></div><div class = 'column'><img src = 'category1/CS10.png' width = '70%;'></div></div>","null","neg","CS","CS","1","category1/CS10.png","","","","",""
"","html-keyboard-response","64","552052","0.0-6.0-4.0-0.16","659u5pb0vr","one_one","1","direct_first","1","er05if08","1","38","1","1","3","1","","0","1","0","null","","","<div class = 'row'><div class = 'column'><img src = 'category4/CS1.png' width = '70%;'></div><div class = 'column'><img src = 'uspos/2040.bmp' width = '100%;'></div></div>","null","pos","CS","CS","4","category4/CS1.png","","","","",""
"","html-keyboard-response","65","554557","0.0-6.0-4.0-0.17","659u5pb0vr","one_one","1","direct_first","1","er05if08","1","38","1","1","3","1","","0","1","0","null","","","<div class = 'row'><div class = 'column'><img src = 'usneg/9561.bmp' width = '100%;'></div><div class = 'column'><img src = 'category1/CS10.png' width = '70%;'></div></div>","null","neg","CS","CS","1","category1/CS10.png","","","","",""
"","html-keyboard-response","66","557061","0.0-6.0-4.0-0.18","659u5pb0vr","one_one","1","direct_first","1","er05if08","1","38","1","1","3","1","","0","1","0","null","","","<div class = 'row'><div class = 'column'><img src = 'category2/CS3.png' width = '70%;'></div><div class = 'column'><img src = 'usneg/9520.bmp' width = '100%;'></div></div>","null","neg","CS","CS","2","category2/CS3.png","","","","",""
"","html-keyboard-response","67","559570","0.0-6.0-4.0-0.19","659u5pb0vr","one_one","1","direct_first","1","er05if08","1","38","1","1","3","1","","0","1","0","null","","","<div class = 'row'><div class = 'column'><img src = 'category3/CS1.png' width = '70%;'></div><div class = 'column'><img src = 'uspos/1340.bmp' width = '100%;'></div></div>","null","pos","CS","CS","3","category3/CS1.png","","","","",""
"","survey-html-form","68","563543","0.0-6.0-5.0","659u5pb0vr","one_one","1","direct_first","1","er05if08","1","38","1","1","3","1","","0","1","0","3471","","{}","","","","","","","","","","","",""
"","html-keyboard-response","69","567547","0.0-6.0-6.0-0.0","659u5pb0vr","one_one","1","direct_first","1","er05if08","1","38","1","1","3","1","","0","1","0","null","","","<div class = 'row'><div class = 'column'><img src = 'category2/CS3.png' width = '70%;'></div><div class = 'column'><img src = 'usneg/9520.bmp' width = '100%;'></div></div>","null","neg","CS","CS","2","category2/CS3.png","","","","",""
"","html-keyboard-response","70","570051","0.0-6.0-6.0-0.1","659u5pb0vr","one_one","1","direct_first","1","er05if08","1","38","1","1","3","1","","0","1","0","null","","","<div class = 'row'><div class = 'column'><img src = 'uspos/2040.bmp' width = '100%;'></div><div class = 'column'><img src = 'category4/CS1.png' width = '70%;'></div></div>","null","pos","CS","CS","4","category4/CS1.png","","","","",""
"","html-keyboard-response","71","572555","0.0-6.0-6.0-0.2","659u5pb0vr","one_one","1","direct_first","1","er05if08","1","38","1","1","3","1","","0","1","0","null","","","<div class = 'row'><div class = 'column'><img src = 'category1/CS10.png' width = '70%;'></div><div class = 'column'><img src = 'usneg/9561.bmp' width = '100%;'></div></div>","null","neg","CS","CS","1","category1/CS10.png","","","","",""
"","html-keyboard-response","72","575060","0.0-6.0-6.0-0.3","659u5pb0vr","one_one","1","direct_first","1","er05if08","1","38","1","1","3","1","","0","1","0","null","","","<div class = 'row'><div class = 'column'><img src = 'category4/CS1.png' width = '70%;'></div><div class = 'column'><img src = 'uspos/2040.bmp' width = '100%;'></div></div>","null","pos","CS","CS","4","category4/CS1.png","","","","",""
"","html-keyboard-response","73","577563","0.0-6.0-6.0-0.4","659u5pb0vr","one_one","1","direct_first","1","er05if08","1","38","1","1","3","1","","0","1","0","null","","","<div class = 'row'><div class = 'column'><img src = 'category3/CS1.png' width = '70%;'></div><div class = 'column'><img src = 'uspos/1340.bmp' width = '100%;'></div></div>","null","pos","CS","CS","3","category3/CS1.png","","","","",""
"","html-keyboard-response","74","580068","0.0-6.0-6.0-0.5","659u5pb0vr","one_one","1","direct_first","1","er05if08","1","38","1","1","3","1","","0","1","0","null","","","<div class = 'row'><div class = 'column'><img src = 'category2/CS3.png' width = '70%;'></div><div class = 'column'><img src = 'usneg/9520.bmp' width = '100%;'></div></div>","null","neg","CS","CS","2","category2/CS3.png","","","","",""
"","html-keyboard-response","75","582572","0.0-6.0-6.0-0.6","659u5pb0vr","one_one","1","direct_first","1","er05if08","1","38","1","1","3","1","","0","1","0","null","","","<div class = 'row'><div class = 'column'><img src = 'category4/CS1.png' width = '70%;'></div><div class = 'column'><img src = 'uspos/2040.bmp' width = '100%;'></div></div>","null","pos","CS","CS","4","category4/CS1.png","","","","",""
"","html-keyboard-response","76","585082","0.0-6.0-6.0-0.7","659u5pb0vr","one_one","1","direct_first","1","er05if08","1","38","1","1","3","1","","0","1","0","null","","","<div class = 'row'><div class = 'column'><img src = 'uspos/1340.bmp' width = '100%;'></div><div class = 'column'><img src = 'category3/CS1.png' width = '70%;'></div></div>","null","pos","CS","CS","3","category3/CS1.png","","","","",""
"","html-keyboard-response","77","587586","0.0-6.0-6.0-0.8","659u5pb0vr","one_one","1","direct_first","1","er05if08","1","38","1","1","3","1","","0","1","0","null","","","<div class = 'row'><div class = 'column'><img src = 'usneg/9520.bmp' width = '100%;'></div><div class = 'column'><img src = 'category2/CS3.png' width = '70%;'></div></div>","null","neg","CS","CS","2","category2/CS3.png","","","","",""
"","html-keyboard-response","78","590091","0.0-6.0-6.0-0.9","659u5pb0vr","one_one","1","direct_first","1","er05if08","1","38","1","1","3","1","","0","1","0","null","","","<div class = 'row'><div class = 'column'><img src = 'uspos/1340.bmp' width = '100%;'></div><div class = 'column'><img src = 'category3/CS1.png' width = '70%;'></div></div>","null","pos","CS","CS","3","category3/CS1.png","","","","",""
"","html-keyboard-response","79","592598","0.0-6.0-6.0-0.10","659u5pb0vr","one_one","1","direct_first","1","er05if08","1","38","1","1","3","1","","0","1","0","null","","","<div class = 'row'><div class = 'column'><img src = 'usneg/9561.bmp' width = '100%;'></div><div class = 'column'><img src = 'category1/CS10.png' width = '70%;'></div></div>","null","neg","CS","CS","1","category1/CS10.png","","","","",""
"","html-keyboard-response","80","595103","0.0-6.0-6.0-0.11","659u5pb0vr","one_one","1","direct_first","1","er05if08","1","38","1","1","3","1","","0","1","0","null","","","<div class = 'row'><div class = 'column'><img src = 'uspos/2040.bmp' width = '100%;'></div><div class = 'column'><img src = 'category4/CS1.png' width = '70%;'></div></div>","null","pos","CS","CS","4","category4/CS1.png","","","","",""
"","html-keyboard-response","81","597608","0.0-6.0-6.0-0.12","659u5pb0vr","one_one","1","direct_first","1","er05if08","1","38","1","1","3","1","","0","1","0","null","","","<div class = 'row'><div class = 'column'><img src = 'usneg/9520.bmp' width = '100%;'></div><div class = 'column'><img src = 'category2/CS3.png' width = '70%;'></div></div>","null","neg","CS","CS","2","category2/CS3.png","","","","",""
"","html-keyboard-response","82","600111","0.0-6.0-6.0-0.13","659u5pb0vr","one_one","1","direct_first","1","er05if08","1","38","1","1","3","1","","0","1","0","null","","","<div class = 'row'><div class = 'column'><img src = 'usneg/9561.bmp' width = '100%;'></div><div class = 'column'><img src = 'category1/CS10.png' width = '70%;'></div></div>","null","neg","CS","CS","1","category1/CS10.png","","","","",""
"","html-keyboard-response","83","602615","0.0-6.0-6.0-0.14","659u5pb0vr","one_one","1","direct_first","1","er05if08","1","38","1","1","3","1","","0","1","0","null","","","<div class = 'row'><div class = 'column'><img src = 'usneg/9520.bmp' width = '100%;'></div><div class = 'column'><img src = 'category2/CS3.png' width = '70%;'></div></div>","null","neg","CS","CS","2","category2/CS3.png","","","","",""
"","html-keyboard-response","84","605118","0.0-6.0-6.0-0.15","659u5pb0vr","one_one","1","direct_first","1","er05if08","1","38","1","1","3","1","","0","1","0","null","","","<div class = 'row'><div class = 'column'><img src = 'category3/CS1.png' width = '70%;'></div><div class = 'column'><img src = 'uspos/1340.bmp' width = '100%;'></div></div>","null","pos","CS","CS","3","category3/CS1.png","","","","",""
"","html-keyboard-response","85","607621","0.0-6.0-6.0-0.16","659u5pb0vr","one_one","1","direct_first","1","er05if08","1","38","1","1","3","1","","0","1","0","null","","","<div class = 'row'><div class = 'column'><img src = 'usneg/9561.bmp' width = '100%;'></div><div class = 'column'><img src = 'category1/CS10.png' width = '70%;'></div></div>","null","neg","CS","CS","1","category1/CS10.png","","","","",""
"","html-keyboard-response","86","610126","0.0-6.0-6.0-0.17","659u5pb0vr","one_one","1","direct_first","1","er05if08","1","38","1","1","3","1","","0","1","0","null","","","<div class = 'row'><div class = 'column'><img src = 'category3/CS1.png' width = '70%;'></div><div class = 'column'><img src = 'uspos/1340.bmp' width = '100%;'></div></div>","null","pos","CS","CS","3","category3/CS1.png","","","","",""
"","html-keyboard-response","87","612630","0.0-6.0-6.0-0.18","659u5pb0vr","one_one","1","direct_first","1","er05if08","1","38","1","1","3","1","","0","1","0","null","","","<div class = 'row'><div class = 'column'><img src = 'usneg/9561.bmp' width = '100%;'></div><div class = 'column'><img src = 'category1/CS10.png' width = '70%;'></div></div>","null","neg","CS","CS","1","category1/CS10.png","","","","",""
"","html-keyboard-response","88","615139","0.0-6.0-6.0-0.19","659u5pb0vr","one_one","1","direct_first","1","er05if08","1","38","1","1","3","1","","0","1","0","null","","","<div class = 'row'><div class = 'column'><img src = 'category4/CS1.png' width = '70%;'></div><div class = 'column'><img src = 'uspos/2040.bmp' width = '100%;'></div></div>","null","pos","CS","CS","4","category4/CS1.png","","","","",""
"","survey-html-form","89","629151","0.0-7.0","659u5pb0vr","one_one","1","direct_first","1","er05if08","1","38","1","1","3","1","","0","1","0","13510","","{}","","","","","","","","","","","",""
"","image-slider-response","90","637237","0.0-8.0-0.0","659u5pb0vr","one_one","1","direct_first","1","er05if08","1","38","1","1","3","1","","0","1","0","6081","","","","","pos","GS","GSnew","3","category3/GS1.png","58","targets/7.png","direct","",""
"","image-slider-response","91","641266","0.0-8.0-0.1","659u5pb0vr","one_one","1","direct_first","1","er05if08","1","38","1","1","3","1","","0","1","0","4026","","","","","neg","GS","GSold","2","category2/CS6.png","-39","targets/35.png","direct","",""
"","image-slider-response","92","644418","0.0-8.0-0.2","659u5pb0vr","one_one","1","direct_first","1","er05if08","1","38","1","1","3","1","","0","1","0","3150","","","","","neg","GS","GSold","2","category2/CS9.png","-64","targets/44.png","direct","",""
"","image-slider-response","93","647732","0.0-8.0-0.3","659u5pb0vr","one_one","1","direct_first","1","er05if08","1","38","1","1","3","1","","0","1","0","3311.9999999998836","","","","","neg","CS","CS","1","category1/CS10.png","-34","targets/27.png","direct","",""
"","image-slider-response","94","651352","0.0-8.0-0.4","659u5pb0vr","one_one","1","direct_first","1","er05if08","1","38","1","1","3","1","","0","1","0","3618","","","","","neg","GS","GSnew","1","category1/GS1.png","-32","targets/20.png","direct","",""
"","image-slider-response","95","654249","0.0-8.0-0.5","659u5pb0vr","one_one","1","direct_first","1","er05if08","1","38","1","1","3","1","","0","1","0","2893","","","","","neg","CS","CS","2","category2/CS3.png","-40","targets/42.png","direct","",""
"","image-slider-response","96","657002","0.0-8.0-0.6","659u5pb0vr","one_one","1","direct_first","1","er05if08","1","38","1","1","3","1","","0","1","0","2751.0000000001164","","","","","neg","GS","GSold","1","category1/CS5.png","65","targets/37.png","direct","",""
"","image-slider-response","97","660017","0.0-8.0-0.7","659u5pb0vr","one_one","1","direct_first","1","er05if08","1","38","1","1","3","1","","0","1","0","3012","","","","","neg","GS","GSold","2","category2/CS1.png","-54","targets/43.png","direct","",""
"","image-slider-response","98","662691","0.0-8.0-0.8","659u5pb0vr","one_one","1","direct_first","1","er05if08","1","38","1","1","3","1","","0","1","0","2671","","","","","pos","GS","GSnew","3","category3/GS3.png","91","targets/2.png","direct","",""
"","image-slider-response","99","665426","0.0-8.0-0.9","659u5pb0vr","one_one","1","direct_first","1","er05if08","1","38","1","1","3","1","","0","1","0","2733","","","","","pos","GS","GSold","4","category4/CS10.png","87","targets/41.png","direct","",""
"","image-slider-response","100","668333","0.0-8.0-0.10","659u5pb0vr","one_one","1","direct_first","1","er05if08","1","38","1","1","3","1","","0","1","0","2905","","","","","pos","GS","GSold","3","category3/CS5.png","100","targets/22.png","direct","",""
"","image-slider-response","101","671574","0.0-8.0-0.11","659u5pb0vr","one_one","1","direct_first","1","er05if08","1","38","1","1","3","1","","0","1","0","3239.0000000001164","","","","","pos","GS","abstract","3","category3/wang.png","-9","targets/26.png","direct","",""
"","image-slider-response","102","674317","0.0-8.0-0.12","659u5pb0vr","one_one","1","direct_first","1","er05if08","1","38","1","1","3","1","","0","1","0","2741","","","","","pos","GS","GSnew","4","category4/GS3.png","-49","targets/12.png","direct","",""
"","image-slider-response","103","677173","0.0-8.0-0.13","659u5pb0vr","one_one","1","direct_first","1","er05if08","1","38","1","1","3","1","","0","1","0","2854.9999999998836","","","","","neg","GS","GSnew","2","category2/GS3.png","-37","targets/40.png","direct","",""
"","image-slider-response","104","679695","0.0-8.0-0.14","659u5pb0vr","one_one","1","direct_first","1","er05if08","1","38","1","1","3","1","","0","1","0","2519","","","","","pos","GS","GSnew","4","category4/GS2.png","-60","targets/14.png","direct","",""
"","image-slider-response","105","682494","0.0-8.0-0.15","659u5pb0vr","one_one","1","direct_first","1","er05if08","1","38","1","1","3","1","","0","1","0","2797","","","","","pos","GS","GSnew","3","category3/GS2.png","-55","targets/46.png","direct","",""
"","image-slider-response","106","684773","0.0-8.0-0.16","659u5pb0vr","one_one","1","direct_first","1","er05if08","1","38","1","1","3","1","","0","1","0","2275.9999999998836","","","","","pos","GS","GSnew","4","category4/GS1.png","-45","targets/30.png","direct","",""
"","image-slider-response","107","688039","0.0-8.0-0.17","659u5pb0vr","one_one","1","direct_first","1","er05if08","1","38","1","1","3","1","","0","1","0","3264","","","","","pos","GS","abstract","4","category4/lin.png","-15","targets/48.png","direct","",""
"","image-slider-response","108","690590","0.0-8.0-0.18","659u5pb0vr","one_one","1","direct_first","1","er05if08","1","38","1","1","3","1","","0","1","0","2549","","","","","neg","GS","abstract","1","category1/ma.png","-41","targets/15.png","direct","",""
"","image-slider-response","109","694201","0.0-8.0-0.19","659u5pb0vr","one_one","1","direct_first","1","er05if08","1","38","1","1","3","1","","0","1","0","3607.9999999998836","","","","","neg","GS","GSnew","1","category1/GS3.png","-56","targets/45.png","direct","",""
"","image-slider-response","110","696328","0.0-8.0-0.20","659u5pb0vr","one_one","1","direct_first","1","er05if08","1","38","1","1","3","1","","0","1","0","2125","","","","","pos","GS","GSold","4","category4/CS7.png","-59","targets/28.png","direct","",""
"","image-slider-response","111","700267","0.0-8.0-0.21","659u5pb0vr","one_one","1","direct_first","1","er05if08","1","38","1","1","3","1","","0","1","0","3937","","","","","neg","GS","GSnew","1","category1/GS2.png","-30","targets/29.png","direct","",""
"","image-slider-response","112","702813","0.0-8.0-0.22","659u5pb0vr","one_one","1","direct_first","1","er05if08","1","38","1","1","3","1","","0","1","0","2543","","","","","pos","CS","CS","3","category3/CS1.png","-29","targets/23.png","direct","",""
"","image-slider-response","113","705020","0.0-8.0-0.23","659u5pb0vr","one_one","1","direct_first","1","er05if08","1","38","1","1","3","1","","0","1","0","2205","","","","","pos","GS","GSold","4","category4/CS6.png","-34","targets/13.png","direct","",""
"","image-slider-response","114","708172","0.0-8.0-0.24","659u5pb0vr","one_one","1","direct_first","1","er05if08","1","38","1","1","3","1","","0","1","0","3150","","","","","pos","GS","GSold","3","category3/CS4.png","-20","targets/31.png","direct","",""
"","image-slider-response","115","710499","0.0-8.0-0.25","659u5pb0vr","one_one","1","direct_first","1","er05if08","1","38","1","1","3","1","","0","1","0","2325","","","","","neg","GS","GSold","1","category1/CS9.png","63","targets/1.png","direct","",""
"","image-slider-response","116","716004","0.0-8.0-0.26","659u5pb0vr","one_one","1","direct_first","1","er05if08","1","38","1","1","3","1","","0","1","0","5501.999999999884","","","","","neg","GS","GSnew","2","category2/GS1.png","-8","targets/18.png","direct","",""
"","image-slider-response","117","718778","0.0-8.0-0.27","659u5pb0vr","one_one","1","direct_first","1","er05if08","1","38","1","1","3","1","","0","1","0","2773","","","","","neg","GS","GSnew","2","category2/GS2.png","-34","targets/11.png","direct","",""
"","image-slider-response","118","721790","0.0-8.0-0.28","659u5pb0vr","one_one","1","direct_first","1","er05if08","1","38","1","1","3","1","","0","1","0","3009.0000000001164","","","","","pos","GS","GSold","3","category3/CS9.png","72","targets/24.png","direct","",""
"","image-slider-response","119","724028","0.0-8.0-0.29","659u5pb0vr","one_one","1","direct_first","1","er05if08","1","38","1","1","3","1","","0","1","0","2236","","","","","neg","GS","abstract","2","category2/men.png","-16","targets/39.png","direct","",""
"","image-slider-response","120","726742","0.0-8.0-0.30","659u5pb0vr","one_one","1","direct_first","1","er05if08","1","38","1","1","3","1","","0","1","0","2711.0000000001164","","","","","neg","GS","GSold","1","category1/CS3.png","34","targets/17.png","direct","",""
"","image-slider-response","121","730470","0.0-8.0-0.31","659u5pb0vr","one_one","1","direct_first","1","er05if08","1","38","1","1","3","1","","0","1","0","3727","","","","","pos","CS","CS","4","category4/CS1.png","5","targets/38.png","direct","",""
"","html-keyboard-response","122","805943","0.0-9.0","659u5pb0vr","one_one","1","direct_first","1","er05if08","1","38","1","1","3","1","","0","1","0","75472.00000000012","","","<p>Sie sehen nun die chinesischen Zeichen nur ganz kurz. Danach sehen Sie die jeweilige Aussprache der Zeichen als Silbe auf dem Bildschrim. Ihre Aufgabe ist es, für jede Silbe anzugeben, ob diese etwas angenehmes, oder unangenehmes bedeuten könnte. Verlassen Sie sich hier vor allem auf Ihre Intuition.<br><br>Die Zeichen werden nur zur Orientierung dargestellt, beachten Sie sie deshalb nicht. Konzentrieren Sie sich vor allem auf die Silben. <br>Reagieren Sie mit folgenden zwei Tasten: <br><br><b>'D' </b> wenn die Silbe etwas <b>unangenehmes</b> bedeuten könnte. <br><b>'K'</b> wenn die Silbe etwas <b>angenehmes</b> bedeuten könnte. <br><br>Bitte legen Sie nun den Zeigefinger der linken Hand auf die Taste 'D' und den Zeigefinger der rechten Hand auf die Taste 'K'. <br>Reagieren Sie auf jede Silbe so schnell wie möglich. Uns interessiert Ihre spontane Reaktion. <br> <br> <br>Drücken Sie 'D' oder 'K', um die nächste Aufgabe zu starten. </p>","75","","","","","","","","","",""
"","html-keyboard-response","123","808947","0.0-10.0-0.0","659u5pb0vr","one_one","1","direct_first","1","er05if08","1","38","1","1","3","1","","0","1","0","null","","","<div style=""font-size:60px;"">+</div>","null","","","","","","","","","",""
"","html-keyboard-response","124","809038","0.0-10.0-1.0","659u5pb0vr","one_one","1","direct_first","1","er05if08","1","38","1","1","3","1","","0","1","0","null","","","<img src = 'category3/CS1.png' width = '100%;'>","null","","","","","","","","","",""
"","html-keyboard-response","125","809291","0.0-10.0-2.0","659u5pb0vr","one_one","1","direct_first","1","er05if08","1","38","1","1","3","1","","0","1","0","null","","","<img src = 'targets/23.png' width = '100%;'>","null","","","","","","","","","",""
"","html-keyboard-response","126","815257","0.0-10.0-3.0","659u5pb0vr","one_one","1","direct_first","1","er05if08","1","38","1","1","3","1","","0","1","0","5965","","","<img src = 'targets/mask.png' width = '100%;'>","75","pos","CS","CS","3","category3/CS1.png","","targets/23.png","indirect","1","0"
"","html-keyboard-response","127","816763","0.0-10.0-0.1","659u5pb0vr","one_one","1","direct_first","1","er05if08","1","38","1","1","3","1","","0","1","0","null","","","<div style=""font-size:60px;"">+</div>","null","","","","","","","","","",""
"","html-keyboard-response","128","816856","0.0-10.0-1.1","659u5pb0vr","one_one","1","direct_first","1","er05if08","1","38","1","1","3","1","","0","1","0","null","","","<img src = 'category1/CS9.png' width = '100%;'>","null","","","","","","","","","",""
"","html-keyboard-response","129","817110","0.0-10.0-2.1","659u5pb0vr","one_one","1","direct_first","1","er05if08","1","38","1","1","3","1","","0","1","0","null","","","<img src = 'targets/1.png' width = '100%;'>","null","","","","","","","","","",""
"","html-keyboard-response","130","818606","0.0-10.0-3.1","659u5pb0vr","one_one","1","direct_first","1","er05if08","1","38","1","1","3","1","","0","1","0","1494","","","<img src = 'targets/mask.png' width = '100%;'>","75","neg","GS","GSold","1","category1/CS9.png","","targets/1.png","indirect","1","1"
"","html-keyboard-response","131","820110","0.0-10.0-0.2","659u5pb0vr","one_one","1","direct_first","1","er05if08","1","38","1","1","3","1","","0","1","0","null","","","<div style=""font-size:60px;"">+</div>","null","","","","","","","","","",""
"","html-keyboard-response","132","820203","0.0-10.0-1.2","659u5pb0vr","one_one","1","direct_first","1","er05if08","1","38","1","1","3","1","","0","1","0","null","","","<img src = 'category4/CS10.png' width = '100%;'>","null","","","","","","","","","",""
"","html-keyboard-response","133","820456","0.0-10.0-2.2","659u5pb0vr","one_one","1","direct_first","1","er05if08","1","38","1","1","3","1","","0","1","0","null","","","<img src = 'targets/41.png' width = '100%;'>","null","","","","","","","","","",""
"","html-keyboard-response","134","824275","0.0-10.0-3.2","659u5pb0vr","one_one","1","direct_first","1","er05if08","1","38","1","1","3","1","","0","1","0","3817","","","<img src = 'targets/mask.png' width = '100%;'>","68","pos","GS","GSold","4","category4/CS10.png","","targets/41.png","indirect","0","2"
"","html-keyboard-response","135","825779","0.0-10.0-0.3","659u5pb0vr","one_one","1","direct_first","1","er05if08","1","38","1","1","3","1","","0","1","0","null","","","<div style=""font-size:60px;"">+</div>","null","","","","","","","","","",""
"","html-keyboard-response","136","825871","0.0-10.0-1.3","659u5pb0vr","one_one","1","direct_first","1","er05if08","1","38","1","1","3","1","","0","1","0","null","","","<img src = 'category2/CS3.png' width = '100%;'>","null","","","","","","","","","",""
"","html-keyboard-response","137","826125","0.0-10.0-2.3","659u5pb0vr","one_one","1","direct_first","1","er05if08","1","38","1","1","3","1","","0","1","0","null","","","<img src = 'targets/42.png' width = '100%;'>","null","","","","","","","","","",""
"","html-keyboard-response","138","827086","0.0-10.0-3.3","659u5pb0vr","one_one","1","direct_first","1","er05if08","1","38","1","1","3","1","","0","1","0","960.0000000001164","","","<img src = 'targets/mask.png' width = '100%;'>","75","neg","CS","CS","2","category2/CS3.png","","targets/42.png","indirect","1","3"
"","html-keyboard-response","139","828591","0.0-10.0-0.4","659u5pb0vr","one_one","1","direct_first","1","er05if08","1","38","1","1","3","1","","0","1","0","null","","","<div style=""font-size:60px;"">+</div>","null","","","","","","","","","",""
"","html-keyboard-response","140","828683","0.0-10.0-1.4","659u5pb0vr","one_one","1","direct_first","1","er05if08","1","38","1","1","3","1","","0","1","0","null","","","<img src = 'category2/CS1.png' width = '100%;'>","null","","","","","","","","","",""
"","html-keyboard-response","141","828936","0.0-10.0-2.4","659u5pb0vr","one_one","1","direct_first","1","er05if08","1","38","1","1","3","1","","0","1","0","null","","","<img src = 'targets/43.png' width = '100%;'>","null","","","","","","","","","",""
"","html-keyboard-response","142","830718","0.0-10.0-3.4","659u5pb0vr","one_one","1","direct_first","1","er05if08","1","38","1","1","3","1","","0","1","0","1780","","","<img src = 'targets/mask.png' width = '100%;'>","75","neg","GS","GSold","2","category2/CS1.png","","targets/43.png","indirect","1","4"
"","html-keyboard-response","143","832222","0.0-10.0-0.5","659u5pb0vr","one_one","1","direct_first","1","er05if08","1","38","1","1","3","1","","0","1","0","null","","","<div style=""font-size:60px;"">+</div>","null","","","","","","","","","",""
"","html-keyboard-response","144","832313","0.0-10.0-1.5","659u5pb0vr","one_one","1","direct_first","1","er05if08","1","38","1","1","3","1","","0","1","0","null","","","<img src = 'category4/CS1.png' width = '100%;'>","null","","","","","","","","","",""
"","html-keyboard-response","145","832565","0.0-10.0-2.5","659u5pb0vr","one_one","1","direct_first","1","er05if08","1","38","1","1","3","1","","0","1","0","null","","","<img src = 'targets/38.png' width = '100%;'>","null","","","","","","","","","",""
"","html-keyboard-response","146","833551","0.0-10.0-3.5","659u5pb0vr","one_one","1","direct_first","1","er05if08","1","38","1","1","3","1","","0","1","0","983.9999999998836","","","<img src = 'targets/mask.png' width = '100%;'>","75","pos","CS","CS","4","category4/CS1.png","","targets/38.png","indirect","1","5"
"","html-keyboard-response","147","835055","0.0-10.0-0.6","659u5pb0vr","one_one","1","direct_first","1","er05if08","1","38","1","1","3","1","","0","1","0","null","","","<div style=""font-size:60px;"">+</div>","null","","","","","","","","","",""
"","html-keyboard-response","148","835148","0.0-10.0-1.6","659u5pb0vr","one_one","1","direct_first","1","er05if08","1","38","1","1","3","1","","0","1","0","null","","","<img src = 'category2/CS6.png' width = '100%;'>","null","","","","","","","","","",""
"","html-keyboard-response","149","835401","0.0-10.0-2.6","659u5pb0vr","one_one","1","direct_first","1","er05if08","1","38","1","1","3","1","","0","1","0","null","","","<img src = 'targets/35.png' width = '100%;'>","null","","","","","","","","","",""
"","html-keyboard-response","150","836435","0.0-10.0-3.6","659u5pb0vr","one_one","1","direct_first","1","er05if08","1","38","1","1","3","1","","0","1","0","1031","","","<img src = 'targets/mask.png' width = '100%;'>","68","neg","GS","GSold","2","category2/CS6.png","","targets/35.png","indirect","0","6"
"","html-keyboard-response","151","837939","0.0-10.0-0.7","659u5pb0vr","one_one","1","direct_first","1","er05if08","1","38","1","1","3","1","","0","1","0","null","","","<div style=""font-size:60px;"">+</div>","null","","","","","","","","","",""
"","html-keyboard-response","152","838032","0.0-10.0-1.7","659u5pb0vr","one_one","1","direct_first","1","er05if08","1","38","1","1","3","1","","0","1","0","null","","","<img src = 'category3/CS9.png' width = '100%;'>","null","","","","","","","","","",""
"","html-keyboard-response","153","838286","0.0-10.0-2.7","659u5pb0vr","one_one","1","direct_first","1","er05if08","1","38","1","1","3","1","","0","1","0","null","","","<img src = 'targets/24.png' width = '100%;'>","null","","","","","","","","","",""
"","html-keyboard-response","154","838743","0.0-10.0-3.7","659u5pb0vr","one_one","1","direct_first","1","er05if08","1","38","1","1","3","1","","0","1","0","454.9999999998836","","","<img src = 'targets/mask.png' width = '100%;'>","75","pos","GS","GSold","3","category3/CS9.png","","targets/24.png","indirect","1","7"
"","html-keyboard-response","155","840247","0.0-10.0-0.8","659u5pb0vr","one_one","1","direct_first","1","er05if08","1","38","1","1","3","1","","0","1","0","null","","","<div style=""font-size:60px;"">+</div>","null","","","","","","","","","",""
"","html-keyboard-response","156","840340","0.0-10.0-1.8","659u5pb0vr","one_one","1","direct_first","1","er05if08","1","38","1","1","3","1","","0","1","0","null","","","<img src = 'category2/CS9.png' width = '100%;'>","null","","","","","","","","","",""
"","html-keyboard-response","157","840594","0.0-10.0-2.8","659u5pb0vr","one_one","1","direct_first","1","er05if08","1","38","1","1","3","1","","0","1","0","null","","","<img src = 'targets/44.png' width = '100%;'>","null","","","","","","","","","",""
"","html-keyboard-response","158","841134","0.0-10.0-3.8","659u5pb0vr","one_one","1","direct_first","1","er05if08","1","38","1","1","3","1","","0","1","0","539.0000000001164","","","<img src = 'targets/mask.png' width = '100%;'>","68","neg","GS","GSold","2","category2/CS9.png","","targets/44.png","indirect","0","8"
"","html-keyboard-response","159","842638","0.0-10.0-0.9","659u5pb0vr","one_one","1","direct_first","1","er05if08","1","38","1","1","3","1","","0","1","0","null","","","<div style=""font-size:60px;"">+</div>","null","","","","","","","","","",""
"","html-keyboard-response","160","842731","0.0-10.0-1.9","659u5pb0vr","one_one","1","direct_first","1","er05if08","1","38","1","1","3","1","","0","1","0","null","","","<img src = 'category1/CS5.png' width = '100%;'>","null","","","","","","","","","",""
"","html-keyboard-response","161","842982","0.0-10.0-2.9","659u5pb0vr","one_one","1","direct_first","1","er05if08","1","38","1","1","3","1","","0","1","0","null","","","<img src = 'targets/37.png' width = '100%;'>","null","","","","","","","","","",""
"","html-keyboard-response","162","843789","0.0-10.0-3.9","659u5pb0vr","one_one","1","direct_first","1","er05if08","1","38","1","1","3","1","","0","1","0","805","","","<img src = 'targets/mask.png' width = '100%;'>","75","neg","GS","GSold","1","category1/CS5.png","","targets/37.png","indirect","1","9"
"","html-keyboard-response","163","845293","0.0-10.0-0.10","659u5pb0vr","one_one","1","direct_first","1","er05if08","1","38","1","1","3","1","","0","1","0","null","","","<div style=""font-size:60px;"">+</div>","null","","","","","","","","","",""
"","html-keyboard-response","164","845386","0.0-10.0-1.10","659u5pb0vr","one_one","1","direct_first","1","er05if08","1","38","1","1","3","1","","0","1","0","null","","","<img src = 'category3/CS5.png' width = '100%;'>","null","","","","","","","","","",""
"","html-keyboard-response","165","845640","0.0-10.0-2.10","659u5pb0vr","one_one","1","direct_first","1","er05if08","1","38","1","1","3","1","","0","1","0","null","","","<img src = 'targets/22.png' width = '100%;'>","null","","","","","","","","","",""
"","html-keyboard-response","166","846114","0.0-10.0-3.10","659u5pb0vr","one_one","1","direct_first","1","er05if08","1","38","1","1","3","1","","0","1","0","472","","","<img src = 'targets/mask.png' width = '100%;'>","75","pos","GS","GSold","3","category3/CS5.png","","targets/22.png","indirect","1","10"
"","html-keyboard-response","167","847619","0.0-10.0-0.11","659u5pb0vr","one_one","1","direct_first","1","er05if08","1","38","1","1","3","1","","0","1","0","null","","","<div style=""font-size:60px;"">+</div>","null","","","","","","","","","",""
"","html-keyboard-response","168","847711","0.0-10.0-1.11","659u5pb0vr","one_one","1","direct_first","1","er05if08","1","38","1","1","3","1","","0","1","0","null","","","<img src = 'category4/CS7.png' width = '100%;'>","null","","","","","","","","","",""
"","html-keyboard-response","169","847965","0.0-10.0-2.11","659u5pb0vr","one_one","1","direct_first","1","er05if08","1","38","1","1","3","1","","0","1","0","null","","","<img src = 'targets/28.png' width = '100%;'>","null","","","","","","","","","",""
"","html-keyboard-response","170","849095","0.0-10.0-3.11","659u5pb0vr","one_one","1","direct_first","1","er05if08","1","38","1","1","3","1","","0","1","0","1128","","","<img src = 'targets/mask.png' width = '100%;'>","75","pos","GS","GSold","4","category4/CS7.png","","targets/28.png","indirect","1","11"
"","html-keyboard-response","171","850599","0.0-10.0-0.12","659u5pb0vr","one_one","1","direct_first","1","er05if08","1","38","1","1","3","1","","0","1","0","null","","","<div style=""font-size:60px;"">+</div>","null","","","","","","","","","",""
"","html-keyboard-response","172","850692","0.0-10.0-1.12","659u5pb0vr","one_one","1","direct_first","1","er05if08","1","38","1","1","3","1","","0","1","0","null","","","<img src = 'category4/CS6.png' width = '100%;'>","null","","","","","","","","","",""
"","html-keyboard-response","173","850946","0.0-10.0-2.12","659u5pb0vr","one_one","1","direct_first","1","er05if08","1","38","1","1","3","1","","0","1","0","null","","","<img src = 'targets/13.png' width = '100%;'>","null","","","","","","","","","",""
"","html-keyboard-response","174","851896","0.0-10.0-3.12","659u5pb0vr","one_one","1","direct_first","1","er05if08","1","38","1","1","3","1","","0","1","0","944","","","<img src = 'targets/mask.png' width = '100%;'>","68","pos","GS","GSold","4","category4/CS6.png","","targets/13.png","indirect","0","12"
"","html-keyboard-response","175","853400","0.0-10.0-0.13","659u5pb0vr","one_one","1","direct_first","1","er05if08","1","38","1","1","3","1","","0","1","0","null","","","<div style=""font-size:60px;"">+</div>","null","","","","","","","","","",""
"","html-keyboard-response","176","853493","0.0-10.0-1.13","659u5pb0vr","one_one","1","direct_first","1","er05if08","1","38","1","1","3","1","","0","1","0","null","","","<img src = 'category1/CS3.png' width = '100%;'>","null","","","","","","","","","",""
"","html-keyboard-response","177","853747","0.0-10.0-2.13","659u5pb0vr","one_one","1","direct_first","1","er05if08","1","38","1","1","3","1","","0","1","0","null","","","<img src = 'targets/17.png' width = '100%;'>","null","","","","","","","","","",""
"","html-keyboard-response","178","854191","0.0-10.0-3.13","659u5pb0vr","one_one","1","direct_first","1","er05if08","1","38","1","1","3","1","","0","1","0","443","","","<img src = 'targets/mask.png' width = '100%;'>","75","neg","GS","GSold","1","category1/CS3.png","","targets/17.png","indirect","1","13"
"","html-keyboard-response","179","855696","0.0-10.0-0.14","659u5pb0vr","one_one","1","direct_first","1","er05if08","1","38","1","1","3","1","","0","1","0","null","","","<div style=""font-size:60px;"">+</div>","null","","","","","","","","","",""
"","html-keyboard-response","180","855788","0.0-10.0-1.14","659u5pb0vr","one_one","1","direct_first","1","er05if08","1","38","1","1","3","1","","0","1","0","null","","","<img src = 'category1/CS10.png' width = '100%;'>","null","","","","","","","","","",""
"","html-keyboard-response","181","856042","0.0-10.0-2.14","659u5pb0vr","one_one","1","direct_first","1","er05if08","1","38","1","1","3","1","","0","1","0","null","","","<img src = 'targets/27.png' width = '100%;'>","null","","","","","","","","","",""
"","html-keyboard-response","182","856513","0.0-10.0-3.14","659u5pb0vr","one_one","1","direct_first","1","er05if08","1","38","1","1","3","1","","0","1","0","469","","","<img src = 'targets/mask.png' width = '100%;'>","68","neg","CS","CS","1","category1/CS10.png","","targets/27.png","indirect","0","14"
"","html-keyboard-response","183","858016","0.0-10.0-0.15","659u5pb0vr","one_one","1","direct_first","1","er05if08","1","38","1","1","3","1","","0","1","0","null","","","<div style=""font-size:60px;"">+</div>","null","","","","","","","","","",""
"","html-keyboard-response","184","858108","0.0-10.0-1.15","659u5pb0vr","one_one","1","direct_first","1","er05if08","1","38","1","1","3","1","","0","1","0","null","","","<img src = 'category3/CS4.png' width = '100%;'>","null","","","","","","","","","",""
"","html-keyboard-response","185","858362","0.0-10.0-2.15","659u5pb0vr","one_one","1","direct_first","1","er05if08","1","38","1","1","3","1","","0","1","0","null","","","<img src = 'targets/31.png' width = '100%;'>","null","","","","","","","","","",""
"","html-keyboard-response","186","858848","0.0-10.0-3.15","659u5pb0vr","one_one","1","direct_first","1","er05if08","1","38","1","1","3","1","","0","1","0","485","","","<img src = 'targets/mask.png' width = '100%;'>","75","pos","GS","GSold","3","category3/CS4.png","","targets/31.png","indirect","1","15"
"","survey-html-form","187","861594","0.0-11.0","659u5pb0vr","one_one","1","direct_first","1","er05if08","1","38","1","1","3","1","","0","1","0","2243","","{}","","","","","","","","","","","",""
"","html-keyboard-response","188","864597","0.0-12.0-0.0","659u5pb0vr","one_one","1","direct_first","1","er05if08","1","38","1","1","3","1","","0","1","0","null","","","<div style=""font-size:60px;"">+</div>","null","","","","","","","","","",""
"","html-keyboard-response","189","864690","0.0-12.0-1.0","659u5pb0vr","one_one","1","direct_first","1","er05if08","1","38","1","1","3","1","","0","1","0","null","","","<img src = 'category1/GS2.png' width = '100%;'>","null","","","","","","","","","",""
"","html-keyboard-response","190","864944","0.0-12.0-2.0","659u5pb0vr","one_one","1","direct_first","1","er05if08","1","38","1","1","3","1","","0","1","0","null","","","<img src = 'targets/29.png' width = '100%;'>","null","","","","","","","","","",""
"","html-keyboard-response","191","866117","0.0-12.0-3.0","659u5pb0vr","one_one","1","direct_first","1","er05if08","1","38","1","1","3","1","","0","1","0","1171","","","<img src = 'targets/mask.png' width = '100%;'>","75","neg","GS","GSnew","1","category1/GS2.png","","targets/29.png","indirect","1","16"
"","html-keyboard-response","192","867622","0.0-12.0-0.1","659u5pb0vr","one_one","1","direct_first","1","er05if08","1","38","1","1","3","1","","0","1","0","null","","","<div style=""font-size:60px;"">+</div>","null","","","","","","","","","",""
"","html-keyboard-response","193","867719","0.0-12.0-1.1","659u5pb0vr","one_one","1","direct_first","1","er05if08","1","38","1","1","3","1","","0","1","0","null","","","<img src = 'category3/GS3.png' width = '100%;'>","null","","","","","","","","","",""
"","html-keyboard-response","194","867974","0.0-12.0-2.1","659u5pb0vr","one_one","1","direct_first","1","er05if08","1","38","1","1","3","1","","0","1","0","null","","","<img src = 'targets/2.png' width = '100%;'>","null","","","","","","","","","",""
"","html-keyboard-response","195","868550","0.0-12.0-3.1","659u5pb0vr","one_one","1","direct_first","1","er05if08","1","38","1","1","3","1","","0","1","0","574","","","<img src = 'targets/mask.png' width = '100%;'>","75","pos","GS","GSnew","3","category3/GS3.png","","targets/2.png","indirect","1","17"
"","html-keyboard-response","196","870055","0.0-12.0-0.2","659u5pb0vr","one_one","1","direct_first","1","er05if08","1","38","1","1","3","1","","0","1","0","null","","","<div style=""font-size:60px;"">+</div>","null","","","","","","","","","",""
"","html-keyboard-response","197","870148","0.0-12.0-1.2","659u5pb0vr","one_one","1","direct_first","1","er05if08","1","38","1","1","3","1","","0","1","0","null","","","<img src = 'category3/wang.png' width = '100%;'>","null","","","","","","","","","",""
"","html-keyboard-response","198","870402","0.0-12.0-2.2","659u5pb0vr","one_one","1","direct_first","1","er05if08","1","38","1","1","3","1","","0","1","0","null","","","<img src = 'targets/26.png' width = '100%;'>","null","","","","","","","","","",""
"","html-keyboard-response","199","871045","0.0-12.0-3.2","659u5pb0vr","one_one","1","direct_first","1","er05if08","1","38","1","1","3","1","","0","1","0","642","","","<img src = 'targets/mask.png' width = '100%;'>","75","pos","GS","abstract","3","category3/wang.png","","targets/26.png","indirect","1","18"
"","html-keyboard-response","200","872549","0.0-12.0-0.3","659u5pb0vr","one_one","1","direct_first","1","er05if08","1","38","1","1","3","1","","0","1","0","null","","","<div style=""font-size:60px;"">+</div>","null","","","","","","","","","",""
"","html-keyboard-response","201","872641","0.0-12.0-1.3","659u5pb0vr","one_one","1","direct_first","1","er05if08","1","38","1","1","3","1","","0","1","0","null","","","<img src = 'category2/GS2.png' width = '100%;'>","null","","","","","","","","","",""
"","html-keyboard-response","202","872895","0.0-12.0-2.3","659u5pb0vr","one_one","1","direct_first","1","er05if08","1","38","1","1","3","1","","0","1","0","null","","","<img src = 'targets/11.png' width = '100%;'>","null","","","","","","","","","",""
"","html-keyboard-response","203","873904","0.0-12.0-3.3","659u5pb0vr","one_one","1","direct_first","1","er05if08","1","38","1","1","3","1","","0","1","0","1007","","","<img src = 'targets/mask.png' width = '100%;'>","68","neg","GS","GSnew","2","category2/GS2.png","","targets/11.png","indirect","0","19"
"","html-keyboard-response","204","875408","0.0-12.0-0.4","659u5pb0vr","one_one","1","direct_first","1","er05if08","1","38","1","1","3","1","","0","1","0","null","","","<div style=""font-size:60px;"">+</div>","null","","","","","","","","","",""
"","html-keyboard-response","205","875502","0.0-12.0-1.4","659u5pb0vr","one_one","1","direct_first","1","er05if08","1","38","1","1","3","1","","0","1","0","null","","","<img src = 'category1/ma.png' width = '100%;'>","null","","","","","","","","","",""
"","html-keyboard-response","206","875755","0.0-12.0-2.4","659u5pb0vr","one_one","1","direct_first","1","er05if08","1","38","1","1","3","1","","0","1","0","null","","","<img src = 'targets/15.png' width = '100%;'>","null","","","","","","","","","",""
"","html-keyboard-response","207","876291","0.0-12.0-3.4","659u5pb0vr","one_one","1","direct_first","1","er05if08","1","38","1","1","3","1","","0","1","0","534","","","<img src = 'targets/mask.png' width = '100%;'>","68","neg","GS","abstract","1","category1/ma.png","","targets/15.png","indirect","0","20"
"","html-keyboard-response","208","877794","0.0-12.0-0.5","659u5pb0vr","one_one","1","direct_first","1","er05if08","1","38","1","1","3","1","","0","1","0","null","","","<div style=""font-size:60px;"">+</div>","null","","","","","","","","","",""
"","html-keyboard-response","209","877886","0.0-12.0-1.5","659u5pb0vr","one_one","1","direct_first","1","er05if08","1","38","1","1","3","1","","0","1","0","null","","","<img src = 'category1/GS3.png' width = '100%;'>","null","","","","","","","","","",""
"","html-keyboard-response","210","878140","0.0-12.0-2.5","659u5pb0vr","one_one","1","direct_first","1","er05if08","1","38","1","1","3","1","","0","1","0","null","","","<img src = 'targets/45.png' width = '100%;'>","null","","","","","","","","","",""
"","html-keyboard-response","211","879548","0.0-12.0-3.5","659u5pb0vr","one_one","1","direct_first","1","er05if08","1","38","1","1","3","1","","0","1","0","1407","","","<img src = 'targets/mask.png' width = '100%;'>","68","neg","GS","GSnew","1","category1/GS3.png","","targets/45.png","indirect","0","21"
"","html-keyboard-response","212","881053","0.0-12.0-0.6","659u5pb0vr","one_one","1","direct_first","1","er05if08","1","38","1","1","3","1","","0","1","0","null","","","<div style=""font-size:60px;"">+</div>","null","","","","","","","","","",""
"","html-keyboard-response","213","881146","0.0-12.0-1.6","659u5pb0vr","one_one","1","direct_first","1","er05if08","1","38","1","1","3","1","","0","1","0","null","","","<img src = 'category2/GS3.png' width = '100%;'>","null","","","","","","","","","",""
"","html-keyboard-response","214","881399","0.0-12.0-2.6","659u5pb0vr","one_one","1","direct_first","1","er05if08","1","38","1","1","3","1","","0","1","0","null","","","<img src = 'targets/40.png' width = '100%;'>","null","","","","","","","","","",""
"","html-keyboard-response","215","882056","0.0-12.0-3.6","659u5pb0vr","one_one","1","direct_first","1","er05if08","1","38","1","1","3","1","","0","1","0","655.0000000001164","","","<img src = 'targets/mask.png' width = '100%;'>","68","neg","GS","GSnew","2","category2/GS3.png","","targets/40.png","indirect","0","22"
"","html-keyboard-response","216","883561","0.0-12.0-0.7","659u5pb0vr","one_one","1","direct_first","1","er05if08","1","38","1","1","3","1","","0","1","0","null","","","<div style=""font-size:60px;"">+</div>","null","","","","","","","","","",""
"","html-keyboard-response","217","883653","0.0-12.0-1.7","659u5pb0vr","one_one","1","direct_first","1","er05if08","1","38","1","1","3","1","","0","1","0","null","","","<img src = 'category1/GS1.png' width = '100%;'>","null","","","","","","","","","",""
"","html-keyboard-response","218","883907","0.0-12.0-2.7","659u5pb0vr","one_one","1","direct_first","1","er05if08","1","38","1","1","3","1","","0","1","0","null","","","<img src = 'targets/20.png' width = '100%;'>","null","","","","","","","","","",""
"","html-keyboard-response","219","884945","0.0-12.0-3.7","659u5pb0vr","one_one","1","direct_first","1","er05if08","1","38","1","1","3","1","","0","1","0","1036","","","<img src = 'targets/mask.png' width = '100%;'>","68","neg","GS","GSnew","1","category1/GS1.png","","targets/20.png","indirect","0","23"
"","html-keyboard-response","220","886449","0.0-12.0-0.8","659u5pb0vr","one_one","1","direct_first","1","er05if08","1","38","1","1","3","1","","0","1","0","null","","","<div style=""font-size:60px;"">+</div>","null","","","","","","","","","",""
"","html-keyboard-response","221","886542","0.0-12.0-1.8","659u5pb0vr","one_one","1","direct_first","1","er05if08","1","38","1","1","3","1","","0","1","0","null","","","<img src = 'category2/men.png' width = '100%;'>","null","","","","","","","","","",""
"","html-keyboard-response","222","886796","0.0-12.0-2.8","659u5pb0vr","one_one","1","direct_first","1","er05if08","1","38","1","1","3","1","","0","1","0","null","","","<img src = 'targets/39.png' width = '100%;'>","null","","","","","","","","","",""
"","html-keyboard-response","223","887486","0.0-12.0-3.8","659u5pb0vr","one_one","1","direct_first","1","er05if08","1","38","1","1","3","1","","0","1","0","688.9999999998836","","","<img src = 'targets/mask.png' width = '100%;'>","68","neg","GS","abstract","2","category2/men.png","","targets/39.png","indirect","0","24"
"","html-keyboard-response","224","888991","0.0-12.0-0.9","659u5pb0vr","one_one","1","direct_first","1","er05if08","1","38","1","1","3","1","","0","1","0","null","","","<div style=""font-size:60px;"">+</div>","null","","","","","","","","","",""
"","html-keyboard-response","225","889084","0.0-12.0-1.9","659u5pb0vr","one_one","1","direct_first","1","er05if08","1","38","1","1","3","1","","0","1","0","null","","","<img src = 'category3/GS1.png' width = '100%;'>","null","","","","","","","","","",""
"","html-keyboard-response","226","889337","0.0-12.0-2.9","659u5pb0vr","one_one","1","direct_first","1","er05if08","1","38","1","1","3","1","","0","1","0","null","","","<img src = 'targets/7.png' width = '100%;'>","null","","","","","","","","","",""
"","html-keyboard-response","227","889873","0.0-12.0-3.9","659u5pb0vr","one_one","1","direct_first","1","er05if08","1","38","1","1","3","1","","0","1","0","534","","","<img src = 'targets/mask.png' width = '100%;'>","75","pos","GS","GSnew","3","category3/GS1.png","","targets/7.png","indirect","1","25"
"","html-keyboard-response","228","891381","0.0-12.0-0.10","659u5pb0vr","one_one","1","direct_first","1","er05if08","1","38","1","1","3","1","","0","1","0","null","","","<div style=""font-size:60px;"">+</div>","null","","","","","","","","","",""
"","html-keyboard-response","229","891474","0.0-12.0-1.10","659u5pb0vr","one_one","1","direct_first","1","er05if08","1","38","1","1","3","1","","0","1","0","null","","","<img src = 'category4/GS3.png' width = '100%;'>","null","","","","","","","","","",""
"","html-keyboard-response","230","891728","0.0-12.0-2.10","659u5pb0vr","one_one","1","direct_first","1","er05if08","1","38","1","1","3","1","","0","1","0","null","","","<img src = 'targets/12.png' width = '100%;'>","null","","","","","","","","","",""
"","html-keyboard-response","231","892134","0.0-12.0-3.10","659u5pb0vr","one_one","1","direct_first","1","er05if08","1","38","1","1","3","1","","0","1","0","405","","","<img src = 'targets/mask.png' width = '100%;'>","68","pos","GS","GSnew","4","category4/GS3.png","","targets/12.png","indirect","0","26"
"","html-keyboard-response","232","893639","0.0-12.0-0.11","659u5pb0vr","one_one","1","direct_first","1","er05if08","1","38","1","1","3","1","","0","1","0","null","","","<div style=""font-size:60px;"">+</div>","null","","","","","","","","","",""
"","html-keyboard-response","233","893732","0.0-12.0-1.11","659u5pb0vr","one_one","1","direct_first","1","er05if08","1","38","1","1","3","1","","0","1","0","null","","","<img src = 'category4/GS2.png' width = '100%;'>","null","","","","","","","","","",""
"","html-keyboard-response","234","893985","0.0-12.0-2.11","659u5pb0vr","one_one","1","direct_first","1","er05if08","1","38","1","1","3","1","","0","1","0","null","","","<img src = 'targets/14.png' width = '100%;'>","null","","","","","","","","","",""
"","html-keyboard-response","235","894897","0.0-12.0-3.11","659u5pb0vr","one_one","1","direct_first","1","er05if08","1","38","1","1","3","1","","0","1","0","910","","","<img src = 'targets/mask.png' width = '100%;'>","68","pos","GS","GSnew","4","category4/GS2.png","","targets/14.png","indirect","0","27"
"","html-keyboard-response","236","896401","0.0-12.0-0.12","659u5pb0vr","one_one","1","direct_first","1","er05if08","1","38","1","1","3","1","","0","1","0","null","","","<div style=""font-size:60px;"">+</div>","null","","","","","","","","","",""
"","html-keyboard-response","237","896493","0.0-12.0-1.12","659u5pb0vr","one_one","1","direct_first","1","er05if08","1","38","1","1","3","1","","0","1","0","null","","","<img src = 'category4/GS1.png' width = '100%;'>","null","","","","","","","","","",""
"","html-keyboard-response","238","896747","0.0-12.0-2.12","659u5pb0vr","one_one","1","direct_first","1","er05if08","1","38","1","1","3","1","","0","1","0","null","","","<img src = 'targets/30.png' width = '100%;'>","null","","","","","","","","","",""
"","html-keyboard-response","239","897183","0.0-12.0-3.12","659u5pb0vr","one_one","1","direct_first","1","er05if08","1","38","1","1","3","1","","0","1","0","435","","","<img src = 'targets/mask.png' width = '100%;'>","68","pos","GS","GSnew","4","category4/GS1.png","","targets/30.png","indirect","0","28"
"","html-keyboard-response","240","898686","0.0-12.0-0.13","659u5pb0vr","one_one","1","direct_first","1","er05if08","1","38","1","1","3","1","","0","1","0","null","","","<div style=""font-size:60px;"">+</div>","null","","","","","","","","","",""
"","html-keyboard-response","241","898778","0.0-12.0-1.13","659u5pb0vr","one_one","1","direct_first","1","er05if08","1","38","1","1","3","1","","0","1","0","null","","","<img src = 'category3/GS2.png' width = '100%;'>","null","","","","","","","","","",""
"","html-keyboard-response","242","899032","0.0-12.0-2.13","659u5pb0vr","one_one","1","direct_first","1","er05if08","1","38","1","1","3","1","","0","1","0","null","","","<img src = 'targets/46.png' width = '100%;'>","null","","","","","","","","","",""
"","html-keyboard-response","243","899684","0.0-12.0-3.13","659u5pb0vr","one_one","1","direct_first","1","er05if08","1","38","1","1","3","1","","0","1","0","651","","","<img src = 'targets/mask.png' width = '100%;'>","75","pos","GS","GSnew","3","category3/GS2.png","","targets/46.png","indirect","1","29"
"","html-keyboard-response","244","901188","0.0-12.0-0.14","659u5pb0vr","one_one","1","direct_first","1","er05if08","1","38","1","1","3","1","","0","1","0","null","","","<div style=""font-size:60px;"">+</div>","null","","","","","","","","","",""
"","html-keyboard-response","245","901280","0.0-12.0-1.14","659u5pb0vr","one_one","1","direct_first","1","er05if08","1","38","1","1","3","1","","0","1","0","null","","","<img src = 'category2/GS1.png' width = '100%;'>","null","","","","","","","","","",""
"","html-keyboard-response","246","901533","0.0-12.0-2.14","659u5pb0vr","one_one","1","direct_first","1","er05if08","1","38","1","1","3","1","","0","1","0","null","","","<img src = 'targets/18.png' width = '100%;'>","null","","","","","","","","","",""
"","html-keyboard-response","247","901802","0.0-12.0-3.14","659u5pb0vr","one_one","1","direct_first","1","er05if08","1","38","1","1","3","1","","0","1","0","267","","","<img src = 'targets/mask.png' width = '100%;'>","68","neg","GS","GSnew","2","category2/GS1.png","","targets/18.png","indirect","0","30"
"","html-keyboard-response","248","903306","0.0-12.0-0.15","659u5pb0vr","one_one","1","direct_first","1","er05if08","1","38","1","1","3","1","","0","1","0","null","","","<div style=""font-size:60px;"">+</div>","null","","","","","","","","","",""
"","html-keyboard-response","249","903404","0.0-12.0-1.15","659u5pb0vr","one_one","1","direct_first","1","er05if08","1","38","1","1","3","1","","0","1","0","null","","","<img src = 'category4/lin.png' width = '100%;'>","null","","","","","","","","","",""
"","html-keyboard-response","250","903658","0.0-12.0-2.15","659u5pb0vr","one_one","1","direct_first","1","er05if08","1","38","1","1","3","1","","0","1","0","null","","","<img src = 'targets/48.png' width = '100%;'>","null","","","","","","","","","",""
"","html-keyboard-response","251","904472","0.0-12.0-3.15","659u5pb0vr","one_one","1","direct_first","1","er05if08","1","38","1","1","3","1","","0","1","0","811","","","<img src = 'targets/mask.png' width = '100%;'>","68","pos","GS","abstract","4","category4/lin.png","","targets/48.png","indirect","0","31"
"","survey-html-form","252","907180","0.0-13.0","659u5pb0vr","one_one","1","direct_first","1","er05if08","1","38","1","1","3","1","","0","1","0","2204","","{}","","","","","","","","","","","",""
"","image-slider-response","253","914843","0.0-14.0-0.0","659u5pb0vr","one_one","1","direct_first","1","er05if08","1","38","1","1","3","1","","0","1","0","6660","","","","","pos","All","all","3","category3/wang_all.png","53","","all","",""
"","image-slider-response","254","917675","0.0-14.0-0.1","659u5pb0vr","one_one","1","direct_first","1","er05if08","1","38","1","1","3","1","","0","1","0","2829","","","","","neg","All","all","2","category2/men_all.png","-27","","all","",""
"","image-slider-response","255","921279","0.0-14.0-0.2","659u5pb0vr","one_one","1","direct_first","1","er05if08","1","38","1","1","3","1","","0","1","0","3601","","","","","neg","All","all","1","category1/ma_all.png","36","","all","",""
"","image-slider-response","256","923461","0.0-14.0-0.3","659u5pb0vr","one_one","1","direct_first","1","er05if08","1","38","1","1","3","1","","0","1","0","2180","","","","","pos","All","all","4","category4/lin_all.png","29","","all","",""
"","survey-text","257","932728","0.0-15.0","659u5pb0vr","one_one","1","direct_first","1","er05if08","1","38","1","1","3","1","","0","1","0","9265","","{""comment"":""""}","","","","","","","","","","","",""
"","survey-html-form","258","965132","0.0-16.0","659u5pb0vr","one_one","1","direct_first","1","er05if08","1","38","1","1","3","1","","0","1","0","32403","","{""hinschauen"":""0"",""ablenkung"":""1"",""gewissenhaft"":""0""}","","","","","","","","","","","",""
