"success","trial_type","trial_index","time_elapsed","internal_node_id","subject","condition","condition_code","measure","measure_code","codeword","gender","age","education","chinese","fach","handedness","comment","hinschauen","ablenkung","gewissenhaft","rt","url","responses","stimulus","key_press","val","type","type_specific","category","cs_selected","target","indirect","task","nr_pres","response"
"true","fullscreen","0","7003","0.0-0.0","s4nba9xh7n","one_one","1","indirect_first","0","ri07ir18","0","25","1","1","3","1","","0","1","0","","","","","","","","","","","","","","",""
"","external-html","1","90958","0.0-1.0","s4nba9xh7n","one_one","1","indirect_first","0","ri07ir18","0","25","1","1","3","1","","0","1","0","83880","text/information.html","","","","","","","","","","","","",""
"","external-html","2","129133","0.0-2.0","s4nba9xh7n","one_one","1","indirect_first","0","ri07ir18","0","25","1","1","3","1","","0","1","0","38066","text/consent.html","","","","","","","","","","","","",""
"","survey-html-form","3","213540","0.0-3.0","s4nba9xh7n","one_one","1","indirect_first","0","ri07ir18","0","25","1","1","3","1","","0","1","0","84404","","{""codeword_enter"":""ri07ir18""}","","","","","","","","","","","",""
"","survey-html-form","4","247380","0.0-4.0","s4nba9xh7n","one_one","1","indirect_first","0","ri07ir18","0","25","1","1","3","1","","0","1","0","33836","","{""age"":""25"",""education"":""1"",""subject"":""3"",""gender"":""0"",""handedness"":""1"",""chinese"":""1""}","","","","","","","","","","","",""
"","survey-html-form","5","250536","0.0-5.0","s4nba9xh7n","one_one","1","indirect_first","0","ri07ir18","0","25","1","1","3","1","","0","1","0","3156","","{}","","","","","","","","","","","",""
"","html-keyboard-response","6","254547","0.0-6.0-0.0-0.0","s4nba9xh7n","one_one","1","indirect_first","0","ri07ir18","0","25","1","1","3","1","","0","1","0","null","","","<div class = 'row'><div class = 'column'><img src = 'category2/CS10.png' width = '70%;'></div><div class = 'column'><img src = 'usneg/9520.bmp' width = '100%;'></div></div>","null","neg","CS","CS","2","category2/CS10.png","","","","",""
"","html-keyboard-response","7","257053","0.0-6.0-0.0-0.1","s4nba9xh7n","one_one","1","indirect_first","0","ri07ir18","0","25","1","1","3","1","","0","1","0","null","","","<div class = 'row'><div class = 'column'><img src = 'uspos/5760.bmp' width = '100%;'></div><div class = 'column'><img src = 'category3/CS10.png' width = '70%;'></div></div>","null","pos","CS","CS","3","category3/CS10.png","","","","",""
"","html-keyboard-response","8","259567","0.0-6.0-0.0-0.2","s4nba9xh7n","one_one","1","indirect_first","0","ri07ir18","0","25","1","1","3","1","","0","1","0","null","","","<div class = 'row'><div class = 'column'><img src = 'category4/CS4.png' width = '70%;'></div><div class = 'column'><img src = 'uspos/1463.bmp' width = '100%;'></div></div>","null","pos","CS","CS","4","category4/CS4.png","","","","",""
"","html-keyboard-response","9","262098","0.0-6.0-0.0-0.3","s4nba9xh7n","one_one","1","indirect_first","0","ri07ir18","0","25","1","1","3","1","","0","1","0","null","","","<div class = 'row'><div class = 'column'><img src = 'category2/CS10.png' width = '70%;'></div><div class = 'column'><img src = 'usneg/9520.bmp' width = '100%;'></div></div>","null","neg","CS","CS","2","category2/CS10.png","","","","",""
"","html-keyboard-response","10","264614","0.0-6.0-0.0-0.4","s4nba9xh7n","one_one","1","indirect_first","0","ri07ir18","0","25","1","1","3","1","","0","1","0","null","","","<div class = 'row'><div class = 'column'><img src = 'uspos/5760.bmp' width = '100%;'></div><div class = 'column'><img src = 'category3/CS10.png' width = '70%;'></div></div>","null","pos","CS","CS","3","category3/CS10.png","","","","",""
"","html-keyboard-response","11","267145","0.0-6.0-0.0-0.5","s4nba9xh7n","one_one","1","indirect_first","0","ri07ir18","0","25","1","1","3","1","","0","1","0","null","","","<div class = 'row'><div class = 'column'><img src = 'category1/CS6.png' width = '70%;'></div><div class = 'column'><img src = 'usneg/9635.2.bmp' width = '100%;'></div></div>","null","neg","CS","CS","1","category1/CS6.png","","","","",""
"","html-keyboard-response","12","269677","0.0-6.0-0.0-0.6","s4nba9xh7n","one_one","1","indirect_first","0","ri07ir18","0","25","1","1","3","1","","0","1","0","null","","","<div class = 'row'><div class = 'column'><img src = 'category2/CS10.png' width = '70%;'></div><div class = 'column'><img src = 'usneg/9520.bmp' width = '100%;'></div></div>","null","neg","CS","CS","2","category2/CS10.png","","","","",""
"","html-keyboard-response","13","272207","0.0-6.0-0.0-0.7","s4nba9xh7n","one_one","1","indirect_first","0","ri07ir18","0","25","1","1","3","1","","0","1","0","null","","","<div class = 'row'><div class = 'column'><img src = 'category3/CS10.png' width = '70%;'></div><div class = 'column'><img src = 'uspos/5760.bmp' width = '100%;'></div></div>","null","pos","CS","CS","3","category3/CS10.png","","","","",""
"","html-keyboard-response","14","274737","0.0-6.0-0.0-0.8","s4nba9xh7n","one_one","1","indirect_first","0","ri07ir18","0","25","1","1","3","1","","0","1","0","null","","","<div class = 'row'><div class = 'column'><img src = 'usneg/9635.2.bmp' width = '100%;'></div><div class = 'column'><img src = 'category1/CS6.png' width = '70%;'></div></div>","null","neg","CS","CS","1","category1/CS6.png","","","","",""
"","html-keyboard-response","15","277253","0.0-6.0-0.0-0.9","s4nba9xh7n","one_one","1","indirect_first","0","ri07ir18","0","25","1","1","3","1","","0","1","0","null","","","<div class = 'row'><div class = 'column'><img src = 'uspos/1463.bmp' width = '100%;'></div><div class = 'column'><img src = 'category4/CS4.png' width = '70%;'></div></div>","null","pos","CS","CS","4","category4/CS4.png","","","","",""
"","html-keyboard-response","16","279784","0.0-6.0-0.0-0.10","s4nba9xh7n","one_one","1","indirect_first","0","ri07ir18","0","25","1","1","3","1","","0","1","0","null","","","<div class = 'row'><div class = 'column'><img src = 'category2/CS10.png' width = '70%;'></div><div class = 'column'><img src = 'usneg/9520.bmp' width = '100%;'></div></div>","null","neg","CS","CS","2","category2/CS10.png","","","","",""
"","html-keyboard-response","17","282296","0.0-6.0-0.0-0.11","s4nba9xh7n","one_one","1","indirect_first","0","ri07ir18","0","25","1","1","3","1","","0","1","0","null","","","<div class = 'row'><div class = 'column'><img src = 'category3/CS10.png' width = '70%;'></div><div class = 'column'><img src = 'uspos/5760.bmp' width = '100%;'></div></div>","null","pos","CS","CS","3","category3/CS10.png","","","","",""
"","html-keyboard-response","18","284813","0.0-6.0-0.0-0.12","s4nba9xh7n","one_one","1","indirect_first","0","ri07ir18","0","25","1","1","3","1","","0","1","0","null","","","<div class = 'row'><div class = 'column'><img src = 'category2/CS10.png' width = '70%;'></div><div class = 'column'><img src = 'usneg/9520.bmp' width = '100%;'></div></div>","null","neg","CS","CS","2","category2/CS10.png","","","","",""
"","html-keyboard-response","19","287343","0.0-6.0-0.0-0.13","s4nba9xh7n","one_one","1","indirect_first","0","ri07ir18","0","25","1","1","3","1","","0","1","0","null","","","<div class = 'row'><div class = 'column'><img src = 'uspos/1463.bmp' width = '100%;'></div><div class = 'column'><img src = 'category4/CS4.png' width = '70%;'></div></div>","null","pos","CS","CS","4","category4/CS4.png","","","","",""
"","html-keyboard-response","20","289874","0.0-6.0-0.0-0.14","s4nba9xh7n","one_one","1","indirect_first","0","ri07ir18","0","25","1","1","3","1","","0","1","0","null","","","<div class = 'row'><div class = 'column'><img src = 'category1/CS6.png' width = '70%;'></div><div class = 'column'><img src = 'usneg/9635.2.bmp' width = '100%;'></div></div>","null","neg","CS","CS","1","category1/CS6.png","","","","",""
"","html-keyboard-response","21","292406","0.0-6.0-0.0-0.15","s4nba9xh7n","one_one","1","indirect_first","0","ri07ir18","0","25","1","1","3","1","","0","1","0","null","","","<div class = 'row'><div class = 'column'><img src = 'uspos/1463.bmp' width = '100%;'></div><div class = 'column'><img src = 'category4/CS4.png' width = '70%;'></div></div>","null","pos","CS","CS","4","category4/CS4.png","","","","",""
"","html-keyboard-response","22","294919","0.0-6.0-0.0-0.16","s4nba9xh7n","one_one","1","indirect_first","0","ri07ir18","0","25","1","1","3","1","","0","1","0","null","","","<div class = 'row'><div class = 'column'><img src = 'category3/CS10.png' width = '70%;'></div><div class = 'column'><img src = 'uspos/5760.bmp' width = '100%;'></div></div>","null","pos","CS","CS","3","category3/CS10.png","","","","",""
"","html-keyboard-response","23","297452","0.0-6.0-0.0-0.17","s4nba9xh7n","one_one","1","indirect_first","0","ri07ir18","0","25","1","1","3","1","","0","1","0","null","","","<div class = 'row'><div class = 'column'><img src = 'category1/CS6.png' width = '70%;'></div><div class = 'column'><img src = 'usneg/9635.2.bmp' width = '100%;'></div></div>","null","neg","CS","CS","1","category1/CS6.png","","","","",""
"","html-keyboard-response","24","299983","0.0-6.0-0.0-0.18","s4nba9xh7n","one_one","1","indirect_first","0","ri07ir18","0","25","1","1","3","1","","0","1","0","null","","","<div class = 'row'><div class = 'column'><img src = 'uspos/1463.bmp' width = '100%;'></div><div class = 'column'><img src = 'category4/CS4.png' width = '70%;'></div></div>","null","pos","CS","CS","4","category4/CS4.png","","","","",""
"","html-keyboard-response","25","302514","0.0-6.0-0.0-0.19","s4nba9xh7n","one_one","1","indirect_first","0","ri07ir18","0","25","1","1","3","1","","0","1","0","null","","","<div class = 'row'><div class = 'column'><img src = 'category1/CS6.png' width = '70%;'></div><div class = 'column'><img src = 'usneg/9635.2.bmp' width = '100%;'></div></div>","null","neg","CS","CS","1","category1/CS6.png","","","","",""
"","survey-html-form","26","306595","0.0-6.0-1.0","s4nba9xh7n","one_one","1","indirect_first","0","ri07ir18","0","25","1","1","3","1","","0","1","0","3567","","{}","","","","","","","","","","","",""
"","html-keyboard-response","27","310618","0.0-6.0-2.0-0.0","s4nba9xh7n","one_one","1","indirect_first","0","ri07ir18","0","25","1","1","3","1","","0","1","0","null","","","<div class = 'row'><div class = 'column'><img src = 'category3/CS10.png' width = '70%;'></div><div class = 'column'><img src = 'uspos/5760.bmp' width = '100%;'></div></div>","null","pos","CS","CS","3","category3/CS10.png","","","","",""
"","html-keyboard-response","28","313137","0.0-6.0-2.0-0.1","s4nba9xh7n","one_one","1","indirect_first","0","ri07ir18","0","25","1","1","3","1","","0","1","0","null","","","<div class = 'row'><div class = 'column'><img src = 'usneg/9635.2.bmp' width = '100%;'></div><div class = 'column'><img src = 'category1/CS6.png' width = '70%;'></div></div>","null","neg","CS","CS","1","category1/CS6.png","","","","",""
"","html-keyboard-response","29","315668","0.0-6.0-2.0-0.2","s4nba9xh7n","one_one","1","indirect_first","0","ri07ir18","0","25","1","1","3","1","","0","1","0","null","","","<div class = 'row'><div class = 'column'><img src = 'uspos/1463.bmp' width = '100%;'></div><div class = 'column'><img src = 'category4/CS4.png' width = '70%;'></div></div>","null","pos","CS","CS","4","category4/CS4.png","","","","",""
"","html-keyboard-response","30","318200","0.0-6.0-2.0-0.3","s4nba9xh7n","one_one","1","indirect_first","0","ri07ir18","0","25","1","1","3","1","","0","1","0","null","","","<div class = 'row'><div class = 'column'><img src = 'category1/CS6.png' width = '70%;'></div><div class = 'column'><img src = 'usneg/9635.2.bmp' width = '100%;'></div></div>","null","neg","CS","CS","1","category1/CS6.png","","","","",""
"","html-keyboard-response","31","320730","0.0-6.0-2.0-0.4","s4nba9xh7n","one_one","1","indirect_first","0","ri07ir18","0","25","1","1","3","1","","0","1","0","null","","","<div class = 'row'><div class = 'column'><img src = 'uspos/5760.bmp' width = '100%;'></div><div class = 'column'><img src = 'category3/CS10.png' width = '70%;'></div></div>","null","pos","CS","CS","3","category3/CS10.png","","","","",""
"","html-keyboard-response","32","323246","0.0-6.0-2.0-0.5","s4nba9xh7n","one_one","1","indirect_first","0","ri07ir18","0","25","1","1","3","1","","0","1","0","null","","","<div class = 'row'><div class = 'column'><img src = 'uspos/1463.bmp' width = '100%;'></div><div class = 'column'><img src = 'category4/CS4.png' width = '70%;'></div></div>","null","pos","CS","CS","4","category4/CS4.png","","","","",""
"","html-keyboard-response","33","325776","0.0-6.0-2.0-0.6","s4nba9xh7n","one_one","1","indirect_first","0","ri07ir18","0","25","1","1","3","1","","0","1","0","null","","","<div class = 'row'><div class = 'column'><img src = 'usneg/9520.bmp' width = '100%;'></div><div class = 'column'><img src = 'category2/CS10.png' width = '70%;'></div></div>","null","neg","CS","CS","2","category2/CS10.png","","","","",""
"","html-keyboard-response","34","328291","0.0-6.0-2.0-0.7","s4nba9xh7n","one_one","1","indirect_first","0","ri07ir18","0","25","1","1","3","1","","0","1","0","null","","","<div class = 'row'><div class = 'column'><img src = 'uspos/5760.bmp' width = '100%;'></div><div class = 'column'><img src = 'category3/CS10.png' width = '70%;'></div></div>","null","pos","CS","CS","3","category3/CS10.png","","","","",""
"","html-keyboard-response","35","330822","0.0-6.0-2.0-0.8","s4nba9xh7n","one_one","1","indirect_first","0","ri07ir18","0","25","1","1","3","1","","0","1","0","null","","","<div class = 'row'><div class = 'column'><img src = 'category4/CS4.png' width = '70%;'></div><div class = 'column'><img src = 'uspos/1463.bmp' width = '100%;'></div></div>","null","pos","CS","CS","4","category4/CS4.png","","","","",""
"","html-keyboard-response","36","333354","0.0-6.0-2.0-0.9","s4nba9xh7n","one_one","1","indirect_first","0","ri07ir18","0","25","1","1","3","1","","0","1","0","null","","","<div class = 'row'><div class = 'column'><img src = 'usneg/9520.bmp' width = '100%;'></div><div class = 'column'><img src = 'category2/CS10.png' width = '70%;'></div></div>","null","neg","CS","CS","2","category2/CS10.png","","","","",""
"","html-keyboard-response","37","335884","0.0-6.0-2.0-0.10","s4nba9xh7n","one_one","1","indirect_first","0","ri07ir18","0","25","1","1","3","1","","0","1","0","null","","","<div class = 'row'><div class = 'column'><img src = 'category4/CS4.png' width = '70%;'></div><div class = 'column'><img src = 'uspos/1463.bmp' width = '100%;'></div></div>","null","pos","CS","CS","4","category4/CS4.png","","","","",""
"","html-keyboard-response","38","338415","0.0-6.0-2.0-0.11","s4nba9xh7n","one_one","1","indirect_first","0","ri07ir18","0","25","1","1","3","1","","0","1","0","null","","","<div class = 'row'><div class = 'column'><img src = 'category2/CS10.png' width = '70%;'></div><div class = 'column'><img src = 'usneg/9520.bmp' width = '100%;'></div></div>","null","neg","CS","CS","2","category2/CS10.png","","","","",""
"","html-keyboard-response","39","340946","0.0-6.0-2.0-0.12","s4nba9xh7n","one_one","1","indirect_first","0","ri07ir18","0","25","1","1","3","1","","0","1","0","null","","","<div class = 'row'><div class = 'column'><img src = 'category4/CS4.png' width = '70%;'></div><div class = 'column'><img src = 'uspos/1463.bmp' width = '100%;'></div></div>","null","pos","CS","CS","4","category4/CS4.png","","","","",""
"","html-keyboard-response","40","343477","0.0-6.0-2.0-0.13","s4nba9xh7n","one_one","1","indirect_first","0","ri07ir18","0","25","1","1","3","1","","0","1","0","null","","","<div class = 'row'><div class = 'column'><img src = 'usneg/9520.bmp' width = '100%;'></div><div class = 'column'><img src = 'category2/CS10.png' width = '70%;'></div></div>","null","neg","CS","CS","2","category2/CS10.png","","","","",""
"","html-keyboard-response","41","346008","0.0-6.0-2.0-0.14","s4nba9xh7n","one_one","1","indirect_first","0","ri07ir18","0","25","1","1","3","1","","0","1","0","null","","","<div class = 'row'><div class = 'column'><img src = 'uspos/5760.bmp' width = '100%;'></div><div class = 'column'><img src = 'category3/CS10.png' width = '70%;'></div></div>","null","pos","CS","CS","3","category3/CS10.png","","","","",""
"","html-keyboard-response","42","348539","0.0-6.0-2.0-0.15","s4nba9xh7n","one_one","1","indirect_first","0","ri07ir18","0","25","1","1","3","1","","0","1","0","null","","","<div class = 'row'><div class = 'column'><img src = 'category1/CS6.png' width = '70%;'></div><div class = 'column'><img src = 'usneg/9635.2.bmp' width = '100%;'></div></div>","null","neg","CS","CS","1","category1/CS6.png","","","","",""
"","html-keyboard-response","43","351071","0.0-6.0-2.0-0.16","s4nba9xh7n","one_one","1","indirect_first","0","ri07ir18","0","25","1","1","3","1","","0","1","0","null","","","<div class = 'row'><div class = 'column'><img src = 'usneg/9520.bmp' width = '100%;'></div><div class = 'column'><img src = 'category2/CS10.png' width = '70%;'></div></div>","null","neg","CS","CS","2","category2/CS10.png","","","","",""
"","html-keyboard-response","44","353603","0.0-6.0-2.0-0.17","s4nba9xh7n","one_one","1","indirect_first","0","ri07ir18","0","25","1","1","3","1","","0","1","0","null","","","<div class = 'row'><div class = 'column'><img src = 'usneg/9635.2.bmp' width = '100%;'></div><div class = 'column'><img src = 'category1/CS6.png' width = '70%;'></div></div>","null","neg","CS","CS","1","category1/CS6.png","","","","",""
"","html-keyboard-response","45","356133","0.0-6.0-2.0-0.18","s4nba9xh7n","one_one","1","indirect_first","0","ri07ir18","0","25","1","1","3","1","","0","1","0","null","","","<div class = 'row'><div class = 'column'><img src = 'uspos/5760.bmp' width = '100%;'></div><div class = 'column'><img src = 'category3/CS10.png' width = '70%;'></div></div>","null","pos","CS","CS","3","category3/CS10.png","","","","",""
"","html-keyboard-response","46","358665","0.0-6.0-2.0-0.19","s4nba9xh7n","one_one","1","indirect_first","0","ri07ir18","0","25","1","1","3","1","","0","1","0","null","","","<div class = 'row'><div class = 'column'><img src = 'category1/CS6.png' width = '70%;'></div><div class = 'column'><img src = 'usneg/9635.2.bmp' width = '100%;'></div></div>","null","neg","CS","CS","1","category1/CS6.png","","","","",""
"","survey-html-form","47","366332","0.0-6.0-3.0","s4nba9xh7n","one_one","1","indirect_first","0","ri07ir18","0","25","1","1","3","1","","0","1","0","7150","","{}","","","","","","","","","","","",""
"","html-keyboard-response","48","370354","0.0-6.0-4.0-0.0","s4nba9xh7n","one_one","1","indirect_first","0","ri07ir18","0","25","1","1","3","1","","0","1","0","null","","","<div class = 'row'><div class = 'column'><img src = 'category2/CS10.png' width = '70%;'></div><div class = 'column'><img src = 'usneg/9520.bmp' width = '100%;'></div></div>","null","neg","CS","CS","2","category2/CS10.png","","","","",""
"","html-keyboard-response","49","372886","0.0-6.0-4.0-0.1","s4nba9xh7n","one_one","1","indirect_first","0","ri07ir18","0","25","1","1","3","1","","0","1","0","null","","","<div class = 'row'><div class = 'column'><img src = 'category4/CS4.png' width = '70%;'></div><div class = 'column'><img src = 'uspos/1463.bmp' width = '100%;'></div></div>","null","pos","CS","CS","4","category4/CS4.png","","","","",""
"","html-keyboard-response","50","375416","0.0-6.0-4.0-0.2","s4nba9xh7n","one_one","1","indirect_first","0","ri07ir18","0","25","1","1","3","1","","0","1","0","null","","","<div class = 'row'><div class = 'column'><img src = 'uspos/5760.bmp' width = '100%;'></div><div class = 'column'><img src = 'category3/CS10.png' width = '70%;'></div></div>","null","pos","CS","CS","3","category3/CS10.png","","","","",""
"","html-keyboard-response","51","377947","0.0-6.0-4.0-0.3","s4nba9xh7n","one_one","1","indirect_first","0","ri07ir18","0","25","1","1","3","1","","0","1","0","null","","","<div class = 'row'><div class = 'column'><img src = 'usneg/9520.bmp' width = '100%;'></div><div class = 'column'><img src = 'category2/CS10.png' width = '70%;'></div></div>","null","neg","CS","CS","2","category2/CS10.png","","","","",""
"","html-keyboard-response","52","380478","0.0-6.0-4.0-0.4","s4nba9xh7n","one_one","1","indirect_first","0","ri07ir18","0","25","1","1","3","1","","0","1","0","null","","","<div class = 'row'><div class = 'column'><img src = 'category1/CS6.png' width = '70%;'></div><div class = 'column'><img src = 'usneg/9635.2.bmp' width = '100%;'></div></div>","null","neg","CS","CS","1","category1/CS6.png","","","","",""
"","html-keyboard-response","53","383009","0.0-6.0-4.0-0.5","s4nba9xh7n","one_one","1","indirect_first","0","ri07ir18","0","25","1","1","3","1","","0","1","0","null","","","<div class = 'row'><div class = 'column'><img src = 'category4/CS4.png' width = '70%;'></div><div class = 'column'><img src = 'uspos/1463.bmp' width = '100%;'></div></div>","null","pos","CS","CS","4","category4/CS4.png","","","","",""
"","html-keyboard-response","54","385525","0.0-6.0-4.0-0.6","s4nba9xh7n","one_one","1","indirect_first","0","ri07ir18","0","25","1","1","3","1","","0","1","0","null","","","<div class = 'row'><div class = 'column'><img src = 'usneg/9635.2.bmp' width = '100%;'></div><div class = 'column'><img src = 'category1/CS6.png' width = '70%;'></div></div>","null","neg","CS","CS","1","category1/CS6.png","","","","",""
"","html-keyboard-response","55","388056","0.0-6.0-4.0-0.7","s4nba9xh7n","one_one","1","indirect_first","0","ri07ir18","0","25","1","1","3","1","","0","1","0","null","","","<div class = 'row'><div class = 'column'><img src = 'uspos/5760.bmp' width = '100%;'></div><div class = 'column'><img src = 'category3/CS10.png' width = '70%;'></div></div>","null","pos","CS","CS","3","category3/CS10.png","","","","",""
"","html-keyboard-response","56","390587","0.0-6.0-4.0-0.8","s4nba9xh7n","one_one","1","indirect_first","0","ri07ir18","0","25","1","1","3","1","","0","1","0","null","","","<div class = 'row'><div class = 'column'><img src = 'uspos/1463.bmp' width = '100%;'></div><div class = 'column'><img src = 'category4/CS4.png' width = '70%;'></div></div>","null","pos","CS","CS","4","category4/CS4.png","","","","",""
"","html-keyboard-response","57","393116","0.0-6.0-4.0-0.9","s4nba9xh7n","one_one","1","indirect_first","0","ri07ir18","0","25","1","1","3","1","","0","1","0","null","","","<div class = 'row'><div class = 'column'><img src = 'uspos/5760.bmp' width = '100%;'></div><div class = 'column'><img src = 'category3/CS10.png' width = '70%;'></div></div>","null","pos","CS","CS","3","category3/CS10.png","","","","",""
"","html-keyboard-response","58","395647","0.0-6.0-4.0-0.10","s4nba9xh7n","one_one","1","indirect_first","0","ri07ir18","0","25","1","1","3","1","","0","1","0","null","","","<div class = 'row'><div class = 'column'><img src = 'category4/CS4.png' width = '70%;'></div><div class = 'column'><img src = 'uspos/1463.bmp' width = '100%;'></div></div>","null","pos","CS","CS","4","category4/CS4.png","","","","",""
"","html-keyboard-response","59","398179","0.0-6.0-4.0-0.11","s4nba9xh7n","one_one","1","indirect_first","0","ri07ir18","0","25","1","1","3","1","","0","1","0","null","","","<div class = 'row'><div class = 'column'><img src = 'category1/CS6.png' width = '70%;'></div><div class = 'column'><img src = 'usneg/9635.2.bmp' width = '100%;'></div></div>","null","neg","CS","CS","1","category1/CS6.png","","","","",""
"","html-keyboard-response","60","400710","0.0-6.0-4.0-0.12","s4nba9xh7n","one_one","1","indirect_first","0","ri07ir18","0","25","1","1","3","1","","0","1","0","null","","","<div class = 'row'><div class = 'column'><img src = 'category2/CS10.png' width = '70%;'></div><div class = 'column'><img src = 'usneg/9520.bmp' width = '100%;'></div></div>","null","neg","CS","CS","2","category2/CS10.png","","","","",""
"","html-keyboard-response","61","403242","0.0-6.0-4.0-0.13","s4nba9xh7n","one_one","1","indirect_first","0","ri07ir18","0","25","1","1","3","1","","0","1","0","null","","","<div class = 'row'><div class = 'column'><img src = 'uspos/1463.bmp' width = '100%;'></div><div class = 'column'><img src = 'category4/CS4.png' width = '70%;'></div></div>","null","pos","CS","CS","4","category4/CS4.png","","","","",""
"","html-keyboard-response","62","405774","0.0-6.0-4.0-0.14","s4nba9xh7n","one_one","1","indirect_first","0","ri07ir18","0","25","1","1","3","1","","0","1","0","null","","","<div class = 'row'><div class = 'column'><img src = 'usneg/9635.2.bmp' width = '100%;'></div><div class = 'column'><img src = 'category1/CS6.png' width = '70%;'></div></div>","null","neg","CS","CS","1","category1/CS6.png","","","","",""
"","html-keyboard-response","63","408305","0.0-6.0-4.0-0.15","s4nba9xh7n","one_one","1","indirect_first","0","ri07ir18","0","25","1","1","3","1","","0","1","0","null","","","<div class = 'row'><div class = 'column'><img src = 'uspos/5760.bmp' width = '100%;'></div><div class = 'column'><img src = 'category3/CS10.png' width = '70%;'></div></div>","null","pos","CS","CS","3","category3/CS10.png","","","","",""
"","html-keyboard-response","64","410836","0.0-6.0-4.0-0.16","s4nba9xh7n","one_one","1","indirect_first","0","ri07ir18","0","25","1","1","3","1","","0","1","0","null","","","<div class = 'row'><div class = 'column'><img src = 'category2/CS10.png' width = '70%;'></div><div class = 'column'><img src = 'usneg/9520.bmp' width = '100%;'></div></div>","null","neg","CS","CS","2","category2/CS10.png","","","","",""
"","html-keyboard-response","65","413367","0.0-6.0-4.0-0.17","s4nba9xh7n","one_one","1","indirect_first","0","ri07ir18","0","25","1","1","3","1","","0","1","0","null","","","<div class = 'row'><div class = 'column'><img src = 'uspos/5760.bmp' width = '100%;'></div><div class = 'column'><img src = 'category3/CS10.png' width = '70%;'></div></div>","null","pos","CS","CS","3","category3/CS10.png","","","","",""
"","html-keyboard-response","66","415898","0.0-6.0-4.0-0.18","s4nba9xh7n","one_one","1","indirect_first","0","ri07ir18","0","25","1","1","3","1","","0","1","0","null","","","<div class = 'row'><div class = 'column'><img src = 'usneg/9635.2.bmp' width = '100%;'></div><div class = 'column'><img src = 'category1/CS6.png' width = '70%;'></div></div>","null","neg","CS","CS","1","category1/CS6.png","","","","",""
"","html-keyboard-response","67","418429","0.0-6.0-4.0-0.19","s4nba9xh7n","one_one","1","indirect_first","0","ri07ir18","0","25","1","1","3","1","","0","1","0","null","","","<div class = 'row'><div class = 'column'><img src = 'category2/CS10.png' width = '70%;'></div><div class = 'column'><img src = 'usneg/9520.bmp' width = '100%;'></div></div>","null","neg","CS","CS","2","category2/CS10.png","","","","",""
"","survey-html-form","68","435868","0.0-6.0-5.0","s4nba9xh7n","one_one","1","indirect_first","0","ri07ir18","0","25","1","1","3","1","","0","1","0","16921","","{}","","","","","","","","","","","",""
"","html-keyboard-response","69","439893","0.0-6.0-6.0-0.0","s4nba9xh7n","one_one","1","indirect_first","0","ri07ir18","0","25","1","1","3","1","","0","1","0","null","","","<div class = 'row'><div class = 'column'><img src = 'usneg/9635.2.bmp' width = '100%;'></div><div class = 'column'><img src = 'category1/CS6.png' width = '70%;'></div></div>","null","neg","CS","CS","1","category1/CS6.png","","","","",""
"","html-keyboard-response","70","442417","0.0-6.0-6.0-0.1","s4nba9xh7n","one_one","1","indirect_first","0","ri07ir18","0","25","1","1","3","1","","0","1","0","null","","","<div class = 'row'><div class = 'column'><img src = 'uspos/5760.bmp' width = '100%;'></div><div class = 'column'><img src = 'category3/CS10.png' width = '70%;'></div></div>","null","pos","CS","CS","3","category3/CS10.png","","","","",""
"","html-keyboard-response","71","444927","0.0-6.0-6.0-0.2","s4nba9xh7n","one_one","1","indirect_first","0","ri07ir18","0","25","1","1","3","1","","0","1","0","null","","","<div class = 'row'><div class = 'column'><img src = 'category4/CS4.png' width = '70%;'></div><div class = 'column'><img src = 'uspos/1463.bmp' width = '100%;'></div></div>","null","pos","CS","CS","4","category4/CS4.png","","","","",""
"","html-keyboard-response","72","447437","0.0-6.0-6.0-0.3","s4nba9xh7n","one_one","1","indirect_first","0","ri07ir18","0","25","1","1","3","1","","0","1","0","null","","","<div class = 'row'><div class = 'column'><img src = 'usneg/9635.2.bmp' width = '100%;'></div><div class = 'column'><img src = 'category1/CS6.png' width = '70%;'></div></div>","null","neg","CS","CS","1","category1/CS6.png","","","","",""
"","html-keyboard-response","73","449967","0.0-6.0-6.0-0.4","s4nba9xh7n","one_one","1","indirect_first","0","ri07ir18","0","25","1","1","3","1","","0","1","0","null","","","<div class = 'row'><div class = 'column'><img src = 'category4/CS4.png' width = '70%;'></div><div class = 'column'><img src = 'uspos/1463.bmp' width = '100%;'></div></div>","null","pos","CS","CS","4","category4/CS4.png","","","","",""
"","html-keyboard-response","74","452499","0.0-6.0-6.0-0.5","s4nba9xh7n","one_one","1","indirect_first","0","ri07ir18","0","25","1","1","3","1","","0","1","0","null","","","<div class = 'row'><div class = 'column'><img src = 'usneg/9520.bmp' width = '100%;'></div><div class = 'column'><img src = 'category2/CS10.png' width = '70%;'></div></div>","null","neg","CS","CS","2","category2/CS10.png","","","","",""
"","html-keyboard-response","75","455031","0.0-6.0-6.0-0.6","s4nba9xh7n","one_one","1","indirect_first","0","ri07ir18","0","25","1","1","3","1","","0","1","0","null","","","<div class = 'row'><div class = 'column'><img src = 'category1/CS6.png' width = '70%;'></div><div class = 'column'><img src = 'usneg/9635.2.bmp' width = '100%;'></div></div>","null","neg","CS","CS","1","category1/CS6.png","","","","",""
"","html-keyboard-response","76","457562","0.0-6.0-6.0-0.7","s4nba9xh7n","one_one","1","indirect_first","0","ri07ir18","0","25","1","1","3","1","","0","1","0","null","","","<div class = 'row'><div class = 'column'><img src = 'usneg/9520.bmp' width = '100%;'></div><div class = 'column'><img src = 'category2/CS10.png' width = '70%;'></div></div>","null","neg","CS","CS","2","category2/CS10.png","","","","",""
"","html-keyboard-response","77","460093","0.0-6.0-6.0-0.8","s4nba9xh7n","one_one","1","indirect_first","0","ri07ir18","0","25","1","1","3","1","","0","1","0","null","","","<div class = 'row'><div class = 'column'><img src = 'uspos/5760.bmp' width = '100%;'></div><div class = 'column'><img src = 'category3/CS10.png' width = '70%;'></div></div>","null","pos","CS","CS","3","category3/CS10.png","","","","",""
"","html-keyboard-response","78","462625","0.0-6.0-6.0-0.9","s4nba9xh7n","one_one","1","indirect_first","0","ri07ir18","0","25","1","1","3","1","","0","1","0","null","","","<div class = 'row'><div class = 'column'><img src = 'usneg/9635.2.bmp' width = '100%;'></div><div class = 'column'><img src = 'category1/CS6.png' width = '70%;'></div></div>","null","neg","CS","CS","1","category1/CS6.png","","","","",""
"","html-keyboard-response","79","465155","0.0-6.0-6.0-0.10","s4nba9xh7n","one_one","1","indirect_first","0","ri07ir18","0","25","1","1","3","1","","0","1","0","null","","","<div class = 'row'><div class = 'column'><img src = 'usneg/9520.bmp' width = '100%;'></div><div class = 'column'><img src = 'category2/CS10.png' width = '70%;'></div></div>","null","neg","CS","CS","2","category2/CS10.png","","","","",""
"","html-keyboard-response","80","467687","0.0-6.0-6.0-0.11","s4nba9xh7n","one_one","1","indirect_first","0","ri07ir18","0","25","1","1","3","1","","0","1","0","null","","","<div class = 'row'><div class = 'column'><img src = 'uspos/5760.bmp' width = '100%;'></div><div class = 'column'><img src = 'category3/CS10.png' width = '70%;'></div></div>","null","pos","CS","CS","3","category3/CS10.png","","","","",""
"","html-keyboard-response","81","470216","0.0-6.0-6.0-0.12","s4nba9xh7n","one_one","1","indirect_first","0","ri07ir18","0","25","1","1","3","1","","0","1","0","null","","","<div class = 'row'><div class = 'column'><img src = 'uspos/1463.bmp' width = '100%;'></div><div class = 'column'><img src = 'category4/CS4.png' width = '70%;'></div></div>","null","pos","CS","CS","4","category4/CS4.png","","","","",""
"","html-keyboard-response","82","472732","0.0-6.0-6.0-0.13","s4nba9xh7n","one_one","1","indirect_first","0","ri07ir18","0","25","1","1","3","1","","0","1","0","null","","","<div class = 'row'><div class = 'column'><img src = 'usneg/9520.bmp' width = '100%;'></div><div class = 'column'><img src = 'category2/CS10.png' width = '70%;'></div></div>","null","neg","CS","CS","2","category2/CS10.png","","","","",""
"","html-keyboard-response","83","475263","0.0-6.0-6.0-0.14","s4nba9xh7n","one_one","1","indirect_first","0","ri07ir18","0","25","1","1","3","1","","0","1","0","null","","","<div class = 'row'><div class = 'column'><img src = 'category3/CS10.png' width = '70%;'></div><div class = 'column'><img src = 'uspos/5760.bmp' width = '100%;'></div></div>","null","pos","CS","CS","3","category3/CS10.png","","","","",""
"","html-keyboard-response","84","477778","0.0-6.0-6.0-0.15","s4nba9xh7n","one_one","1","indirect_first","0","ri07ir18","0","25","1","1","3","1","","0","1","0","null","","","<div class = 'row'><div class = 'column'><img src = 'uspos/1463.bmp' width = '100%;'></div><div class = 'column'><img src = 'category4/CS4.png' width = '70%;'></div></div>","null","pos","CS","CS","4","category4/CS4.png","","","","",""
"","html-keyboard-response","85","480307","0.0-6.0-6.0-0.16","s4nba9xh7n","one_one","1","indirect_first","0","ri07ir18","0","25","1","1","3","1","","0","1","0","null","","","<div class = 'row'><div class = 'column'><img src = 'usneg/9520.bmp' width = '100%;'></div><div class = 'column'><img src = 'category2/CS10.png' width = '70%;'></div></div>","null","neg","CS","CS","2","category2/CS10.png","","","","",""
"","html-keyboard-response","86","482839","0.0-6.0-6.0-0.17","s4nba9xh7n","one_one","1","indirect_first","0","ri07ir18","0","25","1","1","3","1","","0","1","0","null","","","<div class = 'row'><div class = 'column'><img src = 'uspos/1463.bmp' width = '100%;'></div><div class = 'column'><img src = 'category4/CS4.png' width = '70%;'></div></div>","null","pos","CS","CS","4","category4/CS4.png","","","","",""
"","html-keyboard-response","87","485371","0.0-6.0-6.0-0.18","s4nba9xh7n","one_one","1","indirect_first","0","ri07ir18","0","25","1","1","3","1","","0","1","0","null","","","<div class = 'row'><div class = 'column'><img src = 'category1/CS6.png' width = '70%;'></div><div class = 'column'><img src = 'usneg/9635.2.bmp' width = '100%;'></div></div>","null","neg","CS","CS","1","category1/CS6.png","","","","",""
"","html-keyboard-response","88","487901","0.0-6.0-6.0-0.19","s4nba9xh7n","one_one","1","indirect_first","0","ri07ir18","0","25","1","1","3","1","","0","1","0","null","","","<div class = 'row'><div class = 'column'><img src = 'category3/CS10.png' width = '70%;'></div><div class = 'column'><img src = 'uspos/5760.bmp' width = '100%;'></div></div>","null","pos","CS","CS","3","category3/CS10.png","","","","",""
"","html-keyboard-response","89","536476","0.0-7.0","s4nba9xh7n","one_one","1","indirect_first","0","ri07ir18","0","25","1","1","3","1","","0","1","0","48059","","","<p>Sie sehen nun die chinesischen Zeichen nur ganz kurz. Danach sehen Sie die jeweilige Aussprache der Zeichen als Silbe auf dem Bildschrim. Ihre Aufgabe ist es, für jede Silbe anzugeben, ob diese etwas angenehmes, oder unangenehmes bedeuten könnte. Verlassen Sie sich hier vor allem auf Ihre Intuition.<br><br>Die Zeichen werden nur zur Orientierung dargestellt, beachten Sie sie deshalb nicht. Konzentrieren Sie sich vor allem auf die Silben. <br>Reagieren Sie mit folgenden zwei Tasten: <br><br><b>'D' </b> wenn die Silbe etwas <b>unangenehmes</b> bedeuten könnte. <br><b>'K'</b> wenn die Silbe etwas <b>angenehmes</b> bedeuten könnte. <br><br>Bitte legen Sie nun den Zeigefinger der linken Hand auf die Taste 'D' und den Zeigefinger der rechten Hand auf die Taste 'K'. <br>Reagieren Sie auf jede Silbe so schnell wie möglich. Uns interessiert Ihre spontane Reaktion. <br> <br> <br>Drücken Sie 'D' oder 'K', um die nächste Aufgabe zu starten. </p>","75","","","","","","","","","",""
"","html-keyboard-response","90","539507","0.0-8.0-0.0","s4nba9xh7n","one_one","1","indirect_first","0","ri07ir18","0","25","1","1","3","1","","0","1","0","null","","","<div style=""font-size:60px;"">+</div>","null","","","","","","","","","",""
"","html-keyboard-response","91","539606","0.0-8.0-1.0","s4nba9xh7n","one_one","1","indirect_first","0","ri07ir18","0","25","1","1","3","1","","0","1","0","null","","","<img src = 'category4/CS10.png' width = '100%;'>","null","","","","","","","","","",""
"","html-keyboard-response","92","539873","0.0-8.0-2.0","s4nba9xh7n","one_one","1","indirect_first","0","ri07ir18","0","25","1","1","3","1","","0","1","0","null","","","<img src = 'targets/15.png' width = '100%;'>","null","","","","","","","","","",""
"","html-keyboard-response","93","543067","0.0-8.0-3.0","s4nba9xh7n","one_one","1","indirect_first","0","ri07ir18","0","25","1","1","3","1","","0","1","0","3193","","","<img src = 'targets/mask.png' width = '100%;'>","75","pos","GS","GSold","4","category4/CS10.png","targets/15.png","1","indirect","0",""
"","html-keyboard-response","94","544586","0.0-8.0-0.1","s4nba9xh7n","one_one","1","indirect_first","0","ri07ir18","0","25","1","1","3","1","","0","1","0","null","","","<div style=""font-size:60px;"">+</div>","null","","","","","","","","","",""
"","html-keyboard-response","95","544686","0.0-8.0-1.1","s4nba9xh7n","one_one","1","indirect_first","0","ri07ir18","0","25","1","1","3","1","","0","1","0","null","","","<img src = 'category3/CS10.png' width = '100%;'>","null","","","","","","","","","",""
"","html-keyboard-response","96","544953","0.0-8.0-2.1","s4nba9xh7n","one_one","1","indirect_first","0","ri07ir18","0","25","1","1","3","1","","0","1","0","null","","","<img src = 'targets/27.png' width = '100%;'>","null","","","","","","","","","",""
"","html-keyboard-response","97","545587","0.0-8.0-3.1","s4nba9xh7n","one_one","1","indirect_first","0","ri07ir18","0","25","1","1","3","1","","0","1","0","633","","","<img src = 'targets/mask.png' width = '100%;'>","75","pos","CS","CS","3","category3/CS10.png","targets/27.png","1","indirect","1",""
"","html-keyboard-response","98","547116","0.0-8.0-0.2","s4nba9xh7n","one_one","1","indirect_first","0","ri07ir18","0","25","1","1","3","1","","0","1","0","null","","","<div style=""font-size:60px;"">+</div>","null","","","","","","","","","",""
"","html-keyboard-response","99","547217","0.0-8.0-1.2","s4nba9xh7n","one_one","1","indirect_first","0","ri07ir18","0","25","1","1","3","1","","0","1","0","null","","","<img src = 'category2/CS10.png' width = '100%;'>","null","","","","","","","","","",""
"","html-keyboard-response","100","547483","0.0-8.0-2.2","s4nba9xh7n","one_one","1","indirect_first","0","ri07ir18","0","25","1","1","3","1","","0","1","0","null","","","<img src = 'targets/20.png' width = '100%;'>","null","","","","","","","","","",""
"","html-keyboard-response","101","548000","0.0-8.0-3.2","s4nba9xh7n","one_one","1","indirect_first","0","ri07ir18","0","25","1","1","3","1","","0","1","0","516","","","<img src = 'targets/mask.png' width = '100%;'>","68","neg","CS","CS","2","category2/CS10.png","targets/20.png","0","indirect","2",""
"","html-keyboard-response","102","549531","0.0-8.0-0.3","s4nba9xh7n","one_one","1","indirect_first","0","ri07ir18","0","25","1","1","3","1","","0","1","0","null","","","<div style=""font-size:60px;"">+</div>","null","","","","","","","","","",""
"","html-keyboard-response","103","549632","0.0-8.0-1.3","s4nba9xh7n","one_one","1","indirect_first","0","ri07ir18","0","25","1","1","3","1","","0","1","0","null","","","<img src = 'category2/CS4.png' width = '100%;'>","null","","","","","","","","","",""
"","html-keyboard-response","104","549896","0.0-8.0-2.3","s4nba9xh7n","one_one","1","indirect_first","0","ri07ir18","0","25","1","1","3","1","","0","1","0","null","","","<img src = 'targets/38.png' width = '100%;'>","null","","","","","","","","","",""
"","html-keyboard-response","105","551019","0.0-8.0-3.3","s4nba9xh7n","one_one","1","indirect_first","0","ri07ir18","0","25","1","1","3","1","","0","1","0","1121","","","<img src = 'targets/mask.png' width = '100%;'>","75","neg","GS","GSold","2","category2/CS4.png","targets/38.png","1","indirect","3",""
"","html-keyboard-response","106","552527","0.0-8.0-0.4","s4nba9xh7n","one_one","1","indirect_first","0","ri07ir18","0","25","1","1","3","1","","0","1","0","null","","","<div style=""font-size:60px;"">+</div>","null","","","","","","","","","",""
"","html-keyboard-response","107","552627","0.0-8.0-1.4","s4nba9xh7n","one_one","1","indirect_first","0","ri07ir18","0","25","1","1","3","1","","0","1","0","null","","","<img src = 'category4/CS4.png' width = '100%;'>","null","","","","","","","","","",""
"","html-keyboard-response","108","552895","0.0-8.0-2.4","s4nba9xh7n","one_one","1","indirect_first","0","ri07ir18","0","25","1","1","3","1","","0","1","0","null","","","<img src = 'targets/30.png' width = '100%;'>","null","","","","","","","","","",""
"","html-keyboard-response","109","554300","0.0-8.0-3.4","s4nba9xh7n","one_one","1","indirect_first","0","ri07ir18","0","25","1","1","3","1","","0","1","0","1403","","","<img src = 'targets/mask.png' width = '100%;'>","75","pos","CS","CS","4","category4/CS4.png","targets/30.png","1","indirect","4",""
"","html-keyboard-response","110","555826","0.0-8.0-0.5","s4nba9xh7n","one_one","1","indirect_first","0","ri07ir18","0","25","1","1","3","1","","0","1","0","null","","","<div style=""font-size:60px;"">+</div>","null","","","","","","","","","",""
"","html-keyboard-response","111","555926","0.0-8.0-1.5","s4nba9xh7n","one_one","1","indirect_first","0","ri07ir18","0","25","1","1","3","1","","0","1","0","null","","","<img src = 'category4/CS2.png' width = '100%;'>","null","","","","","","","","","",""
"","html-keyboard-response","112","556192","0.0-8.0-2.5","s4nba9xh7n","one_one","1","indirect_first","0","ri07ir18","0","25","1","1","3","1","","0","1","0","null","","","<img src = 'targets/45.png' width = '100%;'>","null","","","","","","","","","",""
"","html-keyboard-response","113","557833","0.0-8.0-3.5","s4nba9xh7n","one_one","1","indirect_first","0","ri07ir18","0","25","1","1","3","1","","0","1","0","1639","","","<img src = 'targets/mask.png' width = '100%;'>","68","pos","GS","GSold","4","category4/CS2.png","targets/45.png","0","indirect","5",""
"","html-keyboard-response","114","559356","0.0-8.0-0.6","s4nba9xh7n","one_one","1","indirect_first","0","ri07ir18","0","25","1","1","3","1","","0","1","0","null","","","<div style=""font-size:60px;"">+</div>","null","","","","","","","","","",""
"","html-keyboard-response","115","559456","0.0-8.0-1.6","s4nba9xh7n","one_one","1","indirect_first","0","ri07ir18","0","25","1","1","3","1","","0","1","0","null","","","<img src = 'category1/CS4.png' width = '100%;'>","null","","","","","","","","","",""
"","html-keyboard-response","116","559722","0.0-8.0-2.6","s4nba9xh7n","one_one","1","indirect_first","0","ri07ir18","0","25","1","1","3","1","","0","1","0","null","","","<img src = 'targets/48.png' width = '100%;'>","null","","","","","","","","","",""
"","html-keyboard-response","117","560918","0.0-8.0-3.6","s4nba9xh7n","one_one","1","indirect_first","0","ri07ir18","0","25","1","1","3","1","","0","1","0","1195","","","<img src = 'targets/mask.png' width = '100%;'>","68","neg","GS","GSold","1","category1/CS4.png","targets/48.png","0","indirect","6",""
"","html-keyboard-response","118","562436","0.0-8.0-0.7","s4nba9xh7n","one_one","1","indirect_first","0","ri07ir18","0","25","1","1","3","1","","0","1","0","null","","","<div style=""font-size:60px;"">+</div>","null","","","","","","","","","",""
"","html-keyboard-response","119","562536","0.0-8.0-1.7","s4nba9xh7n","one_one","1","indirect_first","0","ri07ir18","0","25","1","1","3","1","","0","1","0","null","","","<img src = 'category1/CS6.png' width = '100%;'>","null","","","","","","","","","",""
"","html-keyboard-response","120","562803","0.0-8.0-2.7","s4nba9xh7n","one_one","1","indirect_first","0","ri07ir18","0","25","1","1","3","1","","0","1","0","null","","","<img src = 'targets/36.png' width = '100%;'>","null","","","","","","","","","",""
"","html-keyboard-response","121","563872","0.0-8.0-3.7","s4nba9xh7n","one_one","1","indirect_first","0","ri07ir18","0","25","1","1","3","1","","0","1","0","1068","","","<img src = 'targets/mask.png' width = '100%;'>","68","neg","CS","CS","1","category1/CS6.png","targets/36.png","0","indirect","7",""
"","html-keyboard-response","122","565400","0.0-8.0-0.8","s4nba9xh7n","one_one","1","indirect_first","0","ri07ir18","0","25","1","1","3","1","","0","1","0","null","","","<div style=""font-size:60px;"">+</div>","null","","","","","","","","","",""
"","html-keyboard-response","123","565500","0.0-8.0-1.8","s4nba9xh7n","one_one","1","indirect_first","0","ri07ir18","0","25","1","1","3","1","","0","1","0","null","","","<img src = 'category3/CS9.png' width = '100%;'>","null","","","","","","","","","",""
"","html-keyboard-response","124","565767","0.0-8.0-2.8","s4nba9xh7n","one_one","1","indirect_first","0","ri07ir18","0","25","1","1","3","1","","0","1","0","null","","","<img src = 'targets/33.png' width = '100%;'>","null","","","","","","","","","",""
"","html-keyboard-response","125","566398","0.0-8.0-3.8","s4nba9xh7n","one_one","1","indirect_first","0","ri07ir18","0","25","1","1","3","1","","0","1","0","631","","","<img src = 'targets/mask.png' width = '100%;'>","68","pos","GS","GSold","3","category3/CS9.png","targets/33.png","0","indirect","8",""
"","html-keyboard-response","126","567915","0.0-8.0-0.9","s4nba9xh7n","one_one","1","indirect_first","0","ri07ir18","0","25","1","1","3","1","","0","1","0","null","","","<div style=""font-size:60px;"">+</div>","null","","","","","","","","","",""
"","html-keyboard-response","127","568015","0.0-8.0-1.9","s4nba9xh7n","one_one","1","indirect_first","0","ri07ir18","0","25","1","1","3","1","","0","1","0","null","","","<img src = 'category1/CS5.png' width = '100%;'>","null","","","","","","","","","",""
"","html-keyboard-response","128","568277","0.0-8.0-2.9","s4nba9xh7n","one_one","1","indirect_first","0","ri07ir18","0","25","1","1","3","1","","0","1","0","null","","","<img src = 'targets/34.png' width = '100%;'>","null","","","","","","","","","",""
"","html-keyboard-response","129","569035","0.0-8.0-3.9","s4nba9xh7n","one_one","1","indirect_first","0","ri07ir18","0","25","1","1","3","1","","0","1","0","757","","","<img src = 'targets/mask.png' width = '100%;'>","68","neg","GS","GSold","1","category1/CS5.png","targets/34.png","0","indirect","9",""
"","html-keyboard-response","130","570563","0.0-8.0-0.10","s4nba9xh7n","one_one","1","indirect_first","0","ri07ir18","0","25","1","1","3","1","","0","1","0","null","","","<div style=""font-size:60px;"">+</div>","null","","","","","","","","","",""
"","html-keyboard-response","131","570663","0.0-8.0-1.10","s4nba9xh7n","one_one","1","indirect_first","0","ri07ir18","0","25","1","1","3","1","","0","1","0","null","","","<img src = 'category3/CS3.png' width = '100%;'>","null","","","","","","","","","",""
"","html-keyboard-response","132","570927","0.0-8.0-2.10","s4nba9xh7n","one_one","1","indirect_first","0","ri07ir18","0","25","1","1","3","1","","0","1","0","null","","","<img src = 'targets/2.png' width = '100%;'>","null","","","","","","","","","",""
"","html-keyboard-response","133","571684","0.0-8.0-3.10","s4nba9xh7n","one_one","1","indirect_first","0","ri07ir18","0","25","1","1","3","1","","0","1","0","756","","","<img src = 'targets/mask.png' width = '100%;'>","68","pos","GS","GSold","3","category3/CS3.png","targets/2.png","0","indirect","10",""
"","html-keyboard-response","134","573210","0.0-8.0-0.11","s4nba9xh7n","one_one","1","indirect_first","0","ri07ir18","0","25","1","1","3","1","","0","1","0","null","","","<div style=""font-size:60px;"">+</div>","null","","","","","","","","","",""
"","html-keyboard-response","135","573310","0.0-8.0-1.11","s4nba9xh7n","one_one","1","indirect_first","0","ri07ir18","0","25","1","1","3","1","","0","1","0","null","","","<img src = 'category4/CS1.png' width = '100%;'>","null","","","","","","","","","",""
"","html-keyboard-response","136","573576","0.0-8.0-2.11","s4nba9xh7n","one_one","1","indirect_first","0","ri07ir18","0","25","1","1","3","1","","0","1","0","null","","","<img src = 'targets/47.png' width = '100%;'>","null","","","","","","","","","",""
"","html-keyboard-response","137","574251","0.0-8.0-3.11","s4nba9xh7n","one_one","1","indirect_first","0","ri07ir18","0","25","1","1","3","1","","0","1","0","674","","","<img src = 'targets/mask.png' width = '100%;'>","75","pos","GS","GSold","4","category4/CS1.png","targets/47.png","1","indirect","11",""
"","html-keyboard-response","138","575775","0.0-8.0-0.12","s4nba9xh7n","one_one","1","indirect_first","0","ri07ir18","0","25","1","1","3","1","","0","1","0","null","","","<div style=""font-size:60px;"">+</div>","null","","","","","","","","","",""
"","html-keyboard-response","139","575875","0.0-8.0-1.12","s4nba9xh7n","one_one","1","indirect_first","0","ri07ir18","0","25","1","1","3","1","","0","1","0","null","","","<img src = 'category3/CS6.png' width = '100%;'>","null","","","","","","","","","",""
"","html-keyboard-response","140","576141","0.0-8.0-2.12","s4nba9xh7n","one_one","1","indirect_first","0","ri07ir18","0","25","1","1","3","1","","0","1","0","null","","","<img src = 'targets/10.png' width = '100%;'>","null","","","","","","","","","",""
"","html-keyboard-response","141","576785","0.0-8.0-3.12","s4nba9xh7n","one_one","1","indirect_first","0","ri07ir18","0","25","1","1","3","1","","0","1","0","644","","","<img src = 'targets/mask.png' width = '100%;'>","68","pos","GS","GSold","3","category3/CS6.png","targets/10.png","0","indirect","12",""
"","html-keyboard-response","142","578306","0.0-8.0-0.13","s4nba9xh7n","one_one","1","indirect_first","0","ri07ir18","0","25","1","1","3","1","","0","1","0","null","","","<div style=""font-size:60px;"">+</div>","null","","","","","","","","","",""
"","html-keyboard-response","143","578406","0.0-8.0-1.13","s4nba9xh7n","one_one","1","indirect_first","0","ri07ir18","0","25","1","1","3","1","","0","1","0","null","","","<img src = 'category2/CS8.png' width = '100%;'>","null","","","","","","","","","",""
"","html-keyboard-response","144","578672","0.0-8.0-2.13","s4nba9xh7n","one_one","1","indirect_first","0","ri07ir18","0","25","1","1","3","1","","0","1","0","null","","","<img src = 'targets/39.png' width = '100%;'>","null","","","","","","","","","",""
"","html-keyboard-response","145","579831","0.0-8.0-3.13","s4nba9xh7n","one_one","1","indirect_first","0","ri07ir18","0","25","1","1","3","1","","0","1","0","1157","","","<img src = 'targets/mask.png' width = '100%;'>","68","neg","GS","GSold","2","category2/CS8.png","targets/39.png","0","indirect","13",""
"","html-keyboard-response","146","581353","0.0-8.0-0.14","s4nba9xh7n","one_one","1","indirect_first","0","ri07ir18","0","25","1","1","3","1","","0","1","0","null","","","<div style=""font-size:60px;"">+</div>","null","","","","","","","","","",""
"","html-keyboard-response","147","581453","0.0-8.0-1.14","s4nba9xh7n","one_one","1","indirect_first","0","ri07ir18","0","25","1","1","3","1","","0","1","0","null","","","<img src = 'category1/CS7.png' width = '100%;'>","null","","","","","","","","","",""
"","html-keyboard-response","148","581718","0.0-8.0-2.14","s4nba9xh7n","one_one","1","indirect_first","0","ri07ir18","0","25","1","1","3","1","","0","1","0","null","","","<img src = 'targets/35.png' width = '100%;'>","null","","","","","","","","","",""
"","html-keyboard-response","149","582692","0.0-8.0-3.14","s4nba9xh7n","one_one","1","indirect_first","0","ri07ir18","0","25","1","1","3","1","","0","1","0","974","","","<img src = 'targets/mask.png' width = '100%;'>","68","neg","GS","GSold","1","category1/CS7.png","targets/35.png","0","indirect","14",""
"","html-keyboard-response","150","584216","0.0-8.0-0.15","s4nba9xh7n","one_one","1","indirect_first","0","ri07ir18","0","25","1","1","3","1","","0","1","0","null","","","<div style=""font-size:60px;"">+</div>","null","","","","","","","","","",""
"","html-keyboard-response","151","584317","0.0-8.0-1.15","s4nba9xh7n","one_one","1","indirect_first","0","ri07ir18","0","25","1","1","3","1","","0","1","0","null","","","<img src = 'category2/CS1.png' width = '100%;'>","null","","","","","","","","","",""
"","html-keyboard-response","152","584584","0.0-8.0-2.15","s4nba9xh7n","one_one","1","indirect_first","0","ri07ir18","0","25","1","1","3","1","","0","1","0","null","","","<img src = 'targets/46.png' width = '100%;'>","null","","","","","","","","","",""
"","html-keyboard-response","153","585558","0.0-8.0-3.15","s4nba9xh7n","one_one","1","indirect_first","0","ri07ir18","0","25","1","1","3","1","","0","1","0","974","","","<img src = 'targets/mask.png' width = '100%;'>","68","neg","GS","GSold","2","category2/CS1.png","targets/46.png","0","indirect","15",""
"","survey-html-form","154","594060","0.0-9.0","s4nba9xh7n","one_one","1","indirect_first","0","ri07ir18","0","25","1","1","3","1","","0","1","0","7996","","{}","","","","","","","","","","","",""
"","html-keyboard-response","155","597090","0.0-10.0-0.0","s4nba9xh7n","one_one","1","indirect_first","0","ri07ir18","0","25","1","1","3","1","","0","1","0","null","","","<div style=""font-size:60px;"">+</div>","null","","","","","","","","","",""
"","html-keyboard-response","156","597189","0.0-10.0-1.0","s4nba9xh7n","one_one","1","indirect_first","0","ri07ir18","0","25","1","1","3","1","","0","1","0","null","","","<img src = 'category3/GS1.png' width = '100%;'>","null","","","","","","","","","",""
"","html-keyboard-response","157","597457","0.0-10.0-2.0","s4nba9xh7n","one_one","1","indirect_first","0","ri07ir18","0","25","1","1","3","1","","0","1","0","null","","","<img src = 'targets/5.png' width = '100%;'>","null","","","","","","","","","",""
"","html-keyboard-response","158","598399","0.0-10.0-3.0","s4nba9xh7n","one_one","1","indirect_first","0","ri07ir18","0","25","1","1","3","1","","0","1","0","941","","","<img src = 'targets/mask.png' width = '100%;'>","75","pos","GS","GSnew","3","category3/GS1.png","targets/5.png","1","indirect","16",""
"","html-keyboard-response","159","599920","0.0-10.0-0.1","s4nba9xh7n","one_one","1","indirect_first","0","ri07ir18","0","25","1","1","3","1","","0","1","0","null","","","<div style=""font-size:60px;"">+</div>","null","","","","","","","","","",""
"","html-keyboard-response","160","600020","0.0-10.0-1.1","s4nba9xh7n","one_one","1","indirect_first","0","ri07ir18","0","25","1","1","3","1","","0","1","0","null","","","<img src = 'category3/GS3.png' width = '100%;'>","null","","","","","","","","","",""
"","html-keyboard-response","161","600296","0.0-10.0-2.1","s4nba9xh7n","one_one","1","indirect_first","0","ri07ir18","0","25","1","1","3","1","","0","1","0","null","","","<img src = 'targets/43.png' width = '100%;'>","null","","","","","","","","","",""
"","html-keyboard-response","162","600949","0.0-10.0-3.1","s4nba9xh7n","one_one","1","indirect_first","0","ri07ir18","0","25","1","1","3","1","","0","1","0","654","","","<img src = 'targets/mask.png' width = '100%;'>","68","pos","GS","GSnew","3","category3/GS3.png","targets/43.png","0","indirect","17",""
"","html-keyboard-response","163","602467","0.0-10.0-0.2","s4nba9xh7n","one_one","1","indirect_first","0","ri07ir18","0","25","1","1","3","1","","0","1","0","null","","","<div style=""font-size:60px;"">+</div>","null","","","","","","","","","",""
"","html-keyboard-response","164","602567","0.0-10.0-1.2","s4nba9xh7n","one_one","1","indirect_first","0","ri07ir18","0","25","1","1","3","1","","0","1","0","null","","","<img src = 'category1/ma.png' width = '100%;'>","null","","","","","","","","","",""
"","html-keyboard-response","165","602835","0.0-10.0-2.2","s4nba9xh7n","one_one","1","indirect_first","0","ri07ir18","0","25","1","1","3","1","","0","1","0","null","","","<img src = 'targets/29.png' width = '100%;'>","null","","","","","","","","","",""
"","html-keyboard-response","166","605014","0.0-10.0-3.2","s4nba9xh7n","one_one","1","indirect_first","0","ri07ir18","0","25","1","1","3","1","","0","1","0","2178","","","<img src = 'targets/mask.png' width = '100%;'>","75","neg","GS","abstract","1","category1/ma.png","targets/29.png","1","indirect","18",""
"","html-keyboard-response","167","606532","0.0-10.0-0.3","s4nba9xh7n","one_one","1","indirect_first","0","ri07ir18","0","25","1","1","3","1","","0","1","0","null","","","<div style=""font-size:60px;"">+</div>","null","","","","","","","","","",""
"","html-keyboard-response","168","606632","0.0-10.0-1.3","s4nba9xh7n","one_one","1","indirect_first","0","ri07ir18","0","25","1","1","3","1","","0","1","0","null","","","<img src = 'category2/men.png' width = '100%;'>","null","","","","","","","","","",""
"","html-keyboard-response","169","606897","0.0-10.0-2.3","s4nba9xh7n","one_one","1","indirect_first","0","ri07ir18","0","25","1","1","3","1","","0","1","0","null","","","<img src = 'targets/7.png' width = '100%;'>","null","","","","","","","","","",""
"","html-keyboard-response","170","607742","0.0-10.0-3.3","s4nba9xh7n","one_one","1","indirect_first","0","ri07ir18","0","25","1","1","3","1","","0","1","0","844","","","<img src = 'targets/mask.png' width = '100%;'>","68","neg","GS","abstract","2","category2/men.png","targets/7.png","0","indirect","19",""
"","html-keyboard-response","171","609263","0.0-10.0-0.4","s4nba9xh7n","one_one","1","indirect_first","0","ri07ir18","0","25","1","1","3","1","","0","1","0","null","","","<div style=""font-size:60px;"">+</div>","null","","","","","","","","","",""
"","html-keyboard-response","172","609363","0.0-10.0-1.4","s4nba9xh7n","one_one","1","indirect_first","0","ri07ir18","0","25","1","1","3","1","","0","1","0","null","","","<img src = 'category2/GS1.png' width = '100%;'>","null","","","","","","","","","",""
"","html-keyboard-response","173","609629","0.0-10.0-2.4","s4nba9xh7n","one_one","1","indirect_first","0","ri07ir18","0","25","1","1","3","1","","0","1","0","null","","","<img src = 'targets/11.png' width = '100%;'>","null","","","","","","","","","",""
"","html-keyboard-response","174","610326","0.0-10.0-3.4","s4nba9xh7n","one_one","1","indirect_first","0","ri07ir18","0","25","1","1","3","1","","0","1","0","696","","","<img src = 'targets/mask.png' width = '100%;'>","68","neg","GS","GSnew","2","category2/GS1.png","targets/11.png","0","indirect","20",""
"","html-keyboard-response","175","611844","0.0-10.0-0.5","s4nba9xh7n","one_one","1","indirect_first","0","ri07ir18","0","25","1","1","3","1","","0","1","0","null","","","<div style=""font-size:60px;"">+</div>","null","","","","","","","","","",""
"","html-keyboard-response","176","611943","0.0-10.0-1.5","s4nba9xh7n","one_one","1","indirect_first","0","ri07ir18","0","25","1","1","3","1","","0","1","0","null","","","<img src = 'category4/GS1.png' width = '100%;'>","null","","","","","","","","","",""
"","html-keyboard-response","177","612210","0.0-10.0-2.5","s4nba9xh7n","one_one","1","indirect_first","0","ri07ir18","0","25","1","1","3","1","","0","1","0","null","","","<img src = 'targets/31.png' width = '100%;'>","null","","","","","","","","","",""
"","html-keyboard-response","178","612813","0.0-10.0-3.5","s4nba9xh7n","one_one","1","indirect_first","0","ri07ir18","0","25","1","1","3","1","","0","1","0","602","","","<img src = 'targets/mask.png' width = '100%;'>","75","pos","GS","GSnew","4","category4/GS1.png","targets/31.png","1","indirect","21",""
"","html-keyboard-response","179","614341","0.0-10.0-0.6","s4nba9xh7n","one_one","1","indirect_first","0","ri07ir18","0","25","1","1","3","1","","0","1","0","null","","","<div style=""font-size:60px;"">+</div>","null","","","","","","","","","",""
"","html-keyboard-response","180","614441","0.0-10.0-1.6","s4nba9xh7n","one_one","1","indirect_first","0","ri07ir18","0","25","1","1","3","1","","0","1","0","null","","","<img src = 'category2/GS3.png' width = '100%;'>","null","","","","","","","","","",""
"","html-keyboard-response","181","614708","0.0-10.0-2.6","s4nba9xh7n","one_one","1","indirect_first","0","ri07ir18","0","25","1","1","3","1","","0","1","0","null","","","<img src = 'targets/40.png' width = '100%;'>","null","","","","","","","","","",""
"","html-keyboard-response","182","615804","0.0-10.0-3.6","s4nba9xh7n","one_one","1","indirect_first","0","ri07ir18","0","25","1","1","3","1","","0","1","0","1095","","","<img src = 'targets/mask.png' width = '100%;'>","68","neg","GS","GSnew","2","category2/GS3.png","targets/40.png","0","indirect","22",""
"","html-keyboard-response","183","617322","0.0-10.0-0.7","s4nba9xh7n","one_one","1","indirect_first","0","ri07ir18","0","25","1","1","3","1","","0","1","0","null","","","<div style=""font-size:60px;"">+</div>","null","","","","","","","","","",""
"","html-keyboard-response","184","617422","0.0-10.0-1.7","s4nba9xh7n","one_one","1","indirect_first","0","ri07ir18","0","25","1","1","3","1","","0","1","0","null","","","<img src = 'category2/GS2.png' width = '100%;'>","null","","","","","","","","","",""
"","html-keyboard-response","185","617688","0.0-10.0-2.7","s4nba9xh7n","one_one","1","indirect_first","0","ri07ir18","0","25","1","1","3","1","","0","1","0","null","","","<img src = 'targets/22.png' width = '100%;'>","null","","","","","","","","","",""
"","html-keyboard-response","186","618163","0.0-10.0-3.7","s4nba9xh7n","one_one","1","indirect_first","0","ri07ir18","0","25","1","1","3","1","","0","1","0","475","","","<img src = 'targets/mask.png' width = '100%;'>","68","neg","GS","GSnew","2","category2/GS2.png","targets/22.png","0","indirect","23",""
"","html-keyboard-response","187","619686","0.0-10.0-0.8","s4nba9xh7n","one_one","1","indirect_first","0","ri07ir18","0","25","1","1","3","1","","0","1","0","null","","","<div style=""font-size:60px;"">+</div>","null","","","","","","","","","",""
"","html-keyboard-response","188","619786","0.0-10.0-1.8","s4nba9xh7n","one_one","1","indirect_first","0","ri07ir18","0","25","1","1","3","1","","0","1","0","null","","","<img src = 'category3/GS2.png' width = '100%;'>","null","","","","","","","","","",""
"","html-keyboard-response","189","620054","0.0-10.0-2.8","s4nba9xh7n","one_one","1","indirect_first","0","ri07ir18","0","25","1","1","3","1","","0","1","0","null","","","<img src = 'targets/23.png' width = '100%;'>","null","","","","","","","","","",""
"","html-keyboard-response","190","621183","0.0-10.0-3.8","s4nba9xh7n","one_one","1","indirect_first","0","ri07ir18","0","25","1","1","3","1","","0","1","0","1129","","","<img src = 'targets/mask.png' width = '100%;'>","75","pos","GS","GSnew","3","category3/GS2.png","targets/23.png","1","indirect","24",""
"","html-keyboard-response","191","622700","0.0-10.0-0.9","s4nba9xh7n","one_one","1","indirect_first","0","ri07ir18","0","25","1","1","3","1","","0","1","0","null","","","<div style=""font-size:60px;"">+</div>","null","","","","","","","","","",""
"","html-keyboard-response","192","622801","0.0-10.0-1.9","s4nba9xh7n","one_one","1","indirect_first","0","ri07ir18","0","25","1","1","3","1","","0","1","0","null","","","<img src = 'category1/GS3.png' width = '100%;'>","null","","","","","","","","","",""
"","html-keyboard-response","193","623066","0.0-10.0-2.9","s4nba9xh7n","one_one","1","indirect_first","0","ri07ir18","0","25","1","1","3","1","","0","1","0","null","","","<img src = 'targets/21.png' width = '100%;'>","null","","","","","","","","","",""
"","html-keyboard-response","194","623921","0.0-10.0-3.9","s4nba9xh7n","one_one","1","indirect_first","0","ri07ir18","0","25","1","1","3","1","","0","1","0","853","","","<img src = 'targets/mask.png' width = '100%;'>","68","neg","GS","GSnew","1","category1/GS3.png","targets/21.png","0","indirect","25",""
"","html-keyboard-response","195","625447","0.0-10.0-0.10","s4nba9xh7n","one_one","1","indirect_first","0","ri07ir18","0","25","1","1","3","1","","0","1","0","null","","","<div style=""font-size:60px;"">+</div>","null","","","","","","","","","",""
"","html-keyboard-response","196","625547","0.0-10.0-1.10","s4nba9xh7n","one_one","1","indirect_first","0","ri07ir18","0","25","1","1","3","1","","0","1","0","null","","","<img src = 'category1/GS2.png' width = '100%;'>","null","","","","","","","","","",""
"","html-keyboard-response","197","625814","0.0-10.0-2.10","s4nba9xh7n","one_one","1","indirect_first","0","ri07ir18","0","25","1","1","3","1","","0","1","0","null","","","<img src = 'targets/17.png' width = '100%;'>","null","","","","","","","","","",""
"","html-keyboard-response","198","626437","0.0-10.0-3.10","s4nba9xh7n","one_one","1","indirect_first","0","ri07ir18","0","25","1","1","3","1","","0","1","0","621","","","<img src = 'targets/mask.png' width = '100%;'>","68","neg","GS","GSnew","1","category1/GS2.png","targets/17.png","0","indirect","26",""
"","html-keyboard-response","199","627946","0.0-10.0-0.11","s4nba9xh7n","one_one","1","indirect_first","0","ri07ir18","0","25","1","1","3","1","","0","1","0","null","","","<div style=""font-size:60px;"">+</div>","null","","","","","","","","","",""
"","html-keyboard-response","200","628046","0.0-10.0-1.11","s4nba9xh7n","one_one","1","indirect_first","0","ri07ir18","0","25","1","1","3","1","","0","1","0","null","","","<img src = 'category4/GS2.png' width = '100%;'>","null","","","","","","","","","",""
"","html-keyboard-response","201","628306","0.0-10.0-2.11","s4nba9xh7n","one_one","1","indirect_first","0","ri07ir18","0","25","1","1","3","1","","0","1","0","null","","","<img src = 'targets/9.png' width = '100%;'>","null","","","","","","","","","",""
"","html-keyboard-response","202","629025","0.0-10.0-3.11","s4nba9xh7n","one_one","1","indirect_first","0","ri07ir18","0","25","1","1","3","1","","0","1","0","717","","","<img src = 'targets/mask.png' width = '100%;'>","68","pos","GS","GSnew","4","category4/GS2.png","targets/9.png","0","indirect","27",""
"","html-keyboard-response","203","630544","0.0-10.0-0.12","s4nba9xh7n","one_one","1","indirect_first","0","ri07ir18","0","25","1","1","3","1","","0","1","0","null","","","<div style=""font-size:60px;"">+</div>","null","","","","","","","","","",""
"","html-keyboard-response","204","630643","0.0-10.0-1.12","s4nba9xh7n","one_one","1","indirect_first","0","ri07ir18","0","25","1","1","3","1","","0","1","0","null","","","<img src = 'category4/GS3.png' width = '100%;'>","null","","","","","","","","","",""
"","html-keyboard-response","205","630909","0.0-10.0-2.12","s4nba9xh7n","one_one","1","indirect_first","0","ri07ir18","0","25","1","1","3","1","","0","1","0","null","","","<img src = 'targets/32.png' width = '100%;'>","null","","","","","","","","","",""
"","html-keyboard-response","206","631748","0.0-10.0-3.12","s4nba9xh7n","one_one","1","indirect_first","0","ri07ir18","0","25","1","1","3","1","","0","1","0","838","","","<img src = 'targets/mask.png' width = '100%;'>","75","pos","GS","GSnew","4","category4/GS3.png","targets/32.png","1","indirect","28",""
"","html-keyboard-response","207","633275","0.0-10.0-0.13","s4nba9xh7n","one_one","1","indirect_first","0","ri07ir18","0","25","1","1","3","1","","0","1","0","null","","","<div style=""font-size:60px;"">+</div>","null","","","","","","","","","",""
"","html-keyboard-response","208","633375","0.0-10.0-1.13","s4nba9xh7n","one_one","1","indirect_first","0","ri07ir18","0","25","1","1","3","1","","0","1","0","null","","","<img src = 'category3/wang.png' width = '100%;'>","null","","","","","","","","","",""
"","html-keyboard-response","209","633641","0.0-10.0-2.13","s4nba9xh7n","one_one","1","indirect_first","0","ri07ir18","0","25","1","1","3","1","","0","1","0","null","","","<img src = 'targets/12.png' width = '100%;'>","null","","","","","","","","","",""
"","html-keyboard-response","210","635749","0.0-10.0-3.13","s4nba9xh7n","one_one","1","indirect_first","0","ri07ir18","0","25","1","1","3","1","","0","1","0","2107","","","<img src = 'targets/mask.png' width = '100%;'>","75","pos","GS","abstract","3","category3/wang.png","targets/12.png","1","indirect","29",""
"","html-keyboard-response","211","637272","0.0-10.0-0.14","s4nba9xh7n","one_one","1","indirect_first","0","ri07ir18","0","25","1","1","3","1","","0","1","0","null","","","<div style=""font-size:60px;"">+</div>","null","","","","","","","","","",""
"","html-keyboard-response","212","637372","0.0-10.0-1.14","s4nba9xh7n","one_one","1","indirect_first","0","ri07ir18","0","25","1","1","3","1","","0","1","0","null","","","<img src = 'category1/GS1.png' width = '100%;'>","null","","","","","","","","","",""
"","html-keyboard-response","213","637636","0.0-10.0-2.14","s4nba9xh7n","one_one","1","indirect_first","0","ri07ir18","0","25","1","1","3","1","","0","1","0","null","","","<img src = 'targets/42.png' width = '100%;'>","null","","","","","","","","","",""
"","html-keyboard-response","214","639311","0.0-10.0-3.14","s4nba9xh7n","one_one","1","indirect_first","0","ri07ir18","0","25","1","1","3","1","","0","1","0","1674","","","<img src = 'targets/mask.png' width = '100%;'>","68","neg","GS","GSnew","1","category1/GS1.png","targets/42.png","0","indirect","30",""
"","html-keyboard-response","215","640835","0.0-10.0-0.15","s4nba9xh7n","one_one","1","indirect_first","0","ri07ir18","0","25","1","1","3","1","","0","1","0","null","","","<div style=""font-size:60px;"">+</div>","null","","","","","","","","","",""
"","html-keyboard-response","216","640935","0.0-10.0-1.15","s4nba9xh7n","one_one","1","indirect_first","0","ri07ir18","0","25","1","1","3","1","","0","1","0","null","","","<img src = 'category4/lin.png' width = '100%;'>","null","","","","","","","","","",""
"","html-keyboard-response","217","641200","0.0-10.0-2.15","s4nba9xh7n","one_one","1","indirect_first","0","ri07ir18","0","25","1","1","3","1","","0","1","0","null","","","<img src = 'targets/14.png' width = '100%;'>","null","","","","","","","","","",""
"","html-keyboard-response","218","641787","0.0-10.0-3.15","s4nba9xh7n","one_one","1","indirect_first","0","ri07ir18","0","25","1","1","3","1","","0","1","0","586","","","<img src = 'targets/mask.png' width = '100%;'>","75","pos","GS","abstract","4","category4/lin.png","targets/14.png","1","indirect","31",""
"","survey-html-form","219","656872","0.0-11.0","s4nba9xh7n","one_one","1","indirect_first","0","ri07ir18","0","25","1","1","3","1","","0","1","0","14576","","{}","","","","","","","","","","","",""
"","image-slider-response","220","664211","0.0-12.0-0.0","s4nba9xh7n","one_one","1","indirect_first","0","ri07ir18","0","25","1","1","3","1","","0","1","0","5322","","","","","neg","GS","GSnew","1","category1/GS3.png","targets/21.png","","direct","","41"
"","image-slider-response","221","667169","0.0-12.0-0.1","s4nba9xh7n","one_one","1","indirect_first","0","ri07ir18","0","25","1","1","3","1","","0","1","0","2958","","","","","neg","GS","GSnew","2","category2/GS1.png","targets/11.png","","direct","","-63"
"","image-slider-response","222","671770","0.0-12.0-0.2","s4nba9xh7n","one_one","1","indirect_first","0","ri07ir18","0","25","1","1","3","1","","0","1","0","4598","","","","","pos","GS","GSold","4","category4/CS10.png","targets/15.png","","direct","","100"
"","image-slider-response","223","678220","0.0-12.0-0.3","s4nba9xh7n","one_one","1","indirect_first","0","ri07ir18","0","25","1","1","3","1","","0","1","0","6448","","","","","neg","CS","CS","2","category2/CS10.png","targets/20.png","","direct","","-100"
"","image-slider-response","224","684648","0.0-12.0-0.4","s4nba9xh7n","one_one","1","indirect_first","0","ri07ir18","0","25","1","1","3","1","","0","1","0","6427","","","","","neg","GS","GSnew","2","category2/GS3.png","targets/40.png","","direct","","-23"
"","image-slider-response","225","687259","0.0-12.0-0.5","s4nba9xh7n","one_one","1","indirect_first","0","ri07ir18","0","25","1","1","3","1","","0","1","0","2608","","","","","pos","GS","GSold","4","category4/CS1.png","targets/47.png","","direct","","100"
"","image-slider-response","226","690618","0.0-12.0-0.6","s4nba9xh7n","one_one","1","indirect_first","0","ri07ir18","0","25","1","1","3","1","","0","1","0","3359","","","","","pos","CS","CS","4","category4/CS4.png","targets/30.png","","direct","","100"
"","image-slider-response","227","694778","0.0-12.0-0.7","s4nba9xh7n","one_one","1","indirect_first","0","ri07ir18","0","25","1","1","3","1","","0","1","0","4158","","","","","pos","GS","GSnew","3","category3/GS2.png","targets/23.png","","direct","","50"
"","image-slider-response","228","697719","0.0-12.0-0.8","s4nba9xh7n","one_one","1","indirect_first","0","ri07ir18","0","25","1","1","3","1","","0","1","0","2939","","","","","pos","GS","GSnew","4","category4/GS1.png","targets/31.png","","direct","","100"
"","image-slider-response","229","700600","0.0-12.0-0.9","s4nba9xh7n","one_one","1","indirect_first","0","ri07ir18","0","25","1","1","3","1","","0","1","0","2879","","","","","pos","GS","abstract","3","category3/wang.png","targets/12.png","","direct","","85"
"","image-slider-response","230","703579","0.0-12.0-0.10","s4nba9xh7n","one_one","1","indirect_first","0","ri07ir18","0","25","1","1","3","1","","0","1","0","2976","","","","","neg","GS","GSold","1","category1/CS5.png","targets/34.png","","direct","","-100"
"","image-slider-response","231","707429","0.0-12.0-0.11","s4nba9xh7n","one_one","1","indirect_first","0","ri07ir18","0","25","1","1","3","1","","0","1","0","3848","","","","","pos","CS","CS","3","category3/CS10.png","targets/27.png","","direct","","36"
"","image-slider-response","232","711127","0.0-12.0-0.12","s4nba9xh7n","one_one","1","indirect_first","0","ri07ir18","0","25","1","1","3","1","","0","1","0","3696","","","","","neg","GS","GSold","1","category1/CS4.png","targets/48.png","","direct","","-22"
"","image-slider-response","233","713317","0.0-12.0-0.13","s4nba9xh7n","one_one","1","indirect_first","0","ri07ir18","0","25","1","1","3","1","","0","1","0","2187","","","","","neg","GS","GSnew","2","category2/GS2.png","targets/22.png","","direct","","-100"
"","image-slider-response","234","715514","0.0-12.0-0.14","s4nba9xh7n","one_one","1","indirect_first","0","ri07ir18","0","25","1","1","3","1","","0","1","0","2196","","","","","pos","GS","GSold","3","category3/CS6.png","targets/10.png","","direct","","-96"
"","image-slider-response","235","717933","0.0-12.0-0.15","s4nba9xh7n","one_one","1","indirect_first","0","ri07ir18","0","25","1","1","3","1","","0","1","0","2416","","","","","pos","GS","GSold","3","category3/CS9.png","targets/33.png","","direct","","-69"
"","image-slider-response","236","721949","0.0-12.0-0.16","s4nba9xh7n","one_one","1","indirect_first","0","ri07ir18","0","25","1","1","3","1","","0","1","0","4014","","","","","pos","GS","GSold","4","category4/CS2.png","targets/45.png","","direct","","100"
"","image-slider-response","237","724118","0.0-12.0-0.17","s4nba9xh7n","one_one","1","indirect_first","0","ri07ir18","0","25","1","1","3","1","","0","1","0","2169","","","","","neg","GS","abstract","1","category1/ma.png","targets/29.png","","direct","","-15"
"","image-slider-response","238","727297","0.0-12.0-0.18","s4nba9xh7n","one_one","1","indirect_first","0","ri07ir18","0","25","1","1","3","1","","0","1","0","3176","","","","","pos","GS","GSnew","3","category3/GS1.png","targets/5.png","","direct","","36"
"","image-slider-response","239","729687","0.0-12.0-0.19","s4nba9xh7n","one_one","1","indirect_first","0","ri07ir18","0","25","1","1","3","1","","0","1","0","2388","","","","","pos","GS","GSnew","4","category4/GS3.png","targets/32.png","","direct","","100"
"","image-slider-response","240","732346","0.0-12.0-0.20","s4nba9xh7n","one_one","1","indirect_first","0","ri07ir18","0","25","1","1","3","1","","0","1","0","2657","","","","","pos","GS","GSnew","3","category3/GS3.png","targets/43.png","","direct","","12"
"","image-slider-response","241","734236","0.0-12.0-0.21","s4nba9xh7n","one_one","1","indirect_first","0","ri07ir18","0","25","1","1","3","1","","0","1","0","1887","","","","","neg","GS","GSnew","1","category1/GS2.png","targets/17.png","","direct","","-58"
"","image-slider-response","242","736195","0.0-12.0-0.22","s4nba9xh7n","one_one","1","indirect_first","0","ri07ir18","0","25","1","1","3","1","","0","1","0","1956","","","","","neg","GS","GSold","1","category1/CS7.png","targets/35.png","","direct","","-56"
"","image-slider-response","243","739533","0.0-12.0-0.23","s4nba9xh7n","one_one","1","indirect_first","0","ri07ir18","0","25","1","1","3","1","","0","1","0","3336","","","","","pos","GS","GSnew","4","category4/GS2.png","targets/9.png","","direct","","-14"
"","image-slider-response","244","743892","0.0-12.0-0.24","s4nba9xh7n","one_one","1","indirect_first","0","ri07ir18","0","25","1","1","3","1","","0","1","0","4356","","","","","neg","CS","CS","1","category1/CS6.png","targets/36.png","","direct","","-69"
"","image-slider-response","245","746460","0.0-12.0-0.25","s4nba9xh7n","one_one","1","indirect_first","0","ri07ir18","0","25","1","1","3","1","","0","1","0","2567","","","","","pos","GS","GSold","3","category3/CS3.png","targets/2.png","","direct","","26"
"","image-slider-response","246","749321","0.0-12.0-0.26","s4nba9xh7n","one_one","1","indirect_first","0","ri07ir18","0","25","1","1","3","1","","0","1","0","2858","","","","","neg","GS","abstract","2","category2/men.png","targets/7.png","","direct","","-89"
"","image-slider-response","247","751760","0.0-12.0-0.27","s4nba9xh7n","one_one","1","indirect_first","0","ri07ir18","0","25","1","1","3","1","","0","1","0","2438","","","","","pos","GS","abstract","4","category4/lin.png","targets/14.png","","direct","","96"
"","image-slider-response","248","754279","0.0-12.0-0.28","s4nba9xh7n","one_one","1","indirect_first","0","ri07ir18","0","25","1","1","3","1","","0","1","0","2517","","","","","neg","GS","GSnew","1","category1/GS1.png","targets/42.png","","direct","","-50"
"","image-slider-response","249","757039","0.0-12.0-0.29","s4nba9xh7n","one_one","1","indirect_first","0","ri07ir18","0","25","1","1","3","1","","0","1","0","2758","","","","","neg","GS","GSold","2","category2/CS8.png","targets/39.png","","direct","","-100"
"","image-slider-response","250","759628","0.0-12.0-0.30","s4nba9xh7n","one_one","1","indirect_first","0","ri07ir18","0","25","1","1","3","1","","0","1","0","2588","","","","","neg","GS","GSold","2","category2/CS1.png","targets/46.png","","direct","","-100"
"","image-slider-response","251","762398","0.0-12.0-0.31","s4nba9xh7n","one_one","1","indirect_first","0","ri07ir18","0","25","1","1","3","1","","0","1","0","2768","","","","","neg","GS","GSold","2","category2/CS4.png","targets/38.png","","direct","","-100"
"","survey-html-form","252","768842","0.0-13.0","s4nba9xh7n","one_one","1","indirect_first","0","ri07ir18","0","25","1","1","3","1","","0","1","0","6442","","{}","","","","","","","","","","","",""
"","image-slider-response","253","775335","0.0-14.0-0.0","s4nba9xh7n","one_one","1","indirect_first","0","ri07ir18","0","25","1","1","3","1","","0","1","0","5481","","","","","pos","All","all","3","category3/wang_all.png","","","all","","-16"
"","image-slider-response","254","778516","0.0-14.0-0.1","s4nba9xh7n","one_one","1","indirect_first","0","ri07ir18","0","25","1","1","3","1","","0","1","0","3177","","","","","neg","All","all","1","category1/ma_all.png","","","all","","-91"
"","image-slider-response","255","780954","0.0-14.0-0.2","s4nba9xh7n","one_one","1","indirect_first","0","ri07ir18","0","25","1","1","3","1","","0","1","0","2437","","","","","pos","All","all","4","category4/lin_all.png","","","all","","99"
"","image-slider-response","256","785282","0.0-14.0-0.3","s4nba9xh7n","one_one","1","indirect_first","0","ri07ir18","0","25","1","1","3","1","","0","1","0","4327","","","","","neg","All","all","2","category2/men_all.png","","","all","","-42"
"","survey-text","257","804594","0.0-15.0","s4nba9xh7n","one_one","1","indirect_first","0","ri07ir18","0","25","1","1","3","1","","0","1","0","19299","","{""comment"":""""}","","","","","","","","","","","",""
"","survey-html-form","258","832350","0.0-16.0","s4nba9xh7n","one_one","1","indirect_first","0","ri07ir18","0","25","1","1","3","1","","0","1","0","27754","","{""hinschauen"":""0"",""ablenkung"":""1"",""gewissenhaft"":""0""}","","","","","","","","","","","",""
