"success","trial_type","trial_index","time_elapsed","internal_node_id","subject","condition","condition_code","measure","measure_code","codeword","gender","age","education","chinese","fach","handedness","comment","hinschauen","ablenkung","gewissenhaft","rt","url","responses","stimulus","key_press","val","type","type_specific","category","cs_selected","response","target","task","indirect","nr_pres"
"true","fullscreen","0","4162","0.0-0.0","6q8ehgwt7z","many_one","0","direct_first","1","er06rl21","1","18","1","1","3","1","Ich hätte es hilfreich gefunden, wenn die Aussprache der Silben nicht nur sichtbar, sondern auch hörbar gewesen wäre.","0","1","0","","","","","","","","","","","","","","",""
"","external-html","1","129849","0.0-1.0","6q8ehgwt7z","many_one","0","direct_first","1","er06rl21","1","18","1","1","3","1","Ich hätte es hilfreich gefunden, wenn die Aussprache der Silben nicht nur sichtbar, sondern auch hörbar gewesen wäre.","0","1","0","125648","text/information.html","","","","","","","","","","","","",""
"","external-html","2","184518","0.0-2.0","6q8ehgwt7z","many_one","0","direct_first","1","er06rl21","1","18","1","1","3","1","Ich hätte es hilfreich gefunden, wenn die Aussprache der Silben nicht nur sichtbar, sondern auch hörbar gewesen wäre.","0","1","0","54609","text/consent.html","","","","","","","","","","","","",""
"","survey-html-form","3","367517","0.0-3.0","6q8ehgwt7z","many_one","0","direct_first","1","er06rl21","1","18","1","1","3","1","Ich hätte es hilfreich gefunden, wenn die Aussprache der Silben nicht nur sichtbar, sondern auch hörbar gewesen wäre.","0","1","0","182997","","{""codeword_enter"":""er06rl21""}","","","","","","","","","","","",""
"","survey-html-form","4","396388","0.0-4.0","6q8ehgwt7z","many_one","0","direct_first","1","er06rl21","1","18","1","1","3","1","Ich hätte es hilfreich gefunden, wenn die Aussprache der Silben nicht nur sichtbar, sondern auch hörbar gewesen wäre.","0","1","0","28867","","{""age"":""18"",""education"":""1"",""subject"":""3"",""gender"":""1"",""handedness"":""1"",""chinese"":""1""}","","","","","","","","","","","",""
"","survey-html-form","5","407617","0.0-5.0","6q8ehgwt7z","many_one","0","direct_first","1","er06rl21","1","18","1","1","3","1","Ich hätte es hilfreich gefunden, wenn die Aussprache der Silben nicht nur sichtbar, sondern auch hörbar gewesen wäre.","0","1","0","11227","","{}","","","","","","","","","","","",""
"","html-keyboard-response","6","411626","0.0-6.0-0.0-0.0","6q8ehgwt7z","many_one","0","direct_first","1","er06rl21","1","18","1","1","3","1","Ich hätte es hilfreich gefunden, wenn die Aussprache der Silben nicht nur sichtbar, sondern auch hörbar gewesen wäre.","0","1","0","null","","","<div class = 'row'><div class = 'column'><img src = 'category4/CS9.png' width = '70%;'></div><div class = 'column'><img src = 'usneg/9520.bmp' width = '100%;'></div></div>","null","neg","CS","CS","4","category4/CS9.png","","","","",""
"","html-keyboard-response","7","414158","0.0-6.0-0.0-0.1","6q8ehgwt7z","many_one","0","direct_first","1","er06rl21","1","18","1","1","3","1","Ich hätte es hilfreich gefunden, wenn die Aussprache der Silben nicht nur sichtbar, sondern auch hörbar gewesen wäre.","0","1","0","null","","","<div class = 'row'><div class = 'column'><img src = 'category4/CS6.png' width = '70%;'></div><div class = 'column'><img src = 'usneg/9180.bmp' width = '100%;'></div></div>","null","neg","CS","CS","4","category4/CS6.png","","","","",""
"","html-keyboard-response","8","416680","0.0-6.0-0.0-0.2","6q8ehgwt7z","many_one","0","direct_first","1","er06rl21","1","18","1","1","3","1","Ich hätte es hilfreich gefunden, wenn die Aussprache der Silben nicht nur sichtbar, sondern auch hörbar gewesen wäre.","0","1","0","null","","","<div class = 'row'><div class = 'column'><img src = 'category4/CS5.png' width = '70%;'></div><div class = 'column'><img src = 'usneg/9041.bmp' width = '100%;'></div></div>","null","neg","CS","CS","4","category4/CS5.png","","","","",""
"","html-keyboard-response","9","419187","0.0-6.0-0.0-0.3","6q8ehgwt7z","many_one","0","direct_first","1","er06rl21","1","18","1","1","3","1","Ich hätte es hilfreich gefunden, wenn die Aussprache der Silben nicht nur sichtbar, sondern auch hörbar gewesen wäre.","0","1","0","null","","","<div class = 'row'><div class = 'column'><img src = 'usneg/6020.bmp' width = '100%;'></div><div class = 'column'><img src = 'category3/CS8.png' width = '70%;'></div></div>","null","neg","CS","CS","3","category3/CS8.png","","","","",""
"","html-keyboard-response","10","421707","0.0-6.0-0.0-0.4","6q8ehgwt7z","many_one","0","direct_first","1","er06rl21","1","18","1","1","3","1","Ich hätte es hilfreich gefunden, wenn die Aussprache der Silben nicht nur sichtbar, sondern auch hörbar gewesen wäre.","0","1","0","null","","","<div class = 'row'><div class = 'column'><img src = 'uspos/8461.bmp' width = '100%;'></div><div class = 'column'><img src = 'category1/CS6.png' width = '70%;'></div></div>","null","pos","CS","CS","1","category1/CS6.png","","","","",""
"","html-keyboard-response","11","424212","0.0-6.0-0.0-0.5","6q8ehgwt7z","many_one","0","direct_first","1","er06rl21","1","18","1","1","3","1","Ich hätte es hilfreich gefunden, wenn die Aussprache der Silben nicht nur sichtbar, sondern auch hörbar gewesen wäre.","0","1","0","null","","","<div class = 'row'><div class = 'column'><img src = 'uspos/2160.bmp' width = '100%;'></div><div class = 'column'><img src = 'category2/CS1.png' width = '70%;'></div></div>","null","pos","CS","CS","2","category2/CS1.png","","","","",""
"","html-keyboard-response","12","426728","0.0-6.0-0.0-0.6","6q8ehgwt7z","many_one","0","direct_first","1","er06rl21","1","18","1","1","3","1","Ich hätte es hilfreich gefunden, wenn die Aussprache der Silben nicht nur sichtbar, sondern auch hörbar gewesen wäre.","0","1","0","null","","","<div class = 'row'><div class = 'column'><img src = 'category2/CS7.png' width = '70%;'></div><div class = 'column'><img src = 'uspos/8490.bmp' width = '100%;'></div></div>","null","pos","CS","CS","2","category2/CS7.png","","","","",""
"","html-keyboard-response","13","429233","0.0-6.0-0.0-0.7","6q8ehgwt7z","many_one","0","direct_first","1","er06rl21","1","18","1","1","3","1","Ich hätte es hilfreich gefunden, wenn die Aussprache der Silben nicht nur sichtbar, sondern auch hörbar gewesen wäre.","0","1","0","null","","","<div class = 'row'><div class = 'column'><img src = 'category3/CS9.png' width = '70%;'></div><div class = 'column'><img src = 'usneg/9635.2.bmp' width = '100%;'></div></div>","null","neg","CS","CS","3","category3/CS9.png","","","","",""
"","html-keyboard-response","14","431743","0.0-6.0-0.0-0.8","6q8ehgwt7z","many_one","0","direct_first","1","er06rl21","1","18","1","1","3","1","Ich hätte es hilfreich gefunden, wenn die Aussprache der Silben nicht nur sichtbar, sondern auch hörbar gewesen wäre.","0","1","0","null","","","<div class = 'row'><div class = 'column'><img src = 'category4/CS10.png' width = '70%;'></div><div class = 'column'><img src = 'usneg/6570.1.bmp' width = '100%;'></div></div>","null","neg","CS","CS","4","category4/CS10.png","","","","",""
"","html-keyboard-response","15","434268","0.0-6.0-0.0-0.9","6q8ehgwt7z","many_one","0","direct_first","1","er06rl21","1","18","1","1","3","1","Ich hätte es hilfreich gefunden, wenn die Aussprache der Silben nicht nur sichtbar, sondern auch hörbar gewesen wäre.","0","1","0","null","","","<div class = 'row'><div class = 'column'><img src = 'category3/CS6.png' width = '70%;'></div><div class = 'column'><img src = 'usneg/9342.bmp' width = '100%;'></div></div>","null","neg","CS","CS","3","category3/CS6.png","","","","",""
"","html-keyboard-response","16","436787","0.0-6.0-0.0-0.10","6q8ehgwt7z","many_one","0","direct_first","1","er06rl21","1","18","1","1","3","1","Ich hätte es hilfreich gefunden, wenn die Aussprache der Silben nicht nur sichtbar, sondern auch hörbar gewesen wäre.","0","1","0","null","","","<div class = 'row'><div class = 'column'><img src = 'category1/CS4.png' width = '70%;'></div><div class = 'column'><img src = 'uspos/1463.bmp' width = '100%;'></div></div>","null","pos","CS","CS","1","category1/CS4.png","","","","",""
"","html-keyboard-response","17","439306","0.0-6.0-0.0-0.11","6q8ehgwt7z","many_one","0","direct_first","1","er06rl21","1","18","1","1","3","1","Ich hätte es hilfreich gefunden, wenn die Aussprache der Silben nicht nur sichtbar, sondern auch hörbar gewesen wäre.","0","1","0","null","","","<div class = 'row'><div class = 'column'><img src = 'usneg/9330.bmp' width = '100%;'></div><div class = 'column'><img src = 'category3/CS5.png' width = '70%;'></div></div>","null","neg","CS","CS","3","category3/CS5.png","","","","",""
"","html-keyboard-response","18","441822","0.0-6.0-0.0-0.12","6q8ehgwt7z","many_one","0","direct_first","1","er06rl21","1","18","1","1","3","1","Ich hätte es hilfreich gefunden, wenn die Aussprache der Silben nicht nur sichtbar, sondern auch hörbar gewesen wäre.","0","1","0","null","","","<div class = 'row'><div class = 'column'><img src = 'usneg/9050.bmp' width = '100%;'></div><div class = 'column'><img src = 'category3/CS10.png' width = '70%;'></div></div>","null","neg","CS","CS","3","category3/CS10.png","","","","",""
"","html-keyboard-response","19","444343","0.0-6.0-0.0-0.13","6q8ehgwt7z","many_one","0","direct_first","1","er06rl21","1","18","1","1","3","1","Ich hätte es hilfreich gefunden, wenn die Aussprache der Silben nicht nur sichtbar, sondern auch hörbar gewesen wäre.","0","1","0","null","","","<div class = 'row'><div class = 'column'><img src = 'uspos/1460.bmp' width = '100%;'></div><div class = 'column'><img src = 'category2/CS10.png' width = '70%;'></div></div>","null","pos","CS","CS","2","category2/CS10.png","","","","",""
"","html-keyboard-response","20","446863","0.0-6.0-0.0-0.14","6q8ehgwt7z","many_one","0","direct_first","1","er06rl21","1","18","1","1","3","1","Ich hätte es hilfreich gefunden, wenn die Aussprache der Silben nicht nur sichtbar, sondern auch hörbar gewesen wäre.","0","1","0","null","","","<div class = 'row'><div class = 'column'><img src = 'category1/CS7.png' width = '70%;'></div><div class = 'column'><img src = 'uspos/2030.bmp' width = '100%;'></div></div>","null","pos","CS","CS","1","category1/CS7.png","","","","",""
"","html-keyboard-response","21","449375","0.0-6.0-0.0-0.15","6q8ehgwt7z","many_one","0","direct_first","1","er06rl21","1","18","1","1","3","1","Ich hätte es hilfreich gefunden, wenn die Aussprache der Silben nicht nur sichtbar, sondern auch hörbar gewesen wäre.","0","1","0","null","","","<div class = 'row'><div class = 'column'><img src = 'usneg/9280.bmp' width = '100%;'></div><div class = 'column'><img src = 'category4/CS8.png' width = '70%;'></div></div>","null","neg","CS","CS","4","category4/CS8.png","","","","",""
"","html-keyboard-response","22","451901","0.0-6.0-0.0-0.16","6q8ehgwt7z","many_one","0","direct_first","1","er06rl21","1","18","1","1","3","1","Ich hätte es hilfreich gefunden, wenn die Aussprache der Silben nicht nur sichtbar, sondern auch hörbar gewesen wäre.","0","1","0","null","","","<div class = 'row'><div class = 'column'><img src = 'uspos/8350.bmp' width = '100%;'></div><div class = 'column'><img src = 'category1/CS8.png' width = '70%;'></div></div>","null","pos","CS","CS","1","category1/CS8.png","","","","",""
"","html-keyboard-response","23","454412","0.0-6.0-0.0-0.17","6q8ehgwt7z","many_one","0","direct_first","1","er06rl21","1","18","1","1","3","1","Ich hätte es hilfreich gefunden, wenn die Aussprache der Silben nicht nur sichtbar, sondern auch hörbar gewesen wäre.","0","1","0","null","","","<div class = 'row'><div class = 'column'><img src = 'uspos/8540.bmp' width = '100%;'></div><div class = 'column'><img src = 'category1/CS10.png' width = '70%;'></div></div>","null","pos","CS","CS","1","category1/CS10.png","","","","",""
"","html-keyboard-response","24","456923","0.0-6.0-0.0-0.18","6q8ehgwt7z","many_one","0","direct_first","1","er06rl21","1","18","1","1","3","1","Ich hätte es hilfreich gefunden, wenn die Aussprache der Silben nicht nur sichtbar, sondern auch hörbar gewesen wäre.","0","1","0","null","","","<div class = 'row'><div class = 'column'><img src = 'category2/CS3.png' width = '70%;'></div><div class = 'column'><img src = 'uspos/5831.bmp' width = '100%;'></div></div>","null","pos","CS","CS","2","category2/CS3.png","","","","",""
"","html-keyboard-response","25","459447","0.0-6.0-0.0-0.19","6q8ehgwt7z","many_one","0","direct_first","1","er06rl21","1","18","1","1","3","1","Ich hätte es hilfreich gefunden, wenn die Aussprache der Silben nicht nur sichtbar, sondern auch hörbar gewesen wäre.","0","1","0","null","","","<div class = 'row'><div class = 'column'><img src = 'category2/CS8.png' width = '70%;'></div><div class = 'column'><img src = 'uspos/2900.2.bmp' width = '100%;'></div></div>","null","pos","CS","CS","2","category2/CS8.png","","","","",""
"","survey-html-form","26","527689","0.0-6.0-1.0","6q8ehgwt7z","many_one","0","direct_first","1","er06rl21","1","18","1","1","3","1","Ich hätte es hilfreich gefunden, wenn die Aussprache der Silben nicht nur sichtbar, sondern auch hörbar gewesen wäre.","0","1","0","67729","","{}","","","","","","","","","","","",""
"","html-keyboard-response","27","531717","0.0-6.0-2.0-0.0","6q8ehgwt7z","many_one","0","direct_first","1","er06rl21","1","18","1","1","3","1","Ich hätte es hilfreich gefunden, wenn die Aussprache der Silben nicht nur sichtbar, sondern auch hörbar gewesen wäre.","0","1","0","null","","","<div class = 'row'><div class = 'column'><img src = 'usneg/9635.2.bmp' width = '100%;'></div><div class = 'column'><img src = 'category3/CS9.png' width = '70%;'></div></div>","null","neg","CS","CS","3","category3/CS9.png","","","","",""
"","html-keyboard-response","28","534240","0.0-6.0-2.0-0.1","6q8ehgwt7z","many_one","0","direct_first","1","er06rl21","1","18","1","1","3","1","Ich hätte es hilfreich gefunden, wenn die Aussprache der Silben nicht nur sichtbar, sondern auch hörbar gewesen wäre.","0","1","0","null","","","<div class = 'row'><div class = 'column'><img src = 'category1/CS7.png' width = '70%;'></div><div class = 'column'><img src = 'uspos/2030.bmp' width = '100%;'></div></div>","null","pos","CS","CS","1","category1/CS7.png","","","","",""
"","html-keyboard-response","29","536752","0.0-6.0-2.0-0.2","6q8ehgwt7z","many_one","0","direct_first","1","er06rl21","1","18","1","1","3","1","Ich hätte es hilfreich gefunden, wenn die Aussprache der Silben nicht nur sichtbar, sondern auch hörbar gewesen wäre.","0","1","0","null","","","<div class = 'row'><div class = 'column'><img src = 'category2/CS10.png' width = '70%;'></div><div class = 'column'><img src = 'uspos/1460.bmp' width = '100%;'></div></div>","null","pos","CS","CS","2","category2/CS10.png","","","","",""
"","html-keyboard-response","30","539261","0.0-6.0-2.0-0.3","6q8ehgwt7z","many_one","0","direct_first","1","er06rl21","1","18","1","1","3","1","Ich hätte es hilfreich gefunden, wenn die Aussprache der Silben nicht nur sichtbar, sondern auch hörbar gewesen wäre.","0","1","0","null","","","<div class = 'row'><div class = 'column'><img src = 'category4/CS9.png' width = '70%;'></div><div class = 'column'><img src = 'usneg/9520.bmp' width = '100%;'></div></div>","null","neg","CS","CS","4","category4/CS9.png","","","","",""
"","html-keyboard-response","31","541783","0.0-6.0-2.0-0.4","6q8ehgwt7z","many_one","0","direct_first","1","er06rl21","1","18","1","1","3","1","Ich hätte es hilfreich gefunden, wenn die Aussprache der Silben nicht nur sichtbar, sondern auch hörbar gewesen wäre.","0","1","0","null","","","<div class = 'row'><div class = 'column'><img src = 'category1/CS10.png' width = '70%;'></div><div class = 'column'><img src = 'uspos/8540.bmp' width = '100%;'></div></div>","null","pos","CS","CS","1","category1/CS10.png","","","","",""
"","html-keyboard-response","32","544290","0.0-6.0-2.0-0.5","6q8ehgwt7z","many_one","0","direct_first","1","er06rl21","1","18","1","1","3","1","Ich hätte es hilfreich gefunden, wenn die Aussprache der Silben nicht nur sichtbar, sondern auch hörbar gewesen wäre.","0","1","0","null","","","<div class = 'row'><div class = 'column'><img src = 'category2/CS8.png' width = '70%;'></div><div class = 'column'><img src = 'uspos/2900.2.bmp' width = '100%;'></div></div>","null","pos","CS","CS","2","category2/CS8.png","","","","",""
"","html-keyboard-response","33","546802","0.0-6.0-2.0-0.6","6q8ehgwt7z","many_one","0","direct_first","1","er06rl21","1","18","1","1","3","1","Ich hätte es hilfreich gefunden, wenn die Aussprache der Silben nicht nur sichtbar, sondern auch hörbar gewesen wäre.","0","1","0","null","","","<div class = 'row'><div class = 'column'><img src = 'usneg/9280.bmp' width = '100%;'></div><div class = 'column'><img src = 'category4/CS8.png' width = '70%;'></div></div>","null","neg","CS","CS","4","category4/CS8.png","","","","",""
"","html-keyboard-response","34","549317","0.0-6.0-2.0-0.7","6q8ehgwt7z","many_one","0","direct_first","1","er06rl21","1","18","1","1","3","1","Ich hätte es hilfreich gefunden, wenn die Aussprache der Silben nicht nur sichtbar, sondern auch hörbar gewesen wäre.","0","1","0","null","","","<div class = 'row'><div class = 'column'><img src = 'uspos/5831.bmp' width = '100%;'></div><div class = 'column'><img src = 'category2/CS3.png' width = '70%;'></div></div>","null","pos","CS","CS","2","category2/CS3.png","","","","",""
"","html-keyboard-response","35","551830","0.0-6.0-2.0-0.8","6q8ehgwt7z","many_one","0","direct_first","1","er06rl21","1","18","1","1","3","1","Ich hätte es hilfreich gefunden, wenn die Aussprache der Silben nicht nur sichtbar, sondern auch hörbar gewesen wäre.","0","1","0","null","","","<div class = 'row'><div class = 'column'><img src = 'category2/CS1.png' width = '70%;'></div><div class = 'column'><img src = 'uspos/2160.bmp' width = '100%;'></div></div>","null","pos","CS","CS","2","category2/CS1.png","","","","",""
"","html-keyboard-response","36","554350","0.0-6.0-2.0-0.9","6q8ehgwt7z","many_one","0","direct_first","1","er06rl21","1","18","1","1","3","1","Ich hätte es hilfreich gefunden, wenn die Aussprache der Silben nicht nur sichtbar, sondern auch hörbar gewesen wäre.","0","1","0","null","","","<div class = 'row'><div class = 'column'><img src = 'uspos/8461.bmp' width = '100%;'></div><div class = 'column'><img src = 'category1/CS6.png' width = '70%;'></div></div>","null","pos","CS","CS","1","category1/CS6.png","","","","",""
"","html-keyboard-response","37","556859","0.0-6.0-2.0-0.10","6q8ehgwt7z","many_one","0","direct_first","1","er06rl21","1","18","1","1","3","1","Ich hätte es hilfreich gefunden, wenn die Aussprache der Silben nicht nur sichtbar, sondern auch hörbar gewesen wäre.","0","1","0","null","","","<div class = 'row'><div class = 'column'><img src = 'uspos/8490.bmp' width = '100%;'></div><div class = 'column'><img src = 'category2/CS7.png' width = '70%;'></div></div>","null","pos","CS","CS","2","category2/CS7.png","","","","",""
"","html-keyboard-response","38","559379","0.0-6.0-2.0-0.11","6q8ehgwt7z","many_one","0","direct_first","1","er06rl21","1","18","1","1","3","1","Ich hätte es hilfreich gefunden, wenn die Aussprache der Silben nicht nur sichtbar, sondern auch hörbar gewesen wäre.","0","1","0","null","","","<div class = 'row'><div class = 'column'><img src = 'uspos/1463.bmp' width = '100%;'></div><div class = 'column'><img src = 'category1/CS4.png' width = '70%;'></div></div>","null","pos","CS","CS","1","category1/CS4.png","","","","",""
"","html-keyboard-response","39","561902","0.0-6.0-2.0-0.12","6q8ehgwt7z","many_one","0","direct_first","1","er06rl21","1","18","1","1","3","1","Ich hätte es hilfreich gefunden, wenn die Aussprache der Silben nicht nur sichtbar, sondern auch hörbar gewesen wäre.","0","1","0","null","","","<div class = 'row'><div class = 'column'><img src = 'usneg/9330.bmp' width = '100%;'></div><div class = 'column'><img src = 'category3/CS5.png' width = '70%;'></div></div>","null","neg","CS","CS","3","category3/CS5.png","","","","",""
"","html-keyboard-response","40","564414","0.0-6.0-2.0-0.13","6q8ehgwt7z","many_one","0","direct_first","1","er06rl21","1","18","1","1","3","1","Ich hätte es hilfreich gefunden, wenn die Aussprache der Silben nicht nur sichtbar, sondern auch hörbar gewesen wäre.","0","1","0","null","","","<div class = 'row'><div class = 'column'><img src = 'category1/CS8.png' width = '70%;'></div><div class = 'column'><img src = 'uspos/8350.bmp' width = '100%;'></div></div>","null","pos","CS","CS","1","category1/CS8.png","","","","",""
"","html-keyboard-response","41","566928","0.0-6.0-2.0-0.14","6q8ehgwt7z","many_one","0","direct_first","1","er06rl21","1","18","1","1","3","1","Ich hätte es hilfreich gefunden, wenn die Aussprache der Silben nicht nur sichtbar, sondern auch hörbar gewesen wäre.","0","1","0","null","","","<div class = 'row'><div class = 'column'><img src = 'category3/CS8.png' width = '70%;'></div><div class = 'column'><img src = 'usneg/6020.bmp' width = '100%;'></div></div>","null","neg","CS","CS","3","category3/CS8.png","","","","",""
"","html-keyboard-response","42","569454","0.0-6.0-2.0-0.15","6q8ehgwt7z","many_one","0","direct_first","1","er06rl21","1","18","1","1","3","1","Ich hätte es hilfreich gefunden, wenn die Aussprache der Silben nicht nur sichtbar, sondern auch hörbar gewesen wäre.","0","1","0","null","","","<div class = 'row'><div class = 'column'><img src = 'category4/CS10.png' width = '70%;'></div><div class = 'column'><img src = 'usneg/6570.1.bmp' width = '100%;'></div></div>","null","neg","CS","CS","4","category4/CS10.png","","","","",""
"","html-keyboard-response","43","571965","0.0-6.0-2.0-0.16","6q8ehgwt7z","many_one","0","direct_first","1","er06rl21","1","18","1","1","3","1","Ich hätte es hilfreich gefunden, wenn die Aussprache der Silben nicht nur sichtbar, sondern auch hörbar gewesen wäre.","0","1","0","null","","","<div class = 'row'><div class = 'column'><img src = 'usneg/9041.bmp' width = '100%;'></div><div class = 'column'><img src = 'category4/CS5.png' width = '70%;'></div></div>","null","neg","CS","CS","4","category4/CS5.png","","","","",""
"","html-keyboard-response","44","574470","0.0-6.0-2.0-0.17","6q8ehgwt7z","many_one","0","direct_first","1","er06rl21","1","18","1","1","3","1","Ich hätte es hilfreich gefunden, wenn die Aussprache der Silben nicht nur sichtbar, sondern auch hörbar gewesen wäre.","0","1","0","null","","","<div class = 'row'><div class = 'column'><img src = 'category4/CS6.png' width = '70%;'></div><div class = 'column'><img src = 'usneg/9180.bmp' width = '100%;'></div></div>","null","neg","CS","CS","4","category4/CS6.png","","","","",""
"","html-keyboard-response","45","576977","0.0-6.0-2.0-0.18","6q8ehgwt7z","many_one","0","direct_first","1","er06rl21","1","18","1","1","3","1","Ich hätte es hilfreich gefunden, wenn die Aussprache der Silben nicht nur sichtbar, sondern auch hörbar gewesen wäre.","0","1","0","null","","","<div class = 'row'><div class = 'column'><img src = 'category3/CS6.png' width = '70%;'></div><div class = 'column'><img src = 'usneg/9342.bmp' width = '100%;'></div></div>","null","neg","CS","CS","3","category3/CS6.png","","","","",""
"","html-keyboard-response","46","579484","0.0-6.0-2.0-0.19","6q8ehgwt7z","many_one","0","direct_first","1","er06rl21","1","18","1","1","3","1","Ich hätte es hilfreich gefunden, wenn die Aussprache der Silben nicht nur sichtbar, sondern auch hörbar gewesen wäre.","0","1","0","null","","","<div class = 'row'><div class = 'column'><img src = 'category3/CS10.png' width = '70%;'></div><div class = 'column'><img src = 'usneg/9050.bmp' width = '100%;'></div></div>","null","neg","CS","CS","3","category3/CS10.png","","","","",""
"","survey-html-form","47","589944","0.0-6.0-3.0","6q8ehgwt7z","many_one","0","direct_first","1","er06rl21","1","18","1","1","3","1","Ich hätte es hilfreich gefunden, wenn die Aussprache der Silben nicht nur sichtbar, sondern auch hörbar gewesen wäre.","0","1","0","9956","","{}","","","","","","","","","","","",""
"","html-keyboard-response","48","593954","0.0-6.0-4.0-0.0","6q8ehgwt7z","many_one","0","direct_first","1","er06rl21","1","18","1","1","3","1","Ich hätte es hilfreich gefunden, wenn die Aussprache der Silben nicht nur sichtbar, sondern auch hörbar gewesen wäre.","0","1","0","null","","","<div class = 'row'><div class = 'column'><img src = 'category2/CS8.png' width = '70%;'></div><div class = 'column'><img src = 'uspos/2900.2.bmp' width = '100%;'></div></div>","null","pos","CS","CS","2","category2/CS8.png","","","","",""
"","html-keyboard-response","49","596464","0.0-6.0-4.0-0.1","6q8ehgwt7z","many_one","0","direct_first","1","er06rl21","1","18","1","1","3","1","Ich hätte es hilfreich gefunden, wenn die Aussprache der Silben nicht nur sichtbar, sondern auch hörbar gewesen wäre.","0","1","0","null","","","<div class = 'row'><div class = 'column'><img src = 'uspos/8490.bmp' width = '100%;'></div><div class = 'column'><img src = 'category2/CS7.png' width = '70%;'></div></div>","null","pos","CS","CS","2","category2/CS7.png","","","","",""
"","html-keyboard-response","50","598988","0.0-6.0-4.0-0.2","6q8ehgwt7z","many_one","0","direct_first","1","er06rl21","1","18","1","1","3","1","Ich hätte es hilfreich gefunden, wenn die Aussprache der Silben nicht nur sichtbar, sondern auch hörbar gewesen wäre.","0","1","0","null","","","<div class = 'row'><div class = 'column'><img src = 'category1/CS6.png' width = '70%;'></div><div class = 'column'><img src = 'uspos/8461.bmp' width = '100%;'></div></div>","null","pos","CS","CS","1","category1/CS6.png","","","","",""
"","html-keyboard-response","51","601507","0.0-6.0-4.0-0.3","6q8ehgwt7z","many_one","0","direct_first","1","er06rl21","1","18","1","1","3","1","Ich hätte es hilfreich gefunden, wenn die Aussprache der Silben nicht nur sichtbar, sondern auch hörbar gewesen wäre.","0","1","0","null","","","<div class = 'row'><div class = 'column'><img src = 'usneg/9050.bmp' width = '100%;'></div><div class = 'column'><img src = 'category3/CS10.png' width = '70%;'></div></div>","null","neg","CS","CS","3","category3/CS10.png","","","","",""
"","html-keyboard-response","52","604024","0.0-6.0-4.0-0.4","6q8ehgwt7z","many_one","0","direct_first","1","er06rl21","1","18","1","1","3","1","Ich hätte es hilfreich gefunden, wenn die Aussprache der Silben nicht nur sichtbar, sondern auch hörbar gewesen wäre.","0","1","0","null","","","<div class = 'row'><div class = 'column'><img src = 'usneg/6570.1.bmp' width = '100%;'></div><div class = 'column'><img src = 'category4/CS10.png' width = '70%;'></div></div>","null","neg","CS","CS","4","category4/CS10.png","","","","",""
"","html-keyboard-response","53","606544","0.0-6.0-4.0-0.5","6q8ehgwt7z","many_one","0","direct_first","1","er06rl21","1","18","1","1","3","1","Ich hätte es hilfreich gefunden, wenn die Aussprache der Silben nicht nur sichtbar, sondern auch hörbar gewesen wäre.","0","1","0","null","","","<div class = 'row'><div class = 'column'><img src = 'usneg/9041.bmp' width = '100%;'></div><div class = 'column'><img src = 'category4/CS5.png' width = '70%;'></div></div>","null","neg","CS","CS","4","category4/CS5.png","","","","",""
"","html-keyboard-response","54","609050","0.0-6.0-4.0-0.6","6q8ehgwt7z","many_one","0","direct_first","1","er06rl21","1","18","1","1","3","1","Ich hätte es hilfreich gefunden, wenn die Aussprache der Silben nicht nur sichtbar, sondern auch hörbar gewesen wäre.","0","1","0","null","","","<div class = 'row'><div class = 'column'><img src = 'category2/CS1.png' width = '70%;'></div><div class = 'column'><img src = 'uspos/2160.bmp' width = '100%;'></div></div>","null","pos","CS","CS","2","category2/CS1.png","","","","",""
"","html-keyboard-response","55","611573","0.0-6.0-4.0-0.7","6q8ehgwt7z","many_one","0","direct_first","1","er06rl21","1","18","1","1","3","1","Ich hätte es hilfreich gefunden, wenn die Aussprache der Silben nicht nur sichtbar, sondern auch hörbar gewesen wäre.","0","1","0","null","","","<div class = 'row'><div class = 'column'><img src = 'usneg/9330.bmp' width = '100%;'></div><div class = 'column'><img src = 'category3/CS5.png' width = '70%;'></div></div>","null","neg","CS","CS","3","category3/CS5.png","","","","",""
"","html-keyboard-response","56","614093","0.0-6.0-4.0-0.8","6q8ehgwt7z","many_one","0","direct_first","1","er06rl21","1","18","1","1","3","1","Ich hätte es hilfreich gefunden, wenn die Aussprache der Silben nicht nur sichtbar, sondern auch hörbar gewesen wäre.","0","1","0","null","","","<div class = 'row'><div class = 'column'><img src = 'category3/CS9.png' width = '70%;'></div><div class = 'column'><img src = 'usneg/9635.2.bmp' width = '100%;'></div></div>","null","neg","CS","CS","3","category3/CS9.png","","","","",""
"","html-keyboard-response","57","616610","0.0-6.0-4.0-0.9","6q8ehgwt7z","many_one","0","direct_first","1","er06rl21","1","18","1","1","3","1","Ich hätte es hilfreich gefunden, wenn die Aussprache der Silben nicht nur sichtbar, sondern auch hörbar gewesen wäre.","0","1","0","null","","","<div class = 'row'><div class = 'column'><img src = 'category2/CS3.png' width = '70%;'></div><div class = 'column'><img src = 'uspos/5831.bmp' width = '100%;'></div></div>","null","pos","CS","CS","2","category2/CS3.png","","","","",""
"","html-keyboard-response","58","619126","0.0-6.0-4.0-0.10","6q8ehgwt7z","many_one","0","direct_first","1","er06rl21","1","18","1","1","3","1","Ich hätte es hilfreich gefunden, wenn die Aussprache der Silben nicht nur sichtbar, sondern auch hörbar gewesen wäre.","0","1","0","null","","","<div class = 'row'><div class = 'column'><img src = 'uspos/1460.bmp' width = '100%;'></div><div class = 'column'><img src = 'category2/CS10.png' width = '70%;'></div></div>","null","pos","CS","CS","2","category2/CS10.png","","","","",""
"","html-keyboard-response","59","621632","0.0-6.0-4.0-0.11","6q8ehgwt7z","many_one","0","direct_first","1","er06rl21","1","18","1","1","3","1","Ich hätte es hilfreich gefunden, wenn die Aussprache der Silben nicht nur sichtbar, sondern auch hörbar gewesen wäre.","0","1","0","null","","","<div class = 'row'><div class = 'column'><img src = 'usneg/6020.bmp' width = '100%;'></div><div class = 'column'><img src = 'category3/CS8.png' width = '70%;'></div></div>","null","neg","CS","CS","3","category3/CS8.png","","","","",""
"","html-keyboard-response","60","624142","0.0-6.0-4.0-0.12","6q8ehgwt7z","many_one","0","direct_first","1","er06rl21","1","18","1","1","3","1","Ich hätte es hilfreich gefunden, wenn die Aussprache der Silben nicht nur sichtbar, sondern auch hörbar gewesen wäre.","0","1","0","null","","","<div class = 'row'><div class = 'column'><img src = 'usneg/9520.bmp' width = '100%;'></div><div class = 'column'><img src = 'category4/CS9.png' width = '70%;'></div></div>","null","neg","CS","CS","4","category4/CS9.png","","","","",""
"","html-keyboard-response","61","626657","0.0-6.0-4.0-0.13","6q8ehgwt7z","many_one","0","direct_first","1","er06rl21","1","18","1","1","3","1","Ich hätte es hilfreich gefunden, wenn die Aussprache der Silben nicht nur sichtbar, sondern auch hörbar gewesen wäre.","0","1","0","null","","","<div class = 'row'><div class = 'column'><img src = 'category1/CS10.png' width = '70%;'></div><div class = 'column'><img src = 'uspos/8540.bmp' width = '100%;'></div></div>","null","pos","CS","CS","1","category1/CS10.png","","","","",""
"","html-keyboard-response","62","629172","0.0-6.0-4.0-0.14","6q8ehgwt7z","many_one","0","direct_first","1","er06rl21","1","18","1","1","3","1","Ich hätte es hilfreich gefunden, wenn die Aussprache der Silben nicht nur sichtbar, sondern auch hörbar gewesen wäre.","0","1","0","null","","","<div class = 'row'><div class = 'column'><img src = 'category3/CS6.png' width = '70%;'></div><div class = 'column'><img src = 'usneg/9342.bmp' width = '100%;'></div></div>","null","neg","CS","CS","3","category3/CS6.png","","","","",""
"","html-keyboard-response","63","631700","0.0-6.0-4.0-0.15","6q8ehgwt7z","many_one","0","direct_first","1","er06rl21","1","18","1","1","3","1","Ich hätte es hilfreich gefunden, wenn die Aussprache der Silben nicht nur sichtbar, sondern auch hörbar gewesen wäre.","0","1","0","null","","","<div class = 'row'><div class = 'column'><img src = 'uspos/1463.bmp' width = '100%;'></div><div class = 'column'><img src = 'category1/CS4.png' width = '70%;'></div></div>","null","pos","CS","CS","1","category1/CS4.png","","","","",""
"","html-keyboard-response","64","634209","0.0-6.0-4.0-0.16","6q8ehgwt7z","many_one","0","direct_first","1","er06rl21","1","18","1","1","3","1","Ich hätte es hilfreich gefunden, wenn die Aussprache der Silben nicht nur sichtbar, sondern auch hörbar gewesen wäre.","0","1","0","null","","","<div class = 'row'><div class = 'column'><img src = 'category4/CS6.png' width = '70%;'></div><div class = 'column'><img src = 'usneg/9180.bmp' width = '100%;'></div></div>","null","neg","CS","CS","4","category4/CS6.png","","","","",""
"","html-keyboard-response","65","636732","0.0-6.0-4.0-0.17","6q8ehgwt7z","many_one","0","direct_first","1","er06rl21","1","18","1","1","3","1","Ich hätte es hilfreich gefunden, wenn die Aussprache der Silben nicht nur sichtbar, sondern auch hörbar gewesen wäre.","0","1","0","null","","","<div class = 'row'><div class = 'column'><img src = 'uspos/8350.bmp' width = '100%;'></div><div class = 'column'><img src = 'category1/CS8.png' width = '70%;'></div></div>","null","pos","CS","CS","1","category1/CS8.png","","","","",""
"","html-keyboard-response","66","639246","0.0-6.0-4.0-0.18","6q8ehgwt7z","many_one","0","direct_first","1","er06rl21","1","18","1","1","3","1","Ich hätte es hilfreich gefunden, wenn die Aussprache der Silben nicht nur sichtbar, sondern auch hörbar gewesen wäre.","0","1","0","null","","","<div class = 'row'><div class = 'column'><img src = 'category1/CS7.png' width = '70%;'></div><div class = 'column'><img src = 'uspos/2030.bmp' width = '100%;'></div></div>","null","pos","CS","CS","1","category1/CS7.png","","","","",""
"","html-keyboard-response","67","641762","0.0-6.0-4.0-0.19","6q8ehgwt7z","many_one","0","direct_first","1","er06rl21","1","18","1","1","3","1","Ich hätte es hilfreich gefunden, wenn die Aussprache der Silben nicht nur sichtbar, sondern auch hörbar gewesen wäre.","0","1","0","null","","","<div class = 'row'><div class = 'column'><img src = 'category4/CS8.png' width = '70%;'></div><div class = 'column'><img src = 'usneg/9280.bmp' width = '100%;'></div></div>","null","neg","CS","CS","4","category4/CS8.png","","","","",""
"","survey-html-form","68","660873","0.0-6.0-5.0","6q8ehgwt7z","many_one","0","direct_first","1","er06rl21","1","18","1","1","3","1","Ich hätte es hilfreich gefunden, wenn die Aussprache der Silben nicht nur sichtbar, sondern auch hörbar gewesen wäre.","0","1","0","18600","","{}","","","","","","","","","","","",""
"","html-keyboard-response","69","664881","0.0-6.0-6.0-0.0","6q8ehgwt7z","many_one","0","direct_first","1","er06rl21","1","18","1","1","3","1","Ich hätte es hilfreich gefunden, wenn die Aussprache der Silben nicht nur sichtbar, sondern auch hörbar gewesen wäre.","0","1","0","null","","","<div class = 'row'><div class = 'column'><img src = 'usneg/9635.2.bmp' width = '100%;'></div><div class = 'column'><img src = 'category3/CS9.png' width = '70%;'></div></div>","null","neg","CS","CS","3","category3/CS9.png","","","","",""
"","html-keyboard-response","70","667402","0.0-6.0-6.0-0.1","6q8ehgwt7z","many_one","0","direct_first","1","er06rl21","1","18","1","1","3","1","Ich hätte es hilfreich gefunden, wenn die Aussprache der Silben nicht nur sichtbar, sondern auch hörbar gewesen wäre.","0","1","0","null","","","<div class = 'row'><div class = 'column'><img src = 'usneg/6020.bmp' width = '100%;'></div><div class = 'column'><img src = 'category3/CS8.png' width = '70%;'></div></div>","null","neg","CS","CS","3","category3/CS8.png","","","","",""
"","html-keyboard-response","71","669922","0.0-6.0-6.0-0.2","6q8ehgwt7z","many_one","0","direct_first","1","er06rl21","1","18","1","1","3","1","Ich hätte es hilfreich gefunden, wenn die Aussprache der Silben nicht nur sichtbar, sondern auch hörbar gewesen wäre.","0","1","0","null","","","<div class = 'row'><div class = 'column'><img src = 'category1/CS4.png' width = '70%;'></div><div class = 'column'><img src = 'uspos/1463.bmp' width = '100%;'></div></div>","null","pos","CS","CS","1","category1/CS4.png","","","","",""
"","html-keyboard-response","72","672441","0.0-6.0-6.0-0.3","6q8ehgwt7z","many_one","0","direct_first","1","er06rl21","1","18","1","1","3","1","Ich hätte es hilfreich gefunden, wenn die Aussprache der Silben nicht nur sichtbar, sondern auch hörbar gewesen wäre.","0","1","0","null","","","<div class = 'row'><div class = 'column'><img src = 'category2/CS3.png' width = '70%;'></div><div class = 'column'><img src = 'uspos/5831.bmp' width = '100%;'></div></div>","null","pos","CS","CS","2","category2/CS3.png","","","","",""
"","html-keyboard-response","73","674943","0.0-6.0-6.0-0.4","6q8ehgwt7z","many_one","0","direct_first","1","er06rl21","1","18","1","1","3","1","Ich hätte es hilfreich gefunden, wenn die Aussprache der Silben nicht nur sichtbar, sondern auch hörbar gewesen wäre.","0","1","0","null","","","<div class = 'row'><div class = 'column'><img src = 'category2/CS8.png' width = '70%;'></div><div class = 'column'><img src = 'uspos/2900.2.bmp' width = '100%;'></div></div>","null","pos","CS","CS","2","category2/CS8.png","","","","",""
"","html-keyboard-response","74","677465","0.0-6.0-6.0-0.5","6q8ehgwt7z","many_one","0","direct_first","1","er06rl21","1","18","1","1","3","1","Ich hätte es hilfreich gefunden, wenn die Aussprache der Silben nicht nur sichtbar, sondern auch hörbar gewesen wäre.","0","1","0","null","","","<div class = 'row'><div class = 'column'><img src = 'usneg/9330.bmp' width = '100%;'></div><div class = 'column'><img src = 'category3/CS5.png' width = '70%;'></div></div>","null","neg","CS","CS","3","category3/CS5.png","","","","",""
"","html-keyboard-response","75","679986","0.0-6.0-6.0-0.6","6q8ehgwt7z","many_one","0","direct_first","1","er06rl21","1","18","1","1","3","1","Ich hätte es hilfreich gefunden, wenn die Aussprache der Silben nicht nur sichtbar, sondern auch hörbar gewesen wäre.","0","1","0","null","","","<div class = 'row'><div class = 'column'><img src = 'category3/CS10.png' width = '70%;'></div><div class = 'column'><img src = 'usneg/9050.bmp' width = '100%;'></div></div>","null","neg","CS","CS","3","category3/CS10.png","","","","",""
"","html-keyboard-response","76","682504","0.0-6.0-6.0-0.7","6q8ehgwt7z","many_one","0","direct_first","1","er06rl21","1","18","1","1","3","1","Ich hätte es hilfreich gefunden, wenn die Aussprache der Silben nicht nur sichtbar, sondern auch hörbar gewesen wäre.","0","1","0","null","","","<div class = 'row'><div class = 'column'><img src = 'category1/CS10.png' width = '70%;'></div><div class = 'column'><img src = 'uspos/8540.bmp' width = '100%;'></div></div>","null","pos","CS","CS","1","category1/CS10.png","","","","",""
"","html-keyboard-response","77","685012","0.0-6.0-6.0-0.8","6q8ehgwt7z","many_one","0","direct_first","1","er06rl21","1","18","1","1","3","1","Ich hätte es hilfreich gefunden, wenn die Aussprache der Silben nicht nur sichtbar, sondern auch hörbar gewesen wäre.","0","1","0","null","","","<div class = 'row'><div class = 'column'><img src = 'uspos/2030.bmp' width = '100%;'></div><div class = 'column'><img src = 'category1/CS7.png' width = '70%;'></div></div>","null","pos","CS","CS","1","category1/CS7.png","","","","",""
"","html-keyboard-response","78","687534","0.0-6.0-6.0-0.9","6q8ehgwt7z","many_one","0","direct_first","1","er06rl21","1","18","1","1","3","1","Ich hätte es hilfreich gefunden, wenn die Aussprache der Silben nicht nur sichtbar, sondern auch hörbar gewesen wäre.","0","1","0","null","","","<div class = 'row'><div class = 'column'><img src = 'category4/CS8.png' width = '70%;'></div><div class = 'column'><img src = 'usneg/9280.bmp' width = '100%;'></div></div>","null","neg","CS","CS","4","category4/CS8.png","","","","",""
"","html-keyboard-response","79","690039","0.0-6.0-6.0-0.10","6q8ehgwt7z","many_one","0","direct_first","1","er06rl21","1","18","1","1","3","1","Ich hätte es hilfreich gefunden, wenn die Aussprache der Silben nicht nur sichtbar, sondern auch hörbar gewesen wäre.","0","1","0","null","","","<div class = 'row'><div class = 'column'><img src = 'usneg/9041.bmp' width = '100%;'></div><div class = 'column'><img src = 'category4/CS5.png' width = '70%;'></div></div>","null","neg","CS","CS","4","category4/CS5.png","","","","",""
"","html-keyboard-response","80","692557","0.0-6.0-6.0-0.11","6q8ehgwt7z","many_one","0","direct_first","1","er06rl21","1","18","1","1","3","1","Ich hätte es hilfreich gefunden, wenn die Aussprache der Silben nicht nur sichtbar, sondern auch hörbar gewesen wäre.","0","1","0","null","","","<div class = 'row'><div class = 'column'><img src = 'category2/CS7.png' width = '70%;'></div><div class = 'column'><img src = 'uspos/8490.bmp' width = '100%;'></div></div>","null","pos","CS","CS","2","category2/CS7.png","","","","",""
"","html-keyboard-response","81","695077","0.0-6.0-6.0-0.12","6q8ehgwt7z","many_one","0","direct_first","1","er06rl21","1","18","1","1","3","1","Ich hätte es hilfreich gefunden, wenn die Aussprache der Silben nicht nur sichtbar, sondern auch hörbar gewesen wäre.","0","1","0","null","","","<div class = 'row'><div class = 'column'><img src = 'uspos/8461.bmp' width = '100%;'></div><div class = 'column'><img src = 'category1/CS6.png' width = '70%;'></div></div>","null","pos","CS","CS","1","category1/CS6.png","","","","",""
"","html-keyboard-response","82","697601","0.0-6.0-6.0-0.13","6q8ehgwt7z","many_one","0","direct_first","1","er06rl21","1","18","1","1","3","1","Ich hätte es hilfreich gefunden, wenn die Aussprache der Silben nicht nur sichtbar, sondern auch hörbar gewesen wäre.","0","1","0","null","","","<div class = 'row'><div class = 'column'><img src = 'uspos/2160.bmp' width = '100%;'></div><div class = 'column'><img src = 'category2/CS1.png' width = '70%;'></div></div>","null","pos","CS","CS","2","category2/CS1.png","","","","",""
"","html-keyboard-response","83","700109","0.0-6.0-6.0-0.14","6q8ehgwt7z","many_one","0","direct_first","1","er06rl21","1","18","1","1","3","1","Ich hätte es hilfreich gefunden, wenn die Aussprache der Silben nicht nur sichtbar, sondern auch hörbar gewesen wäre.","0","1","0","null","","","<div class = 'row'><div class = 'column'><img src = 'category4/CS9.png' width = '70%;'></div><div class = 'column'><img src = 'usneg/9520.bmp' width = '100%;'></div></div>","null","neg","CS","CS","4","category4/CS9.png","","","","",""
"","html-keyboard-response","84","702615","0.0-6.0-6.0-0.15","6q8ehgwt7z","many_one","0","direct_first","1","er06rl21","1","18","1","1","3","1","Ich hätte es hilfreich gefunden, wenn die Aussprache der Silben nicht nur sichtbar, sondern auch hörbar gewesen wäre.","0","1","0","null","","","<div class = 'row'><div class = 'column'><img src = 'category4/CS10.png' width = '70%;'></div><div class = 'column'><img src = 'usneg/6570.1.bmp' width = '100%;'></div></div>","null","neg","CS","CS","4","category4/CS10.png","","","","",""
"","html-keyboard-response","85","705128","0.0-6.0-6.0-0.16","6q8ehgwt7z","many_one","0","direct_first","1","er06rl21","1","18","1","1","3","1","Ich hätte es hilfreich gefunden, wenn die Aussprache der Silben nicht nur sichtbar, sondern auch hörbar gewesen wäre.","0","1","0","null","","","<div class = 'row'><div class = 'column'><img src = 'usneg/9342.bmp' width = '100%;'></div><div class = 'column'><img src = 'category3/CS6.png' width = '70%;'></div></div>","null","neg","CS","CS","3","category3/CS6.png","","","","",""
"","html-keyboard-response","86","707652","0.0-6.0-6.0-0.17","6q8ehgwt7z","many_one","0","direct_first","1","er06rl21","1","18","1","1","3","1","Ich hätte es hilfreich gefunden, wenn die Aussprache der Silben nicht nur sichtbar, sondern auch hörbar gewesen wäre.","0","1","0","null","","","<div class = 'row'><div class = 'column'><img src = 'usneg/9180.bmp' width = '100%;'></div><div class = 'column'><img src = 'category4/CS6.png' width = '70%;'></div></div>","null","neg","CS","CS","4","category4/CS6.png","","","","",""
"","html-keyboard-response","87","710174","0.0-6.0-6.0-0.18","6q8ehgwt7z","many_one","0","direct_first","1","er06rl21","1","18","1","1","3","1","Ich hätte es hilfreich gefunden, wenn die Aussprache der Silben nicht nur sichtbar, sondern auch hörbar gewesen wäre.","0","1","0","null","","","<div class = 'row'><div class = 'column'><img src = 'uspos/1460.bmp' width = '100%;'></div><div class = 'column'><img src = 'category2/CS10.png' width = '70%;'></div></div>","null","pos","CS","CS","2","category2/CS10.png","","","","",""
"","html-keyboard-response","88","712681","0.0-6.0-6.0-0.19","6q8ehgwt7z","many_one","0","direct_first","1","er06rl21","1","18","1","1","3","1","Ich hätte es hilfreich gefunden, wenn die Aussprache der Silben nicht nur sichtbar, sondern auch hörbar gewesen wäre.","0","1","0","null","","","<div class = 'row'><div class = 'column'><img src = 'category1/CS8.png' width = '70%;'></div><div class = 'column'><img src = 'uspos/8350.bmp' width = '100%;'></div></div>","null","pos","CS","CS","1","category1/CS8.png","","","","",""
"","survey-html-form","89","728024","0.0-7.0","6q8ehgwt7z","many_one","0","direct_first","1","er06rl21","1","18","1","1","3","1","Ich hätte es hilfreich gefunden, wenn die Aussprache der Silben nicht nur sichtbar, sondern auch hörbar gewesen wäre.","0","1","0","14841","","{}","","","","","","","","","","","",""
"","image-slider-response","90","746896","0.0-8.0-0.0","6q8ehgwt7z","many_one","0","direct_first","1","er06rl21","1","18","1","1","3","1","Ich hätte es hilfreich gefunden, wenn die Aussprache der Silben nicht nur sichtbar, sondern auch hörbar gewesen wäre.","0","1","0","16847","","","","","pos","GS","GSnew","2","category2/GS1.png","-55","targets/13.png","direct","",""
"","image-slider-response","91","756488","0.0-8.0-0.1","6q8ehgwt7z","many_one","0","direct_first","1","er06rl21","1","18","1","1","3","1","Ich hätte es hilfreich gefunden, wenn die Aussprache der Silben nicht nur sichtbar, sondern auch hörbar gewesen wäre.","0","1","0","9588","","","","","pos","GS","abstract","2","category2/men.png","-28","targets/27.png","direct","",""
"","image-slider-response","92","765903","0.0-8.0-0.2","6q8ehgwt7z","many_one","0","direct_first","1","er06rl21","1","18","1","1","3","1","Ich hätte es hilfreich gefunden, wenn die Aussprache der Silben nicht nur sichtbar, sondern auch hörbar gewesen wäre.","0","1","0","9411","","","","","pos","GS","GSnew","2","category2/GS2.png","-11","targets/17.png","direct","",""
"","image-slider-response","93","784024","0.0-8.0-0.3","6q8ehgwt7z","many_one","0","direct_first","1","er06rl21","1","18","1","1","3","1","Ich hätte es hilfreich gefunden, wenn die Aussprache der Silben nicht nur sichtbar, sondern auch hörbar gewesen wäre.","0","1","0","18117","","","","","neg","CS","CS","4","category4/CS5.png","-28","targets/35.png","direct","",""
"","image-slider-response","94","793255","0.0-8.0-0.4","6q8ehgwt7z","many_one","0","direct_first","1","er06rl21","1","18","1","1","3","1","Ich hätte es hilfreich gefunden, wenn die Aussprache der Silben nicht nur sichtbar, sondern auch hörbar gewesen wäre.","0","1","0","9229","","","","","neg","GS","GSnew","3","category3/GS1.png","14","targets/22.png","direct","",""
"","image-slider-response","95","811592","0.0-8.0-0.5","6q8ehgwt7z","many_one","0","direct_first","1","er06rl21","1","18","1","1","3","1","Ich hätte es hilfreich gefunden, wenn die Aussprache der Silben nicht nur sichtbar, sondern auch hörbar gewesen wäre.","0","1","0","18333","","","","","pos","GS","abstract","1","category1/ma.png","30","targets/42.png","direct","",""
"","image-slider-response","96","819176","0.0-8.0-0.6","6q8ehgwt7z","many_one","0","direct_first","1","er06rl21","1","18","1","1","3","1","Ich hätte es hilfreich gefunden, wenn die Aussprache der Silben nicht nur sichtbar, sondern auch hörbar gewesen wäre.","0","1","0","7581","","","","","pos","CS","CS","1","category1/CS4.png","48","targets/16.png","direct","",""
"","image-slider-response","97","826895","0.0-8.0-0.7","6q8ehgwt7z","many_one","0","direct_first","1","er06rl21","1","18","1","1","3","1","Ich hätte es hilfreich gefunden, wenn die Aussprache der Silben nicht nur sichtbar, sondern auch hörbar gewesen wäre.","0","1","0","7716","","","","","pos","CS","CS","1","category1/CS7.png","71","targets/48.png","direct","",""
"","image-slider-response","98","833975","0.0-8.0-0.8","6q8ehgwt7z","many_one","0","direct_first","1","er06rl21","1","18","1","1","3","1","Ich hätte es hilfreich gefunden, wenn die Aussprache der Silben nicht nur sichtbar, sondern auch hörbar gewesen wäre.","0","1","0","7074","","","","","neg","GS","abstract","4","category4/lin.png","32","targets/10.png","direct","",""
"","image-slider-response","99","844015","0.0-8.0-0.9","6q8ehgwt7z","many_one","0","direct_first","1","er06rl21","1","18","1","1","3","1","Ich hätte es hilfreich gefunden, wenn die Aussprache der Silben nicht nur sichtbar, sondern auch hörbar gewesen wäre.","0","1","0","10038","","","","","pos","CS","CS","2","category2/CS3.png","24","targets/1.png","direct","",""
"","image-slider-response","100","855649","0.0-8.0-0.10","6q8ehgwt7z","many_one","0","direct_first","1","er06rl21","1","18","1","1","3","1","Ich hätte es hilfreich gefunden, wenn die Aussprache der Silben nicht nur sichtbar, sondern auch hörbar gewesen wäre.","0","1","0","11630","","","","","neg","GS","GSold","4","category4/CS1.png","17","targets/21.png","direct","",""
"","image-slider-response","101","863864","0.0-8.0-0.11","6q8ehgwt7z","many_one","0","direct_first","1","er06rl21","1","18","1","1","3","1","Ich hätte es hilfreich gefunden, wenn die Aussprache der Silben nicht nur sichtbar, sondern auch hörbar gewesen wäre.","0","1","0","8211","","","","","neg","CS","CS","4","category4/CS6.png","58","targets/6.png","direct","",""
"","image-slider-response","102","883463","0.0-8.0-0.12","6q8ehgwt7z","many_one","0","direct_first","1","er06rl21","1","18","1","1","3","1","Ich hätte es hilfreich gefunden, wenn die Aussprache der Silben nicht nur sichtbar, sondern auch hörbar gewesen wäre.","0","1","0","19597","","","","","pos","CS","CS","2","category2/CS8.png","6","targets/44.png","direct","",""
"","image-slider-response","103","890640","0.0-8.0-0.13","6q8ehgwt7z","many_one","0","direct_first","1","er06rl21","1","18","1","1","3","1","Ich hätte es hilfreich gefunden, wenn die Aussprache der Silben nicht nur sichtbar, sondern auch hörbar gewesen wäre.","0","1","0","7174","","","","","neg","GS","GSnew","3","category3/GS3.png","-11","targets/3.png","direct","",""
"","image-slider-response","104","897008","0.0-8.0-0.14","6q8ehgwt7z","many_one","0","direct_first","1","er06rl21","1","18","1","1","3","1","Ich hätte es hilfreich gefunden, wenn die Aussprache der Silben nicht nur sichtbar, sondern auch hörbar gewesen wäre.","0","1","0","6364","","","","","pos","CS","CS","1","category1/CS10.png","28","targets/24.png","direct","",""
"","image-slider-response","105","903296","0.0-8.0-0.15","6q8ehgwt7z","many_one","0","direct_first","1","er06rl21","1","18","1","1","3","1","Ich hätte es hilfreich gefunden, wenn die Aussprache der Silben nicht nur sichtbar, sondern auch hörbar gewesen wäre.","0","1","0","6285","","","","","neg","CS","CS","3","category3/CS10.png","26","targets/37.png","direct","",""
"","image-slider-response","106","919113","0.0-8.0-0.16","6q8ehgwt7z","many_one","0","direct_first","1","er06rl21","1","18","1","1","3","1","Ich hätte es hilfreich gefunden, wenn die Aussprache der Silben nicht nur sichtbar, sondern auch hörbar gewesen wäre.","0","1","0","15814","","","","","neg","GS","GSnew","4","category4/GS2.png","-28","targets/46.png","direct","",""
"","image-slider-response","107","924519","0.0-8.0-0.17","6q8ehgwt7z","many_one","0","direct_first","1","er06rl21","1","18","1","1","3","1","Ich hätte es hilfreich gefunden, wenn die Aussprache der Silben nicht nur sichtbar, sondern auch hörbar gewesen wäre.","0","1","0","5404","","","","","pos","GS","GSold","2","category2/CS9.png","13","targets/41.png","direct","",""
"","image-slider-response","108","932599","0.0-8.0-0.18","6q8ehgwt7z","many_one","0","direct_first","1","er06rl21","1","18","1","1","3","1","Ich hätte es hilfreich gefunden, wenn die Aussprache der Silben nicht nur sichtbar, sondern auch hörbar gewesen wäre.","0","1","0","8077","","","","","neg","GS","GSold","4","category4/CS3.png","-5","targets/14.png","direct","",""
"","image-slider-response","109","937655","0.0-8.0-0.19","6q8ehgwt7z","many_one","0","direct_first","1","er06rl21","1","18","1","1","3","1","Ich hätte es hilfreich gefunden, wenn die Aussprache der Silben nicht nur sichtbar, sondern auch hörbar gewesen wäre.","0","1","0","5052","","","","","neg","GS","abstract","3","category3/wang.png","-26","targets/19.png","direct","",""
"","image-slider-response","110","943200","0.0-8.0-0.20","6q8ehgwt7z","many_one","0","direct_first","1","er06rl21","1","18","1","1","3","1","Ich hätte es hilfreich gefunden, wenn die Aussprache der Silben nicht nur sichtbar, sondern auch hörbar gewesen wäre.","0","1","0","5541","","","","","neg","CS","CS","4","category4/CS10.png","25","targets/30.png","direct","",""
"","image-slider-response","111","951503","0.0-8.0-0.21","6q8ehgwt7z","many_one","0","direct_first","1","er06rl21","1","18","1","1","3","1","Ich hätte es hilfreich gefunden, wenn die Aussprache der Silben nicht nur sichtbar, sondern auch hörbar gewesen wäre.","0","1","0","8299","","","","","neg","GS","GSnew","4","category4/GS1.png","-1","targets/32.png","direct","",""
"","image-slider-response","112","963416","0.0-8.0-0.22","6q8ehgwt7z","many_one","0","direct_first","1","er06rl21","1","18","1","1","3","1","Ich hätte es hilfreich gefunden, wenn die Aussprache der Silben nicht nur sichtbar, sondern auch hörbar gewesen wäre.","0","1","0","11910","","","","","pos","GS","GSold","2","category2/CS4.png","5","targets/5.png","direct","",""
"","image-slider-response","113","968568","0.0-8.0-0.23","6q8ehgwt7z","many_one","0","direct_first","1","er06rl21","1","18","1","1","3","1","Ich hätte es hilfreich gefunden, wenn die Aussprache der Silben nicht nur sichtbar, sondern auch hörbar gewesen wäre.","0","1","0","5149","","","","","neg","CS","CS","4","category4/CS9.png","17","targets/47.png","direct","",""
"","image-slider-response","114","974848","0.0-8.0-0.24","6q8ehgwt7z","many_one","0","direct_first","1","er06rl21","1","18","1","1","3","1","Ich hätte es hilfreich gefunden, wenn die Aussprache der Silben nicht nur sichtbar, sondern auch hörbar gewesen wäre.","0","1","0","6276","","","","","neg","GS","GSnew","3","category3/GS2.png","25","targets/43.png","direct","",""
"","image-slider-response","115","979264","0.0-8.0-0.25","6q8ehgwt7z","many_one","0","direct_first","1","er06rl21","1","18","1","1","3","1","Ich hätte es hilfreich gefunden, wenn die Aussprache der Silben nicht nur sichtbar, sondern auch hörbar gewesen wäre.","0","1","0","4411","","","","","pos","GS","GSold","2","category2/CS2.png","38","targets/7.png","direct","",""
"","image-slider-response","116","986888","0.0-8.0-0.26","6q8ehgwt7z","many_one","0","direct_first","1","er06rl21","1","18","1","1","3","1","Ich hätte es hilfreich gefunden, wenn die Aussprache der Silben nicht nur sichtbar, sondern auch hörbar gewesen wäre.","0","1","0","7621","","","","","neg","GS","GSold","3","category3/CS4.png","-21","targets/8.png","direct","",""
"","image-slider-response","117","1001473","0.0-8.0-0.27","6q8ehgwt7z","many_one","0","direct_first","1","er06rl21","1","18","1","1","3","1","Ich hätte es hilfreich gefunden, wenn die Aussprache der Silben nicht nur sichtbar, sondern auch hörbar gewesen wäre.","0","1","0","14581","","","","","pos","GS","GSnew","1","category1/GS1.png","-14","targets/38.png","direct","",""
"","image-slider-response","118","1006912","0.0-8.0-0.28","6q8ehgwt7z","many_one","0","direct_first","1","er06rl21","1","18","1","1","3","1","Ich hätte es hilfreich gefunden, wenn die Aussprache der Silben nicht nur sichtbar, sondern auch hörbar gewesen wäre.","0","1","0","5436","","","","","neg","CS","CS","3","category3/CS8.png","-8","targets/31.png","direct","",""
"","image-slider-response","119","1014159","0.0-8.0-0.29","6q8ehgwt7z","many_one","0","direct_first","1","er06rl21","1","18","1","1","3","1","Ich hätte es hilfreich gefunden, wenn die Aussprache der Silben nicht nur sichtbar, sondern auch hörbar gewesen wäre.","0","1","0","7245","","","","","neg","CS","CS","3","category3/CS6.png","17","targets/18.png","direct","",""
"","image-slider-response","120","1024672","0.0-8.0-0.30","6q8ehgwt7z","many_one","0","direct_first","1","er06rl21","1","18","1","1","3","1","Ich hätte es hilfreich gefunden, wenn die Aussprache der Silben nicht nur sichtbar, sondern auch hörbar gewesen wäre.","0","1","0","10508","","","","","pos","GS","GSold","1","category1/CS9.png","1","targets/20.png","direct","",""
"","image-slider-response","121","1028927","0.0-8.0-0.31","6q8ehgwt7z","many_one","0","direct_first","1","er06rl21","1","18","1","1","3","1","Ich hätte es hilfreich gefunden, wenn die Aussprache der Silben nicht nur sichtbar, sondern auch hörbar gewesen wäre.","0","1","0","4253","","","","","neg","CS","CS","3","category3/CS9.png","-21","targets/12.png","direct","",""
"","image-slider-response","122","1036207","0.0-8.0-0.32","6q8ehgwt7z","many_one","0","direct_first","1","er06rl21","1","18","1","1","3","1","Ich hätte es hilfreich gefunden, wenn die Aussprache der Silben nicht nur sichtbar, sondern auch hörbar gewesen wäre.","0","1","0","7277","","","","","neg","GS","GSnew","4","category4/GS3.png","-14","targets/4.png","direct","",""
"","image-slider-response","123","1040608","0.0-8.0-0.33","6q8ehgwt7z","many_one","0","direct_first","1","er06rl21","1","18","1","1","3","1","Ich hätte es hilfreich gefunden, wenn die Aussprache der Silben nicht nur sichtbar, sondern auch hörbar gewesen wäre.","0","1","0","4397","","","","","pos","GS","GSold","1","category1/CS2.png","-2","targets/39.png","direct","",""
"","image-slider-response","124","1048535","0.0-8.0-0.34","6q8ehgwt7z","many_one","0","direct_first","1","er06rl21","1","18","1","1","3","1","Ich hätte es hilfreich gefunden, wenn die Aussprache der Silben nicht nur sichtbar, sondern auch hörbar gewesen wäre.","0","1","0","7924","","","","","neg","GS","GSold","3","category3/CS3.png","-8","targets/9.png","direct","",""
"","image-slider-response","125","1054815","0.0-8.0-0.35","6q8ehgwt7z","many_one","0","direct_first","1","er06rl21","1","18","1","1","3","1","Ich hätte es hilfreich gefunden, wenn die Aussprache der Silben nicht nur sichtbar, sondern auch hörbar gewesen wäre.","0","1","0","6277","","","","","neg","CS","CS","3","category3/CS5.png","-20","targets/33.png","direct","",""
"","image-slider-response","126","1061920","0.0-8.0-0.36","6q8ehgwt7z","many_one","0","direct_first","1","er06rl21","1","18","1","1","3","1","Ich hätte es hilfreich gefunden, wenn die Aussprache der Silben nicht nur sichtbar, sondern auch hörbar gewesen wäre.","0","1","0","7101","","","","","pos","CS","CS","2","category2/CS1.png","10","targets/23.png","direct","",""
"","image-slider-response","127","1073576","0.0-8.0-0.37","6q8ehgwt7z","many_one","0","direct_first","1","er06rl21","1","18","1","1","3","1","Ich hätte es hilfreich gefunden, wenn die Aussprache der Silben nicht nur sichtbar, sondern auch hörbar gewesen wäre.","0","1","0","11652","","","","","neg","GS","GSold","3","category3/CS1.png","11","targets/11.png","direct","",""
"","image-slider-response","128","1091487","0.0-8.0-0.38","6q8ehgwt7z","many_one","0","direct_first","1","er06rl21","1","18","1","1","3","1","Ich hätte es hilfreich gefunden, wenn die Aussprache der Silben nicht nur sichtbar, sondern auch hörbar gewesen wäre.","0","1","0","17907","","","","","neg","CS","CS","4","category4/CS8.png","1","targets/34.png","direct","",""
"","image-slider-response","129","1096472","0.0-8.0-0.39","6q8ehgwt7z","many_one","0","direct_first","1","er06rl21","1","18","1","1","3","1","Ich hätte es hilfreich gefunden, wenn die Aussprache der Silben nicht nur sichtbar, sondern auch hörbar gewesen wäre.","0","1","0","4981","","","","","pos","GS","GSnew","1","category1/GS3.png","6","targets/15.png","direct","",""
"","image-slider-response","130","1105070","0.0-8.0-0.40","6q8ehgwt7z","many_one","0","direct_first","1","er06rl21","1","18","1","1","3","1","Ich hätte es hilfreich gefunden, wenn die Aussprache der Silben nicht nur sichtbar, sondern auch hörbar gewesen wäre.","0","1","0","8595","","","","","pos","GS","GSnew","1","category1/GS2.png","-3","targets/2.png","direct","",""
"","image-slider-response","131","1112440","0.0-8.0-0.41","6q8ehgwt7z","many_one","0","direct_first","1","er06rl21","1","18","1","1","3","1","Ich hätte es hilfreich gefunden, wenn die Aussprache der Silben nicht nur sichtbar, sondern auch hörbar gewesen wäre.","0","1","0","7368","","","","","pos","GS","GSnew","2","category2/GS3.png","1","targets/26.png","direct","",""
"","image-slider-response","132","1118376","0.0-8.0-0.42","6q8ehgwt7z","many_one","0","direct_first","1","er06rl21","1","18","1","1","3","1","Ich hätte es hilfreich gefunden, wenn die Aussprache der Silben nicht nur sichtbar, sondern auch hörbar gewesen wäre.","0","1","0","5933","","","","","pos","CS","CS","1","category1/CS8.png","65","targets/45.png","direct","",""
"","image-slider-response","133","1123463","0.0-8.0-0.43","6q8ehgwt7z","many_one","0","direct_first","1","er06rl21","1","18","1","1","3","1","Ich hätte es hilfreich gefunden, wenn die Aussprache der Silben nicht nur sichtbar, sondern auch hörbar gewesen wäre.","0","1","0","5084","","","","","pos","GS","GSold","1","category1/CS1.png","32","targets/28.png","direct","",""
"","image-slider-response","134","1128432","0.0-8.0-0.44","6q8ehgwt7z","many_one","0","direct_first","1","er06rl21","1","18","1","1","3","1","Ich hätte es hilfreich gefunden, wenn die Aussprache der Silben nicht nur sichtbar, sondern auch hörbar gewesen wäre.","0","1","0","4965","","","","","pos","CS","CS","2","category2/CS10.png","42","targets/29.png","direct","",""
"","image-slider-response","135","1132792","0.0-8.0-0.45","6q8ehgwt7z","many_one","0","direct_first","1","er06rl21","1","18","1","1","3","1","Ich hätte es hilfreich gefunden, wenn die Aussprache der Silben nicht nur sichtbar, sondern auch hörbar gewesen wäre.","0","1","0","4355","","","","","pos","CS","CS","2","category2/CS7.png","21","targets/36.png","direct","",""
"","image-slider-response","136","1146472","0.0-8.0-0.46","6q8ehgwt7z","many_one","0","direct_first","1","er06rl21","1","18","1","1","3","1","Ich hätte es hilfreich gefunden, wenn die Aussprache der Silben nicht nur sichtbar, sondern auch hörbar gewesen wäre.","0","1","0","13675","","","","","pos","CS","CS","1","category1/CS6.png","3","targets/25.png","direct","",""
"","image-slider-response","137","1151248","0.0-8.0-0.47","6q8ehgwt7z","many_one","0","direct_first","1","er06rl21","1","18","1","1","3","1","Ich hätte es hilfreich gefunden, wenn die Aussprache der Silben nicht nur sichtbar, sondern auch hörbar gewesen wäre.","0","1","0","4772","","","","","neg","GS","GSold","4","category4/CS2.png","-9","targets/40.png","direct","",""
"","html-keyboard-response","138","1375230","0.0-9.0","6q8ehgwt7z","many_one","0","direct_first","1","er06rl21","1","18","1","1","3","1","Ich hätte es hilfreich gefunden, wenn die Aussprache der Silben nicht nur sichtbar, sondern auch hörbar gewesen wäre.","0","1","0","223978","","","<p>Sie sehen nun die chinesischen Zeichen nur ganz kurz. Danach sehen Sie die jeweilige Aussprache der Zeichen als Silbe auf dem Bildschrim. Ihre Aufgabe ist es, für jede Silbe anzugeben, ob diese etwas angenehmes, oder unangenehmes bedeuten könnte. Verlassen Sie sich hier vor allem auf Ihre Intuition.<br><br>Die Zeichen werden nur zur Orientierung dargestellt, beachten Sie sie deshalb nicht. Konzentrieren Sie sich vor allem auf die Silben. <br>Reagieren Sie mit folgenden zwei Tasten: <br><br><b>'D' </b> wenn die Silbe etwas <b>unangenehmes</b> bedeuten könnte. <br><b>'K'</b> wenn die Silbe etwas <b>angenehmes</b> bedeuten könnte. <br><br>Bitte legen Sie nun den Zeigefinger der linken Hand auf die Taste 'D' und den Zeigefinger der rechten Hand auf die Taste 'K'. <br>Reagieren Sie auf jede Silbe so schnell wie möglich. Uns interessiert Ihre spontane Reaktion. <br> <br> <br>Drücken Sie 'D' oder 'K', um die nächste Aufgabe zu starten. </p>","68","","","","","","","","","",""
"","html-keyboard-response","139","1378239","0.0-10.0-0.0","6q8ehgwt7z","many_one","0","direct_first","1","er06rl21","1","18","1","1","3","1","Ich hätte es hilfreich gefunden, wenn die Aussprache der Silben nicht nur sichtbar, sondern auch hörbar gewesen wäre.","0","1","0","null","","","<div style=""font-size:60px;"">+</div>","null","","","","","","","","","",""
"","html-keyboard-response","140","1378332","0.0-10.0-1.0","6q8ehgwt7z","many_one","0","direct_first","1","er06rl21","1","18","1","1","3","1","Ich hätte es hilfreich gefunden, wenn die Aussprache der Silben nicht nur sichtbar, sondern auch hörbar gewesen wäre.","0","1","0","null","","","<img src = 'category3/CS5.png' width = '100%;'>","null","","","","","","","","","",""
"","html-keyboard-response","141","1378601","0.0-10.0-2.0","6q8ehgwt7z","many_one","0","direct_first","1","er06rl21","1","18","1","1","3","1","Ich hätte es hilfreich gefunden, wenn die Aussprache der Silben nicht nur sichtbar, sondern auch hörbar gewesen wäre.","0","1","0","null","","","<img src = 'targets/33.png' width = '100%;'>","null","","","","","","","","","",""
"","html-keyboard-response","142","1384566","0.0-10.0-3.0","6q8ehgwt7z","many_one","0","direct_first","1","er06rl21","1","18","1","1","3","1","Ich hätte es hilfreich gefunden, wenn die Aussprache der Silben nicht nur sichtbar, sondern auch hörbar gewesen wäre.","0","1","0","5963","","","<img src = 'targets/mask.png' width = '100%;'>","75","neg","CS","CS","3","category3/CS5.png","","targets/33.png","indirect","1","0"
"","html-keyboard-response","143","1386080","0.0-10.0-0.1","6q8ehgwt7z","many_one","0","direct_first","1","er06rl21","1","18","1","1","3","1","Ich hätte es hilfreich gefunden, wenn die Aussprache der Silben nicht nur sichtbar, sondern auch hörbar gewesen wäre.","0","1","0","null","","","<div style=""font-size:60px;"">+</div>","null","","","","","","","","","",""
"","html-keyboard-response","144","1386175","0.0-10.0-1.1","6q8ehgwt7z","many_one","0","direct_first","1","er06rl21","1","18","1","1","3","1","Ich hätte es hilfreich gefunden, wenn die Aussprache der Silben nicht nur sichtbar, sondern auch hörbar gewesen wäre.","0","1","0","null","","","<img src = 'category2/CS1.png' width = '100%;'>","null","","","","","","","","","",""
"","html-keyboard-response","145","1386441","0.0-10.0-2.1","6q8ehgwt7z","many_one","0","direct_first","1","er06rl21","1","18","1","1","3","1","Ich hätte es hilfreich gefunden, wenn die Aussprache der Silben nicht nur sichtbar, sondern auch hörbar gewesen wäre.","0","1","0","null","","","<img src = 'targets/23.png' width = '100%;'>","null","","","","","","","","","",""
"","html-keyboard-response","146","1389219","0.0-10.0-3.1","6q8ehgwt7z","many_one","0","direct_first","1","er06rl21","1","18","1","1","3","1","Ich hätte es hilfreich gefunden, wenn die Aussprache der Silben nicht nur sichtbar, sondern auch hörbar gewesen wäre.","0","1","0","2777","","","<img src = 'targets/mask.png' width = '100%;'>","68","pos","CS","CS","2","category2/CS1.png","","targets/23.png","indirect","0","1"
"","html-keyboard-response","147","1390741","0.0-10.0-0.2","6q8ehgwt7z","many_one","0","direct_first","1","er06rl21","1","18","1","1","3","1","Ich hätte es hilfreich gefunden, wenn die Aussprache der Silben nicht nur sichtbar, sondern auch hörbar gewesen wäre.","0","1","0","null","","","<div style=""font-size:60px;"">+</div>","null","","","","","","","","","",""
"","html-keyboard-response","148","1390837","0.0-10.0-1.2","6q8ehgwt7z","many_one","0","direct_first","1","er06rl21","1","18","1","1","3","1","Ich hätte es hilfreich gefunden, wenn die Aussprache der Silben nicht nur sichtbar, sondern auch hörbar gewesen wäre.","0","1","0","null","","","<img src = 'category1/CS10.png' width = '100%;'>","null","","","","","","","","","",""
"","html-keyboard-response","149","1391117","0.0-10.0-2.2","6q8ehgwt7z","many_one","0","direct_first","1","er06rl21","1","18","1","1","3","1","Ich hätte es hilfreich gefunden, wenn die Aussprache der Silben nicht nur sichtbar, sondern auch hörbar gewesen wäre.","0","1","0","null","","","<img src = 'targets/24.png' width = '100%;'>","null","","","","","","","","","",""
"","html-keyboard-response","150","1394009","0.0-10.0-3.2","6q8ehgwt7z","many_one","0","direct_first","1","er06rl21","1","18","1","1","3","1","Ich hätte es hilfreich gefunden, wenn die Aussprache der Silben nicht nur sichtbar, sondern auch hörbar gewesen wäre.","0","1","0","2889","","","<img src = 'targets/mask.png' width = '100%;'>","75","pos","CS","CS","1","category1/CS10.png","","targets/24.png","indirect","1","2"
"","html-keyboard-response","151","1395525","0.0-10.0-0.3","6q8ehgwt7z","many_one","0","direct_first","1","er06rl21","1","18","1","1","3","1","Ich hätte es hilfreich gefunden, wenn die Aussprache der Silben nicht nur sichtbar, sondern auch hörbar gewesen wäre.","0","1","0","null","","","<div style=""font-size:60px;"">+</div>","null","","","","","","","","","",""
"","html-keyboard-response","152","1395618","0.0-10.0-1.3","6q8ehgwt7z","many_one","0","direct_first","1","er06rl21","1","18","1","1","3","1","Ich hätte es hilfreich gefunden, wenn die Aussprache der Silben nicht nur sichtbar, sondern auch hörbar gewesen wäre.","0","1","0","null","","","<img src = 'category1/CS8.png' width = '100%;'>","null","","","","","","","","","",""
"","html-keyboard-response","153","1395883","0.0-10.0-2.3","6q8ehgwt7z","many_one","0","direct_first","1","er06rl21","1","18","1","1","3","1","Ich hätte es hilfreich gefunden, wenn die Aussprache der Silben nicht nur sichtbar, sondern auch hörbar gewesen wäre.","0","1","0","null","","","<img src = 'targets/45.png' width = '100%;'>","null","","","","","","","","","",""
"","html-keyboard-response","154","1402561","0.0-10.0-3.3","6q8ehgwt7z","many_one","0","direct_first","1","er06rl21","1","18","1","1","3","1","Ich hätte es hilfreich gefunden, wenn die Aussprache der Silben nicht nur sichtbar, sondern auch hörbar gewesen wäre.","0","1","0","6675","","","<img src = 'targets/mask.png' width = '100%;'>","68","pos","CS","CS","1","category1/CS8.png","","targets/45.png","indirect","0","3"
"","html-keyboard-response","155","1404075","0.0-10.0-0.4","6q8ehgwt7z","many_one","0","direct_first","1","er06rl21","1","18","1","1","3","1","Ich hätte es hilfreich gefunden, wenn die Aussprache der Silben nicht nur sichtbar, sondern auch hörbar gewesen wäre.","0","1","0","null","","","<div style=""font-size:60px;"">+</div>","null","","","","","","","","","",""
"","html-keyboard-response","156","1404173","0.0-10.0-1.4","6q8ehgwt7z","many_one","0","direct_first","1","er06rl21","1","18","1","1","3","1","Ich hätte es hilfreich gefunden, wenn die Aussprache der Silben nicht nur sichtbar, sondern auch hörbar gewesen wäre.","0","1","0","null","","","<img src = 'category1/CS4.png' width = '100%;'>","null","","","","","","","","","",""
"","html-keyboard-response","157","1404428","0.0-10.0-2.4","6q8ehgwt7z","many_one","0","direct_first","1","er06rl21","1","18","1","1","3","1","Ich hätte es hilfreich gefunden, wenn die Aussprache der Silben nicht nur sichtbar, sondern auch hörbar gewesen wäre.","0","1","0","null","","","<img src = 'targets/16.png' width = '100%;'>","null","","","","","","","","","",""
"","html-keyboard-response","158","1410738","0.0-10.0-3.4","6q8ehgwt7z","many_one","0","direct_first","1","er06rl21","1","18","1","1","3","1","Ich hätte es hilfreich gefunden, wenn die Aussprache der Silben nicht nur sichtbar, sondern auch hörbar gewesen wäre.","0","1","0","6308","","","<img src = 'targets/mask.png' width = '100%;'>","75","pos","CS","CS","1","category1/CS4.png","","targets/16.png","indirect","1","4"
"","html-keyboard-response","159","1412251","0.0-10.0-0.5","6q8ehgwt7z","many_one","0","direct_first","1","er06rl21","1","18","1","1","3","1","Ich hätte es hilfreich gefunden, wenn die Aussprache der Silben nicht nur sichtbar, sondern auch hörbar gewesen wäre.","0","1","0","null","","","<div style=""font-size:60px;"">+</div>","null","","","","","","","","","",""
"","html-keyboard-response","160","1412342","0.0-10.0-1.5","6q8ehgwt7z","many_one","0","direct_first","1","er06rl21","1","18","1","1","3","1","Ich hätte es hilfreich gefunden, wenn die Aussprache der Silben nicht nur sichtbar, sondern auch hörbar gewesen wäre.","0","1","0","null","","","<img src = 'category4/CS9.png' width = '100%;'>","null","","","","","","","","","",""
"","html-keyboard-response","161","1412608","0.0-10.0-2.5","6q8ehgwt7z","many_one","0","direct_first","1","er06rl21","1","18","1","1","3","1","Ich hätte es hilfreich gefunden, wenn die Aussprache der Silben nicht nur sichtbar, sondern auch hörbar gewesen wäre.","0","1","0","null","","","<img src = 'targets/47.png' width = '100%;'>","null","","","","","","","","","",""
"","html-keyboard-response","162","1416249","0.0-10.0-3.5","6q8ehgwt7z","many_one","0","direct_first","1","er06rl21","1","18","1","1","3","1","Ich hätte es hilfreich gefunden, wenn die Aussprache der Silben nicht nur sichtbar, sondern auch hörbar gewesen wäre.","0","1","0","3640","","","<img src = 'targets/mask.png' width = '100%;'>","68","neg","CS","CS","4","category4/CS9.png","","targets/47.png","indirect","0","5"
"","html-keyboard-response","163","1417760","0.0-10.0-0.6","6q8ehgwt7z","many_one","0","direct_first","1","er06rl21","1","18","1","1","3","1","Ich hätte es hilfreich gefunden, wenn die Aussprache der Silben nicht nur sichtbar, sondern auch hörbar gewesen wäre.","0","1","0","null","","","<div style=""font-size:60px;"">+</div>","null","","","","","","","","","",""
"","html-keyboard-response","164","1417853","0.0-10.0-1.6","6q8ehgwt7z","many_one","0","direct_first","1","er06rl21","1","18","1","1","3","1","Ich hätte es hilfreich gefunden, wenn die Aussprache der Silben nicht nur sichtbar, sondern auch hörbar gewesen wäre.","0","1","0","null","","","<img src = 'category3/CS10.png' width = '100%;'>","null","","","","","","","","","",""
"","html-keyboard-response","165","1418132","0.0-10.0-2.6","6q8ehgwt7z","many_one","0","direct_first","1","er06rl21","1","18","1","1","3","1","Ich hätte es hilfreich gefunden, wenn die Aussprache der Silben nicht nur sichtbar, sondern auch hörbar gewesen wäre.","0","1","0","null","","","<img src = 'targets/37.png' width = '100%;'>","null","","","","","","","","","",""
"","html-keyboard-response","166","1422586","0.0-10.0-3.6","6q8ehgwt7z","many_one","0","direct_first","1","er06rl21","1","18","1","1","3","1","Ich hätte es hilfreich gefunden, wenn die Aussprache der Silben nicht nur sichtbar, sondern auch hörbar gewesen wäre.","0","1","0","4453","","","<img src = 'targets/mask.png' width = '100%;'>","75","neg","CS","CS","3","category3/CS10.png","","targets/37.png","indirect","1","6"
"","html-keyboard-response","167","1424101","0.0-10.0-0.7","6q8ehgwt7z","many_one","0","direct_first","1","er06rl21","1","18","1","1","3","1","Ich hätte es hilfreich gefunden, wenn die Aussprache der Silben nicht nur sichtbar, sondern auch hörbar gewesen wäre.","0","1","0","null","","","<div style=""font-size:60px;"">+</div>","null","","","","","","","","","",""
"","html-keyboard-response","168","1424197","0.0-10.0-1.7","6q8ehgwt7z","many_one","0","direct_first","1","er06rl21","1","18","1","1","3","1","Ich hätte es hilfreich gefunden, wenn die Aussprache der Silben nicht nur sichtbar, sondern auch hörbar gewesen wäre.","0","1","0","null","","","<img src = 'category1/CS7.png' width = '100%;'>","null","","","","","","","","","",""
"","html-keyboard-response","169","1424471","0.0-10.0-2.7","6q8ehgwt7z","many_one","0","direct_first","1","er06rl21","1","18","1","1","3","1","Ich hätte es hilfreich gefunden, wenn die Aussprache der Silben nicht nur sichtbar, sondern auch hörbar gewesen wäre.","0","1","0","null","","","<img src = 'targets/48.png' width = '100%;'>","null","","","","","","","","","",""
"","html-keyboard-response","170","1426956","0.0-10.0-3.7","6q8ehgwt7z","many_one","0","direct_first","1","er06rl21","1","18","1","1","3","1","Ich hätte es hilfreich gefunden, wenn die Aussprache der Silben nicht nur sichtbar, sondern auch hörbar gewesen wäre.","0","1","0","2483","","","<img src = 'targets/mask.png' width = '100%;'>","75","pos","CS","CS","1","category1/CS7.png","","targets/48.png","indirect","1","7"
"","html-keyboard-response","171","1428466","0.0-10.0-0.8","6q8ehgwt7z","many_one","0","direct_first","1","er06rl21","1","18","1","1","3","1","Ich hätte es hilfreich gefunden, wenn die Aussprache der Silben nicht nur sichtbar, sondern auch hörbar gewesen wäre.","0","1","0","null","","","<div style=""font-size:60px;"">+</div>","null","","","","","","","","","",""
"","html-keyboard-response","172","1428568","0.0-10.0-1.8","6q8ehgwt7z","many_one","0","direct_first","1","er06rl21","1","18","1","1","3","1","Ich hätte es hilfreich gefunden, wenn die Aussprache der Silben nicht nur sichtbar, sondern auch hörbar gewesen wäre.","0","1","0","null","","","<img src = 'category3/CS8.png' width = '100%;'>","null","","","","","","","","","",""
"","html-keyboard-response","173","1428821","0.0-10.0-2.8","6q8ehgwt7z","many_one","0","direct_first","1","er06rl21","1","18","1","1","3","1","Ich hätte es hilfreich gefunden, wenn die Aussprache der Silben nicht nur sichtbar, sondern auch hörbar gewesen wäre.","0","1","0","null","","","<img src = 'targets/31.png' width = '100%;'>","null","","","","","","","","","",""
"","html-keyboard-response","174","1442959","0.0-10.0-3.8","6q8ehgwt7z","many_one","0","direct_first","1","er06rl21","1","18","1","1","3","1","Ich hätte es hilfreich gefunden, wenn die Aussprache der Silben nicht nur sichtbar, sondern auch hörbar gewesen wäre.","0","1","0","14138","","","<img src = 'targets/mask.png' width = '100%;'>","75","neg","CS","CS","3","category3/CS8.png","","targets/31.png","indirect","1","8"
"","html-keyboard-response","175","1444481","0.0-10.0-0.9","6q8ehgwt7z","many_one","0","direct_first","1","er06rl21","1","18","1","1","3","1","Ich hätte es hilfreich gefunden, wenn die Aussprache der Silben nicht nur sichtbar, sondern auch hörbar gewesen wäre.","0","1","0","null","","","<div style=""font-size:60px;"">+</div>","null","","","","","","","","","",""
"","html-keyboard-response","176","1444576","0.0-10.0-1.9","6q8ehgwt7z","many_one","0","direct_first","1","er06rl21","1","18","1","1","3","1","Ich hätte es hilfreich gefunden, wenn die Aussprache der Silben nicht nur sichtbar, sondern auch hörbar gewesen wäre.","0","1","0","null","","","<img src = 'category3/CS6.png' width = '100%;'>","null","","","","","","","","","",""
"","html-keyboard-response","177","1444843","0.0-10.0-2.9","6q8ehgwt7z","many_one","0","direct_first","1","er06rl21","1","18","1","1","3","1","Ich hätte es hilfreich gefunden, wenn die Aussprache der Silben nicht nur sichtbar, sondern auch hörbar gewesen wäre.","0","1","0","null","","","<img src = 'targets/18.png' width = '100%;'>","null","","","","","","","","","",""
"","html-keyboard-response","178","1448332","0.0-10.0-3.9","6q8ehgwt7z","many_one","0","direct_first","1","er06rl21","1","18","1","1","3","1","Ich hätte es hilfreich gefunden, wenn die Aussprache der Silben nicht nur sichtbar, sondern auch hörbar gewesen wäre.","0","1","0","3487","","","<img src = 'targets/mask.png' width = '100%;'>","68","neg","CS","CS","3","category3/CS6.png","","targets/18.png","indirect","0","9"
"","html-keyboard-response","179","1449853","0.0-10.0-0.10","6q8ehgwt7z","many_one","0","direct_first","1","er06rl21","1","18","1","1","3","1","Ich hätte es hilfreich gefunden, wenn die Aussprache der Silben nicht nur sichtbar, sondern auch hörbar gewesen wäre.","0","1","0","null","","","<div style=""font-size:60px;"">+</div>","null","","","","","","","","","",""
"","html-keyboard-response","180","1449949","0.0-10.0-1.10","6q8ehgwt7z","many_one","0","direct_first","1","er06rl21","1","18","1","1","3","1","Ich hätte es hilfreich gefunden, wenn die Aussprache der Silben nicht nur sichtbar, sondern auch hörbar gewesen wäre.","0","1","0","null","","","<img src = 'category2/CS10.png' width = '100%;'>","null","","","","","","","","","",""
"","html-keyboard-response","181","1450214","0.0-10.0-2.10","6q8ehgwt7z","many_one","0","direct_first","1","er06rl21","1","18","1","1","3","1","Ich hätte es hilfreich gefunden, wenn die Aussprache der Silben nicht nur sichtbar, sondern auch hörbar gewesen wäre.","0","1","0","null","","","<img src = 'targets/29.png' width = '100%;'>","null","","","","","","","","","",""
"","html-keyboard-response","182","1455554","0.0-10.0-3.10","6q8ehgwt7z","many_one","0","direct_first","1","er06rl21","1","18","1","1","3","1","Ich hätte es hilfreich gefunden, wenn die Aussprache der Silben nicht nur sichtbar, sondern auch hörbar gewesen wäre.","0","1","0","5339","","","<img src = 'targets/mask.png' width = '100%;'>","68","pos","CS","CS","2","category2/CS10.png","","targets/29.png","indirect","0","10"
"","html-keyboard-response","183","1457077","0.0-10.0-0.11","6q8ehgwt7z","many_one","0","direct_first","1","er06rl21","1","18","1","1","3","1","Ich hätte es hilfreich gefunden, wenn die Aussprache der Silben nicht nur sichtbar, sondern auch hörbar gewesen wäre.","0","1","0","null","","","<div style=""font-size:60px;"">+</div>","null","","","","","","","","","",""
"","html-keyboard-response","184","1457171","0.0-10.0-1.11","6q8ehgwt7z","many_one","0","direct_first","1","er06rl21","1","18","1","1","3","1","Ich hätte es hilfreich gefunden, wenn die Aussprache der Silben nicht nur sichtbar, sondern auch hörbar gewesen wäre.","0","1","0","null","","","<img src = 'category3/CS3.png' width = '100%;'>","null","","","","","","","","","",""
"","html-keyboard-response","185","1457438","0.0-10.0-2.11","6q8ehgwt7z","many_one","0","direct_first","1","er06rl21","1","18","1","1","3","1","Ich hätte es hilfreich gefunden, wenn die Aussprache der Silben nicht nur sichtbar, sondern auch hörbar gewesen wäre.","0","1","0","null","","","<img src = 'targets/9.png' width = '100%;'>","null","","","","","","","","","",""
"","html-keyboard-response","186","1462006","0.0-10.0-3.11","6q8ehgwt7z","many_one","0","direct_first","1","er06rl21","1","18","1","1","3","1","Ich hätte es hilfreich gefunden, wenn die Aussprache der Silben nicht nur sichtbar, sondern auch hörbar gewesen wäre.","0","1","0","4567","","","<img src = 'targets/mask.png' width = '100%;'>","75","neg","GS","GSold","3","category3/CS3.png","","targets/9.png","indirect","1","11"
"","html-keyboard-response","187","1463522","0.0-10.0-0.12","6q8ehgwt7z","many_one","0","direct_first","1","er06rl21","1","18","1","1","3","1","Ich hätte es hilfreich gefunden, wenn die Aussprache der Silben nicht nur sichtbar, sondern auch hörbar gewesen wäre.","0","1","0","null","","","<div style=""font-size:60px;"">+</div>","null","","","","","","","","","",""
"","html-keyboard-response","188","1463616","0.0-10.0-1.12","6q8ehgwt7z","many_one","0","direct_first","1","er06rl21","1","18","1","1","3","1","Ich hätte es hilfreich gefunden, wenn die Aussprache der Silben nicht nur sichtbar, sondern auch hörbar gewesen wäre.","0","1","0","null","","","<img src = 'category4/CS6.png' width = '100%;'>","null","","","","","","","","","",""
"","html-keyboard-response","189","1463886","0.0-10.0-2.12","6q8ehgwt7z","many_one","0","direct_first","1","er06rl21","1","18","1","1","3","1","Ich hätte es hilfreich gefunden, wenn die Aussprache der Silben nicht nur sichtbar, sondern auch hörbar gewesen wäre.","0","1","0","null","","","<img src = 'targets/6.png' width = '100%;'>","null","","","","","","","","","",""
"","html-keyboard-response","190","1468702","0.0-10.0-3.12","6q8ehgwt7z","many_one","0","direct_first","1","er06rl21","1","18","1","1","3","1","Ich hätte es hilfreich gefunden, wenn die Aussprache der Silben nicht nur sichtbar, sondern auch hörbar gewesen wäre.","0","1","0","4815","","","<img src = 'targets/mask.png' width = '100%;'>","68","neg","CS","CS","4","category4/CS6.png","","targets/6.png","indirect","0","12"
"","html-keyboard-response","191","1470221","0.0-10.0-0.13","6q8ehgwt7z","many_one","0","direct_first","1","er06rl21","1","18","1","1","3","1","Ich hätte es hilfreich gefunden, wenn die Aussprache der Silben nicht nur sichtbar, sondern auch hörbar gewesen wäre.","0","1","0","null","","","<div style=""font-size:60px;"">+</div>","null","","","","","","","","","",""
"","html-keyboard-response","192","1470314","0.0-10.0-1.13","6q8ehgwt7z","many_one","0","direct_first","1","er06rl21","1","18","1","1","3","1","Ich hätte es hilfreich gefunden, wenn die Aussprache der Silben nicht nur sichtbar, sondern auch hörbar gewesen wäre.","0","1","0","null","","","<img src = 'category2/CS7.png' width = '100%;'>","null","","","","","","","","","",""
"","html-keyboard-response","193","1470581","0.0-10.0-2.13","6q8ehgwt7z","many_one","0","direct_first","1","er06rl21","1","18","1","1","3","1","Ich hätte es hilfreich gefunden, wenn die Aussprache der Silben nicht nur sichtbar, sondern auch hörbar gewesen wäre.","0","1","0","null","","","<img src = 'targets/36.png' width = '100%;'>","null","","","","","","","","","",""
"","html-keyboard-response","194","1472702","0.0-10.0-3.13","6q8ehgwt7z","many_one","0","direct_first","1","er06rl21","1","18","1","1","3","1","Ich hätte es hilfreich gefunden, wenn die Aussprache der Silben nicht nur sichtbar, sondern auch hörbar gewesen wäre.","0","1","0","2120","","","<img src = 'targets/mask.png' width = '100%;'>","68","pos","CS","CS","2","category2/CS7.png","","targets/36.png","indirect","0","13"
"","html-keyboard-response","195","1474223","0.0-10.0-0.14","6q8ehgwt7z","many_one","0","direct_first","1","er06rl21","1","18","1","1","3","1","Ich hätte es hilfreich gefunden, wenn die Aussprache der Silben nicht nur sichtbar, sondern auch hörbar gewesen wäre.","0","1","0","null","","","<div style=""font-size:60px;"">+</div>","null","","","","","","","","","",""
"","html-keyboard-response","196","1474316","0.0-10.0-1.14","6q8ehgwt7z","many_one","0","direct_first","1","er06rl21","1","18","1","1","3","1","Ich hätte es hilfreich gefunden, wenn die Aussprache der Silben nicht nur sichtbar, sondern auch hörbar gewesen wäre.","0","1","0","null","","","<img src = 'category4/CS10.png' width = '100%;'>","null","","","","","","","","","",""
"","html-keyboard-response","197","1474582","0.0-10.0-2.14","6q8ehgwt7z","many_one","0","direct_first","1","er06rl21","1","18","1","1","3","1","Ich hätte es hilfreich gefunden, wenn die Aussprache der Silben nicht nur sichtbar, sondern auch hörbar gewesen wäre.","0","1","0","null","","","<img src = 'targets/30.png' width = '100%;'>","null","","","","","","","","","",""
"","html-keyboard-response","198","1477322","0.0-10.0-3.14","6q8ehgwt7z","many_one","0","direct_first","1","er06rl21","1","18","1","1","3","1","Ich hätte es hilfreich gefunden, wenn die Aussprache der Silben nicht nur sichtbar, sondern auch hörbar gewesen wäre.","0","1","0","2738","","","<img src = 'targets/mask.png' width = '100%;'>","68","neg","CS","CS","4","category4/CS10.png","","targets/30.png","indirect","0","14"
"","html-keyboard-response","199","1478834","0.0-10.0-0.15","6q8ehgwt7z","many_one","0","direct_first","1","er06rl21","1","18","1","1","3","1","Ich hätte es hilfreich gefunden, wenn die Aussprache der Silben nicht nur sichtbar, sondern auch hörbar gewesen wäre.","0","1","0","null","","","<div style=""font-size:60px;"">+</div>","null","","","","","","","","","",""
"","html-keyboard-response","200","1478927","0.0-10.0-1.15","6q8ehgwt7z","many_one","0","direct_first","1","er06rl21","1","18","1","1","3","1","Ich hätte es hilfreich gefunden, wenn die Aussprache der Silben nicht nur sichtbar, sondern auch hörbar gewesen wäre.","0","1","0","null","","","<img src = 'category3/CS4.png' width = '100%;'>","null","","","","","","","","","",""
"","html-keyboard-response","201","1479207","0.0-10.0-2.15","6q8ehgwt7z","many_one","0","direct_first","1","er06rl21","1","18","1","1","3","1","Ich hätte es hilfreich gefunden, wenn die Aussprache der Silben nicht nur sichtbar, sondern auch hörbar gewesen wäre.","0","1","0","null","","","<img src = 'targets/8.png' width = '100%;'>","null","","","","","","","","","",""
"","html-keyboard-response","202","1482166","0.0-10.0-3.15","6q8ehgwt7z","many_one","0","direct_first","1","er06rl21","1","18","1","1","3","1","Ich hätte es hilfreich gefunden, wenn die Aussprache der Silben nicht nur sichtbar, sondern auch hörbar gewesen wäre.","0","1","0","2957","","","<img src = 'targets/mask.png' width = '100%;'>","75","neg","GS","GSold","3","category3/CS4.png","","targets/8.png","indirect","1","15"
"","html-keyboard-response","203","1483676","0.0-10.0-0.16","6q8ehgwt7z","many_one","0","direct_first","1","er06rl21","1","18","1","1","3","1","Ich hätte es hilfreich gefunden, wenn die Aussprache der Silben nicht nur sichtbar, sondern auch hörbar gewesen wäre.","0","1","0","null","","","<div style=""font-size:60px;"">+</div>","null","","","","","","","","","",""
"","html-keyboard-response","204","1483771","0.0-10.0-1.16","6q8ehgwt7z","many_one","0","direct_first","1","er06rl21","1","18","1","1","3","1","Ich hätte es hilfreich gefunden, wenn die Aussprache der Silben nicht nur sichtbar, sondern auch hörbar gewesen wäre.","0","1","0","null","","","<img src = 'category1/CS2.png' width = '100%;'>","null","","","","","","","","","",""
"","html-keyboard-response","205","1484038","0.0-10.0-2.16","6q8ehgwt7z","many_one","0","direct_first","1","er06rl21","1","18","1","1","3","1","Ich hätte es hilfreich gefunden, wenn die Aussprache der Silben nicht nur sichtbar, sondern auch hörbar gewesen wäre.","0","1","0","null","","","<img src = 'targets/39.png' width = '100%;'>","null","","","","","","","","","",""
"","html-keyboard-response","206","1488365","0.0-10.0-3.16","6q8ehgwt7z","many_one","0","direct_first","1","er06rl21","1","18","1","1","3","1","Ich hätte es hilfreich gefunden, wenn die Aussprache der Silben nicht nur sichtbar, sondern auch hörbar gewesen wäre.","0","1","0","4326","","","<img src = 'targets/mask.png' width = '100%;'>","75","pos","GS","GSold","1","category1/CS2.png","","targets/39.png","indirect","1","16"
"","html-keyboard-response","207","1489889","0.0-10.0-0.17","6q8ehgwt7z","many_one","0","direct_first","1","er06rl21","1","18","1","1","3","1","Ich hätte es hilfreich gefunden, wenn die Aussprache der Silben nicht nur sichtbar, sondern auch hörbar gewesen wäre.","0","1","0","null","","","<div style=""font-size:60px;"">+</div>","null","","","","","","","","","",""
"","html-keyboard-response","208","1489983","0.0-10.0-1.17","6q8ehgwt7z","many_one","0","direct_first","1","er06rl21","1","18","1","1","3","1","Ich hätte es hilfreich gefunden, wenn die Aussprache der Silben nicht nur sichtbar, sondern auch hörbar gewesen wäre.","0","1","0","null","","","<img src = 'category4/CS5.png' width = '100%;'>","null","","","","","","","","","",""
"","html-keyboard-response","209","1490237","0.0-10.0-2.17","6q8ehgwt7z","many_one","0","direct_first","1","er06rl21","1","18","1","1","3","1","Ich hätte es hilfreich gefunden, wenn die Aussprache der Silben nicht nur sichtbar, sondern auch hörbar gewesen wäre.","0","1","0","null","","","<img src = 'targets/35.png' width = '100%;'>","null","","","","","","","","","",""
"","html-keyboard-response","210","1497723","0.0-10.0-3.17","6q8ehgwt7z","many_one","0","direct_first","1","er06rl21","1","18","1","1","3","1","Ich hätte es hilfreich gefunden, wenn die Aussprache der Silben nicht nur sichtbar, sondern auch hörbar gewesen wäre.","0","1","0","7484","","","<img src = 'targets/mask.png' width = '100%;'>","75","neg","CS","CS","4","category4/CS5.png","","targets/35.png","indirect","1","17"
"","html-keyboard-response","211","1499247","0.0-10.0-0.18","6q8ehgwt7z","many_one","0","direct_first","1","er06rl21","1","18","1","1","3","1","Ich hätte es hilfreich gefunden, wenn die Aussprache der Silben nicht nur sichtbar, sondern auch hörbar gewesen wäre.","0","1","0","null","","","<div style=""font-size:60px;"">+</div>","null","","","","","","","","","",""
"","html-keyboard-response","212","1499341","0.0-10.0-1.18","6q8ehgwt7z","many_one","0","direct_first","1","er06rl21","1","18","1","1","3","1","Ich hätte es hilfreich gefunden, wenn die Aussprache der Silben nicht nur sichtbar, sondern auch hörbar gewesen wäre.","0","1","0","null","","","<img src = 'category3/CS9.png' width = '100%;'>","null","","","","","","","","","",""
"","html-keyboard-response","213","1499621","0.0-10.0-2.18","6q8ehgwt7z","many_one","0","direct_first","1","er06rl21","1","18","1","1","3","1","Ich hätte es hilfreich gefunden, wenn die Aussprache der Silben nicht nur sichtbar, sondern auch hörbar gewesen wäre.","0","1","0","null","","","<img src = 'targets/12.png' width = '100%;'>","null","","","","","","","","","",""
"","html-keyboard-response","214","1502840","0.0-10.0-3.18","6q8ehgwt7z","many_one","0","direct_first","1","er06rl21","1","18","1","1","3","1","Ich hätte es hilfreich gefunden, wenn die Aussprache der Silben nicht nur sichtbar, sondern auch hörbar gewesen wäre.","0","1","0","3218","","","<img src = 'targets/mask.png' width = '100%;'>","75","neg","CS","CS","3","category3/CS9.png","","targets/12.png","indirect","1","18"
"","html-keyboard-response","215","1504364","0.0-10.0-0.19","6q8ehgwt7z","many_one","0","direct_first","1","er06rl21","1","18","1","1","3","1","Ich hätte es hilfreich gefunden, wenn die Aussprache der Silben nicht nur sichtbar, sondern auch hörbar gewesen wäre.","0","1","0","null","","","<div style=""font-size:60px;"">+</div>","null","","","","","","","","","",""
"","html-keyboard-response","216","1504458","0.0-10.0-1.19","6q8ehgwt7z","many_one","0","direct_first","1","er06rl21","1","18","1","1","3","1","Ich hätte es hilfreich gefunden, wenn die Aussprache der Silben nicht nur sichtbar, sondern auch hörbar gewesen wäre.","0","1","0","null","","","<img src = 'category4/CS8.png' width = '100%;'>","null","","","","","","","","","",""
"","html-keyboard-response","217","1504725","0.0-10.0-2.19","6q8ehgwt7z","many_one","0","direct_first","1","er06rl21","1","18","1","1","3","1","Ich hätte es hilfreich gefunden, wenn die Aussprache der Silben nicht nur sichtbar, sondern auch hörbar gewesen wäre.","0","1","0","null","","","<img src = 'targets/34.png' width = '100%;'>","null","","","","","","","","","",""
"","html-keyboard-response","218","1509228","0.0-10.0-3.19","6q8ehgwt7z","many_one","0","direct_first","1","er06rl21","1","18","1","1","3","1","Ich hätte es hilfreich gefunden, wenn die Aussprache der Silben nicht nur sichtbar, sondern auch hörbar gewesen wäre.","0","1","0","4501","","","<img src = 'targets/mask.png' width = '100%;'>","75","neg","CS","CS","4","category4/CS8.png","","targets/34.png","indirect","1","19"
"","html-keyboard-response","219","1510750","0.0-10.0-0.20","6q8ehgwt7z","many_one","0","direct_first","1","er06rl21","1","18","1","1","3","1","Ich hätte es hilfreich gefunden, wenn die Aussprache der Silben nicht nur sichtbar, sondern auch hörbar gewesen wäre.","0","1","0","null","","","<div style=""font-size:60px;"">+</div>","null","","","","","","","","","",""
"","html-keyboard-response","220","1510845","0.0-10.0-1.20","6q8ehgwt7z","many_one","0","direct_first","1","er06rl21","1","18","1","1","3","1","Ich hätte es hilfreich gefunden, wenn die Aussprache der Silben nicht nur sichtbar, sondern auch hörbar gewesen wäre.","0","1","0","null","","","<img src = 'category3/CS1.png' width = '100%;'>","null","","","","","","","","","",""
"","html-keyboard-response","221","1511097","0.0-10.0-2.20","6q8ehgwt7z","many_one","0","direct_first","1","er06rl21","1","18","1","1","3","1","Ich hätte es hilfreich gefunden, wenn die Aussprache der Silben nicht nur sichtbar, sondern auch hörbar gewesen wäre.","0","1","0","null","","","<img src = 'targets/11.png' width = '100%;'>","null","","","","","","","","","",""
"","html-keyboard-response","222","1513095","0.0-10.0-3.20","6q8ehgwt7z","many_one","0","direct_first","1","er06rl21","1","18","1","1","3","1","Ich hätte es hilfreich gefunden, wenn die Aussprache der Silben nicht nur sichtbar, sondern auch hörbar gewesen wäre.","0","1","0","1997","","","<img src = 'targets/mask.png' width = '100%;'>","68","neg","GS","GSold","3","category3/CS1.png","","targets/11.png","indirect","0","20"
"","html-keyboard-response","223","1514618","0.0-10.0-0.21","6q8ehgwt7z","many_one","0","direct_first","1","er06rl21","1","18","1","1","3","1","Ich hätte es hilfreich gefunden, wenn die Aussprache der Silben nicht nur sichtbar, sondern auch hörbar gewesen wäre.","0","1","0","null","","","<div style=""font-size:60px;"">+</div>","null","","","","","","","","","",""
"","html-keyboard-response","224","1514711","0.0-10.0-1.21","6q8ehgwt7z","many_one","0","direct_first","1","er06rl21","1","18","1","1","3","1","Ich hätte es hilfreich gefunden, wenn die Aussprache der Silben nicht nur sichtbar, sondern auch hörbar gewesen wäre.","0","1","0","null","","","<img src = 'category1/CS6.png' width = '100%;'>","null","","","","","","","","","",""
"","html-keyboard-response","225","1514980","0.0-10.0-2.21","6q8ehgwt7z","many_one","0","direct_first","1","er06rl21","1","18","1","1","3","1","Ich hätte es hilfreich gefunden, wenn die Aussprache der Silben nicht nur sichtbar, sondern auch hörbar gewesen wäre.","0","1","0","null","","","<img src = 'targets/25.png' width = '100%;'>","null","","","","","","","","","",""
"","html-keyboard-response","226","1517596","0.0-10.0-3.21","6q8ehgwt7z","many_one","0","direct_first","1","er06rl21","1","18","1","1","3","1","Ich hätte es hilfreich gefunden, wenn die Aussprache der Silben nicht nur sichtbar, sondern auch hörbar gewesen wäre.","0","1","0","2617","","","<img src = 'targets/mask.png' width = '100%;'>","75","pos","CS","CS","1","category1/CS6.png","","targets/25.png","indirect","1","21"
"","html-keyboard-response","227","1519107","0.0-10.0-0.22","6q8ehgwt7z","many_one","0","direct_first","1","er06rl21","1","18","1","1","3","1","Ich hätte es hilfreich gefunden, wenn die Aussprache der Silben nicht nur sichtbar, sondern auch hörbar gewesen wäre.","0","1","0","null","","","<div style=""font-size:60px;"">+</div>","null","","","","","","","","","",""
"","html-keyboard-response","228","1519201","0.0-10.0-1.22","6q8ehgwt7z","many_one","0","direct_first","1","er06rl21","1","18","1","1","3","1","Ich hätte es hilfreich gefunden, wenn die Aussprache der Silben nicht nur sichtbar, sondern auch hörbar gewesen wäre.","0","1","0","null","","","<img src = 'category2/CS3.png' width = '100%;'>","null","","","","","","","","","",""
"","html-keyboard-response","229","1519466","0.0-10.0-2.22","6q8ehgwt7z","many_one","0","direct_first","1","er06rl21","1","18","1","1","3","1","Ich hätte es hilfreich gefunden, wenn die Aussprache der Silben nicht nur sichtbar, sondern auch hörbar gewesen wäre.","0","1","0","null","","","<img src = 'targets/1.png' width = '100%;'>","null","","","","","","","","","",""
