"success","trial_type","trial_index","time_elapsed","internal_node_id","subject","condition","condition_code","measure","measure_code","codeword","gender","age","education","chinese","fach","handedness","comment","hinschauen","ablenkung","gewissenhaft","rt","url","responses","stimulus","key_press","val","type","type_specific","category","cs_selected","target","indirect","task","nr_pres","response"
"true","fullscreen","0","13483","0.0-0.0","ctr6gvbqax","many_one","0","indirect_first","0","ch06rt30","0","26","1","0","3","1","","0","1","0","","","","","","","","","","","","","","",""
"","external-html","1","36799","0.0-1.0","ctr6gvbqax","many_one","0","indirect_first","0","ch06rt30","0","26","1","0","3","1","","0","1","0","23187.50999995973","text/information.html","","","","","","","","","","","","",""
"","external-html","2","45375","0.0-2.0","ctr6gvbqax","many_one","0","indirect_first","0","ch06rt30","0","26","1","0","3","1","","0","1","0","8473.339999909513","text/consent.html","","","","","","","","","","","","",""
"","survey-html-form","3","89206","0.0-3.0","ctr6gvbqax","many_one","0","indirect_first","0","ch06rt30","0","26","1","0","3","1","","0","1","0","43825.09000005666","","{""codeword_enter"":""ch06rt30""}","","","","","","","","","","","",""
"","survey-html-form","4","108335","0.0-4.0","ctr6gvbqax","many_one","0","indirect_first","0","ch06rt30","0","26","1","0","3","1","","0","1","0","19118.714999989606","","{""age"":""26"",""education"":""1"",""subject"":""3"",""gender"":""0"",""handedness"":""1"",""chinese"":""0""}","","","","","","","","","","","",""
"","survey-html-form","5","113935","0.0-5.0","ctr6gvbqax","many_one","0","indirect_first","0","ch06rt30","0","26","1","0","3","1","","0","1","0","5593.190000043251","","{}","","","","","","","","","","","",""
"","html-keyboard-response","6","117958","0.0-6.0-0.0-0.0","ctr6gvbqax","many_one","0","indirect_first","0","ch06rt30","0","26","1","0","3","1","","0","1","0","null","","","<div class = 'row'><div class = 'column'><img src = 'category2/CS3.png' width = '70%;'></div><div class = 'column'><img src = 'uspos/2550.bmp' width = '100%;'></div></div>","null","pos","CS","CS","2","category2/CS3.png","","","","",""
"","html-keyboard-response","7","120478","0.0-6.0-0.0-0.1","ctr6gvbqax","many_one","0","indirect_first","0","ch06rt30","0","26","1","0","3","1","","0","1","0","null","","","<div class = 'row'><div class = 'column'><img src = 'category1/CS4.png' width = '70%;'></div><div class = 'column'><img src = 'usneg/6570.1.bmp' width = '100%;'></div></div>","null","neg","CS","CS","1","category1/CS4.png","","","","",""
"","html-keyboard-response","8","123012","0.0-6.0-0.0-0.2","ctr6gvbqax","many_one","0","indirect_first","0","ch06rt30","0","26","1","0","3","1","","0","1","0","null","","","<div class = 'row'><div class = 'column'><img src = 'category1/CS6.png' width = '70%;'></div><div class = 'column'><img src = 'usneg/9561.bmp' width = '100%;'></div></div>","null","neg","CS","CS","1","category1/CS6.png","","","","",""
"","html-keyboard-response","9","125540","0.0-6.0-0.0-0.3","ctr6gvbqax","many_one","0","indirect_first","0","ch06rt30","0","26","1","0","3","1","","0","1","0","null","","","<div class = 'row'><div class = 'column'><img src = 'category3/CS3.png' width = '70%;'></div><div class = 'column'><img src = 'usneg/9560.bmp' width = '100%;'></div></div>","null","neg","CS","CS","3","category3/CS3.png","","","","",""
"","html-keyboard-response","10","128058","0.0-6.0-0.0-0.4","ctr6gvbqax","many_one","0","indirect_first","0","ch06rt30","0","26","1","0","3","1","","0","1","0","null","","","<div class = 'row'><div class = 'column'><img src = 'usneg/9041.bmp' width = '100%;'></div><div class = 'column'><img src = 'category3/CS10.png' width = '70%;'></div></div>","null","neg","CS","CS","3","category3/CS10.png","","","","",""
"","html-keyboard-response","11","130591","0.0-6.0-0.0-0.5","ctr6gvbqax","many_one","0","indirect_first","0","ch06rt30","0","26","1","0","3","1","","0","1","0","null","","","<div class = 'row'><div class = 'column'><img src = 'usneg/9421.bmp' width = '100%;'></div><div class = 'column'><img src = 'category1/CS8.png' width = '70%;'></div></div>","null","neg","CS","CS","1","category1/CS8.png","","","","",""
"","html-keyboard-response","12","133124","0.0-6.0-0.0-0.6","ctr6gvbqax","many_one","0","indirect_first","0","ch06rt30","0","26","1","0","3","1","","0","1","0","null","","","<div class = 'row'><div class = 'column'><img src = 'category2/CS1.png' width = '70%;'></div><div class = 'column'><img src = 'uspos/8350.bmp' width = '100%;'></div></div>","null","pos","CS","CS","2","category2/CS1.png","","","","",""
"","html-keyboard-response","13","135657","0.0-6.0-0.0-0.7","ctr6gvbqax","many_one","0","indirect_first","0","ch06rt30","0","26","1","0","3","1","","0","1","0","null","","","<div class = 'row'><div class = 'column'><img src = 'uspos/2057.bmp' width = '100%;'></div><div class = 'column'><img src = 'category2/CS6.png' width = '70%;'></div></div>","null","pos","CS","CS","2","category2/CS6.png","","","","",""
"","html-keyboard-response","14","138173","0.0-6.0-0.0-0.8","ctr6gvbqax","many_one","0","indirect_first","0","ch06rt30","0","26","1","0","3","1","","0","1","0","null","","","<div class = 'row'><div class = 'column'><img src = 'category4/CS6.png' width = '70%;'></div><div class = 'column'><img src = 'uspos/7325.bmp' width = '100%;'></div></div>","null","pos","CS","CS","4","category4/CS6.png","","","","",""
"","html-keyboard-response","15","140707","0.0-6.0-0.0-0.9","ctr6gvbqax","many_one","0","indirect_first","0","ch06rt30","0","26","1","0","3","1","","0","1","0","null","","","<div class = 'row'><div class = 'column'><img src = 'category1/CS9.png' width = '70%;'></div><div class = 'column'><img src = 'usneg/2900.bmp' width = '100%;'></div></div>","null","neg","CS","CS","1","category1/CS9.png","","","","",""
"","html-keyboard-response","16","143238","0.0-6.0-0.0-0.10","ctr6gvbqax","many_one","0","indirect_first","0","ch06rt30","0","26","1","0","3","1","","0","1","0","null","","","<div class = 'row'><div class = 'column'><img src = 'uspos/1710.bmp' width = '100%;'></div><div class = 'column'><img src = 'category4/CS10.png' width = '70%;'></div></div>","null","pos","CS","CS","4","category4/CS10.png","","","","",""
"","html-keyboard-response","17","145757","0.0-6.0-0.0-0.11","ctr6gvbqax","many_one","0","indirect_first","0","ch06rt30","0","26","1","0","3","1","","0","1","0","null","","","<div class = 'row'><div class = 'column'><img src = 'usneg/9920.bmp' width = '100%;'></div><div class = 'column'><img src = 'category3/CS7.png' width = '70%;'></div></div>","null","neg","CS","CS","3","category3/CS7.png","","","","",""
"","html-keyboard-response","18","148288","0.0-6.0-0.0-0.12","ctr6gvbqax","many_one","0","indirect_first","0","ch06rt30","0","26","1","0","3","1","","0","1","0","null","","","<div class = 'row'><div class = 'column'><img src = 'uspos/2340.bmp' width = '100%;'></div><div class = 'column'><img src = 'category4/CS8.png' width = '70%;'></div></div>","null","pos","CS","CS","4","category4/CS8.png","","","","",""
"","html-keyboard-response","19","150812","0.0-6.0-0.0-0.13","ctr6gvbqax","many_one","0","indirect_first","0","ch06rt30","0","26","1","0","3","1","","0","1","0","null","","","<div class = 'row'><div class = 'column'><img src = 'category4/CS4.png' width = '70%;'></div><div class = 'column'><img src = 'uspos/8540.bmp' width = '100%;'></div></div>","null","pos","CS","CS","4","category4/CS4.png","","","","",""
"","html-keyboard-response","20","153338","0.0-6.0-0.0-0.14","ctr6gvbqax","many_one","0","indirect_first","0","ch06rt30","0","26","1","0","3","1","","0","1","0","null","","","<div class = 'row'><div class = 'column'><img src = 'category2/CS8.png' width = '70%;'></div><div class = 'column'><img src = 'uspos/2311.bmp' width = '100%;'></div></div>","null","pos","CS","CS","2","category2/CS8.png","","","","",""
"","html-keyboard-response","21","155872","0.0-6.0-0.0-0.15","ctr6gvbqax","many_one","0","indirect_first","0","ch06rt30","0","26","1","0","3","1","","0","1","0","null","","","<div class = 'row'><div class = 'column'><img src = 'usneg/2141.bmp' width = '100%;'></div><div class = 'column'><img src = 'category1/CS5.png' width = '70%;'></div></div>","null","neg","CS","CS","1","category1/CS5.png","","","","",""
"","html-keyboard-response","22","158403","0.0-6.0-0.0-0.16","ctr6gvbqax","many_one","0","indirect_first","0","ch06rt30","0","26","1","0","3","1","","0","1","0","null","","","<div class = 'row'><div class = 'column'><img src = 'category3/CS8.png' width = '70%;'></div><div class = 'column'><img src = 'usneg/9520.bmp' width = '100%;'></div></div>","null","neg","CS","CS","3","category3/CS8.png","","","","",""
"","html-keyboard-response","23","160913","0.0-6.0-0.0-0.17","ctr6gvbqax","many_one","0","indirect_first","0","ch06rt30","0","26","1","0","3","1","","0","1","0","null","","","<div class = 'row'><div class = 'column'><img src = 'uspos/4625.bmp' width = '100%;'></div><div class = 'column'><img src = 'category2/CS2.png' width = '70%;'></div></div>","null","pos","CS","CS","2","category2/CS2.png","","","","",""
"","html-keyboard-response","24","163437","0.0-6.0-0.0-0.18","ctr6gvbqax","many_one","0","indirect_first","0","ch06rt30","0","26","1","0","3","1","","0","1","0","null","","","<div class = 'row'><div class = 'column'><img src = 'uspos/2030.bmp' width = '100%;'></div><div class = 'column'><img src = 'category4/CS3.png' width = '70%;'></div></div>","null","pos","CS","CS","4","category4/CS3.png","","","","",""
"","html-keyboard-response","25","165970","0.0-6.0-0.0-0.19","ctr6gvbqax","many_one","0","indirect_first","0","ch06rt30","0","26","1","0","3","1","","0","1","0","null","","","<div class = 'row'><div class = 'column'><img src = 'usneg/9584.bmp' width = '100%;'></div><div class = 'column'><img src = 'category3/CS5.png' width = '70%;'></div></div>","null","neg","CS","CS","3","category3/CS5.png","","","","",""
"","survey-html-form","26","169891","0.0-6.0-1.0","ctr6gvbqax","many_one","0","indirect_first","0","ch06rt30","0","26","1","0","3","1","","0","1","0","3404.770000022836","","{}","","","","","","","","","","","",""
"","html-keyboard-response","27","173904","0.0-6.0-2.0-0.0","ctr6gvbqax","many_one","0","indirect_first","0","ch06rt30","0","26","1","0","3","1","","0","1","0","null","","","<div class = 'row'><div class = 'column'><img src = 'category4/CS4.png' width = '70%;'></div><div class = 'column'><img src = 'uspos/8540.bmp' width = '100%;'></div></div>","null","pos","CS","CS","4","category4/CS4.png","","","","",""
"","html-keyboard-response","28","176434","0.0-6.0-2.0-0.1","ctr6gvbqax","many_one","0","indirect_first","0","ch06rt30","0","26","1","0","3","1","","0","1","0","null","","","<div class = 'row'><div class = 'column'><img src = 'category3/CS10.png' width = '70%;'></div><div class = 'column'><img src = 'usneg/9041.bmp' width = '100%;'></div></div>","null","neg","CS","CS","3","category3/CS10.png","","","","",""
"","html-keyboard-response","29","178943","0.0-6.0-2.0-0.2","ctr6gvbqax","many_one","0","indirect_first","0","ch06rt30","0","26","1","0","3","1","","0","1","0","null","","","<div class = 'row'><div class = 'column'><img src = 'category1/CS4.png' width = '70%;'></div><div class = 'column'><img src = 'usneg/6570.1.bmp' width = '100%;'></div></div>","null","neg","CS","CS","1","category1/CS4.png","","","","",""
"","html-keyboard-response","30","181469","0.0-6.0-2.0-0.3","ctr6gvbqax","many_one","0","indirect_first","0","ch06rt30","0","26","1","0","3","1","","0","1","0","null","","","<div class = 'row'><div class = 'column'><img src = 'category4/CS10.png' width = '70%;'></div><div class = 'column'><img src = 'uspos/1710.bmp' width = '100%;'></div></div>","null","pos","CS","CS","4","category4/CS10.png","","","","",""
"","html-keyboard-response","31","184002","0.0-6.0-2.0-0.4","ctr6gvbqax","many_one","0","indirect_first","0","ch06rt30","0","26","1","0","3","1","","0","1","0","null","","","<div class = 'row'><div class = 'column'><img src = 'category3/CS5.png' width = '70%;'></div><div class = 'column'><img src = 'usneg/9584.bmp' width = '100%;'></div></div>","null","neg","CS","CS","3","category3/CS5.png","","","","",""
"","html-keyboard-response","32","186534","0.0-6.0-2.0-0.5","ctr6gvbqax","many_one","0","indirect_first","0","ch06rt30","0","26","1","0","3","1","","0","1","0","null","","","<div class = 'row'><div class = 'column'><img src = 'category2/CS8.png' width = '70%;'></div><div class = 'column'><img src = 'uspos/2311.bmp' width = '100%;'></div></div>","null","pos","CS","CS","2","category2/CS8.png","","","","",""
"","html-keyboard-response","33","189041","0.0-6.0-2.0-0.6","ctr6gvbqax","many_one","0","indirect_first","0","ch06rt30","0","26","1","0","3","1","","0","1","0","null","","","<div class = 'row'><div class = 'column'><img src = 'usneg/9421.bmp' width = '100%;'></div><div class = 'column'><img src = 'category1/CS8.png' width = '70%;'></div></div>","null","neg","CS","CS","1","category1/CS8.png","","","","",""
"","html-keyboard-response","34","191551","0.0-6.0-2.0-0.7","ctr6gvbqax","many_one","0","indirect_first","0","ch06rt30","0","26","1","0","3","1","","0","1","0","null","","","<div class = 'row'><div class = 'column'><img src = 'usneg/9920.bmp' width = '100%;'></div><div class = 'column'><img src = 'category3/CS7.png' width = '70%;'></div></div>","null","neg","CS","CS","3","category3/CS7.png","","","","",""
"","html-keyboard-response","35","194084","0.0-6.0-2.0-0.8","ctr6gvbqax","many_one","0","indirect_first","0","ch06rt30","0","26","1","0","3","1","","0","1","0","null","","","<div class = 'row'><div class = 'column'><img src = 'usneg/9520.bmp' width = '100%;'></div><div class = 'column'><img src = 'category3/CS8.png' width = '70%;'></div></div>","null","neg","CS","CS","3","category3/CS8.png","","","","",""
"","html-keyboard-response","36","196616","0.0-6.0-2.0-0.9","ctr6gvbqax","many_one","0","indirect_first","0","ch06rt30","0","26","1","0","3","1","","0","1","0","null","","","<div class = 'row'><div class = 'column'><img src = 'category1/CS5.png' width = '70%;'></div><div class = 'column'><img src = 'usneg/2141.bmp' width = '100%;'></div></div>","null","neg","CS","CS","1","category1/CS5.png","","","","",""
"","html-keyboard-response","37","199150","0.0-6.0-2.0-0.10","ctr6gvbqax","many_one","0","indirect_first","0","ch06rt30","0","26","1","0","3","1","","0","1","0","null","","","<div class = 'row'><div class = 'column'><img src = 'category4/CS3.png' width = '70%;'></div><div class = 'column'><img src = 'uspos/2030.bmp' width = '100%;'></div></div>","null","pos","CS","CS","4","category4/CS3.png","","","","",""
"","html-keyboard-response","38","201681","0.0-6.0-2.0-0.11","ctr6gvbqax","many_one","0","indirect_first","0","ch06rt30","0","26","1","0","3","1","","0","1","0","null","","","<div class = 'row'><div class = 'column'><img src = 'uspos/2550.bmp' width = '100%;'></div><div class = 'column'><img src = 'category2/CS3.png' width = '70%;'></div></div>","null","pos","CS","CS","2","category2/CS3.png","","","","",""
"","html-keyboard-response","39","204201","0.0-6.0-2.0-0.12","ctr6gvbqax","many_one","0","indirect_first","0","ch06rt30","0","26","1","0","3","1","","0","1","0","null","","","<div class = 'row'><div class = 'column'><img src = 'category4/CS6.png' width = '70%;'></div><div class = 'column'><img src = 'uspos/7325.bmp' width = '100%;'></div></div>","null","pos","CS","CS","4","category4/CS6.png","","","","",""
"","html-keyboard-response","40","206716","0.0-6.0-2.0-0.13","ctr6gvbqax","many_one","0","indirect_first","0","ch06rt30","0","26","1","0","3","1","","0","1","0","null","","","<div class = 'row'><div class = 'column'><img src = 'category1/CS9.png' width = '70%;'></div><div class = 'column'><img src = 'usneg/2900.bmp' width = '100%;'></div></div>","null","neg","CS","CS","1","category1/CS9.png","","","","",""
"","html-keyboard-response","41","209247","0.0-6.0-2.0-0.14","ctr6gvbqax","many_one","0","indirect_first","0","ch06rt30","0","26","1","0","3","1","","0","1","0","null","","","<div class = 'row'><div class = 'column'><img src = 'category1/CS6.png' width = '70%;'></div><div class = 'column'><img src = 'usneg/9561.bmp' width = '100%;'></div></div>","null","neg","CS","CS","1","category1/CS6.png","","","","",""
"","html-keyboard-response","42","211773","0.0-6.0-2.0-0.15","ctr6gvbqax","many_one","0","indirect_first","0","ch06rt30","0","26","1","0","3","1","","0","1","0","null","","","<div class = 'row'><div class = 'column'><img src = 'uspos/8350.bmp' width = '100%;'></div><div class = 'column'><img src = 'category2/CS1.png' width = '70%;'></div></div>","null","pos","CS","CS","2","category2/CS1.png","","","","",""
"","html-keyboard-response","43","214297","0.0-6.0-2.0-0.16","ctr6gvbqax","many_one","0","indirect_first","0","ch06rt30","0","26","1","0","3","1","","0","1","0","null","","","<div class = 'row'><div class = 'column'><img src = 'uspos/4625.bmp' width = '100%;'></div><div class = 'column'><img src = 'category2/CS2.png' width = '70%;'></div></div>","null","pos","CS","CS","2","category2/CS2.png","","","","",""
"","html-keyboard-response","44","216830","0.0-6.0-2.0-0.17","ctr6gvbqax","many_one","0","indirect_first","0","ch06rt30","0","26","1","0","3","1","","0","1","0","null","","","<div class = 'row'><div class = 'column'><img src = 'uspos/2057.bmp' width = '100%;'></div><div class = 'column'><img src = 'category2/CS6.png' width = '70%;'></div></div>","null","pos","CS","CS","2","category2/CS6.png","","","","",""
"","html-keyboard-response","45","219363","0.0-6.0-2.0-0.18","ctr6gvbqax","many_one","0","indirect_first","0","ch06rt30","0","26","1","0","3","1","","0","1","0","null","","","<div class = 'row'><div class = 'column'><img src = 'category4/CS8.png' width = '70%;'></div><div class = 'column'><img src = 'uspos/2340.bmp' width = '100%;'></div></div>","null","pos","CS","CS","4","category4/CS8.png","","","","",""
"","html-keyboard-response","46","221881","0.0-6.0-2.0-0.19","ctr6gvbqax","many_one","0","indirect_first","0","ch06rt30","0","26","1","0","3","1","","0","1","0","null","","","<div class = 'row'><div class = 'column'><img src = 'category3/CS3.png' width = '70%;'></div><div class = 'column'><img src = 'usneg/9560.bmp' width = '100%;'></div></div>","null","neg","CS","CS","3","category3/CS3.png","","","","",""
"","survey-html-form","47","225469","0.0-6.0-3.0","ctr6gvbqax","many_one","0","indirect_first","0","ch06rt30","0","26","1","0","3","1","","0","1","0","3072.204999974929","","{}","","","","","","","","","","","",""
"","html-keyboard-response","48","229492","0.0-6.0-4.0-0.0","ctr6gvbqax","many_one","0","indirect_first","0","ch06rt30","0","26","1","0","3","1","","0","1","0","null","","","<div class = 'row'><div class = 'column'><img src = 'category1/CS9.png' width = '70%;'></div><div class = 'column'><img src = 'usneg/2900.bmp' width = '100%;'></div></div>","null","neg","CS","CS","1","category1/CS9.png","","","","",""
"","html-keyboard-response","49","232014","0.0-6.0-4.0-0.1","ctr6gvbqax","many_one","0","indirect_first","0","ch06rt30","0","26","1","0","3","1","","0","1","0","null","","","<div class = 'row'><div class = 'column'><img src = 'category3/CS7.png' width = '70%;'></div><div class = 'column'><img src = 'usneg/9920.bmp' width = '100%;'></div></div>","null","neg","CS","CS","3","category3/CS7.png","","","","",""
"","html-keyboard-response","50","234545","0.0-6.0-4.0-0.2","ctr6gvbqax","many_one","0","indirect_first","0","ch06rt30","0","26","1","0","3","1","","0","1","0","null","","","<div class = 'row'><div class = 'column'><img src = 'usneg/9520.bmp' width = '100%;'></div><div class = 'column'><img src = 'category3/CS8.png' width = '70%;'></div></div>","null","neg","CS","CS","3","category3/CS8.png","","","","",""
"","html-keyboard-response","51","237069","0.0-6.0-4.0-0.3","ctr6gvbqax","many_one","0","indirect_first","0","ch06rt30","0","26","1","0","3","1","","0","1","0","null","","","<div class = 'row'><div class = 'column'><img src = 'usneg/9560.bmp' width = '100%;'></div><div class = 'column'><img src = 'category3/CS3.png' width = '70%;'></div></div>","null","neg","CS","CS","3","category3/CS3.png","","","","",""
"","html-keyboard-response","52","239592","0.0-6.0-4.0-0.4","ctr6gvbqax","many_one","0","indirect_first","0","ch06rt30","0","26","1","0","3","1","","0","1","0","null","","","<div class = 'row'><div class = 'column'><img src = 'uspos/8350.bmp' width = '100%;'></div><div class = 'column'><img src = 'category2/CS1.png' width = '70%;'></div></div>","null","pos","CS","CS","2","category2/CS1.png","","","","",""
"","html-keyboard-response","53","242111","0.0-6.0-4.0-0.5","ctr6gvbqax","many_one","0","indirect_first","0","ch06rt30","0","26","1","0","3","1","","0","1","0","null","","","<div class = 'row'><div class = 'column'><img src = 'category4/CS3.png' width = '70%;'></div><div class = 'column'><img src = 'uspos/2030.bmp' width = '100%;'></div></div>","null","pos","CS","CS","4","category4/CS3.png","","","","",""
"","html-keyboard-response","54","244776","0.0-6.0-4.0-0.6","ctr6gvbqax","many_one","0","indirect_first","0","ch06rt30","0","26","1","0","3","1","","0","1","0","null","","","<div class = 'row'><div class = 'column'><img src = 'uspos/4625.bmp' width = '100%;'></div><div class = 'column'><img src = 'category2/CS2.png' width = '70%;'></div></div>","null","pos","CS","CS","2","category2/CS2.png","","","","",""
"","html-keyboard-response","55","247784","0.0-6.0-4.0-0.7","ctr6gvbqax","many_one","0","indirect_first","0","ch06rt30","0","26","1","0","3","1","","0","1","0","null","","","<div class = 'row'><div class = 'column'><img src = 'uspos/2340.bmp' width = '100%;'></div><div class = 'column'><img src = 'category4/CS8.png' width = '70%;'></div></div>","null","pos","CS","CS","4","category4/CS8.png","","","","",""
"","html-keyboard-response","56","250441","0.0-6.0-4.0-0.8","ctr6gvbqax","many_one","0","indirect_first","0","ch06rt30","0","26","1","0","3","1","","0","1","0","null","","","<div class = 'row'><div class = 'column'><img src = 'usneg/6570.1.bmp' width = '100%;'></div><div class = 'column'><img src = 'category1/CS4.png' width = '70%;'></div></div>","null","neg","CS","CS","1","category1/CS4.png","","","","",""
"","html-keyboard-response","57","252951","0.0-6.0-4.0-0.9","ctr6gvbqax","many_one","0","indirect_first","0","ch06rt30","0","26","1","0","3","1","","0","1","0","null","","","<div class = 'row'><div class = 'column'><img src = 'uspos/1710.bmp' width = '100%;'></div><div class = 'column'><img src = 'category4/CS10.png' width = '70%;'></div></div>","null","pos","CS","CS","4","category4/CS10.png","","","","",""
"","html-keyboard-response","58","255477","0.0-6.0-4.0-0.10","ctr6gvbqax","many_one","0","indirect_first","0","ch06rt30","0","26","1","0","3","1","","0","1","0","null","","","<div class = 'row'><div class = 'column'><img src = 'category1/CS8.png' width = '70%;'></div><div class = 'column'><img src = 'usneg/9421.bmp' width = '100%;'></div></div>","null","neg","CS","CS","1","category1/CS8.png","","","","",""
"","html-keyboard-response","59","258010","0.0-6.0-4.0-0.11","ctr6gvbqax","many_one","0","indirect_first","0","ch06rt30","0","26","1","0","3","1","","0","1","0","null","","","<div class = 'row'><div class = 'column'><img src = 'usneg/2141.bmp' width = '100%;'></div><div class = 'column'><img src = 'category1/CS5.png' width = '70%;'></div></div>","null","neg","CS","CS","1","category1/CS5.png","","","","",""
"","html-keyboard-response","60","260542","0.0-6.0-4.0-0.12","ctr6gvbqax","many_one","0","indirect_first","0","ch06rt30","0","26","1","0","3","1","","0","1","0","null","","","<div class = 'row'><div class = 'column'><img src = 'uspos/2550.bmp' width = '100%;'></div><div class = 'column'><img src = 'category2/CS3.png' width = '70%;'></div></div>","null","pos","CS","CS","2","category2/CS3.png","","","","",""
"","html-keyboard-response","61","263076","0.0-6.0-4.0-0.13","ctr6gvbqax","many_one","0","indirect_first","0","ch06rt30","0","26","1","0","3","1","","0","1","0","null","","","<div class = 'row'><div class = 'column'><img src = 'category3/CS10.png' width = '70%;'></div><div class = 'column'><img src = 'usneg/9041.bmp' width = '100%;'></div></div>","null","neg","CS","CS","3","category3/CS10.png","","","","",""
"","html-keyboard-response","62","265608","0.0-6.0-4.0-0.14","ctr6gvbqax","many_one","0","indirect_first","0","ch06rt30","0","26","1","0","3","1","","0","1","0","null","","","<div class = 'row'><div class = 'column'><img src = 'uspos/8540.bmp' width = '100%;'></div><div class = 'column'><img src = 'category4/CS4.png' width = '70%;'></div></div>","null","pos","CS","CS","4","category4/CS4.png","","","","",""
"","html-keyboard-response","63","268140","0.0-6.0-4.0-0.15","ctr6gvbqax","many_one","0","indirect_first","0","ch06rt30","0","26","1","0","3","1","","0","1","0","null","","","<div class = 'row'><div class = 'column'><img src = 'category4/CS6.png' width = '70%;'></div><div class = 'column'><img src = 'uspos/7325.bmp' width = '100%;'></div></div>","null","pos","CS","CS","4","category4/CS6.png","","","","",""
"","html-keyboard-response","64","270674","0.0-6.0-4.0-0.16","ctr6gvbqax","many_one","0","indirect_first","0","ch06rt30","0","26","1","0","3","1","","0","1","0","null","","","<div class = 'row'><div class = 'column'><img src = 'uspos/2057.bmp' width = '100%;'></div><div class = 'column'><img src = 'category2/CS6.png' width = '70%;'></div></div>","null","pos","CS","CS","2","category2/CS6.png","","","","",""
"","html-keyboard-response","65","273207","0.0-6.0-4.0-0.17","ctr6gvbqax","many_one","0","indirect_first","0","ch06rt30","0","26","1","0","3","1","","0","1","0","null","","","<div class = 'row'><div class = 'column'><img src = 'category1/CS6.png' width = '70%;'></div><div class = 'column'><img src = 'usneg/9561.bmp' width = '100%;'></div></div>","null","neg","CS","CS","1","category1/CS6.png","","","","",""
"","html-keyboard-response","66","275740","0.0-6.0-4.0-0.18","ctr6gvbqax","many_one","0","indirect_first","0","ch06rt30","0","26","1","0","3","1","","0","1","0","null","","","<div class = 'row'><div class = 'column'><img src = 'usneg/9584.bmp' width = '100%;'></div><div class = 'column'><img src = 'category3/CS5.png' width = '70%;'></div></div>","null","neg","CS","CS","3","category3/CS5.png","","","","",""
"","html-keyboard-response","67","278272","0.0-6.0-4.0-0.19","ctr6gvbqax","many_one","0","indirect_first","0","ch06rt30","0","26","1","0","3","1","","0","1","0","null","","","<div class = 'row'><div class = 'column'><img src = 'category2/CS8.png' width = '70%;'></div><div class = 'column'><img src = 'uspos/2311.bmp' width = '100%;'></div></div>","null","pos","CS","CS","2","category2/CS8.png","","","","",""
"","survey-html-form","68","280829","0.0-6.0-5.0","ctr6gvbqax","many_one","0","indirect_first","0","ch06rt30","0","26","1","0","3","1","","0","1","0","2055.6450000731274","","{}","","","","","","","","","","","",""
"","html-keyboard-response","69","284850","0.0-6.0-6.0-0.0","ctr6gvbqax","many_one","0","indirect_first","0","ch06rt30","0","26","1","0","3","1","","0","1","0","null","","","<div class = 'row'><div class = 'column'><img src = 'category2/CS3.png' width = '70%;'></div><div class = 'column'><img src = 'uspos/2550.bmp' width = '100%;'></div></div>","null","pos","CS","CS","2","category2/CS3.png","","","","",""
"","html-keyboard-response","70","287781","0.0-6.0-6.0-0.1","ctr6gvbqax","many_one","0","indirect_first","0","ch06rt30","0","26","1","0","3","1","","0","1","0","null","","","<div class = 'row'><div class = 'column'><img src = 'uspos/2057.bmp' width = '100%;'></div><div class = 'column'><img src = 'category2/CS6.png' width = '70%;'></div></div>","null","pos","CS","CS","2","category2/CS6.png","","","","",""
"","html-keyboard-response","71","291776","0.0-6.0-6.0-0.2","ctr6gvbqax","many_one","0","indirect_first","0","ch06rt30","0","26","1","0","3","1","","0","1","0","null","","","<div class = 'row'><div class = 'column'><img src = 'category2/CS2.png' width = '70%;'></div><div class = 'column'><img src = 'uspos/4625.bmp' width = '100%;'></div></div>","null","pos","CS","CS","2","category2/CS2.png","","","","",""
"","html-keyboard-response","72","295782","0.0-6.0-6.0-0.3","ctr6gvbqax","many_one","0","indirect_first","0","ch06rt30","0","26","1","0","3","1","","0","1","0","null","","","<div class = 'row'><div class = 'column'><img src = 'usneg/2900.bmp' width = '100%;'></div><div class = 'column'><img src = 'category1/CS9.png' width = '70%;'></div></div>","null","neg","CS","CS","1","category1/CS9.png","","","","",""
"","html-keyboard-response","73","298618","0.0-6.0-6.0-0.4","ctr6gvbqax","many_one","0","indirect_first","0","ch06rt30","0","26","1","0","3","1","","0","1","0","null","","","<div class = 'row'><div class = 'column'><img src = 'category4/CS6.png' width = '70%;'></div><div class = 'column'><img src = 'uspos/7325.bmp' width = '100%;'></div></div>","null","pos","CS","CS","4","category4/CS6.png","","","","",""
"","html-keyboard-response","74","301128","0.0-6.0-6.0-0.5","ctr6gvbqax","many_one","0","indirect_first","0","ch06rt30","0","26","1","0","3","1","","0","1","0","null","","","<div class = 'row'><div class = 'column'><img src = 'category1/CS4.png' width = '70%;'></div><div class = 'column'><img src = 'usneg/6570.1.bmp' width = '100%;'></div></div>","null","neg","CS","CS","1","category1/CS4.png","","","","",""
"","html-keyboard-response","75","303643","0.0-6.0-6.0-0.6","ctr6gvbqax","many_one","0","indirect_first","0","ch06rt30","0","26","1","0","3","1","","0","1","0","null","","","<div class = 'row'><div class = 'column'><img src = 'category1/CS8.png' width = '70%;'></div><div class = 'column'><img src = 'usneg/9421.bmp' width = '100%;'></div></div>","null","neg","CS","CS","1","category1/CS8.png","","","","",""
"","html-keyboard-response","76","306169","0.0-6.0-6.0-0.7","ctr6gvbqax","many_one","0","indirect_first","0","ch06rt30","0","26","1","0","3","1","","0","1","0","null","","","<div class = 'row'><div class = 'column'><img src = 'usneg/9560.bmp' width = '100%;'></div><div class = 'column'><img src = 'category3/CS3.png' width = '70%;'></div></div>","null","neg","CS","CS","3","category3/CS3.png","","","","",""
"","html-keyboard-response","77","308698","0.0-6.0-6.0-0.8","ctr6gvbqax","many_one","0","indirect_first","0","ch06rt30","0","26","1","0","3","1","","0","1","0","null","","","<div class = 'row'><div class = 'column'><img src = 'category1/CS6.png' width = '70%;'></div><div class = 'column'><img src = 'usneg/9561.bmp' width = '100%;'></div></div>","null","neg","CS","CS","1","category1/CS6.png","","","","",""
"","html-keyboard-response","78","311228","0.0-6.0-6.0-0.9","ctr6gvbqax","many_one","0","indirect_first","0","ch06rt30","0","26","1","0","3","1","","0","1","0","null","","","<div class = 'row'><div class = 'column'><img src = 'uspos/1710.bmp' width = '100%;'></div><div class = 'column'><img src = 'category4/CS10.png' width = '70%;'></div></div>","null","pos","CS","CS","4","category4/CS10.png","","","","",""
"","html-keyboard-response","79","313765","0.0-6.0-6.0-0.10","ctr6gvbqax","many_one","0","indirect_first","0","ch06rt30","0","26","1","0","3","1","","0","1","0","null","","","<div class = 'row'><div class = 'column'><img src = 'category3/CS7.png' width = '70%;'></div><div class = 'column'><img src = 'usneg/9920.bmp' width = '100%;'></div></div>","null","neg","CS","CS","3","category3/CS7.png","","","","",""
"","html-keyboard-response","80","316306","0.0-6.0-6.0-0.11","ctr6gvbqax","many_one","0","indirect_first","0","ch06rt30","0","26","1","0","3","1","","0","1","0","null","","","<div class = 'row'><div class = 'column'><img src = 'category3/CS5.png' width = '70%;'></div><div class = 'column'><img src = 'usneg/9584.bmp' width = '100%;'></div></div>","null","neg","CS","CS","3","category3/CS5.png","","","","",""
"","html-keyboard-response","81","318839","0.0-6.0-6.0-0.12","ctr6gvbqax","many_one","0","indirect_first","0","ch06rt30","0","26","1","0","3","1","","0","1","0","null","","","<div class = 'row'><div class = 'column'><img src = 'category2/CS1.png' width = '70%;'></div><div class = 'column'><img src = 'uspos/8350.bmp' width = '100%;'></div></div>","null","pos","CS","CS","2","category2/CS1.png","","","","",""
"","html-keyboard-response","82","321355","0.0-6.0-6.0-0.13","ctr6gvbqax","many_one","0","indirect_first","0","ch06rt30","0","26","1","0","3","1","","0","1","0","null","","","<div class = 'row'><div class = 'column'><img src = 'uspos/2030.bmp' width = '100%;'></div><div class = 'column'><img src = 'category4/CS3.png' width = '70%;'></div></div>","null","pos","CS","CS","4","category4/CS3.png","","","","",""
"","html-keyboard-response","83","323882","0.0-6.0-6.0-0.14","ctr6gvbqax","many_one","0","indirect_first","0","ch06rt30","0","26","1","0","3","1","","0","1","0","null","","","<div class = 'row'><div class = 'column'><img src = 'usneg/9041.bmp' width = '100%;'></div><div class = 'column'><img src = 'category3/CS10.png' width = '70%;'></div></div>","null","neg","CS","CS","3","category3/CS10.png","","","","",""
"","html-keyboard-response","84","326417","0.0-6.0-6.0-0.15","ctr6gvbqax","many_one","0","indirect_first","0","ch06rt30","0","26","1","0","3","1","","0","1","0","null","","","<div class = 'row'><div class = 'column'><img src = 'usneg/9520.bmp' width = '100%;'></div><div class = 'column'><img src = 'category3/CS8.png' width = '70%;'></div></div>","null","neg","CS","CS","3","category3/CS8.png","","","","",""
"","html-keyboard-response","85","328949","0.0-6.0-6.0-0.16","ctr6gvbqax","many_one","0","indirect_first","0","ch06rt30","0","26","1","0","3","1","","0","1","0","null","","","<div class = 'row'><div class = 'column'><img src = 'category4/CS8.png' width = '70%;'></div><div class = 'column'><img src = 'uspos/2340.bmp' width = '100%;'></div></div>","null","pos","CS","CS","4","category4/CS8.png","","","","",""
"","html-keyboard-response","86","331482","0.0-6.0-6.0-0.17","ctr6gvbqax","many_one","0","indirect_first","0","ch06rt30","0","26","1","0","3","1","","0","1","0","null","","","<div class = 'row'><div class = 'column'><img src = 'uspos/8540.bmp' width = '100%;'></div><div class = 'column'><img src = 'category4/CS4.png' width = '70%;'></div></div>","null","pos","CS","CS","4","category4/CS4.png","","","","",""
"","html-keyboard-response","87","333999","0.0-6.0-6.0-0.18","ctr6gvbqax","many_one","0","indirect_first","0","ch06rt30","0","26","1","0","3","1","","0","1","0","null","","","<div class = 'row'><div class = 'column'><img src = 'category1/CS5.png' width = '70%;'></div><div class = 'column'><img src = 'usneg/2141.bmp' width = '100%;'></div></div>","null","neg","CS","CS","1","category1/CS5.png","","","","",""
"","html-keyboard-response","88","336527","0.0-6.0-6.0-0.19","ctr6gvbqax","many_one","0","indirect_first","0","ch06rt30","0","26","1","0","3","1","","0","1","0","null","","","<div class = 'row'><div class = 'column'><img src = 'uspos/2311.bmp' width = '100%;'></div><div class = 'column'><img src = 'category2/CS8.png' width = '70%;'></div></div>","null","pos","CS","CS","2","category2/CS8.png","","","","",""
"","html-keyboard-response","89","357500","0.0-7.0","ctr6gvbqax","many_one","0","indirect_first","0","ch06rt30","0","26","1","0","3","1","","0","1","0","20465.405000024475","","","<p>Sie sehen nun die chinesischen Zeichen nur ganz kurz. Danach sehen Sie die jeweilige Aussprache der Zeichen als Silbe auf dem Bildschrim. Ihre Aufgabe ist es, für jede Silbe anzugeben, ob diese etwas angenehmes, oder unangenehmes bedeuten könnte. Verlassen Sie sich hier vor allem auf Ihre Intuition.<br><br>Die Zeichen werden nur zur Orientierung dargestellt, beachten Sie sie deshalb nicht. Konzentrieren Sie sich vor allem auf die Silben. <br>Reagieren Sie mit folgenden zwei Tasten: <br><br><b>'D' </b> wenn die Silbe etwas <b>unangenehmes</b> bedeuten könnte. <br><b>'K'</b> wenn die Silbe etwas <b>angenehmes</b> bedeuten könnte. <br><br>Bitte legen Sie nun den Zeigefinger der linken Hand auf die Taste 'D' und den Zeigefinger der rechten Hand auf die Taste 'K'. <br>Reagieren Sie auf jede Silbe so schnell wie möglich. Uns interessiert Ihre spontane Reaktion. <br> <br> <br>Drücken Sie 'D' oder 'K', um die nächste Aufgabe zu starten. </p>","68","","","","","","","","","",""
"","html-keyboard-response","90","360513","0.0-8.0-0.0","ctr6gvbqax","many_one","0","indirect_first","0","ch06rt30","0","26","1","0","3","1","","0","1","0","null","","","<div style=""font-size:60px;"">+</div>","null","","","","","","","","","",""
"","html-keyboard-response","91","360608","0.0-8.0-1.0","ctr6gvbqax","many_one","0","indirect_first","0","ch06rt30","0","26","1","0","3","1","","0","1","0","null","","","<img src = 'category1/CS8.png' width = '100%;'>","null","","","","","","","","","",""
"","html-keyboard-response","92","360871","0.0-8.0-2.0","ctr6gvbqax","many_one","0","indirect_first","0","ch06rt30","0","26","1","0","3","1","","0","1","0","null","","","<img src = 'targets/24.png' width = '100%;'>","null","","","","","","","","","",""
"","html-keyboard-response","93","363760","0.0-8.0-3.0","ctr6gvbqax","many_one","0","indirect_first","0","ch06rt30","0","26","1","0","3","1","","0","1","0","2886.585000087507","","","<img src = 'targets/mask.png' width = '100%;'>","68","neg","CS","CS","1","category1/CS8.png","targets/24.png","0","indirect","0",""
"","html-keyboard-response","94","365279","0.0-8.0-0.1","ctr6gvbqax","many_one","0","indirect_first","0","ch06rt30","0","26","1","0","3","1","","0","1","0","null","","","<div style=""font-size:60px;"">+</div>","null","","","","","","","","","",""
"","html-keyboard-response","95","365373","0.0-8.0-1.1","ctr6gvbqax","many_one","0","indirect_first","0","ch06rt30","0","26","1","0","3","1","","0","1","0","null","","","<img src = 'category3/CS1.png' width = '100%;'>","null","","","","","","","","","",""
"","html-keyboard-response","96","365637","0.0-8.0-2.1","ctr6gvbqax","many_one","0","indirect_first","0","ch06rt30","0","26","1","0","3","1","","0","1","0","null","","","<img src = 'targets/42.png' width = '100%;'>","null","","","","","","","","","",""
"","html-keyboard-response","97","368003","0.0-8.0-3.1","ctr6gvbqax","many_one","0","indirect_first","0","ch06rt30","0","26","1","0","3","1","","0","1","0","2363.935000030324","","","<img src = 'targets/mask.png' width = '100%;'>","75","neg","GS","GSold","3","category3/CS1.png","targets/42.png","1","indirect","1",""
"","html-keyboard-response","98","369527","0.0-8.0-0.2","ctr6gvbqax","many_one","0","indirect_first","0","ch06rt30","0","26","1","0","3","1","","0","1","0","null","","","<div style=""font-size:60px;"">+</div>","null","","","","","","","","","",""
"","html-keyboard-response","99","369623","0.0-8.0-1.2","ctr6gvbqax","many_one","0","indirect_first","0","ch06rt30","0","26","1","0","3","1","","0","1","0","null","","","<img src = 'category2/CS8.png' width = '100%;'>","null","","","","","","","","","",""
"","html-keyboard-response","100","369886","0.0-8.0-2.2","ctr6gvbqax","many_one","0","indirect_first","0","ch06rt30","0","26","1","0","3","1","","0","1","0","null","","","<img src = 'targets/23.png' width = '100%;'>","null","","","","","","","","","",""
"","html-keyboard-response","101","371709","0.0-8.0-3.2","ctr6gvbqax","many_one","0","indirect_first","0","ch06rt30","0","26","1","0","3","1","","0","1","0","1820.024999906309","","","<img src = 'targets/mask.png' width = '100%;'>","75","pos","CS","CS","2","category2/CS8.png","targets/23.png","1","indirect","2",""
"","html-keyboard-response","102","373228","0.0-8.0-0.3","ctr6gvbqax","many_one","0","indirect_first","0","ch06rt30","0","26","1","0","3","1","","0","1","0","null","","","<div style=""font-size:60px;"">+</div>","null","","","","","","","","","",""
"","html-keyboard-response","103","373322","0.0-8.0-1.3","ctr6gvbqax","many_one","0","indirect_first","0","ch06rt30","0","26","1","0","3","1","","0","1","0","null","","","<img src = 'category1/CS4.png' width = '100%;'>","null","","","","","","","","","",""
"","html-keyboard-response","104","373585","0.0-8.0-2.3","ctr6gvbqax","many_one","0","indirect_first","0","ch06rt30","0","26","1","0","3","1","","0","1","0","null","","","<img src = 'targets/36.png' width = '100%;'>","null","","","","","","","","","",""
"","html-keyboard-response","105","375268","0.0-8.0-3.3","ctr6gvbqax","many_one","0","indirect_first","0","ch06rt30","0","26","1","0","3","1","","0","1","0","1680.3899999940768","","","<img src = 'targets/mask.png' width = '100%;'>","68","neg","CS","CS","1","category1/CS4.png","targets/36.png","0","indirect","3",""
"","html-keyboard-response","106","376792","0.0-8.0-0.4","ctr6gvbqax","many_one","0","indirect_first","0","ch06rt30","0","26","1","0","3","1","","0","1","0","null","","","<div style=""font-size:60px;"">+</div>","null","","","","","","","","","",""
"","html-keyboard-response","107","376888","0.0-8.0-1.4","ctr6gvbqax","many_one","0","indirect_first","0","ch06rt30","0","26","1","0","3","1","","0","1","0","null","","","<img src = 'category4/CS10.png' width = '100%;'>","null","","","","","","","","","",""
"","html-keyboard-response","108","377153","0.0-8.0-2.4","ctr6gvbqax","many_one","0","indirect_first","0","ch06rt30","0","26","1","0","3","1","","0","1","0","null","","","<img src = 'targets/33.png' width = '100%;'>","null","","","","","","","","","",""
"","html-keyboard-response","109","377911","0.0-8.0-3.4","ctr6gvbqax","many_one","0","indirect_first","0","ch06rt30","0","26","1","0","3","1","","0","1","0","756.5300000132993","","","<img src = 'targets/mask.png' width = '100%;'>","75","pos","CS","CS","4","category4/CS10.png","targets/33.png","1","indirect","4",""
"","html-keyboard-response","110","379427","0.0-8.0-0.5","ctr6gvbqax","many_one","0","indirect_first","0","ch06rt30","0","26","1","0","3","1","","0","1","0","null","","","<div style=""font-size:60px;"">+</div>","null","","","","","","","","","",""
"","html-keyboard-response","111","379522","0.0-8.0-1.5","ctr6gvbqax","many_one","0","indirect_first","0","ch06rt30","0","26","1","0","3","1","","0","1","0","null","","","<img src = 'category3/CS3.png' width = '100%;'>","null","","","","","","","","","",""
"","html-keyboard-response","112","379784","0.0-8.0-2.5","ctr6gvbqax","many_one","0","indirect_first","0","ch06rt30","0","26","1","0","3","1","","0","1","0","null","","","<img src = 'targets/34.png' width = '100%;'>","null","","","","","","","","","",""
"","html-keyboard-response","113","380507","0.0-8.0-3.5","ctr6gvbqax","many_one","0","indirect_first","0","ch06rt30","0","26","1","0","3","1","","0","1","0","719.7200000518933","","","<img src = 'targets/mask.png' width = '100%;'>","75","neg","CS","CS","3","category3/CS3.png","targets/34.png","1","indirect","5",""
"","html-keyboard-response","114","382026","0.0-8.0-0.6","ctr6gvbqax","many_one","0","indirect_first","0","ch06rt30","0","26","1","0","3","1","","0","1","0","null","","","<div style=""font-size:60px;"">+</div>","null","","","","","","","","","",""
"","html-keyboard-response","115","382121","0.0-8.0-1.6","ctr6gvbqax","many_one","0","indirect_first","0","ch06rt30","0","26","1","0","3","1","","0","1","0","null","","","<img src = 'category4/CS8.png' width = '100%;'>","null","","","","","","","","","",""
"","html-keyboard-response","116","382384","0.0-8.0-2.6","ctr6gvbqax","many_one","0","indirect_first","0","ch06rt30","0","26","1","0","3","1","","0","1","0","null","","","<img src = 'targets/47.png' width = '100%;'>","null","","","","","","","","","",""
"","html-keyboard-response","117","383086","0.0-8.0-3.6","ctr6gvbqax","many_one","0","indirect_first","0","ch06rt30","0","26","1","0","3","1","","0","1","0","700.7000000448897","","","<img src = 'targets/mask.png' width = '100%;'>","75","pos","CS","CS","4","category4/CS8.png","targets/47.png","1","indirect","6",""
"","html-keyboard-response","118","384609","0.0-8.0-0.7","ctr6gvbqax","many_one","0","indirect_first","0","ch06rt30","0","26","1","0","3","1","","0","1","0","null","","","<div style=""font-size:60px;"">+</div>","null","","","","","","","","","",""
"","html-keyboard-response","119","384703","0.0-8.0-1.7","ctr6gvbqax","many_one","0","indirect_first","0","ch06rt30","0","26","1","0","3","1","","0","1","0","null","","","<img src = 'category4/CS4.png' width = '100%;'>","null","","","","","","","","","",""
"","html-keyboard-response","120","384967","0.0-8.0-2.7","ctr6gvbqax","many_one","0","indirect_first","0","ch06rt30","0","26","1","0","3","1","","0","1","0","null","","","<img src = 'targets/37.png' width = '100%;'>","null","","","","","","","","","",""
"","html-keyboard-response","121","385704","0.0-8.0-3.7","ctr6gvbqax","many_one","0","indirect_first","0","ch06rt30","0","26","1","0","3","1","","0","1","0","735.3499999735504","","","<img src = 'targets/mask.png' width = '100%;'>","75","pos","CS","CS","4","category4/CS4.png","targets/37.png","1","indirect","7",""
"","html-keyboard-response","122","387224","0.0-8.0-0.8","ctr6gvbqax","many_one","0","indirect_first","0","ch06rt30","0","26","1","0","3","1","","0","1","0","null","","","<div style=""font-size:60px;"">+</div>","null","","","","","","","","","",""
"","html-keyboard-response","123","387319","0.0-8.0-1.8","ctr6gvbqax","many_one","0","indirect_first","0","ch06rt30","0","26","1","0","3","1","","0","1","0","null","","","<img src = 'category3/CS9.png' width = '100%;'>","null","","","","","","","","","",""
"","html-keyboard-response","124","387584","0.0-8.0-2.8","ctr6gvbqax","many_one","0","indirect_first","0","ch06rt30","0","26","1","0","3","1","","0","1","0","null","","","<img src = 'targets/48.png' width = '100%;'>","null","","","","","","","","","",""
"","html-keyboard-response","125","388112","0.0-8.0-3.8","ctr6gvbqax","many_one","0","indirect_first","0","ch06rt30","0","26","1","0","3","1","","0","1","0","525.4299999214709","","","<img src = 'targets/mask.png' width = '100%;'>","68","neg","GS","GSold","3","category3/CS9.png","targets/48.png","0","indirect","8",""
"","html-keyboard-response","126","389625","0.0-8.0-0.9","ctr6gvbqax","many_one","0","indirect_first","0","ch06rt30","0","26","1","0","3","1","","0","1","0","null","","","<div style=""font-size:60px;"">+</div>","null","","","","","","","","","",""
"","html-keyboard-response","127","389720","0.0-8.0-1.9","ctr6gvbqax","many_one","0","indirect_first","0","ch06rt30","0","26","1","0","3","1","","0","1","0","null","","","<img src = 'category1/CS9.png' width = '100%;'>","null","","","","","","","","","",""
"","html-keyboard-response","128","389983","0.0-8.0-2.9","ctr6gvbqax","many_one","0","indirect_first","0","ch06rt30","0","26","1","0","3","1","","0","1","0","null","","","<img src = 'targets/16.png' width = '100%;'>","null","","","","","","","","","",""
"","html-keyboard-response","129","390561","0.0-8.0-3.9","ctr6gvbqax","many_one","0","indirect_first","0","ch06rt30","0","26","1","0","3","1","","0","1","0","575.3399999812245","","","<img src = 'targets/mask.png' width = '100%;'>","68","neg","CS","CS","1","category1/CS9.png","targets/16.png","0","indirect","9",""
"","html-keyboard-response","130","392075","0.0-8.0-0.10","ctr6gvbqax","many_one","0","indirect_first","0","ch06rt30","0","26","1","0","3","1","","0","1","0","null","","","<div style=""font-size:60px;"">+</div>","null","","","","","","","","","",""
"","html-keyboard-response","131","392170","0.0-8.0-1.10","ctr6gvbqax","many_one","0","indirect_first","0","ch06rt30","0","26","1","0","3","1","","0","1","0","null","","","<img src = 'category2/CS6.png' width = '100%;'>","null","","","","","","","","","",""
"","html-keyboard-response","132","392436","0.0-8.0-2.10","ctr6gvbqax","many_one","0","indirect_first","0","ch06rt30","0","26","1","0","3","1","","0","1","0","null","","","<img src = 'targets/43.png' width = '100%;'>","null","","","","","","","","","",""
"","html-keyboard-response","133","392909","0.0-8.0-3.10","ctr6gvbqax","many_one","0","indirect_first","0","ch06rt30","0","26","1","0","3","1","","0","1","0","471.75999998580664","","","<img src = 'targets/mask.png' width = '100%;'>","75","pos","CS","CS","2","category2/CS6.png","targets/43.png","1","indirect","10",""
"","html-keyboard-response","134","394425","0.0-8.0-0.11","ctr6gvbqax","many_one","0","indirect_first","0","ch06rt30","0","26","1","0","3","1","","0","1","0","null","","","<div style=""font-size:60px;"">+</div>","null","","","","","","","","","",""
"","html-keyboard-response","135","394519","0.0-8.0-1.11","ctr6gvbqax","many_one","0","indirect_first","0","ch06rt30","0","26","1","0","3","1","","0","1","0","null","","","<img src = 'category3/CS6.png' width = '100%;'>","null","","","","","","","","","",""
"","html-keyboard-response","136","394784","0.0-8.0-2.11","ctr6gvbqax","many_one","0","indirect_first","0","ch06rt30","0","26","1","0","3","1","","0","1","0","null","","","<img src = 'targets/11.png' width = '100%;'>","null","","","","","","","","","",""
"","html-keyboard-response","137","395437","0.0-8.0-3.11","ctr6gvbqax","many_one","0","indirect_first","0","ch06rt30","0","26","1","0","3","1","","0","1","0","650.1750000752509","","","<img src = 'targets/mask.png' width = '100%;'>","75","neg","GS","GSold","3","category3/CS6.png","targets/11.png","1","indirect","11",""
"","html-keyboard-response","138","396957","0.0-8.0-0.12","ctr6gvbqax","many_one","0","indirect_first","0","ch06rt30","0","26","1","0","3","1","","0","1","0","null","","","<div style=""font-size:60px;"">+</div>","null","","","","","","","","","",""
"","html-keyboard-response","139","397052","0.0-8.0-1.12","ctr6gvbqax","many_one","0","indirect_first","0","ch06rt30","0","26","1","0","3","1","","0","1","0","null","","","<img src = 'category2/CS2.png' width = '100%;'>","null","","","","","","","","","",""
"","html-keyboard-response","140","397317","0.0-8.0-2.12","ctr6gvbqax","many_one","0","indirect_first","0","ch06rt30","0","26","1","0","3","1","","0","1","0","null","","","<img src = 'targets/17.png' width = '100%;'>","null","","","","","","","","","",""
"","html-keyboard-response","141","397849","0.0-8.0-3.12","ctr6gvbqax","many_one","0","indirect_first","0","ch06rt30","0","26","1","0","3","1","","0","1","0","529.6150000067428","","","<img src = 'targets/mask.png' width = '100%;'>","75","pos","CS","CS","2","category2/CS2.png","targets/17.png","1","indirect","12",""
"","html-keyboard-response","142","399373","0.0-8.0-0.13","ctr6gvbqax","many_one","0","indirect_first","0","ch06rt30","0","26","1","0","3","1","","0","1","0","null","","","<div style=""font-size:60px;"">+</div>","null","","","","","","","","","",""
"","html-keyboard-response","143","399469","0.0-8.0-1.13","ctr6gvbqax","many_one","0","indirect_first","0","ch06rt30","0","26","1","0","3","1","","0","1","0","null","","","<img src = 'category1/CS6.png' width = '100%;'>","null","","","","","","","","","",""
"","html-keyboard-response","144","399733","0.0-8.0-2.13","ctr6gvbqax","many_one","0","indirect_first","0","ch06rt30","0","26","1","0","3","1","","0","1","0","null","","","<img src = 'targets/29.png' width = '100%;'>","null","","","","","","","","","",""
"","html-keyboard-response","145","400419","0.0-8.0-3.13","ctr6gvbqax","many_one","0","indirect_first","0","ch06rt30","0","26","1","0","3","1","","0","1","0","682.135000010021","","","<img src = 'targets/mask.png' width = '100%;'>","68","neg","CS","CS","1","category1/CS6.png","targets/29.png","0","indirect","13",""
"","html-keyboard-response","146","401940","0.0-8.0-0.14","ctr6gvbqax","many_one","0","indirect_first","0","ch06rt30","0","26","1","0","3","1","","0","1","0","null","","","<div style=""font-size:60px;"">+</div>","null","","","","","","","","","",""
"","html-keyboard-response","147","402035","0.0-8.0-1.14","ctr6gvbqax","many_one","0","indirect_first","0","ch06rt30","0","26","1","0","3","1","","0","1","0","null","","","<img src = 'category2/CS3.png' width = '100%;'>","null","","","","","","","","","",""
"","html-keyboard-response","148","402300","0.0-8.0-2.14","ctr6gvbqax","many_one","0","indirect_first","0","ch06rt30","0","26","1","0","3","1","","0","1","0","null","","","<img src = 'targets/30.png' width = '100%;'>","null","","","","","","","","","",""
"","html-keyboard-response","149","402741","0.0-8.0-3.14","ctr6gvbqax","many_one","0","indirect_first","0","ch06rt30","0","26","1","0","3","1","","0","1","0","438.29000007826835","","","<img src = 'targets/mask.png' width = '100%;'>","75","pos","CS","CS","2","category2/CS3.png","targets/30.png","1","indirect","14",""
"","html-keyboard-response","150","404272","0.0-8.0-0.15","ctr6gvbqax","many_one","0","indirect_first","0","ch06rt30","0","26","1","0","3","1","","0","1","0","null","","","<div style=""font-size:60px;"">+</div>","null","","","","","","","","","",""
"","html-keyboard-response","151","404367","0.0-8.0-1.15","ctr6gvbqax","many_one","0","indirect_first","0","ch06rt30","0","26","1","0","3","1","","0","1","0","null","","","<img src = 'category3/CS8.png' width = '100%;'>","null","","","","","","","","","",""
"","html-keyboard-response","152","404631","0.0-8.0-2.15","ctr6gvbqax","many_one","0","indirect_first","0","ch06rt30","0","26","1","0","3","1","","0","1","0","null","","","<img src = 'targets/9.png' width = '100%;'>","null","","","","","","","","","",""
"","html-keyboard-response","153","405174","0.0-8.0-3.15","ctr6gvbqax","many_one","0","indirect_first","0","ch06rt30","0","26","1","0","3","1","","0","1","0","541.8850000714883","","","<img src = 'targets/mask.png' width = '100%;'>","75","neg","CS","CS","3","category3/CS8.png","targets/9.png","1","indirect","15",""
"","html-keyboard-response","154","406690","0.0-8.0-0.16","ctr6gvbqax","many_one","0","indirect_first","0","ch06rt30","0","26","1","0","3","1","","0","1","0","null","","","<div style=""font-size:60px;"">+</div>","null","","","","","","","","","",""
"","html-keyboard-response","155","406784","0.0-8.0-1.16","ctr6gvbqax","many_one","0","indirect_first","0","ch06rt30","0","26","1","0","3","1","","0","1","0","null","","","<img src = 'category3/CS7.png' width = '100%;'>","null","","","","","","","","","",""
"","html-keyboard-response","156","407048","0.0-8.0-2.16","ctr6gvbqax","many_one","0","indirect_first","0","ch06rt30","0","26","1","0","3","1","","0","1","0","null","","","<img src = 'targets/4.png' width = '100%;'>","null","","","","","","","","","",""
"","html-keyboard-response","157","407555","0.0-8.0-3.16","ctr6gvbqax","many_one","0","indirect_first","0","ch06rt30","0","26","1","0","3","1","","0","1","0","504.5950000640005","","","<img src = 'targets/mask.png' width = '100%;'>","68","neg","CS","CS","3","category3/CS7.png","targets/4.png","0","indirect","16",""
"","html-keyboard-response","158","409072","0.0-8.0-0.17","ctr6gvbqax","many_one","0","indirect_first","0","ch06rt30","0","26","1","0","3","1","","0","1","0","null","","","<div style=""font-size:60px;"">+</div>","null","","","","","","","","","",""
"","html-keyboard-response","159","409167","0.0-8.0-1.17","ctr6gvbqax","many_one","0","indirect_first","0","ch06rt30","0","26","1","0","3","1","","0","1","0","null","","","<img src = 'category4/CS3.png' width = '100%;'>","null","","","","","","","","","",""
"","html-keyboard-response","160","409432","0.0-8.0-2.17","ctr6gvbqax","many_one","0","indirect_first","0","ch06rt30","0","26","1","0","3","1","","0","1","0","null","","","<img src = 'targets/20.png' width = '100%;'>","null","","","","","","","","","",""
"","html-keyboard-response","161","409924","0.0-8.0-3.17","ctr6gvbqax","many_one","0","indirect_first","0","ch06rt30","0","26","1","0","3","1","","0","1","0","490.26500002946705","","","<img src = 'targets/mask.png' width = '100%;'>","75","pos","CS","CS","4","category4/CS3.png","targets/20.png","1","indirect","17",""
"","html-keyboard-response","162","411440","0.0-8.0-0.18","ctr6gvbqax","many_one","0","indirect_first","0","ch06rt30","0","26","1","0","3","1","","0","1","0","null","","","<div style=""font-size:60px;"">+</div>","null","","","","","","","","","",""
"","html-keyboard-response","163","411534","0.0-8.0-1.18","ctr6gvbqax","many_one","0","indirect_first","0","ch06rt30","0","26","1","0","3","1","","0","1","0","null","","","<img src = 'category1/CS5.png' width = '100%;'>","null","","","","","","","","","",""
"","html-keyboard-response","164","411798","0.0-8.0-2.18","ctr6gvbqax","many_one","0","indirect_first","0","ch06rt30","0","26","1","0","3","1","","0","1","0","null","","","<img src = 'targets/5.png' width = '100%;'>","null","","","","","","","","","",""
"","html-keyboard-response","165","412293","0.0-8.0-3.18","ctr6gvbqax","many_one","0","indirect_first","0","ch06rt30","0","26","1","0","3","1","","0","1","0","493.07999992743134","","","<img src = 'targets/mask.png' width = '100%;'>","75","neg","CS","CS","1","category1/CS5.png","targets/5.png","1","indirect","18",""
"","html-keyboard-response","166","413820","0.0-8.0-0.19","ctr6gvbqax","many_one","0","indirect_first","0","ch06rt30","0","26","1","0","3","1","","0","1","0","null","","","<div style=""font-size:60px;"">+</div>","null","","","","","","","","","",""
"","html-keyboard-response","167","413911","0.0-8.0-1.19","ctr6gvbqax","many_one","0","indirect_first","0","ch06rt30","0","26","1","0","3","1","","0","1","0","null","","","<img src = 'category4/CS1.png' width = '100%;'>","null","","","","","","","","","",""
"","html-keyboard-response","168","414179","0.0-8.0-2.19","ctr6gvbqax","many_one","0","indirect_first","0","ch06rt30","0","26","1","0","3","1","","0","1","0","null","","","<img src = 'targets/22.png' width = '100%;'>","null","","","","","","","","","",""
"","html-keyboard-response","169","414686","0.0-8.0-3.19","ctr6gvbqax","many_one","0","indirect_first","0","ch06rt30","0","26","1","0","3","1","","0","1","0","505.04499999806285","","","<img src = 'targets/mask.png' width = '100%;'>","68","pos","GS","GSold","4","category4/CS1.png","targets/22.png","0","indirect","19",""
"","html-keyboard-response","170","416189","0.0-8.0-0.20","ctr6gvbqax","many_one","0","indirect_first","0","ch06rt30","0","26","1","0","3","1","","0","1","0","null","","","<div style=""font-size:60px;"">+</div>","null","","","","","","","","","",""
"","html-keyboard-response","171","416282","0.0-8.0-1.20","ctr6gvbqax","many_one","0","indirect_first","0","ch06rt30","0","26","1","0","3","1","","0","1","0","null","","","<img src = 'category4/CS6.png' width = '100%;'>","null","","","","","","","","","",""
"","html-keyboard-response","172","416547","0.0-8.0-2.20","ctr6gvbqax","many_one","0","indirect_first","0","ch06rt30","0","26","1","0","3","1","","0","1","0","null","","","<img src = 'targets/7.png' width = '100%;'>","null","","","","","","","","","",""
"","html-keyboard-response","173","417163","0.0-8.0-3.20","ctr6gvbqax","many_one","0","indirect_first","0","ch06rt30","0","26","1","0","3","1","","0","1","0","613.8300000457093","","","<img src = 'targets/mask.png' width = '100%;'>","75","pos","CS","CS","4","category4/CS6.png","targets/7.png","1","indirect","20",""
"","html-keyboard-response","174","418681","0.0-8.0-0.21","ctr6gvbqax","many_one","0","indirect_first","0","ch06rt30","0","26","1","0","3","1","","0","1","0","null","","","<div style=""font-size:60px;"">+</div>","null","","","","","","","","","",""
"","html-keyboard-response","175","418782","0.0-8.0-1.21","ctr6gvbqax","many_one","0","indirect_first","0","ch06rt30","0","26","1","0","3","1","","0","1","0","null","","","<img src = 'category3/CS5.png' width = '100%;'>","null","","","","","","","","","",""
"","html-keyboard-response","176","419046","0.0-8.0-2.21","ctr6gvbqax","many_one","0","indirect_first","0","ch06rt30","0","26","1","0","3","1","","0","1","0","null","","","<img src = 'targets/25.png' width = '100%;'>","null","","","","","","","","","",""
"","html-keyboard-response","177","419563","0.0-8.0-3.21","ctr6gvbqax","many_one","0","indirect_first","0","ch06rt30","0","26","1","0","3","1","","0","1","0","515.5899999663234","","","<img src = 'targets/mask.png' width = '100%;'>","68","neg","CS","CS","3","category3/CS5.png","targets/25.png","0","indirect","21",""
"","html-keyboard-response","178","421075","0.0-8.0-0.22","ctr6gvbqax","many_one","0","indirect_first","0","ch06rt30","0","26","1","0","3","1","","0","1","0","null","","","<div style=""font-size:60px;"">+</div>","null","","","","","","","","","",""
"","html-keyboard-response","179","421181","0.0-8.0-1.22","ctr6gvbqax","many_one","0","indirect_first","0","ch06rt30","0","26","1","0","3","1","","0","1","0","null","","","<img src = 'category2/CS1.png' width = '100%;'>","null","","","","","","","","","",""
"","html-keyboard-response","180","421445","0.0-8.0-2.22","ctr6gvbqax","many_one","0","indirect_first","0","ch06rt30","0","26","1","0","3","1","","0","1","0","null","","","<img src = 'targets/39.png' width = '100%;'>","null","","","","","","","","","",""
"","html-keyboard-response","181","422239","0.0-8.0-3.22","ctr6gvbqax","many_one","0","indirect_first","0","ch06rt30","0","26","1","0","3","1","","0","1","0","792.3200000077486","","","<img src = 'targets/mask.png' width = '100%;'>","75","pos","CS","CS","2","category2/CS1.png","targets/39.png","1","indirect","22",""
"","html-keyboard-response","182","423754","0.0-8.0-0.23","ctr6gvbqax","many_one","0","indirect_first","0","ch06rt30","0","26","1","0","3","1","","0","1","0","null","","","<div style=""font-size:60px;"">+</div>","null","","","","","","","","","",""
"","html-keyboard-response","183","423848","0.0-8.0-1.23","ctr6gvbqax","many_one","0","indirect_first","0","ch06rt30","0","26","1","0","3","1","","0","1","0","null","","","<img src = 'category3/CS10.png' width = '100%;'>","null","","","","","","","","","",""
"","html-keyboard-response","184","424112","0.0-8.0-2.23","ctr6gvbqax","many_one","0","indirect_first","0","ch06rt30","0","26","1","0","3","1","","0","1","0","null","","","<img src = 'targets/13.png' width = '100%;'>","null","","","","","","","","","",""
"","html-keyboard-response","185","424691","0.0-8.0-3.23","ctr6gvbqax","many_one","0","indirect_first","0","ch06rt30","0","26","1","0","3","1","","0","1","0","576.204999932088","","","<img src = 'targets/mask.png' width = '100%;'>","68","neg","CS","CS","3","category3/CS10.png","targets/13.png","0","indirect","23",""
"","survey-html-form","186","429844","0.0-9.0","ctr6gvbqax","many_one","0","indirect_first","0","ch06rt30","0","26","1","0","3","1","","0","1","0","4639.53499996569","","{}","","","","","","","","","","","",""
"","html-keyboard-response","187","432855","0.0-10.0-0.0","ctr6gvbqax","many_one","0","indirect_first","0","ch06rt30","0","26","1","0","3","1","","0","1","0","null","","","<div style=""font-size:60px;"">+</div>","null","","","","","","","","","",""
"","html-keyboard-response","188","432947","0.0-10.0-1.0","ctr6gvbqax","many_one","0","indirect_first","0","ch06rt30","0","26","1","0","3","1","","0","1","0","null","","","<img src = 'category1/ma.png' width = '100%;'>","null","","","","","","","","","",""
"","html-keyboard-response","189","433210","0.0-10.0-2.0","ctr6gvbqax","many_one","0","indirect_first","0","ch06rt30","0","26","1","0","3","1","","0","1","0","null","","","<img src = 'targets/45.png' width = '100%;'>","null","","","","","","","","","",""
"","html-keyboard-response","190","433775","0.0-10.0-3.0","ctr6gvbqax","many_one","0","indirect_first","0","ch06rt30","0","26","1","0","3","1","","0","1","0","561.5749999415129","","","<img src = 'targets/mask.png' width = '100%;'>","75","neg","GS","abstract","1","category1/ma.png","targets/45.png","1","indirect","24",""
"","html-keyboard-response","191","435286","0.0-10.0-0.1","ctr6gvbqax","many_one","0","indirect_first","0","ch06rt30","0","26","1","0","3","1","","0","1","0","null","","","<div style=""font-size:60px;"">+</div>","null","","","","","","","","","",""
"","html-keyboard-response","192","435379","0.0-10.0-1.1","ctr6gvbqax","many_one","0","indirect_first","0","ch06rt30","0","26","1","0","3","1","","0","1","0","null","","","<img src = 'category1/CS3.png' width = '100%;'>","null","","","","","","","","","",""
"","html-keyboard-response","193","435645","0.0-10.0-2.1","ctr6gvbqax","many_one","0","indirect_first","0","ch06rt30","0","26","1","0","3","1","","0","1","0","null","","","<img src = 'targets/28.png' width = '100%;'>","null","","","","","","","","","",""
"","html-keyboard-response","194","436041","0.0-10.0-3.1","ctr6gvbqax","many_one","0","indirect_first","0","ch06rt30","0","26","1","0","3","1","","0","1","0","393.8150000758469","","","<img src = 'targets/mask.png' width = '100%;'>","75","neg","GS","GSold","1","category1/CS3.png","targets/28.png","1","indirect","25",""
"","html-keyboard-response","195","437553","0.0-10.0-0.2","ctr6gvbqax","many_one","0","indirect_first","0","ch06rt30","0","26","1","0","3","1","","0","1","0","null","","","<div style=""font-size:60px;"">+</div>","null","","","","","","","","","",""
"","html-keyboard-response","196","437647","0.0-10.0-1.2","ctr6gvbqax","many_one","0","indirect_first","0","ch06rt30","0","26","1","0","3","1","","0","1","0","null","","","<img src = 'category1/CS10.png' width = '100%;'>","null","","","","","","","","","",""
"","html-keyboard-response","197","437908","0.0-10.0-2.2","ctr6gvbqax","many_one","0","indirect_first","0","ch06rt30","0","26","1","0","3","1","","0","1","0","null","","","<img src = 'targets/10.png' width = '100%;'>","null","","","","","","","","","",""
"","html-keyboard-response","198","438443","0.0-10.0-3.2","ctr6gvbqax","many_one","0","indirect_first","0","ch06rt30","0","26","1","0","3","1","","0","1","0","531.5499999560416","","","<img src = 'targets/mask.png' width = '100%;'>","68","neg","GS","GSold","1","category1/CS10.png","targets/10.png","0","indirect","26",""
"","html-keyboard-response","199","439968","0.0-10.0-0.3","ctr6gvbqax","many_one","0","indirect_first","0","ch06rt30","0","26","1","0","3","1","","0","1","0","null","","","<div style=""font-size:60px;"">+</div>","null","","","","","","","","","",""
"","html-keyboard-response","200","440064","0.0-10.0-1.3","ctr6gvbqax","many_one","0","indirect_first","0","ch06rt30","0","26","1","0","3","1","","0","1","0","null","","","<img src = 'category1/GS3.png' width = '100%;'>","null","","","","","","","","","",""
"","html-keyboard-response","201","440328","0.0-10.0-2.3","ctr6gvbqax","many_one","0","indirect_first","0","ch06rt30","0","26","1","0","3","1","","0","1","0","null","","","<img src = 'targets/32.png' width = '100%;'>","null","","","","","","","","","",""
"","html-keyboard-response","202","440708","0.0-10.0-3.3","ctr6gvbqax","many_one","0","indirect_first","0","ch06rt30","0","26","1","0","3","1","","0","1","0","378.4600000362843","","","<img src = 'targets/mask.png' width = '100%;'>","75","neg","GS","GSnew","1","category1/GS3.png","targets/32.png","1","indirect","27",""
"","html-keyboard-response","203","442219","0.0-10.0-0.4","ctr6gvbqax","many_one","0","indirect_first","0","ch06rt30","0","26","1","0","3","1","","0","1","0","null","","","<div style=""font-size:60px;"">+</div>","null","","","","","","","","","",""
"","html-keyboard-response","204","442313","0.0-10.0-1.4","ctr6gvbqax","many_one","0","indirect_first","0","ch06rt30","0","26","1","0","3","1","","0","1","0","null","","","<img src = 'category1/GS1.png' width = '100%;'>","null","","","","","","","","","",""
"","html-keyboard-response","205","442577","0.0-10.0-2.4","ctr6gvbqax","many_one","0","indirect_first","0","ch06rt30","0","26","1","0","3","1","","0","1","0","null","","","<img src = 'targets/2.png' width = '100%;'>","null","","","","","","","","","",""
"","html-keyboard-response","206","443250","0.0-10.0-3.4","ctr6gvbqax","many_one","0","indirect_first","0","ch06rt30","0","26","1","0","3","1","","0","1","0","670.7750000059605","","","<img src = 'targets/mask.png' width = '100%;'>","68","neg","GS","GSnew","1","category1/GS1.png","targets/2.png","0","indirect","28",""
"","html-keyboard-response","207","444767","0.0-10.0-0.5","ctr6gvbqax","many_one","0","indirect_first","0","ch06rt30","0","26","1","0","3","1","","0","1","0","null","","","<div style=""font-size:60px;"">+</div>","null","","","","","","","","","",""
"","html-keyboard-response","208","444859","0.0-10.0-1.5","ctr6gvbqax","many_one","0","indirect_first","0","ch06rt30","0","26","1","0","3","1","","0","1","0","null","","","<img src = 'category3/wang.png' width = '100%;'>","null","","","","","","","","","",""
"","html-keyboard-response","209","445126","0.0-10.0-2.5","ctr6gvbqax","many_one","0","indirect_first","0","ch06rt30","0","26","1","0","3","1","","0","1","0","null","","","<img src = 'targets/15.png' width = '100%;'>","null","","","","","","","","","",""
"","html-keyboard-response","210","445611","0.0-10.0-3.5","ctr6gvbqax","many_one","0","indirect_first","0","ch06rt30","0","26","1","0","3","1","","0","1","0","482.83999995328486","","","<img src = 'targets/mask.png' width = '100%;'>","75","neg","GS","abstract","3","category3/wang.png","targets/15.png","1","indirect","29",""
"","html-keyboard-response","211","447133","0.0-10.0-0.6","ctr6gvbqax","many_one","0","indirect_first","0","ch06rt30","0","26","1","0","3","1","","0","1","0","null","","","<div style=""font-size:60px;"">+</div>","null","","","","","","","","","",""
"","html-keyboard-response","212","447229","0.0-10.0-1.6","ctr6gvbqax","many_one","0","indirect_first","0","ch06rt30","0","26","1","0","3","1","","0","1","0","null","","","<img src = 'category4/GS1.png' width = '100%;'>","null","","","","","","","","","",""
"","html-keyboard-response","213","447495","0.0-10.0-2.6","ctr6gvbqax","many_one","0","indirect_first","0","ch06rt30","0","26","1","0","3","1","","0","1","0","null","","","<img src = 'targets/44.png' width = '100%;'>","null","","","","","","","","","",""
"","html-keyboard-response","214","447997","0.0-10.0-3.6","ctr6gvbqax","many_one","0","indirect_first","0","ch06rt30","0","26","1","0","3","1","","0","1","0","500.17999997362494","","","<img src = 'targets/mask.png' width = '100%;'>","75","pos","GS","GSnew","4","category4/GS1.png","targets/44.png","1","indirect","30",""
"","html-keyboard-response","215","449517","0.0-10.0-0.7","ctr6gvbqax","many_one","0","indirect_first","0","ch06rt30","0","26","1","0","3","1","","0","1","0","null","","","<div style=""font-size:60px;"">+</div>","null","","","","","","","","","",""
"","html-keyboard-response","216","449612","0.0-10.0-1.7","ctr6gvbqax","many_one","0","indirect_first","0","ch06rt30","0","26","1","0","3","1","","0","1","0","null","","","<img src = 'category4/CS9.png' width = '100%;'>","null","","","","","","","","","",""
"","html-keyboard-response","217","449876","0.0-10.0-2.7","ctr6gvbqax","many_one","0","indirect_first","0","ch06rt30","0","26","1","0","3","1","","0","1","0","null","","","<img src = 'targets/31.png' width = '100%;'>","null","","","","","","","","","",""
"","html-keyboard-response","218","450364","0.0-10.0-3.7","ctr6gvbqax","many_one","0","indirect_first","0","ch06rt30","0","26","1","0","3","1","","0","1","0","486.3749999785796","","","<img src = 'targets/mask.png' width = '100%;'>","75","pos","GS","GSold","4","category4/CS9.png","targets/31.png","1","indirect","31",""
"","html-keyboard-response","219","451899","0.0-10.0-0.8","ctr6gvbqax","many_one","0","indirect_first","0","ch06rt30","0","26","1","0","3","1","","0","1","0","null","","","<div style=""font-size:60px;"">+</div>","null","","","","","","","","","",""
"","html-keyboard-response","220","451991","0.0-10.0-1.8","ctr6gvbqax","many_one","0","indirect_first","0","ch06rt30","0","26","1","0","3","1","","0","1","0","null","","","<img src = 'category4/lin.png' width = '100%;'>","null","","","","","","","","","",""
"","html-keyboard-response","221","452257","0.0-10.0-2.8","ctr6gvbqax","many_one","0","indirect_first","0","ch06rt30","0","26","1","0","3","1","","0","1","0","null","","","<img src = 'targets/1.png' width = '100%;'>","null","","","","","","","","","",""
"","html-keyboard-response","222","452726","0.0-10.0-3.8","ctr6gvbqax","many_one","0","indirect_first","0","ch06rt30","0","26","1","0","3","1","","0","1","0","466.2649999372661","","","<img src = 'targets/mask.png' width = '100%;'>","75","pos","GS","abstract","4","category4/lin.png","targets/1.png","1","indirect","32",""
"","html-keyboard-response","223","454234","0.0-10.0-0.9","ctr6gvbqax","many_one","0","indirect_first","0","ch06rt30","0","26","1","0","3","1","","0","1","0","null","","","<div style=""font-size:60px;"">+</div>","null","","","","","","","","","",""
"","html-keyboard-response","224","454327","0.0-10.0-1.9","ctr6gvbqax","many_one","0","indirect_first","0","ch06rt30","0","26","1","0","3","1","","0","1","0","null","","","<img src = 'category4/CS7.png' width = '100%;'>","null","","","","","","","","","",""
"","html-keyboard-response","225","454590","0.0-10.0-2.9","ctr6gvbqax","many_one","0","indirect_first","0","ch06rt30","0","26","1","0","3","1","","0","1","0","null","","","<img src = 'targets/41.png' width = '100%;'>","null","","","","","","","","","",""
"","html-keyboard-response","226","455001","0.0-10.0-3.9","ctr6gvbqax","many_one","0","indirect_first","0","ch06rt30","0","26","1","0","3","1","","0","1","0","409.029999980703","","","<img src = 'targets/mask.png' width = '100%;'>","75","pos","GS","GSold","4","category4/CS7.png","targets/41.png","1","indirect","33",""
"","html-keyboard-response","227","456517","0.0-10.0-0.10","ctr6gvbqax","many_one","0","indirect_first","0","ch06rt30","0","26","1","0","3","1","","0","1","0","null","","","<div style=""font-size:60px;"">+</div>","null","","","","","","","","","",""
"","html-keyboard-response","228","456610","0.0-10.0-1.10","ctr6gvbqax","many_one","0","indirect_first","0","ch06rt30","0","26","1","0","3","1","","0","1","0","null","","","<img src = 'category4/GS3.png' width = '100%;'>","null","","","","","","","","","",""
"","html-keyboard-response","229","456875","0.0-10.0-2.10","ctr6gvbqax","many_one","0","indirect_first","0","ch06rt30","0","26","1","0","3","1","","0","1","0","null","","","<img src = 'targets/40.png' width = '100%;'>","null","","","","","","","","","",""
"","html-keyboard-response","230","457283","0.0-10.0-3.10","ctr6gvbqax","many_one","0","indirect_first","0","ch06rt30","0","26","1","0","3","1","","0","1","0","405.2300000330433","","","<img src = 'targets/mask.png' width = '100%;'>","75","pos","GS","GSnew","4","category4/GS3.png","targets/40.png","1","indirect","34",""
"","html-keyboard-response","231","458801","0.0-10.0-0.11","ctr6gvbqax","many_one","0","indirect_first","0","ch06rt30","0","26","1","0","3","1","","0","1","0","null","","","<div style=""font-size:60px;"">+</div>","null","","","","","","","","","",""
"","html-keyboard-response","232","458892","0.0-10.0-1.11","ctr6gvbqax","many_one","0","indirect_first","0","ch06rt30","0","26","1","0","3","1","","0","1","0","null","","","<img src = 'category2/men.png' width = '100%;'>","null","","","","","","","","","",""
"","html-keyboard-response","233","459157","0.0-10.0-2.11","ctr6gvbqax","many_one","0","indirect_first","0","ch06rt30","0","26","1","0","3","1","","0","1","0","null","","","<img src = 'targets/27.png' width = '100%;'>","null","","","","","","","","","",""
"","html-keyboard-response","234","459751","0.0-10.0-3.11","ctr6gvbqax","many_one","0","indirect_first","0","ch06rt30","0","26","1","0","3","1","","0","1","0","591.4349999511614","","","<img src = 'targets/mask.png' width = '100%;'>","68","pos","GS","abstract","2","category2/men.png","targets/27.png","0","indirect","35",""
"","html-keyboard-response","235","461281","0.0-10.0-0.12","ctr6gvbqax","many_one","0","indirect_first","0","ch06rt30","0","26","1","0","3","1","","0","1","0","null","","","<div style=""font-size:60px;"">+</div>","null","","","","","","","","","",""
"","html-keyboard-response","236","461376","0.0-10.0-1.12","ctr6gvbqax","many_one","0","indirect_first","0","ch06rt30","0","26","1","0","3","1","","0","1","0","null","","","<img src = 'category1/GS2.png' width = '100%;'>","null","","","","","","","","","",""
"","html-keyboard-response","237","461640","0.0-10.0-2.12","ctr6gvbqax","many_one","0","indirect_first","0","ch06rt30","0","26","1","0","3","1","","0","1","0","null","","","<img src = 'targets/14.png' width = '100%;'>","null","","","","","","","","","",""
"","html-keyboard-response","238","462164","0.0-10.0-3.12","ctr6gvbqax","many_one","0","indirect_first","0","ch06rt30","0","26","1","0","3","1","","0","1","0","522.6699999766424","","","<img src = 'targets/mask.png' width = '100%;'>","68","neg","GS","GSnew","1","category1/GS2.png","targets/14.png","0","indirect","36",""
"","html-keyboard-response","239","463667","0.0-10.0-0.13","ctr6gvbqax","many_one","0","indirect_first","0","ch06rt30","0","26","1","0","3","1","","0","1","0","null","","","<div style=""font-size:60px;"">+</div>","null","","","","","","","","","",""
"","html-keyboard-response","240","463759","0.0-10.0-1.13","ctr6gvbqax","many_one","0","indirect_first","0","ch06rt30","0","26","1","0","3","1","","0","1","0","null","","","<img src = 'category3/GS1.png' width = '100%;'>","null","","","","","","","","","",""
"","html-keyboard-response","241","464023","0.0-10.0-2.13","ctr6gvbqax","many_one","0","indirect_first","0","ch06rt30","0","26","1","0","3","1","","0","1","0","null","","","<img src = 'targets/26.png' width = '100%;'>","null","","","","","","","","","",""
"","html-keyboard-response","242","464385","0.0-10.0-3.13","ctr6gvbqax","many_one","0","indirect_first","0","ch06rt30","0","26","1","0","3","1","","0","1","0","360.85499997716397","","","<img src = 'targets/mask.png' width = '100%;'>","68","neg","GS","GSnew","3","category3/GS1.png","targets/26.png","0","indirect","37",""
"","html-keyboard-response","243","465914","0.0-10.0-0.14","ctr6gvbqax","many_one","0","indirect_first","0","ch06rt30","0","26","1","0","3","1","","0","1","0","null","","","<div style=""font-size:60px;"">+</div>","null","","","","","","","","","",""
"","html-keyboard-response","244","466009","0.0-10.0-1.14","ctr6gvbqax","many_one","0","indirect_first","0","ch06rt30","0","26","1","0","3","1","","0","1","0","null","","","<img src = 'category3/GS3.png' width = '100%;'>","null","","","","","","","","","",""
"","html-keyboard-response","245","466274","0.0-10.0-2.14","ctr6gvbqax","many_one","0","indirect_first","0","ch06rt30","0","26","1","0","3","1","","0","1","0","null","","","<img src = 'targets/35.png' width = '100%;'>","null","","","","","","","","","",""
"","html-keyboard-response","246","466688","0.0-10.0-3.14","ctr6gvbqax","many_one","0","indirect_first","0","ch06rt30","0","26","1","0","3","1","","0","1","0","412.11499995552003","","","<img src = 'targets/mask.png' width = '100%;'>","68","neg","GS","GSnew","3","category3/GS3.png","targets/35.png","0","indirect","38",""
"","html-keyboard-response","247","468214","0.0-10.0-0.15","ctr6gvbqax","many_one","0","indirect_first","0","ch06rt30","0","26","1","0","3","1","","0","1","0","null","","","<div style=""font-size:60px;"">+</div>","null","","","","","","","","","",""
"","html-keyboard-response","248","468309","0.0-10.0-1.15","ctr6gvbqax","many_one","0","indirect_first","0","ch06rt30","0","26","1","0","3","1","","0","1","0","null","","","<img src = 'category2/CS5.png' width = '100%;'>","null","","","","","","","","","",""
"","html-keyboard-response","249","468574","0.0-10.0-2.15","ctr6gvbqax","many_one","0","indirect_first","0","ch06rt30","0","26","1","0","3","1","","0","1","0","null","","","<img src = 'targets/3.png' width = '100%;'>","null","","","","","","","","","",""
"","html-keyboard-response","250","469325","0.0-10.0-3.15","ctr6gvbqax","many_one","0","indirect_first","0","ch06rt30","0","26","1","0","3","1","","0","1","0","749.0850000176579","","","<img src = 'targets/mask.png' width = '100%;'>","68","pos","GS","GSold","2","category2/CS5.png","targets/3.png","0","indirect","39",""
"","html-keyboard-response","251","470849","0.0-10.0-0.16","ctr6gvbqax","many_one","0","indirect_first","0","ch06rt30","0","26","1","0","3","1","","0","1","0","null","","","<div style=""font-size:60px;"">+</div>","null","","","","","","","","","",""
"","html-keyboard-response","252","470947","0.0-10.0-1.16","ctr6gvbqax","many_one","0","indirect_first","0","ch06rt30","0","26","1","0","3","1","","0","1","0","null","","","<img src = 'category2/GS2.png' width = '100%;'>","null","","","","","","","","","",""
"","html-keyboard-response","253","471207","0.0-10.0-2.16","ctr6gvbqax","many_one","0","indirect_first","0","ch06rt30","0","26","1","0","3","1","","0","1","0","null","","","<img src = 'targets/8.png' width = '100%;'>","null","","","","","","","","","",""
"","html-keyboard-response","254","471722","0.0-10.0-3.16","ctr6gvbqax","many_one","0","indirect_first","0","ch06rt30","0","26","1","0","3","1","","0","1","0","513.0950000602752","","","<img src = 'targets/mask.png' width = '100%;'>","75","pos","GS","GSnew","2","category2/GS2.png","targets/8.png","1","indirect","40",""
"","html-keyboard-response","255","473247","0.0-10.0-0.17","ctr6gvbqax","many_one","0","indirect_first","0","ch06rt30","0","26","1","0","3","1","","0","1","0","null","","","<div style=""font-size:60px;"">+</div>","null","","","","","","","","","",""
"","html-keyboard-response","256","473342","0.0-10.0-1.17","ctr6gvbqax","many_one","0","indirect_first","0","ch06rt30","0","26","1","0","3","1","","0","1","0","null","","","<img src = 'category1/CS7.png' width = '100%;'>","null","","","","","","","","","",""
"","html-keyboard-response","257","473607","0.0-10.0-2.17","ctr6gvbqax","many_one","0","indirect_first","0","ch06rt30","0","26","1","0","3","1","","0","1","0","null","","","<img src = 'targets/46.png' width = '100%;'>","null","","","","","","","","","",""
"","html-keyboard-response","258","473990","0.0-10.0-3.17","ctr6gvbqax","many_one","0","indirect_first","0","ch06rt30","0","26","1","0","3","1","","0","1","0","380.63999998848885","","","<img src = 'targets/mask.png' width = '100%;'>","75","neg","GS","GSold","1","category1/CS7.png","targets/46.png","1","indirect","41",""
"","html-keyboard-response","259","475513","0.0-10.0-0.18","ctr6gvbqax","many_one","0","indirect_first","0","ch06rt30","0","26","1","0","3","1","","0","1","0","null","","","<div style=""font-size:60px;"">+</div>","null","","","","","","","","","",""
"","html-keyboard-response","260","475608","0.0-10.0-1.18","ctr6gvbqax","many_one","0","indirect_first","0","ch06rt30","0","26","1","0","3","1","","0","1","0","null","","","<img src = 'category3/GS2.png' width = '100%;'>","null","","","","","","","","","",""
"","html-keyboard-response","261","475873","0.0-10.0-2.18","ctr6gvbqax","many_one","0","indirect_first","0","ch06rt30","0","26","1","0","3","1","","0","1","0","null","","","<img src = 'targets/18.png' width = '100%;'>","null","","","","","","","","","",""
"","html-keyboard-response","262","476417","0.0-10.0-3.18","ctr6gvbqax","many_one","0","indirect_first","0","ch06rt30","0","26","1","0","3","1","","0","1","0","541.3250001147389","","","<img src = 'targets/mask.png' width = '100%;'>","75","neg","GS","GSnew","3","category3/GS2.png","targets/18.png","1","indirect","42",""
"","html-keyboard-response","263","477931","0.0-10.0-0.19","ctr6gvbqax","many_one","0","indirect_first","0","ch06rt30","0","26","1","0","3","1","","0","1","0","null","","","<div style=""font-size:60px;"">+</div>","null","","","","","","","","","",""
"","html-keyboard-response","264","478025","0.0-10.0-1.19","ctr6gvbqax","many_one","0","indirect_first","0","ch06rt30","0","26","1","0","3","1","","0","1","0","null","","","<img src = 'category4/GS2.png' width = '100%;'>","null","","","","","","","","","",""
"","html-keyboard-response","265","478288","0.0-10.0-2.19","ctr6gvbqax","many_one","0","indirect_first","0","ch06rt30","0","26","1","0","3","1","","0","1","0","null","","","<img src = 'targets/12.png' width = '100%;'>","null","","","","","","","","","",""
"","html-keyboard-response","266","478552","0.0-10.0-3.19","ctr6gvbqax","many_one","0","indirect_first","0","ch06rt30","0","26","1","0","3","1","","0","1","0","261.50999998208135","","","<img src = 'targets/mask.png' width = '100%;'>","75","pos","GS","GSnew","4","category4/GS2.png","targets/12.png","1","indirect","43",""
"","html-keyboard-response","267","480080","0.0-10.0-0.20","ctr6gvbqax","many_one","0","indirect_first","0","ch06rt30","0","26","1","0","3","1","","0","1","0","null","","","<div style=""font-size:60px;"">+</div>","null","","","","","","","","","",""
"","html-keyboard-response","268","480175","0.0-10.0-1.20","ctr6gvbqax","many_one","0","indirect_first","0","ch06rt30","0","26","1","0","3","1","","0","1","0","null","","","<img src = 'category2/GS3.png' width = '100%;'>","null","","","","","","","","","",""
"","html-keyboard-response","269","480439","0.0-10.0-2.20","ctr6gvbqax","many_one","0","indirect_first","0","ch06rt30","0","26","1","0","3","1","","0","1","0","null","","","<img src = 'targets/21.png' width = '100%;'>","null","","","","","","","","","",""
"","html-keyboard-response","270","480715","0.0-10.0-3.20","ctr6gvbqax","many_one","0","indirect_first","0","ch06rt30","0","26","1","0","3","1","","0","1","0","274.6599999954924","","","<img src = 'targets/mask.png' width = '100%;'>","68","pos","GS","GSnew","2","category2/GS3.png","targets/21.png","0","indirect","44",""
"","html-keyboard-response","271","482232","0.0-10.0-0.21","ctr6gvbqax","many_one","0","indirect_first","0","ch06rt30","0","26","1","0","3","1","","0","1","0","null","","","<div style=""font-size:60px;"">+</div>","null","","","","","","","","","",""
"","html-keyboard-response","272","482324","0.0-10.0-1.21","ctr6gvbqax","many_one","0","indirect_first","0","ch06rt30","0","26","1","0","3","1","","0","1","0","null","","","<img src = 'category2/CS9.png' width = '100%;'>","null","","","","","","","","","",""
"","html-keyboard-response","273","482588","0.0-10.0-2.21","ctr6gvbqax","many_one","0","indirect_first","0","ch06rt30","0","26","1","0","3","1","","0","1","0","null","","","<img src = 'targets/38.png' width = '100%;'>","null","","","","","","","","","",""
"","html-keyboard-response","274","483046","0.0-10.0-3.21","ctr6gvbqax","many_one","0","indirect_first","0","ch06rt30","0","26","1","0","3","1","","0","1","0","455.49000008031726","","","<img src = 'targets/mask.png' width = '100%;'>","68","pos","GS","GSold","2","category2/CS9.png","targets/38.png","0","indirect","45",""
"","html-keyboard-response","275","484563","0.0-10.0-0.22","ctr6gvbqax","many_one","0","indirect_first","0","ch06rt30","0","26","1","0","3","1","","0","1","0","null","","","<div style=""font-size:60px;"">+</div>","null","","","","","","","","","",""
"","html-keyboard-response","276","484657","0.0-10.0-1.22","ctr6gvbqax","many_one","0","indirect_first","0","ch06rt30","0","26","1","0","3","1","","0","1","0","null","","","<img src = 'category2/CS4.png' width = '100%;'>","null","","","","","","","","","",""
"","html-keyboard-response","277","484920","0.0-10.0-2.22","ctr6gvbqax","many_one","0","indirect_first","0","ch06rt30","0","26","1","0","3","1","","0","1","0","null","","","<img src = 'targets/6.png' width = '100%;'>","null","","","","","","","","","",""
"","html-keyboard-response","278","485239","0.0-10.0-3.22","ctr6gvbqax","many_one","0","indirect_first","0","ch06rt30","0","26","1","0","3","1","","0","1","0","316.95999996736646","","","<img src = 'targets/mask.png' width = '100%;'>","68","pos","GS","GSold","2","category2/CS4.png","targets/6.png","0","indirect","46",""
"","html-keyboard-response","279","486762","0.0-10.0-0.23","ctr6gvbqax","many_one","0","indirect_first","0","ch06rt30","0","26","1","0","3","1","","0","1","0","null","","","<div style=""font-size:60px;"">+</div>","null","","","","","","","","","",""
"","html-keyboard-response","280","486857","0.0-10.0-1.23","ctr6gvbqax","many_one","0","indirect_first","0","ch06rt30","0","26","1","0","3","1","","0","1","0","null","","","<img src = 'category2/GS1.png' width = '100%;'>","null","","","","","","","","","",""
"","html-keyboard-response","281","487121","0.0-10.0-2.23","ctr6gvbqax","many_one","0","indirect_first","0","ch06rt30","0","26","1","0","3","1","","0","1","0","null","","","<img src = 'targets/19.png' width = '100%;'>","null","","","","","","","","","",""
"","html-keyboard-response","282","487395","0.0-10.0-3.23","ctr6gvbqax","many_one","0","indirect_first","0","ch06rt30","0","26","1","0","3","1","","0","1","0","271.7450000345707","","","<img src = 'targets/mask.png' width = '100%;'>","75","pos","GS","GSnew","2","category2/GS1.png","targets/19.png","1","indirect","47",""
"","survey-html-form","283","494733","0.0-11.0","ctr6gvbqax","many_one","0","indirect_first","0","ch06rt30","0","26","1","0","3","1","","0","1","0","6836.559999966994","","{}","","","","","","","","","","","",""
"","image-slider-response","284","501967","0.0-12.0-0.0","ctr6gvbqax","many_one","0","indirect_first","0","ch06rt30","0","26","1","0","3","1","","0","1","0","5220.960000064224","","","","","neg","GS","GSold","3","category3/CS9.png","targets/48.png","","direct","","-39"
"","image-slider-response","285","507649","0.0-12.0-0.1","ctr6gvbqax","many_one","0","indirect_first","0","ch06rt30","0","26","1","0","3","1","","0","1","0","5678.700000047684","","","","","pos","CS","CS","4","category4/CS4.png","targets/37.png","","direct","","7"
"","image-slider-response","286","510482","0.0-12.0-0.2","ctr6gvbqax","many_one","0","indirect_first","0","ch06rt30","0","26","1","0","3","1","","0","1","0","2830.3150000283495","","","","","neg","CS","CS","3","category3/CS3.png","targets/34.png","","direct","","-21"
"","image-slider-response","287","513381","0.0-12.0-0.3","ctr6gvbqax","many_one","0","indirect_first","0","ch06rt30","0","26","1","0","3","1","","0","1","0","2896.889999974519","","","","","pos","CS","CS","2","category2/CS1.png","targets/39.png","","direct","","76"
"","image-slider-response","288","516148","0.0-12.0-0.4","ctr6gvbqax","many_one","0","indirect_first","0","ch06rt30","0","26","1","0","3","1","","0","1","0","2765.224999981001","","","","","neg","CS","CS","1","category1/CS4.png","targets/36.png","","direct","","36"
"","image-slider-response","289","519015","0.0-12.0-0.5","ctr6gvbqax","many_one","0","indirect_first","0","ch06rt30","0","26","1","0","3","1","","0","1","0","2865.914999973029","","","","","pos","CS","CS","4","category4/CS3.png","targets/20.png","","direct","","100"
"","image-slider-response","290","521649","0.0-12.0-0.6","ctr6gvbqax","many_one","0","indirect_first","0","ch06rt30","0","26","1","0","3","1","","0","1","0","2631.9799999473616","","","","","pos","GS","GSold","2","category2/CS9.png","targets/38.png","","direct","","-27"
"","image-slider-response","291","524829","0.0-12.0-0.7","ctr6gvbqax","many_one","0","indirect_first","0","ch06rt30","0","26","1","0","3","1","","0","1","0","3178.5600000293925","","","","","neg","GS","GSold","3","category3/CS6.png","targets/11.png","","direct","","-63"
"","image-slider-response","292","527530","0.0-12.0-0.8","ctr6gvbqax","many_one","0","indirect_first","0","ch06rt30","0","26","1","0","3","1","","0","1","0","2698.2950000092387","","","","","pos","GS","GSold","2","category2/CS5.png","targets/3.png","","direct","","-61"
"","image-slider-response","293","530097","0.0-12.0-0.9","ctr6gvbqax","many_one","0","indirect_first","0","ch06rt30","0","26","1","0","3","1","","0","1","0","2564.4700000993907","","","","","neg","CS","CS","1","category1/CS8.png","targets/24.png","","direct","","29"
"","image-slider-response","294","533612","0.0-12.0-0.10","ctr6gvbqax","many_one","0","indirect_first","0","ch06rt30","0","26","1","0","3","1","","0","1","0","3513.7549999635667","","","","","pos","CS","CS","2","category2/CS3.png","targets/30.png","","direct","","94"
"","image-slider-response","295","536478","0.0-12.0-0.11","ctr6gvbqax","many_one","0","indirect_first","0","ch06rt30","0","26","1","0","3","1","","0","1","0","2863.145000068471","","","","","pos","CS","CS","2","category2/CS8.png","targets/23.png","","direct","","52"
"","image-slider-response","296","540212","0.0-12.0-0.12","ctr6gvbqax","many_one","0","indirect_first","0","ch06rt30","0","26","1","0","3","1","","0","1","0","3732.9899999313056","","","","","neg","CS","CS","3","category3/CS8.png","targets/9.png","","direct","","-62"
"","image-slider-response","297","544111","0.0-12.0-0.13","ctr6gvbqax","many_one","0","indirect_first","0","ch06rt30","0","26","1","0","3","1","","0","1","0","3896.349999937229","","","","","pos","CS","CS","2","category2/CS6.png","targets/43.png","","direct","","1"
"","image-slider-response","298","546678","0.0-12.0-0.14","ctr6gvbqax","many_one","0","indirect_first","0","ch06rt30","0","26","1","0","3","1","","0","1","0","2566.0050000296906","","","","","neg","GS","abstract","3","category3/wang.png","targets/15.png","","direct","","-56"
"","image-slider-response","299","549143","0.0-12.0-0.15","ctr6gvbqax","many_one","0","indirect_first","0","ch06rt30","0","26","1","0","3","1","","0","1","0","2463.259999989532","","","","","neg","GS","GSnew","3","category3/GS1.png","targets/26.png","","direct","","-78"
"","image-slider-response","300","551959","0.0-12.0-0.16","ctr6gvbqax","many_one","0","indirect_first","0","ch06rt30","0","26","1","0","3","1","","0","1","0","2813.895000028424","","","","","pos","GS","GSnew","2","category2/GS2.png","targets/8.png","","direct","","-65"
"","image-slider-response","301","555581","0.0-12.0-0.17","ctr6gvbqax","many_one","0","indirect_first","0","ch06rt30","0","26","1","0","3","1","","0","1","0","3620.3150000656024","","","","","neg","GS","GSnew","1","category1/GS3.png","targets/32.png","","direct","","41"
"","image-slider-response","302","559841","0.0-12.0-0.18","ctr6gvbqax","many_one","0","indirect_first","0","ch06rt30","0","26","1","0","3","1","","0","1","0","4257.270000060089","","","","","pos","GS","GSold","2","category2/CS4.png","targets/6.png","","direct","","29"
"","image-slider-response","303","562525","0.0-12.0-0.19","ctr6gvbqax","many_one","0","indirect_first","0","ch06rt30","0","26","1","0","3","1","","0","1","0","2680.8949999976903","","","","","neg","CS","CS","3","category3/CS10.png","targets/13.png","","direct","","-34"
"","image-slider-response","304","565642","0.0-12.0-0.20","ctr6gvbqax","many_one","0","indirect_first","0","ch06rt30","0","26","1","0","3","1","","0","1","0","3115.7050000038","","","","","pos","GS","GSold","4","category4/CS7.png","targets/41.png","","direct","","40"
"","image-slider-response","305","568158","0.0-12.0-0.21","ctr6gvbqax","many_one","0","indirect_first","0","ch06rt30","0","26","1","0","3","1","","0","1","0","2514.049999997951","","","","","neg","GS","GSnew","3","category3/GS2.png","targets/18.png","","direct","","-38"
"","image-slider-response","306","571275","0.0-12.0-0.22","ctr6gvbqax","many_one","0","indirect_first","0","ch06rt30","0","26","1","0","3","1","","0","1","0","3114.754999987781","","","","","pos","GS","GSold","4","category4/CS1.png","targets/22.png","","direct","","61"
"","image-slider-response","307","573895","0.0-12.0-0.23","ctr6gvbqax","many_one","0","indirect_first","0","ch06rt30","0","26","1","0","3","1","","0","1","0","2618.8900000415742","","","","","neg","CS","CS","3","category3/CS5.png","targets/25.png","","direct","","-63"
"","image-slider-response","308","576540","0.0-12.0-0.24","ctr6gvbqax","many_one","0","indirect_first","0","ch06rt30","0","26","1","0","3","1","","0","1","0","2643.2899999199435","","","","","neg","GS","abstract","1","category1/ma.png","targets/45.png","","direct","","-21"
"","image-slider-response","309","579457","0.0-12.0-0.25","ctr6gvbqax","many_one","0","indirect_first","0","ch06rt30","0","26","1","0","3","1","","0","1","0","2915.2800000738353","","","","","pos","CS","CS","4","category4/CS6.png","targets/7.png","","direct","","96"
"","image-slider-response","310","582338","0.0-12.0-0.26","ctr6gvbqax","many_one","0","indirect_first","0","ch06rt30","0","26","1","0","3","1","","0","1","0","2879.7600000398234","","","","","pos","GS","GSnew","2","category2/GS1.png","targets/19.png","","direct","","-38"
"","image-slider-response","311","585206","0.0-12.0-0.27","ctr6gvbqax","many_one","0","indirect_first","0","ch06rt30","0","26","1","0","3","1","","0","1","0","2865.2349999174476","","","","","pos","GS","GSnew","2","category2/GS3.png","targets/21.png","","direct","","-52"
"","image-slider-response","312","588089","0.0-12.0-0.28","ctr6gvbqax","many_one","0","indirect_first","0","ch06rt30","0","26","1","0","3","1","","0","1","0","2880.8250000001863","","","","","pos","CS","CS","4","category4/CS10.png","targets/33.png","","direct","","77"
"","image-slider-response","313","591656","0.0-12.0-0.29","ctr6gvbqax","many_one","0","indirect_first","0","ch06rt30","0","26","1","0","3","1","","0","1","0","3565.155000076629","","","","","pos","GS","GSold","4","category4/CS9.png","targets/31.png","","direct","","100"
"","image-slider-response","314","594821","0.0-12.0-0.30","ctr6gvbqax","many_one","0","indirect_first","0","ch06rt30","0","26","1","0","3","1","","0","1","0","3163.5199999436736","","","","","neg","GS","GSnew","1","category1/GS1.png","targets/2.png","","direct","","-16"
"","image-slider-response","315","597337","0.0-12.0-0.31","ctr6gvbqax","many_one","0","indirect_first","0","ch06rt30","0","26","1","0","3","1","","0","1","0","2514.1099999891594","","","","","pos","CS","CS","4","category4/CS8.png","targets/47.png","","direct","","-37"
"","image-slider-response","316","599872","0.0-12.0-0.32","ctr6gvbqax","many_one","0","indirect_first","0","ch06rt30","0","26","1","0","3","1","","0","1","0","2532.179999980144","","","","","pos","GS","GSnew","4","category4/GS1.png","targets/44.png","","direct","","13"
"","image-slider-response","317","602803","0.0-12.0-0.33","ctr6gvbqax","many_one","0","indirect_first","0","ch06rt30","0","26","1","0","3","1","","0","1","0","2929.1449999436736","","","","","pos","GS","abstract","4","category4/lin.png","targets/1.png","","direct","","10"
"","image-slider-response","318","605453","0.0-12.0-0.34","ctr6gvbqax","many_one","0","indirect_first","0","ch06rt30","0","26","1","0","3","1","","0","1","0","2648.5849999589846","","","","","neg","GS","GSold","3","category3/CS1.png","targets/42.png","","direct","","27"
"","image-slider-response","319","608220","0.0-12.0-0.35","ctr6gvbqax","many_one","0","indirect_first","0","ch06rt30","0","26","1","0","3","1","","0","1","0","2765.2699999744073","","","","","pos","GS","abstract","2","category2/men.png","targets/27.png","","direct","","-49"
"","image-slider-response","320","611005","0.0-12.0-0.36","ctr6gvbqax","many_one","0","indirect_first","0","ch06rt30","0","26","1","0","3","1","","0","1","0","2783.0650000832975","","","","","neg","CS","CS","1","category1/CS5.png","targets/5.png","","direct","","24"
"","image-slider-response","321","613834","0.0-12.0-0.37","ctr6gvbqax","many_one","0","indirect_first","0","ch06rt30","0","26","1","0","3","1","","0","1","0","2826.8600000301376","","","","","pos","GS","GSnew","4","category4/GS3.png","targets/40.png","","direct","","63"
"","image-slider-response","322","616522","0.0-12.0-0.38","ctr6gvbqax","many_one","0","indirect_first","0","ch06rt30","0","26","1","0","3","1","","0","1","0","2684.9349999101833","","","","","neg","CS","CS","3","category3/CS7.png","targets/4.png","","direct","","-43"
"","image-slider-response","323","619333","0.0-12.0-0.39","ctr6gvbqax","many_one","0","indirect_first","0","ch06rt30","0","26","1","0","3","1","","0","1","0","2810.3850000770763","","","","","neg","GS","GSold","1","category1/CS10.png","targets/10.png","","direct","","59"
"","image-slider-response","324","621986","0.0-12.0-0.40","ctr6gvbqax","many_one","0","indirect_first","0","ch06rt30","0","26","1","0","3","1","","0","1","0","2651.079999981448","","","","","neg","GS","GSnew","1","category1/GS2.png","targets/14.png","","direct","","-51"
