"success","trial_type","trial_index","time_elapsed","internal_node_id","subject","condition","condition_code","measure","measure_code","codeword","gender","age","education","chinese","fach","handedness","comment","hinschauen","ablenkung","gewissenhaft","rt","url","responses","stimulus","key_press","val","type","type_specific","category","cs_selected","response","target","task","indirect","nr_pres"
"true","fullscreen","0","5862","0.0-0.0","o96sk283ux","many_one","0","direct_first","1","ch06en15","0","28","2","1","3","1","","0","1","0","","","","","","","","","","","","","","",""
"","external-html","1","49165","0.0-1.0","o96sk283ux","many_one","0","direct_first","1","ch06en15","0","28","2","1","3","1","","0","1","0","43261","text/information.html","","","","","","","","","","","","",""
"","external-html","2","71394","0.0-2.0","o96sk283ux","many_one","0","direct_first","1","ch06en15","0","28","2","1","3","1","","0","1","0","22159","text/consent.html","","","","","","","","","","","","",""
"","survey-html-form","3","140402","0.0-3.0","o96sk283ux","many_one","0","direct_first","1","ch06en15","0","28","2","1","3","1","","0","1","0","69007","","{""codeword_enter"":""ch06en15""}","","","","","","","","","","","",""
"","survey-html-form","4","166092","0.0-4.0","o96sk283ux","many_one","0","direct_first","1","ch06en15","0","28","2","1","3","1","","0","1","0","25688","","{""age"":""28"",""education"":""2"",""subject"":""3"",""gender"":""0"",""handedness"":""1"",""chinese"":""1""}","","","","","","","","","","","",""
"","survey-html-form","5","184369","0.0-5.0","o96sk283ux","many_one","0","direct_first","1","ch06en15","0","28","2","1","3","1","","0","1","0","18277","","{}","","","","","","","","","","","",""
"","html-keyboard-response","6","188377","0.0-6.0-0.0-0.0","o96sk283ux","many_one","0","direct_first","1","ch06en15","0","28","2","1","3","1","","0","1","0","null","","","<div class = 'row'><div class = 'column'><img src = 'category2/CS5.png' width = '70%;'></div><div class = 'column'><img src = 'uspos/5830.bmp' width = '100%;'></div></div>","null","pos","CS","CS","2","category2/CS5.png","","","","",""
"","html-keyboard-response","7","190882","0.0-6.0-0.0-0.1","o96sk283ux","many_one","0","direct_first","1","ch06en15","0","28","2","1","3","1","","0","1","0","null","","","<div class = 'row'><div class = 'column'><img src = 'usneg/9404.bmp' width = '100%;'></div><div class = 'column'><img src = 'category1/CS7.png' width = '70%;'></div></div>","null","neg","CS","CS","1","category1/CS7.png","","","","",""
"","html-keyboard-response","8","193389","0.0-6.0-0.0-0.2","o96sk283ux","many_one","0","direct_first","1","ch06en15","0","28","2","1","3","1","","0","1","0","null","","","<div class = 'row'><div class = 'column'><img src = 'category4/CS7.png' width = '70%;'></div><div class = 'column'><img src = 'usneg/3181.bmp' width = '100%;'></div></div>","null","neg","CS","CS","4","category4/CS7.png","","","","",""
"","html-keyboard-response","9","195896","0.0-6.0-0.0-0.3","o96sk283ux","many_one","0","direct_first","1","ch06en15","0","28","2","1","3","1","","0","1","0","null","","","<div class = 'row'><div class = 'column'><img src = 'category3/CS10.png' width = '70%;'></div><div class = 'column'><img src = 'uspos/2057.bmp' width = '100%;'></div></div>","null","pos","CS","CS","3","category3/CS10.png","","","","",""
"","html-keyboard-response","10","198404","0.0-6.0-0.0-0.4","o96sk283ux","many_one","0","direct_first","1","ch06en15","0","28","2","1","3","1","","0","1","0","null","","","<div class = 'row'><div class = 'column'><img src = 'category1/CS2.png' width = '70%;'></div><div class = 'column'><img src = 'usneg/1280.bmp' width = '100%;'></div></div>","null","neg","CS","CS","1","category1/CS2.png","","","","",""
"","html-keyboard-response","11","200911","0.0-6.0-0.0-0.5","o96sk283ux","many_one","0","direct_first","1","ch06en15","0","28","2","1","3","1","","0","1","0","null","","","<div class = 'row'><div class = 'column'><img src = 'category3/CS4.png' width = '70%;'></div><div class = 'column'><img src = 'uspos/2165.bmp' width = '100%;'></div></div>","null","pos","CS","CS","3","category3/CS4.png","","","","",""
"","html-keyboard-response","12","203422","0.0-6.0-0.0-0.6","o96sk283ux","many_one","0","direct_first","1","ch06en15","0","28","2","1","3","1","","0","1","0","null","","","<div class = 'row'><div class = 'column'><img src = 'category3/CS7.png' width = '70%;'></div><div class = 'column'><img src = 'uspos/5470.bmp' width = '100%;'></div></div>","null","pos","CS","CS","3","category3/CS7.png","","","","",""
"","html-keyboard-response","13","205930","0.0-6.0-0.0-0.7","o96sk283ux","many_one","0","direct_first","1","ch06en15","0","28","2","1","3","1","","0","1","0","null","","","<div class = 'row'><div class = 'column'><img src = 'category4/CS4.png' width = '70%;'></div><div class = 'column'><img src = 'usneg/3300.bmp' width = '100%;'></div></div>","null","neg","CS","CS","4","category4/CS4.png","","","","",""
"","html-keyboard-response","14","208438","0.0-6.0-0.0-0.8","o96sk283ux","many_one","0","direct_first","1","ch06en15","0","28","2","1","3","1","","0","1","0","null","","","<div class = 'row'><div class = 'column'><img src = 'category3/CS9.png' width = '70%;'></div><div class = 'column'><img src = 'uspos/4625.bmp' width = '100%;'></div></div>","null","pos","CS","CS","3","category3/CS9.png","","","","",""
"","html-keyboard-response","15","210943","0.0-6.0-0.0-0.9","o96sk283ux","many_one","0","direct_first","1","ch06en15","0","28","2","1","3","1","","0","1","0","null","","","<div class = 'row'><div class = 'column'><img src = 'category2/CS3.png' width = '70%;'></div><div class = 'column'><img src = 'uspos/1340.bmp' width = '100%;'></div></div>","null","pos","CS","CS","2","category2/CS3.png","","","","",""
"","html-keyboard-response","16","213450","0.0-6.0-0.0-0.10","o96sk283ux","many_one","0","direct_first","1","ch06en15","0","28","2","1","3","1","","0","1","0","null","","","<div class = 'row'><div class = 'column'><img src = 'usneg/9340.bmp' width = '100%;'></div><div class = 'column'><img src = 'category4/CS10.png' width = '70%;'></div></div>","null","neg","CS","CS","4","category4/CS10.png","","","","",""
"","html-keyboard-response","17","215955","0.0-6.0-0.0-0.11","o96sk283ux","many_one","0","direct_first","1","ch06en15","0","28","2","1","3","1","","0","1","0","null","","","<div class = 'row'><div class = 'column'><img src = 'category1/CS6.png' width = '70%;'></div><div class = 'column'><img src = 'usneg/9330.bmp' width = '100%;'></div></div>","null","neg","CS","CS","1","category1/CS6.png","","","","",""
"","html-keyboard-response","18","218460","0.0-6.0-0.0-0.12","o96sk283ux","many_one","0","direct_first","1","ch06en15","0","28","2","1","3","1","","0","1","0","null","","","<div class = 'row'><div class = 'column'><img src = 'category4/CS6.png' width = '70%;'></div><div class = 'column'><img src = 'usneg/9050.bmp' width = '100%;'></div></div>","null","neg","CS","CS","4","category4/CS6.png","","","","",""
"","html-keyboard-response","19","220965","0.0-6.0-0.0-0.13","o96sk283ux","many_one","0","direct_first","1","ch06en15","0","28","2","1","3","1","","0","1","0","null","","","<div class = 'row'><div class = 'column'><img src = 'uspos/8461.bmp' width = '100%;'></div><div class = 'column'><img src = 'category2/CS9.png' width = '70%;'></div></div>","null","pos","CS","CS","2","category2/CS9.png","","","","",""
"","html-keyboard-response","20","223475","0.0-6.0-0.0-0.14","o96sk283ux","many_one","0","direct_first","1","ch06en15","0","28","2","1","3","1","","0","1","0","null","","","<div class = 'row'><div class = 'column'><img src = 'category2/CS1.png' width = '70%;'></div><div class = 'column'><img src = 'uspos/5700.bmp' width = '100%;'></div></div>","null","pos","CS","CS","2","category2/CS1.png","","","","",""
"","html-keyboard-response","21","225983","0.0-6.0-0.0-0.15","o96sk283ux","many_one","0","direct_first","1","ch06en15","0","28","2","1","3","1","","0","1","0","null","","","<div class = 'row'><div class = 'column'><img src = 'category3/CS6.png' width = '70%;'></div><div class = 'column'><img src = 'uspos/8540.bmp' width = '100%;'></div></div>","null","pos","CS","CS","3","category3/CS6.png","","","","",""
"","html-keyboard-response","22","228490","0.0-6.0-0.0-0.16","o96sk283ux","many_one","0","direct_first","1","ch06en15","0","28","2","1","3","1","","0","1","0","null","","","<div class = 'row'><div class = 'column'><img src = 'uspos/2040.bmp' width = '100%;'></div><div class = 'column'><img src = 'category2/CS6.png' width = '70%;'></div></div>","null","pos","CS","CS","2","category2/CS6.png","","","","",""
"","html-keyboard-response","23","230998","0.0-6.0-0.0-0.17","o96sk283ux","many_one","0","direct_first","1","ch06en15","0","28","2","1","3","1","","0","1","0","null","","","<div class = 'row'><div class = 'column'><img src = 'category1/CS4.png' width = '70%;'></div><div class = 'column'><img src = 'usneg/9421.bmp' width = '100%;'></div></div>","null","neg","CS","CS","1","category1/CS4.png","","","","",""
"","html-keyboard-response","24","233503","0.0-6.0-0.0-0.18","o96sk283ux","many_one","0","direct_first","1","ch06en15","0","28","2","1","3","1","","0","1","0","null","","","<div class = 'row'><div class = 'column'><img src = 'category4/CS3.png' width = '70%;'></div><div class = 'column'><img src = 'usneg/2205.bmp' width = '100%;'></div></div>","null","neg","CS","CS","4","category4/CS3.png","","","","",""
"","html-keyboard-response","25","236011","0.0-6.0-0.0-0.19","o96sk283ux","many_one","0","direct_first","1","ch06en15","0","28","2","1","3","1","","0","1","0","null","","","<div class = 'row'><div class = 'column'><img src = 'category1/CS10.png' width = '70%;'></div><div class = 'column'><img src = 'usneg/9920.bmp' width = '100%;'></div></div>","null","neg","CS","CS","1","category1/CS10.png","","","","",""
"","survey-html-form","26","246642","0.0-6.0-1.0","o96sk283ux","many_one","0","direct_first","1","ch06en15","0","28","2","1","3","1","","0","1","0","10129","","{}","","","","","","","","","","","",""
"","html-keyboard-response","27","250645","0.0-6.0-2.0-0.0","o96sk283ux","many_one","0","direct_first","1","ch06en15","0","28","2","1","3","1","","0","1","0","null","","","<div class = 'row'><div class = 'column'><img src = 'uspos/2057.bmp' width = '100%;'></div><div class = 'column'><img src = 'category3/CS10.png' width = '70%;'></div></div>","null","pos","CS","CS","3","category3/CS10.png","","","","",""
"","html-keyboard-response","28","253148","0.0-6.0-2.0-0.1","o96sk283ux","many_one","0","direct_first","1","ch06en15","0","28","2","1","3","1","","0","1","0","null","","","<div class = 'row'><div class = 'column'><img src = 'category2/CS3.png' width = '70%;'></div><div class = 'column'><img src = 'uspos/1340.bmp' width = '100%;'></div></div>","null","pos","CS","CS","2","category2/CS3.png","","","","",""
"","html-keyboard-response","29","255655","0.0-6.0-2.0-0.2","o96sk283ux","many_one","0","direct_first","1","ch06en15","0","28","2","1","3","1","","0","1","0","null","","","<div class = 'row'><div class = 'column'><img src = 'usneg/9050.bmp' width = '100%;'></div><div class = 'column'><img src = 'category4/CS6.png' width = '70%;'></div></div>","null","neg","CS","CS","4","category4/CS6.png","","","","",""
"","html-keyboard-response","30","258162","0.0-6.0-2.0-0.3","o96sk283ux","many_one","0","direct_first","1","ch06en15","0","28","2","1","3","1","","0","1","0","null","","","<div class = 'row'><div class = 'column'><img src = 'category2/CS1.png' width = '70%;'></div><div class = 'column'><img src = 'uspos/5700.bmp' width = '100%;'></div></div>","null","pos","CS","CS","2","category2/CS1.png","","","","",""
"","html-keyboard-response","31","260670","0.0-6.0-2.0-0.4","o96sk283ux","many_one","0","direct_first","1","ch06en15","0","28","2","1","3","1","","0","1","0","null","","","<div class = 'row'><div class = 'column'><img src = 'category1/CS10.png' width = '70%;'></div><div class = 'column'><img src = 'usneg/9920.bmp' width = '100%;'></div></div>","null","neg","CS","CS","1","category1/CS10.png","","","","",""
"","html-keyboard-response","32","263175","0.0-6.0-2.0-0.5","o96sk283ux","many_one","0","direct_first","1","ch06en15","0","28","2","1","3","1","","0","1","0","null","","","<div class = 'row'><div class = 'column'><img src = 'usneg/3300.bmp' width = '100%;'></div><div class = 'column'><img src = 'category4/CS4.png' width = '70%;'></div></div>","null","neg","CS","CS","4","category4/CS4.png","","","","",""
"","html-keyboard-response","33","265679","0.0-6.0-2.0-0.6","o96sk283ux","many_one","0","direct_first","1","ch06en15","0","28","2","1","3","1","","0","1","0","null","","","<div class = 'row'><div class = 'column'><img src = 'usneg/1280.bmp' width = '100%;'></div><div class = 'column'><img src = 'category1/CS2.png' width = '70%;'></div></div>","null","neg","CS","CS","1","category1/CS2.png","","","","",""
"","html-keyboard-response","34","268187","0.0-6.0-2.0-0.7","o96sk283ux","many_one","0","direct_first","1","ch06en15","0","28","2","1","3","1","","0","1","0","null","","","<div class = 'row'><div class = 'column'><img src = 'uspos/2165.bmp' width = '100%;'></div><div class = 'column'><img src = 'category3/CS4.png' width = '70%;'></div></div>","null","pos","CS","CS","3","category3/CS4.png","","","","",""
"","html-keyboard-response","35","270695","0.0-6.0-2.0-0.8","o96sk283ux","many_one","0","direct_first","1","ch06en15","0","28","2","1","3","1","","0","1","0","null","","","<div class = 'row'><div class = 'column'><img src = 'uspos/2040.bmp' width = '100%;'></div><div class = 'column'><img src = 'category2/CS6.png' width = '70%;'></div></div>","null","pos","CS","CS","2","category2/CS6.png","","","","",""
"","html-keyboard-response","36","273203","0.0-6.0-2.0-0.9","o96sk283ux","many_one","0","direct_first","1","ch06en15","0","28","2","1","3","1","","0","1","0","null","","","<div class = 'row'><div class = 'column'><img src = 'usneg/3181.bmp' width = '100%;'></div><div class = 'column'><img src = 'category4/CS7.png' width = '70%;'></div></div>","null","neg","CS","CS","4","category4/CS7.png","","","","",""
"","html-keyboard-response","37","275710","0.0-6.0-2.0-0.10","o96sk283ux","many_one","0","direct_first","1","ch06en15","0","28","2","1","3","1","","0","1","0","null","","","<div class = 'row'><div class = 'column'><img src = 'uspos/5470.bmp' width = '100%;'></div><div class = 'column'><img src = 'category3/CS7.png' width = '70%;'></div></div>","null","pos","CS","CS","3","category3/CS7.png","","","","",""
"","html-keyboard-response","38","278221","0.0-6.0-2.0-0.11","o96sk283ux","many_one","0","direct_first","1","ch06en15","0","28","2","1","3","1","","0","1","0","null","","","<div class = 'row'><div class = 'column'><img src = 'usneg/9404.bmp' width = '100%;'></div><div class = 'column'><img src = 'category1/CS7.png' width = '70%;'></div></div>","null","neg","CS","CS","1","category1/CS7.png","","","","",""
"","html-keyboard-response","39","280729","0.0-6.0-2.0-0.12","o96sk283ux","many_one","0","direct_first","1","ch06en15","0","28","2","1","3","1","","0","1","0","null","","","<div class = 'row'><div class = 'column'><img src = 'category2/CS5.png' width = '70%;'></div><div class = 'column'><img src = 'uspos/5830.bmp' width = '100%;'></div></div>","null","pos","CS","CS","2","category2/CS5.png","","","","",""
"","html-keyboard-response","40","283234","0.0-6.0-2.0-0.13","o96sk283ux","many_one","0","direct_first","1","ch06en15","0","28","2","1","3","1","","0","1","0","null","","","<div class = 'row'><div class = 'column'><img src = 'usneg/9340.bmp' width = '100%;'></div><div class = 'column'><img src = 'category4/CS10.png' width = '70%;'></div></div>","null","neg","CS","CS","4","category4/CS10.png","","","","",""
"","html-keyboard-response","41","285738","0.0-6.0-2.0-0.14","o96sk283ux","many_one","0","direct_first","1","ch06en15","0","28","2","1","3","1","","0","1","0","null","","","<div class = 'row'><div class = 'column'><img src = 'category2/CS9.png' width = '70%;'></div><div class = 'column'><img src = 'uspos/8461.bmp' width = '100%;'></div></div>","null","pos","CS","CS","2","category2/CS9.png","","","","",""
"","html-keyboard-response","42","288246","0.0-6.0-2.0-0.15","o96sk283ux","many_one","0","direct_first","1","ch06en15","0","28","2","1","3","1","","0","1","0","null","","","<div class = 'row'><div class = 'column'><img src = 'uspos/8540.bmp' width = '100%;'></div><div class = 'column'><img src = 'category3/CS6.png' width = '70%;'></div></div>","null","pos","CS","CS","3","category3/CS6.png","","","","",""
"","html-keyboard-response","43","290750","0.0-6.0-2.0-0.16","o96sk283ux","many_one","0","direct_first","1","ch06en15","0","28","2","1","3","1","","0","1","0","null","","","<div class = 'row'><div class = 'column'><img src = 'category1/CS6.png' width = '70%;'></div><div class = 'column'><img src = 'usneg/9330.bmp' width = '100%;'></div></div>","null","neg","CS","CS","1","category1/CS6.png","","","","",""
"","html-keyboard-response","44","293256","0.0-6.0-2.0-0.17","o96sk283ux","many_one","0","direct_first","1","ch06en15","0","28","2","1","3","1","","0","1","0","null","","","<div class = 'row'><div class = 'column'><img src = 'category4/CS3.png' width = '70%;'></div><div class = 'column'><img src = 'usneg/2205.bmp' width = '100%;'></div></div>","null","neg","CS","CS","4","category4/CS3.png","","","","",""
"","html-keyboard-response","45","295760","0.0-6.0-2.0-0.18","o96sk283ux","many_one","0","direct_first","1","ch06en15","0","28","2","1","3","1","","0","1","0","null","","","<div class = 'row'><div class = 'column'><img src = 'category3/CS9.png' width = '70%;'></div><div class = 'column'><img src = 'uspos/4625.bmp' width = '100%;'></div></div>","null","pos","CS","CS","3","category3/CS9.png","","","","",""
"","html-keyboard-response","46","298265","0.0-6.0-2.0-0.19","o96sk283ux","many_one","0","direct_first","1","ch06en15","0","28","2","1","3","1","","0","1","0","null","","","<div class = 'row'><div class = 'column'><img src = 'category1/CS4.png' width = '70%;'></div><div class = 'column'><img src = 'usneg/9421.bmp' width = '100%;'></div></div>","null","neg","CS","CS","1","category1/CS4.png","","","","",""
"","survey-html-form","47","322251","0.0-6.0-3.0","o96sk283ux","many_one","0","direct_first","1","ch06en15","0","28","2","1","3","1","","0","1","0","23484","","{}","","","","","","","","","","","",""
"","html-keyboard-response","48","326259","0.0-6.0-4.0-0.0","o96sk283ux","many_one","0","direct_first","1","ch06en15","0","28","2","1","3","1","","0","1","0","null","","","<div class = 'row'><div class = 'column'><img src = 'category2/CS9.png' width = '70%;'></div><div class = 'column'><img src = 'uspos/8461.bmp' width = '100%;'></div></div>","null","pos","CS","CS","2","category2/CS9.png","","","","",""
"","html-keyboard-response","49","328766","0.0-6.0-4.0-0.1","o96sk283ux","many_one","0","direct_first","1","ch06en15","0","28","2","1","3","1","","0","1","0","null","","","<div class = 'row'><div class = 'column'><img src = 'uspos/2040.bmp' width = '100%;'></div><div class = 'column'><img src = 'category2/CS6.png' width = '70%;'></div></div>","null","pos","CS","CS","2","category2/CS6.png","","","","",""
"","html-keyboard-response","50","331272","0.0-6.0-4.0-0.2","o96sk283ux","many_one","0","direct_first","1","ch06en15","0","28","2","1","3","1","","0","1","0","null","","","<div class = 'row'><div class = 'column'><img src = 'uspos/8540.bmp' width = '100%;'></div><div class = 'column'><img src = 'category3/CS6.png' width = '70%;'></div></div>","null","pos","CS","CS","3","category3/CS6.png","","","","",""
"","html-keyboard-response","51","333780","0.0-6.0-4.0-0.3","o96sk283ux","many_one","0","direct_first","1","ch06en15","0","28","2","1","3","1","","0","1","0","null","","","<div class = 'row'><div class = 'column'><img src = 'category1/CS6.png' width = '70%;'></div><div class = 'column'><img src = 'usneg/9330.bmp' width = '100%;'></div></div>","null","neg","CS","CS","1","category1/CS6.png","","","","",""
"","html-keyboard-response","52","336284","0.0-6.0-4.0-0.4","o96sk283ux","many_one","0","direct_first","1","ch06en15","0","28","2","1","3","1","","0","1","0","null","","","<div class = 'row'><div class = 'column'><img src = 'category1/CS2.png' width = '70%;'></div><div class = 'column'><img src = 'usneg/1280.bmp' width = '100%;'></div></div>","null","neg","CS","CS","1","category1/CS2.png","","","","",""
"","html-keyboard-response","53","338792","0.0-6.0-4.0-0.5","o96sk283ux","many_one","0","direct_first","1","ch06en15","0","28","2","1","3","1","","0","1","0","null","","","<div class = 'row'><div class = 'column'><img src = 'category1/CS7.png' width = '70%;'></div><div class = 'column'><img src = 'usneg/9404.bmp' width = '100%;'></div></div>","null","neg","CS","CS","1","category1/CS7.png","","","","",""
"","html-keyboard-response","54","341299","0.0-6.0-4.0-0.6","o96sk283ux","many_one","0","direct_first","1","ch06en15","0","28","2","1","3","1","","0","1","0","null","","","<div class = 'row'><div class = 'column'><img src = 'category4/CS3.png' width = '70%;'></div><div class = 'column'><img src = 'usneg/2205.bmp' width = '100%;'></div></div>","null","neg","CS","CS","4","category4/CS3.png","","","","",""
"","html-keyboard-response","55","343804","0.0-6.0-4.0-0.7","o96sk283ux","many_one","0","direct_first","1","ch06en15","0","28","2","1","3","1","","0","1","0","null","","","<div class = 'row'><div class = 'column'><img src = 'uspos/2165.bmp' width = '100%;'></div><div class = 'column'><img src = 'category3/CS4.png' width = '70%;'></div></div>","null","pos","CS","CS","3","category3/CS4.png","","","","",""
"","html-keyboard-response","56","346312","0.0-6.0-4.0-0.8","o96sk283ux","many_one","0","direct_first","1","ch06en15","0","28","2","1","3","1","","0","1","0","null","","","<div class = 'row'><div class = 'column'><img src = 'category2/CS5.png' width = '70%;'></div><div class = 'column'><img src = 'uspos/5830.bmp' width = '100%;'></div></div>","null","pos","CS","CS","2","category2/CS5.png","","","","",""
"","html-keyboard-response","57","348819","0.0-6.0-4.0-0.9","o96sk283ux","many_one","0","direct_first","1","ch06en15","0","28","2","1","3","1","","0","1","0","null","","","<div class = 'row'><div class = 'column'><img src = 'usneg/9920.bmp' width = '100%;'></div><div class = 'column'><img src = 'category1/CS10.png' width = '70%;'></div></div>","null","neg","CS","CS","1","category1/CS10.png","","","","",""
"","html-keyboard-response","58","351328","0.0-6.0-4.0-0.10","o96sk283ux","many_one","0","direct_first","1","ch06en15","0","28","2","1","3","1","","0","1","0","null","","","<div class = 'row'><div class = 'column'><img src = 'category3/CS9.png' width = '70%;'></div><div class = 'column'><img src = 'uspos/4625.bmp' width = '100%;'></div></div>","null","pos","CS","CS","3","category3/CS9.png","","","","",""
"","html-keyboard-response","59","353835","0.0-6.0-4.0-0.11","o96sk283ux","many_one","0","direct_first","1","ch06en15","0","28","2","1","3","1","","0","1","0","null","","","<div class = 'row'><div class = 'column'><img src = 'uspos/1340.bmp' width = '100%;'></div><div class = 'column'><img src = 'category2/CS3.png' width = '70%;'></div></div>","null","pos","CS","CS","2","category2/CS3.png","","","","",""
"","html-keyboard-response","60","356339","0.0-6.0-4.0-0.12","o96sk283ux","many_one","0","direct_first","1","ch06en15","0","28","2","1","3","1","","0","1","0","null","","","<div class = 'row'><div class = 'column'><img src = 'usneg/3181.bmp' width = '100%;'></div><div class = 'column'><img src = 'category4/CS7.png' width = '70%;'></div></div>","null","neg","CS","CS","4","category4/CS7.png","","","","",""
"","html-keyboard-response","61","358851","0.0-6.0-4.0-0.13","o96sk283ux","many_one","0","direct_first","1","ch06en15","0","28","2","1","3","1","","0","1","0","null","","","<div class = 'row'><div class = 'column'><img src = 'usneg/9050.bmp' width = '100%;'></div><div class = 'column'><img src = 'category4/CS6.png' width = '70%;'></div></div>","null","neg","CS","CS","4","category4/CS6.png","","","","",""
"","html-keyboard-response","62","361359","0.0-6.0-4.0-0.14","o96sk283ux","many_one","0","direct_first","1","ch06en15","0","28","2","1","3","1","","0","1","0","null","","","<div class = 'row'><div class = 'column'><img src = 'uspos/2057.bmp' width = '100%;'></div><div class = 'column'><img src = 'category3/CS10.png' width = '70%;'></div></div>","null","pos","CS","CS","3","category3/CS10.png","","","","",""
"","html-keyboard-response","63","363862","0.0-6.0-4.0-0.15","o96sk283ux","many_one","0","direct_first","1","ch06en15","0","28","2","1","3","1","","0","1","0","null","","","<div class = 'row'><div class = 'column'><img src = 'usneg/9340.bmp' width = '100%;'></div><div class = 'column'><img src = 'category4/CS10.png' width = '70%;'></div></div>","null","neg","CS","CS","4","category4/CS10.png","","","","",""
"","html-keyboard-response","64","366368","0.0-6.0-4.0-0.16","o96sk283ux","many_one","0","direct_first","1","ch06en15","0","28","2","1","3","1","","0","1","0","null","","","<div class = 'row'><div class = 'column'><img src = 'usneg/3300.bmp' width = '100%;'></div><div class = 'column'><img src = 'category4/CS4.png' width = '70%;'></div></div>","null","neg","CS","CS","4","category4/CS4.png","","","","",""
"","html-keyboard-response","65","368872","0.0-6.0-4.0-0.17","o96sk283ux","many_one","0","direct_first","1","ch06en15","0","28","2","1","3","1","","0","1","0","null","","","<div class = 'row'><div class = 'column'><img src = 'category2/CS1.png' width = '70%;'></div><div class = 'column'><img src = 'uspos/5700.bmp' width = '100%;'></div></div>","null","pos","CS","CS","2","category2/CS1.png","","","","",""
"","html-keyboard-response","66","371380","0.0-6.0-4.0-0.18","o96sk283ux","many_one","0","direct_first","1","ch06en15","0","28","2","1","3","1","","0","1","0","null","","","<div class = 'row'><div class = 'column'><img src = 'category1/CS4.png' width = '70%;'></div><div class = 'column'><img src = 'usneg/9421.bmp' width = '100%;'></div></div>","null","neg","CS","CS","1","category1/CS4.png","","","","",""
"","html-keyboard-response","67","373888","0.0-6.0-4.0-0.19","o96sk283ux","many_one","0","direct_first","1","ch06en15","0","28","2","1","3","1","","0","1","0","null","","","<div class = 'row'><div class = 'column'><img src = 'uspos/5470.bmp' width = '100%;'></div><div class = 'column'><img src = 'category3/CS7.png' width = '70%;'></div></div>","null","pos","CS","CS","3","category3/CS7.png","","","","",""
"","survey-html-form","68","381883","0.0-6.0-5.0","o96sk283ux","many_one","0","direct_first","1","ch06en15","0","28","2","1","3","1","","0","1","0","7491","","{}","","","","","","","","","","","",""
"","html-keyboard-response","69","385890","0.0-6.0-6.0-0.0","o96sk283ux","many_one","0","direct_first","1","ch06en15","0","28","2","1","3","1","","0","1","0","null","","","<div class = 'row'><div class = 'column'><img src = 'category2/CS9.png' width = '70%;'></div><div class = 'column'><img src = 'uspos/8461.bmp' width = '100%;'></div></div>","null","pos","CS","CS","2","category2/CS9.png","","","","",""
"","html-keyboard-response","70","388397","0.0-6.0-6.0-0.1","o96sk283ux","many_one","0","direct_first","1","ch06en15","0","28","2","1","3","1","","0","1","0","null","","","<div class = 'row'><div class = 'column'><img src = 'uspos/5470.bmp' width = '100%;'></div><div class = 'column'><img src = 'category3/CS7.png' width = '70%;'></div></div>","null","pos","CS","CS","3","category3/CS7.png","","","","",""
"","html-keyboard-response","71","390904","0.0-6.0-6.0-0.2","o96sk283ux","many_one","0","direct_first","1","ch06en15","0","28","2","1","3","1","","0","1","0","null","","","<div class = 'row'><div class = 'column'><img src = 'usneg/9340.bmp' width = '100%;'></div><div class = 'column'><img src = 'category4/CS10.png' width = '70%;'></div></div>","null","neg","CS","CS","4","category4/CS10.png","","","","",""
"","html-keyboard-response","72","393412","0.0-6.0-6.0-0.3","o96sk283ux","many_one","0","direct_first","1","ch06en15","0","28","2","1","3","1","","0","1","0","null","","","<div class = 'row'><div class = 'column'><img src = 'category3/CS9.png' width = '70%;'></div><div class = 'column'><img src = 'uspos/4625.bmp' width = '100%;'></div></div>","null","pos","CS","CS","3","category3/CS9.png","","","","",""
"","html-keyboard-response","73","395920","0.0-6.0-6.0-0.4","o96sk283ux","many_one","0","direct_first","1","ch06en15","0","28","2","1","3","1","","0","1","0","null","","","<div class = 'row'><div class = 'column'><img src = 'usneg/9404.bmp' width = '100%;'></div><div class = 'column'><img src = 'category1/CS7.png' width = '70%;'></div></div>","null","neg","CS","CS","1","category1/CS7.png","","","","",""
"","html-keyboard-response","74","398427","0.0-6.0-6.0-0.5","o96sk283ux","many_one","0","direct_first","1","ch06en15","0","28","2","1","3","1","","0","1","0","null","","","<div class = 'row'><div class = 'column'><img src = 'category1/CS6.png' width = '70%;'></div><div class = 'column'><img src = 'usneg/9330.bmp' width = '100%;'></div></div>","null","neg","CS","CS","1","category1/CS6.png","","","","",""
"","html-keyboard-response","75","400935","0.0-6.0-6.0-0.6","o96sk283ux","many_one","0","direct_first","1","ch06en15","0","28","2","1","3","1","","0","1","0","null","","","<div class = 'row'><div class = 'column'><img src = 'category1/CS2.png' width = '70%;'></div><div class = 'column'><img src = 'usneg/1280.bmp' width = '100%;'></div></div>","null","neg","CS","CS","1","category1/CS2.png","","","","",""
"","html-keyboard-response","76","403443","0.0-6.0-6.0-0.7","o96sk283ux","many_one","0","direct_first","1","ch06en15","0","28","2","1","3","1","","0","1","0","null","","","<div class = 'row'><div class = 'column'><img src = 'usneg/2205.bmp' width = '100%;'></div><div class = 'column'><img src = 'category4/CS3.png' width = '70%;'></div></div>","null","neg","CS","CS","4","category4/CS3.png","","","","",""
"","html-keyboard-response","77","405951","0.0-6.0-6.0-0.8","o96sk283ux","many_one","0","direct_first","1","ch06en15","0","28","2","1","3","1","","0","1","0","null","","","<div class = 'row'><div class = 'column'><img src = 'category3/CS6.png' width = '70%;'></div><div class = 'column'><img src = 'uspos/8540.bmp' width = '100%;'></div></div>","null","pos","CS","CS","3","category3/CS6.png","","","","",""
"","html-keyboard-response","78","408457","0.0-6.0-6.0-0.9","o96sk283ux","many_one","0","direct_first","1","ch06en15","0","28","2","1","3","1","","0","1","0","null","","","<div class = 'row'><div class = 'column'><img src = 'category1/CS4.png' width = '70%;'></div><div class = 'column'><img src = 'usneg/9421.bmp' width = '100%;'></div></div>","null","neg","CS","CS","1","category1/CS4.png","","","","",""
"","html-keyboard-response","79","410964","0.0-6.0-6.0-0.10","o96sk283ux","many_one","0","direct_first","1","ch06en15","0","28","2","1","3","1","","0","1","0","null","","","<div class = 'row'><div class = 'column'><img src = 'uspos/2057.bmp' width = '100%;'></div><div class = 'column'><img src = 'category3/CS10.png' width = '70%;'></div></div>","null","pos","CS","CS","3","category3/CS10.png","","","","",""
"","html-keyboard-response","80","413471","0.0-6.0-6.0-0.11","o96sk283ux","many_one","0","direct_first","1","ch06en15","0","28","2","1","3","1","","0","1","0","null","","","<div class = 'row'><div class = 'column'><img src = 'usneg/9920.bmp' width = '100%;'></div><div class = 'column'><img src = 'category1/CS10.png' width = '70%;'></div></div>","null","neg","CS","CS","1","category1/CS10.png","","","","",""
"","html-keyboard-response","81","415979","0.0-6.0-6.0-0.12","o96sk283ux","many_one","0","direct_first","1","ch06en15","0","28","2","1","3","1","","0","1","0","null","","","<div class = 'row'><div class = 'column'><img src = 'uspos/5830.bmp' width = '100%;'></div><div class = 'column'><img src = 'category2/CS5.png' width = '70%;'></div></div>","null","pos","CS","CS","2","category2/CS5.png","","","","",""
"","html-keyboard-response","82","418483","0.0-6.0-6.0-0.13","o96sk283ux","many_one","0","direct_first","1","ch06en15","0","28","2","1","3","1","","0","1","0","null","","","<div class = 'row'><div class = 'column'><img src = 'uspos/5700.bmp' width = '100%;'></div><div class = 'column'><img src = 'category2/CS1.png' width = '70%;'></div></div>","null","pos","CS","CS","2","category2/CS1.png","","","","",""
"","html-keyboard-response","83","420988","0.0-6.0-6.0-0.14","o96sk283ux","many_one","0","direct_first","1","ch06en15","0","28","2","1","3","1","","0","1","0","null","","","<div class = 'row'><div class = 'column'><img src = 'category4/CS7.png' width = '70%;'></div><div class = 'column'><img src = 'usneg/3181.bmp' width = '100%;'></div></div>","null","neg","CS","CS","4","category4/CS7.png","","","","",""
"","html-keyboard-response","84","423496","0.0-6.0-6.0-0.15","o96sk283ux","many_one","0","direct_first","1","ch06en15","0","28","2","1","3","1","","0","1","0","null","","","<div class = 'row'><div class = 'column'><img src = 'category4/CS4.png' width = '70%;'></div><div class = 'column'><img src = 'usneg/3300.bmp' width = '100%;'></div></div>","null","neg","CS","CS","4","category4/CS4.png","","","","",""
"","html-keyboard-response","85","426003","0.0-6.0-6.0-0.16","o96sk283ux","many_one","0","direct_first","1","ch06en15","0","28","2","1","3","1","","0","1","0","null","","","<div class = 'row'><div class = 'column'><img src = 'category2/CS6.png' width = '70%;'></div><div class = 'column'><img src = 'uspos/2040.bmp' width = '100%;'></div></div>","null","pos","CS","CS","2","category2/CS6.png","","","","",""
"","html-keyboard-response","86","428509","0.0-6.0-6.0-0.17","o96sk283ux","many_one","0","direct_first","1","ch06en15","0","28","2","1","3","1","","0","1","0","null","","","<div class = 'row'><div class = 'column'><img src = 'category4/CS6.png' width = '70%;'></div><div class = 'column'><img src = 'usneg/9050.bmp' width = '100%;'></div></div>","null","neg","CS","CS","4","category4/CS6.png","","","","",""
"","html-keyboard-response","87","431017","0.0-6.0-6.0-0.18","o96sk283ux","many_one","0","direct_first","1","ch06en15","0","28","2","1","3","1","","0","1","0","null","","","<div class = 'row'><div class = 'column'><img src = 'category2/CS3.png' width = '70%;'></div><div class = 'column'><img src = 'uspos/1340.bmp' width = '100%;'></div></div>","null","pos","CS","CS","2","category2/CS3.png","","","","",""
"","html-keyboard-response","88","433521","0.0-6.0-6.0-0.19","o96sk283ux","many_one","0","direct_first","1","ch06en15","0","28","2","1","3","1","","0","1","0","null","","","<div class = 'row'><div class = 'column'><img src = 'category3/CS4.png' width = '70%;'></div><div class = 'column'><img src = 'uspos/2165.bmp' width = '100%;'></div></div>","null","pos","CS","CS","3","category3/CS4.png","","","","",""
"","survey-html-form","89","450690","0.0-7.0","o96sk283ux","many_one","0","direct_first","1","ch06en15","0","28","2","1","3","1","","0","1","0","16664","","{}","","","","","","","","","","","",""
"","image-slider-response","90","460374","0.0-8.0-0.0","o96sk283ux","many_one","0","direct_first","1","ch06en15","0","28","2","1","3","1","","0","1","0","7677","","","","","pos","CS","CS","2","category2/CS3.png","50","targets/47.png","direct","",""
"","image-slider-response","91","466021","0.0-8.0-0.1","o96sk283ux","many_one","0","direct_first","1","ch06en15","0","28","2","1","3","1","","0","1","0","5646","","","","","neg","GS","GSold","4","category4/CS2.png","-13","targets/11.png","direct","",""
"","image-slider-response","92","476035","0.0-8.0-0.2","o96sk283ux","many_one","0","direct_first","1","ch06en15","0","28","2","1","3","1","","0","1","0","10012","","","","","pos","GS","GSnew","2","category2/GS3.png","-56","targets/20.png","direct","",""
"","image-slider-response","93","480825","0.0-8.0-0.3","o96sk283ux","many_one","0","direct_first","1","ch06en15","0","28","2","1","3","1","","0","1","0","4789","","","","","pos","CS","CS","3","category3/CS10.png","64","targets/3.png","direct","",""
"","image-slider-response","94","488720","0.0-8.0-0.4","o96sk283ux","many_one","0","direct_first","1","ch06en15","0","28","2","1","3","1","","0","1","0","7894","","","","","neg","GS","GSold","4","category4/CS9.png","-2","targets/41.png","direct","",""
"","image-slider-response","95","495465","0.0-8.0-0.5","o96sk283ux","many_one","0","direct_first","1","ch06en15","0","28","2","1","3","1","","0","1","0","6744","","","","","pos","GS","GSold","2","category2/CS4.png","-45","targets/39.png","direct","",""
"","image-slider-response","96","501924","0.0-8.0-0.6","o96sk283ux","many_one","0","direct_first","1","ch06en15","0","28","2","1","3","1","","0","1","0","6457","","","","","neg","GS","GSold","1","category1/CS1.png","-51","targets/2.png","direct","",""
"","image-slider-response","97","513691","0.0-8.0-0.7","o96sk283ux","many_one","0","direct_first","1","ch06en15","0","28","2","1","3","1","","0","1","0","11766","","","","","pos","CS","CS","2","category2/CS5.png","3","targets/31.png","direct","",""
"","image-slider-response","98","520791","0.0-8.0-0.8","o96sk283ux","many_one","0","direct_first","1","ch06en15","0","28","2","1","3","1","","0","1","0","7099","","","","","pos","GS","GSold","3","category3/CS8.png","-28","targets/38.png","direct","",""
"","image-slider-response","99","531855","0.0-8.0-0.9","o96sk283ux","many_one","0","direct_first","1","ch06en15","0","28","2","1","3","1","","0","1","0","11062","","","","","pos","CS","CS","2","category2/CS6.png","-28","targets/9.png","direct","",""
"","image-slider-response","100","536818","0.0-8.0-0.10","o96sk283ux","many_one","0","direct_first","1","ch06en15","0","28","2","1","3","1","","0","1","0","4963","","","","","neg","CS","CS","1","category1/CS2.png","-66","targets/25.png","direct","",""
"","image-slider-response","101","543806","0.0-8.0-0.11","o96sk283ux","many_one","0","direct_first","1","ch06en15","0","28","2","1","3","1","","0","1","0","6987","","","","","neg","GS","GSnew","4","category4/GS2.png","-40","targets/22.png","direct","",""
"","image-slider-response","102","548214","0.0-8.0-0.12","o96sk283ux","many_one","0","direct_first","1","ch06en15","0","28","2","1","3","1","","0","1","0","4406","","","","","neg","CS","CS","1","category1/CS10.png","-44","targets/46.png","direct","",""
"","image-slider-response","103","554945","0.0-8.0-0.13","o96sk283ux","many_one","0","direct_first","1","ch06en15","0","28","2","1","3","1","","0","1","0","6731","","","","","pos","GS","GSnew","3","category3/GS2.png","42","targets/29.png","direct","",""
"","image-slider-response","104","559729","0.0-8.0-0.14","o96sk283ux","many_one","0","direct_first","1","ch06en15","0","28","2","1","3","1","","0","1","0","4781","","","","","pos","GS","GSold","2","category2/CS10.png","36","targets/14.png","direct","",""
"","image-slider-response","105","567297","0.0-8.0-0.15","o96sk283ux","many_one","0","direct_first","1","ch06en15","0","28","2","1","3","1","","0","1","0","7567","","","","","neg","GS","GSnew","1","category1/GS3.png","-11","targets/34.png","direct","",""
"","image-slider-response","106","572073","0.0-8.0-0.16","o96sk283ux","many_one","0","direct_first","1","ch06en15","0","28","2","1","3","1","","0","1","0","4774","","","","","pos","GS","GSold","3","category3/CS1.png","15","targets/5.png","direct","",""
"","image-slider-response","107","576816","0.0-8.0-0.17","o96sk283ux","many_one","0","direct_first","1","ch06en15","0","28","2","1","3","1","","0","1","0","4742","","","","","pos","CS","CS","3","category3/CS7.png","26","targets/27.png","direct","",""
"","image-slider-response","108","579961","0.0-8.0-0.18","o96sk283ux","many_one","0","direct_first","1","ch06en15","0","28","2","1","3","1","","0","1","0","3144","","","","","pos","GS","GSnew","2","category2/GS1.png","-29","targets/13.png","direct","",""
"","image-slider-response","109","584787","0.0-8.0-0.19","o96sk283ux","many_one","0","direct_first","1","ch06en15","0","28","2","1","3","1","","0","1","0","4825","","","","","pos","CS","CS","2","category2/CS9.png","48","targets/16.png","direct","",""
"","image-slider-response","110","592440","0.0-8.0-0.20","o96sk283ux","many_one","0","direct_first","1","ch06en15","0","28","2","1","3","1","","0","1","0","7653","","","","","pos","GS","GSold","2","category2/CS7.png","9","targets/21.png","direct","",""
"","image-slider-response","111","598056","0.0-8.0-0.21","o96sk283ux","many_one","0","direct_first","1","ch06en15","0","28","2","1","3","1","","0","1","0","5613","","","","","pos","GS","GSold","3","category3/CS5.png","46","targets/8.png","direct","",""
"","image-slider-response","112","603573","0.0-8.0-0.22","o96sk283ux","many_one","0","direct_first","1","ch06en15","0","28","2","1","3","1","","0","1","0","5515","","","","","neg","GS","GSnew","1","category1/GS2.png","-43","targets/45.png","direct","",""
"","image-slider-response","113","609728","0.0-8.0-0.23","o96sk283ux","many_one","0","direct_first","1","ch06en15","0","28","2","1","3","1","","0","1","0","6153","","","","","pos","GS","abstract","3","category3/wang.png","3","targets/24.png","direct","",""
"","image-slider-response","114","615322","0.0-8.0-0.24","o96sk283ux","many_one","0","direct_first","1","ch06en15","0","28","2","1","3","1","","0","1","0","5593","","","","","neg","GS","GSold","1","category1/CS9.png","59","targets/6.png","direct","",""
"","image-slider-response","115","619981","0.0-8.0-0.25","o96sk283ux","many_one","0","direct_first","1","ch06en15","0","28","2","1","3","1","","0","1","0","4656","","","","","neg","GS","GSnew","1","category1/GS1.png","-63","targets/19.png","direct","",""
"","image-slider-response","116","625464","0.0-8.0-0.26","o96sk283ux","many_one","0","direct_first","1","ch06en15","0","28","2","1","3","1","","0","1","0","5481","","","","","neg","CS","CS","4","category4/CS6.png","60","targets/33.png","direct","",""
"","image-slider-response","117","636407","0.0-8.0-0.27","o96sk283ux","many_one","0","direct_first","1","ch06en15","0","28","2","1","3","1","","0","1","0","10943","","","","","pos","CS","CS","2","category2/CS1.png","-14","targets/30.png","direct","",""
"","image-slider-response","118","644186","0.0-8.0-0.28","o96sk283ux","many_one","0","direct_first","1","ch06en15","0","28","2","1","3","1","","0","1","0","7777","","","","","pos","GS","GSnew","3","category3/GS1.png","2","targets/10.png","direct","",""
"","image-slider-response","119","648907","0.0-8.0-0.29","o96sk283ux","many_one","0","direct_first","1","ch06en15","0","28","2","1","3","1","","0","1","0","4721","","","","","neg","GS","GSnew","4","category4/GS3.png","36","targets/26.png","direct","",""
"","image-slider-response","120","657835","0.0-8.0-0.30","o96sk283ux","many_one","0","direct_first","1","ch06en15","0","28","2","1","3","1","","0","1","0","8927","","","","","neg","GS","GSnew","4","category4/GS1.png","-9","targets/18.png","direct","",""
"","image-slider-response","121","662835","0.0-8.0-0.31","o96sk283ux","many_one","0","direct_first","1","ch06en15","0","28","2","1","3","1","","0","1","0","4998","","","","","neg","CS","CS","1","category1/CS4.png","-21","targets/23.png","direct","",""
"","image-slider-response","122","670749","0.0-8.0-0.32","o96sk283ux","many_one","0","direct_first","1","ch06en15","0","28","2","1","3","1","","0","1","0","7914","","","","","pos","CS","CS","3","category3/CS9.png","38","targets/32.png","direct","",""
"","image-slider-response","123","675828","0.0-8.0-0.33","o96sk283ux","many_one","0","direct_first","1","ch06en15","0","28","2","1","3","1","","0","1","0","5077","","","","","neg","GS","abstract","1","category1/ma.png","-9","targets/17.png","direct","",""
"","image-slider-response","124","680185","0.0-8.0-0.34","o96sk283ux","many_one","0","direct_first","1","ch06en15","0","28","2","1","3","1","","0","1","0","4355","","","","","pos","GS","GSnew","3","category3/GS3.png","32","targets/7.png","direct","",""
"","image-slider-response","125","684512","0.0-8.0-0.35","o96sk283ux","many_one","0","direct_first","1","ch06en15","0","28","2","1","3","1","","0","1","0","4324","","","","","neg","CS","CS","1","category1/CS6.png","44","targets/35.png","direct","",""
"","image-slider-response","126","689350","0.0-8.0-0.36","o96sk283ux","many_one","0","direct_first","1","ch06en15","0","28","2","1","3","1","","0","1","0","4836","","","","","neg","CS","CS","4","category4/CS7.png","45","targets/37.png","direct","",""
"","image-slider-response","127","693223","0.0-8.0-0.37","o96sk283ux","many_one","0","direct_first","1","ch06en15","0","28","2","1","3","1","","0","1","0","3871","","","","","pos","GS","abstract","2","category2/men.png","-4","targets/1.png","direct","",""
"","image-slider-response","128","702250","0.0-8.0-0.38","o96sk283ux","many_one","0","direct_first","1","ch06en15","0","28","2","1","3","1","","0","1","0","9025","","","","","neg","GS","abstract","4","category4/lin.png","30","targets/15.png","direct","",""
"","image-slider-response","129","708761","0.0-8.0-0.39","o96sk283ux","many_one","0","direct_first","1","ch06en15","0","28","2","1","3","1","","0","1","0","6511","","","","","neg","CS","CS","1","category1/CS7.png","-37","targets/44.png","direct","",""
"","image-slider-response","130","712480","0.0-8.0-0.40","o96sk283ux","many_one","0","direct_first","1","ch06en15","0","28","2","1","3","1","","0","1","0","3718","","","","","neg","CS","CS","4","category4/CS10.png","53","targets/28.png","direct","",""
"","image-slider-response","131","716752","0.0-8.0-0.41","o96sk283ux","many_one","0","direct_first","1","ch06en15","0","28","2","1","3","1","","0","1","0","4269","","","","","pos","CS","CS","3","category3/CS6.png","59","targets/36.png","direct","",""
"","image-slider-response","132","720835","0.0-8.0-0.42","o96sk283ux","many_one","0","direct_first","1","ch06en15","0","28","2","1","3","1","","0","1","0","4082","","","","","pos","CS","CS","3","category3/CS4.png","-44","targets/12.png","direct","",""
"","image-slider-response","133","727213","0.0-8.0-0.43","o96sk283ux","many_one","0","direct_first","1","ch06en15","0","28","2","1","3","1","","0","1","0","6377","","","","","neg","GS","GSold","1","category1/CS3.png","-47","targets/42.png","direct","",""
"","image-slider-response","134","731045","0.0-8.0-0.44","o96sk283ux","many_one","0","direct_first","1","ch06en15","0","28","2","1","3","1","","0","1","0","3830","","","","","pos","GS","GSnew","2","category2/GS2.png","-29","targets/43.png","direct","",""
"","image-slider-response","135","735662","0.0-8.0-0.45","o96sk283ux","many_one","0","direct_first","1","ch06en15","0","28","2","1","3","1","","0","1","0","4616","","","","","neg","CS","CS","4","category4/CS4.png","56","targets/48.png","direct","",""
"","image-slider-response","136","739174","0.0-8.0-0.46","o96sk283ux","many_one","0","direct_first","1","ch06en15","0","28","2","1","3","1","","0","1","0","3510","","","","","neg","CS","CS","4","category4/CS3.png","18","targets/4.png","direct","",""
"","image-slider-response","137","746305","0.0-8.0-0.47","o96sk283ux","many_one","0","direct_first","1","ch06en15","0","28","2","1","3","1","","0","1","0","7129","","","","","neg","GS","GSold","4","category4/CS8.png","-1","targets/40.png","direct","",""
"","html-keyboard-response","138","792236","0.0-9.0","o96sk283ux","many_one","0","direct_first","1","ch06en15","0","28","2","1","3","1","","0","1","0","45931","","","<p>Sie sehen nun die chinesischen Zeichen nur ganz kurz. Danach sehen Sie die jeweilige Aussprache der Zeichen als Silbe auf dem Bildschrim. Ihre Aufgabe ist es, für jede Silbe anzugeben, ob diese etwas angenehmes, oder unangenehmes bedeuten könnte. Verlassen Sie sich hier vor allem auf Ihre Intuition.<br><br>Die Zeichen werden nur zur Orientierung dargestellt, beachten Sie sie deshalb nicht. Konzentrieren Sie sich vor allem auf die Silben. <br>Reagieren Sie mit folgenden zwei Tasten: <br><br><b>'D' </b> wenn die Silbe etwas <b>unangenehmes</b> bedeuten könnte. <br><b>'K'</b> wenn die Silbe etwas <b>angenehmes</b> bedeuten könnte. <br><br>Bitte legen Sie nun den Zeigefinger der linken Hand auf die Taste 'D' und den Zeigefinger der rechten Hand auf die Taste 'K'. <br>Reagieren Sie auf jede Silbe so schnell wie möglich. Uns interessiert Ihre spontane Reaktion. <br> <br> <br>Drücken Sie 'D' oder 'K', um die nächste Aufgabe zu starten. </p>","75","","","","","","","","","",""
"","html-keyboard-response","139","795239","0.0-10.0-0.0","o96sk283ux","many_one","0","direct_first","1","ch06en15","0","28","2","1","3","1","","0","1","0","null","","","<div style=""font-size:60px;"">+</div>","null","","","","","","","","","",""
"","html-keyboard-response","140","795334","0.0-10.0-1.0","o96sk283ux","many_one","0","direct_first","1","ch06en15","0","28","2","1","3","1","","0","1","0","null","","","<img src = 'category3/CS6.png' width = '100%;'>","null","","","","","","","","","",""
"","html-keyboard-response","141","795590","0.0-10.0-2.0","o96sk283ux","many_one","0","direct_first","1","ch06en15","0","28","2","1","3","1","","0","1","0","null","","","<img src = 'targets/36.png' width = '100%;'>","null","","","","","","","","","",""
"","html-keyboard-response","142","803622","0.0-10.0-3.0","o96sk283ux","many_one","0","direct_first","1","ch06en15","0","28","2","1","3","1","","0","1","0","8031","","","<img src = 'targets/mask.png' width = '100%;'>","75","pos","CS","CS","3","category3/CS6.png","","targets/36.png","indirect","1","0"
"","html-keyboard-response","143","805127","0.0-10.0-0.1","o96sk283ux","many_one","0","direct_first","1","ch06en15","0","28","2","1","3","1","","0","1","0","null","","","<div style=""font-size:60px;"">+</div>","null","","","","","","","","","",""
"","html-keyboard-response","144","805220","0.0-10.0-1.1","o96sk283ux","many_one","0","direct_first","1","ch06en15","0","28","2","1","3","1","","0","1","0","null","","","<img src = 'category1/CS10.png' width = '100%;'>","null","","","","","","","","","",""
"","html-keyboard-response","145","805478","0.0-10.0-2.1","o96sk283ux","many_one","0","direct_first","1","ch06en15","0","28","2","1","3","1","","0","1","0","null","","","<img src = 'targets/46.png' width = '100%;'>","null","","","","","","","","","",""
"","html-keyboard-response","146","807445","0.0-10.0-3.1","o96sk283ux","many_one","0","direct_first","1","ch06en15","0","28","2","1","3","1","","0","1","0","1965","","","<img src = 'targets/mask.png' width = '100%;'>","75","neg","CS","CS","1","category1/CS10.png","","targets/46.png","indirect","1","1"
"","html-keyboard-response","147","808947","0.0-10.0-0.2","o96sk283ux","many_one","0","direct_first","1","ch06en15","0","28","2","1","3","1","","0","1","0","null","","","<div style=""font-size:60px;"">+</div>","null","","","","","","","","","",""
"","html-keyboard-response","148","809040","0.0-10.0-1.2","o96sk283ux","many_one","0","direct_first","1","ch06en15","0","28","2","1","3","1","","0","1","0","null","","","<img src = 'category4/CS6.png' width = '100%;'>","null","","","","","","","","","",""
"","html-keyboard-response","149","809295","0.0-10.0-2.2","o96sk283ux","many_one","0","direct_first","1","ch06en15","0","28","2","1","3","1","","0","1","0","null","","","<img src = 'targets/33.png' width = '100%;'>","null","","","","","","","","","",""
"","html-keyboard-response","150","813140","0.0-10.0-3.2","o96sk283ux","many_one","0","direct_first","1","ch06en15","0","28","2","1","3","1","","0","1","0","3844","","","<img src = 'targets/mask.png' width = '100%;'>","68","neg","CS","CS","4","category4/CS6.png","","targets/33.png","indirect","0","2"
"","html-keyboard-response","151","814645","0.0-10.0-0.3","o96sk283ux","many_one","0","direct_first","1","ch06en15","0","28","2","1","3","1","","0","1","0","null","","","<div style=""font-size:60px;"">+</div>","null","","","","","","","","","",""
"","html-keyboard-response","152","814737","0.0-10.0-1.3","o96sk283ux","many_one","0","direct_first","1","ch06en15","0","28","2","1","3","1","","0","1","0","null","","","<img src = 'category1/CS3.png' width = '100%;'>","null","","","","","","","","","",""
"","html-keyboard-response","153","814992","0.0-10.0-2.3","o96sk283ux","many_one","0","direct_first","1","ch06en15","0","28","2","1","3","1","","0","1","0","null","","","<img src = 'targets/42.png' width = '100%;'>","null","","","","","","","","","",""
"","html-keyboard-response","154","817078","0.0-10.0-3.3","o96sk283ux","many_one","0","direct_first","1","ch06en15","0","28","2","1","3","1","","0","1","0","2085","","","<img src = 'targets/mask.png' width = '100%;'>","68","neg","GS","GSold","1","category1/CS3.png","","targets/42.png","indirect","0","3"
"","html-keyboard-response","155","818586","0.0-10.0-0.4","o96sk283ux","many_one","0","direct_first","1","ch06en15","0","28","2","1","3","1","","0","1","0","null","","","<div style=""font-size:60px;"">+</div>","null","","","","","","","","","",""
"","html-keyboard-response","156","818679","0.0-10.0-1.4","o96sk283ux","many_one","0","direct_first","1","ch06en15","0","28","2","1","3","1","","0","1","0","null","","","<img src = 'category3/CS10.png' width = '100%;'>","null","","","","","","","","","",""
"","html-keyboard-response","157","818934","0.0-10.0-2.4","o96sk283ux","many_one","0","direct_first","1","ch06en15","0","28","2","1","3","1","","0","1","0","null","","","<img src = 'targets/3.png' width = '100%;'>","null","","","","","","","","","",""
"","html-keyboard-response","158","823895","0.0-10.0-3.4","o96sk283ux","many_one","0","direct_first","1","ch06en15","0","28","2","1","3","1","","0","1","0","4960","","","<img src = 'targets/mask.png' width = '100%;'>","68","pos","CS","CS","3","category3/CS10.png","","targets/3.png","indirect","0","4"
"","html-keyboard-response","159","825401","0.0-10.0-0.5","o96sk283ux","many_one","0","direct_first","1","ch06en15","0","28","2","1","3","1","","0","1","0","null","","","<div style=""font-size:60px;"">+</div>","null","","","","","","","","","",""
"","html-keyboard-response","160","825494","0.0-10.0-1.5","o96sk283ux","many_one","0","direct_first","1","ch06en15","0","28","2","1","3","1","","0","1","0","null","","","<img src = 'category3/CS7.png' width = '100%;'>","null","","","","","","","","","",""
"","html-keyboard-response","161","825749","0.0-10.0-2.5","o96sk283ux","many_one","0","direct_first","1","ch06en15","0","28","2","1","3","1","","0","1","0","null","","","<img src = 'targets/27.png' width = '100%;'>","null","","","","","","","","","",""
"","html-keyboard-response","162","827318","0.0-10.0-3.5","o96sk283ux","many_one","0","direct_first","1","ch06en15","0","28","2","1","3","1","","0","1","0","1568","","","<img src = 'targets/mask.png' width = '100%;'>","75","pos","CS","CS","3","category3/CS7.png","","targets/27.png","indirect","1","5"
"","html-keyboard-response","163","828825","0.0-10.0-0.6","o96sk283ux","many_one","0","direct_first","1","ch06en15","0","28","2","1","3","1","","0","1","0","null","","","<div style=""font-size:60px;"">+</div>","null","","","","","","","","","",""
"","html-keyboard-response","164","828919","0.0-10.0-1.6","o96sk283ux","many_one","0","direct_first","1","ch06en15","0","28","2","1","3","1","","0","1","0","null","","","<img src = 'category3/CS4.png' width = '100%;'>","null","","","","","","","","","",""
"","html-keyboard-response","165","829174","0.0-10.0-2.6","o96sk283ux","many_one","0","direct_first","1","ch06en15","0","28","2","1","3","1","","0","1","0","null","","","<img src = 'targets/12.png' width = '100%;'>","null","","","","","","","","","",""
"","html-keyboard-response","166","830550","0.0-10.0-3.6","o96sk283ux","many_one","0","direct_first","1","ch06en15","0","28","2","1","3","1","","0","1","0","1376","","","<img src = 'targets/mask.png' width = '100%;'>","75","pos","CS","CS","3","category3/CS4.png","","targets/12.png","indirect","1","6"
"","html-keyboard-response","167","832056","0.0-10.0-0.7","o96sk283ux","many_one","0","direct_first","1","ch06en15","0","28","2","1","3","1","","0","1","0","null","","","<div style=""font-size:60px;"">+</div>","null","","","","","","","","","",""
"","html-keyboard-response","168","832152","0.0-10.0-1.7","o96sk283ux","many_one","0","direct_first","1","ch06en15","0","28","2","1","3","1","","0","1","0","null","","","<img src = 'category1/CS4.png' width = '100%;'>","null","","","","","","","","","",""
"","html-keyboard-response","169","832410","0.0-10.0-2.7","o96sk283ux","many_one","0","direct_first","1","ch06en15","0","28","2","1","3","1","","0","1","0","null","","","<img src = 'targets/23.png' width = '100%;'>","null","","","","","","","","","",""
"","html-keyboard-response","170","834933","0.0-10.0-3.7","o96sk283ux","many_one","0","direct_first","1","ch06en15","0","28","2","1","3","1","","0","1","0","2521","","","<img src = 'targets/mask.png' width = '100%;'>","68","neg","CS","CS","1","category1/CS4.png","","targets/23.png","indirect","0","7"
"","html-keyboard-response","171","836442","0.0-10.0-0.8","o96sk283ux","many_one","0","direct_first","1","ch06en15","0","28","2","1","3","1","","0","1","0","null","","","<div style=""font-size:60px;"">+</div>","null","","","","","","","","","",""
"","html-keyboard-response","172","836534","0.0-10.0-1.8","o96sk283ux","many_one","0","direct_first","1","ch06en15","0","28","2","1","3","1","","0","1","0","null","","","<img src = 'category1/CS1.png' width = '100%;'>","null","","","","","","","","","",""
"","html-keyboard-response","173","836790","0.0-10.0-2.8","o96sk283ux","many_one","0","direct_first","1","ch06en15","0","28","2","1","3","1","","0","1","0","null","","","<img src = 'targets/2.png' width = '100%;'>","null","","","","","","","","","",""
"","html-keyboard-response","174","837941","0.0-10.0-3.8","o96sk283ux","many_one","0","direct_first","1","ch06en15","0","28","2","1","3","1","","0","1","0","1150","","","<img src = 'targets/mask.png' width = '100%;'>","68","neg","GS","GSold","1","category1/CS1.png","","targets/2.png","indirect","0","8"
"","html-keyboard-response","175","839448","0.0-10.0-0.9","o96sk283ux","many_one","0","direct_first","1","ch06en15","0","28","2","1","3","1","","0","1","0","null","","","<div style=""font-size:60px;"">+</div>","null","","","","","","","","","",""
"","html-keyboard-response","176","839541","0.0-10.0-1.9","o96sk283ux","many_one","0","direct_first","1","ch06en15","0","28","2","1","3","1","","0","1","0","null","","","<img src = 'category2/CS7.png' width = '100%;'>","null","","","","","","","","","",""
"","html-keyboard-response","177","839797","0.0-10.0-2.9","o96sk283ux","many_one","0","direct_first","1","ch06en15","0","28","2","1","3","1","","0","1","0","null","","","<img src = 'targets/21.png' width = '100%;'>","null","","","","","","","","","",""
"","html-keyboard-response","178","841094","0.0-10.0-3.9","o96sk283ux","many_one","0","direct_first","1","ch06en15","0","28","2","1","3","1","","0","1","0","1295","","","<img src = 'targets/mask.png' width = '100%;'>","68","pos","GS","GSold","2","category2/CS7.png","","targets/21.png","indirect","0","9"
"","html-keyboard-response","179","842601","0.0-10.0-0.10","o96sk283ux","many_one","0","direct_first","1","ch06en15","0","28","2","1","3","1","","0","1","0","null","","","<div style=""font-size:60px;"">+</div>","null","","","","","","","","","",""
"","html-keyboard-response","180","842693","0.0-10.0-1.10","o96sk283ux","many_one","0","direct_first","1","ch06en15","0","28","2","1","3","1","","0","1","0","null","","","<img src = 'category2/CS1.png' width = '100%;'>","null","","","","","","","","","",""
"","html-keyboard-response","181","842951","0.0-10.0-2.10","o96sk283ux","many_one","0","direct_first","1","ch06en15","0","28","2","1","3","1","","0","1","0","null","","","<img src = 'targets/30.png' width = '100%;'>","null","","","","","","","","","",""
"","html-keyboard-response","182","843565","0.0-10.0-3.10","o96sk283ux","many_one","0","direct_first","1","ch06en15","0","28","2","1","3","1","","0","1","0","613","","","<img src = 'targets/mask.png' width = '100%;'>","75","pos","CS","CS","2","category2/CS1.png","","targets/30.png","indirect","1","10"
"","html-keyboard-response","183","845074","0.0-10.0-0.11","o96sk283ux","many_one","0","direct_first","1","ch06en15","0","28","2","1","3","1","","0","1","0","null","","","<div style=""font-size:60px;"">+</div>","null","","","","","","","","","",""
"","html-keyboard-response","184","845167","0.0-10.0-1.11","o96sk283ux","many_one","0","direct_first","1","ch06en15","0","28","2","1","3","1","","0","1","0","null","","","<img src = 'category1/CS2.png' width = '100%;'>","null","","","","","","","","","",""
"","html-keyboard-response","185","845424","0.0-10.0-2.11","o96sk283ux","many_one","0","direct_first","1","ch06en15","0","28","2","1","3","1","","0","1","0","null","","","<img src = 'targets/25.png' width = '100%;'>","null","","","","","","","","","",""
"","html-keyboard-response","186","846037","0.0-10.0-3.11","o96sk283ux","many_one","0","direct_first","1","ch06en15","0","28","2","1","3","1","","0","1","0","613","","","<img src = 'targets/mask.png' width = '100%;'>","75","neg","CS","CS","1","category1/CS2.png","","targets/25.png","indirect","1","11"
"","html-keyboard-response","187","847544","0.0-10.0-0.12","o96sk283ux","many_one","0","direct_first","1","ch06en15","0","28","2","1","3","1","","0","1","0","null","","","<div style=""font-size:60px;"">+</div>","null","","","","","","","","","",""
"","html-keyboard-response","188","847636","0.0-10.0-1.12","o96sk283ux","many_one","0","direct_first","1","ch06en15","0","28","2","1","3","1","","0","1","0","null","","","<img src = 'category4/CS10.png' width = '100%;'>","null","","","","","","","","","",""
"","html-keyboard-response","189","847892","0.0-10.0-2.12","o96sk283ux","many_one","0","direct_first","1","ch06en15","0","28","2","1","3","1","","0","1","0","null","","","<img src = 'targets/28.png' width = '100%;'>","null","","","","","","","","","",""
"","html-keyboard-response","190","849093","0.0-10.0-3.12","o96sk283ux","many_one","0","direct_first","1","ch06en15","0","28","2","1","3","1","","0","1","0","1200","","","<img src = 'targets/mask.png' width = '100%;'>","75","neg","CS","CS","4","category4/CS10.png","","targets/28.png","indirect","1","12"
"","html-keyboard-response","191","850599","0.0-10.0-0.13","o96sk283ux","many_one","0","direct_first","1","ch06en15","0","28","2","1","3","1","","0","1","0","null","","","<div style=""font-size:60px;"">+</div>","null","","","","","","","","","",""
"","html-keyboard-response","192","850692","0.0-10.0-1.13","o96sk283ux","many_one","0","direct_first","1","ch06en15","0","28","2","1","3","1","","0","1","0","null","","","<img src = 'category2/CS3.png' width = '100%;'>","null","","","","","","","","","",""
"","html-keyboard-response","193","850948","0.0-10.0-2.13","o96sk283ux","many_one","0","direct_first","1","ch06en15","0","28","2","1","3","1","","0","1","0","null","","","<img src = 'targets/47.png' width = '100%;'>","null","","","","","","","","","",""
"","html-keyboard-response","194","852245","0.0-10.0-3.13","o96sk283ux","many_one","0","direct_first","1","ch06en15","0","28","2","1","3","1","","0","1","0","1296","","","<img src = 'targets/mask.png' width = '100%;'>","68","pos","CS","CS","2","category2/CS3.png","","targets/47.png","indirect","0","13"
"","html-keyboard-response","195","853749","0.0-10.0-0.14","o96sk283ux","many_one","0","direct_first","1","ch06en15","0","28","2","1","3","1","","0","1","0","null","","","<div style=""font-size:60px;"">+</div>","null","","","","","","","","","",""
"","html-keyboard-response","196","853842","0.0-10.0-1.14","o96sk283ux","many_one","0","direct_first","1","ch06en15","0","28","2","1","3","1","","0","1","0","null","","","<img src = 'category2/CS9.png' width = '100%;'>","null","","","","","","","","","",""
"","html-keyboard-response","197","854100","0.0-10.0-2.14","o96sk283ux","many_one","0","direct_first","1","ch06en15","0","28","2","1","3","1","","0","1","0","null","","","<img src = 'targets/16.png' width = '100%;'>","null","","","","","","","","","",""
"","html-keyboard-response","198","857455","0.0-10.0-3.14","o96sk283ux","many_one","0","direct_first","1","ch06en15","0","28","2","1","3","1","","0","1","0","3355","","","<img src = 'targets/mask.png' width = '100%;'>","68","pos","CS","CS","2","category2/CS9.png","","targets/16.png","indirect","0","14"
"","html-keyboard-response","199","858958","0.0-10.0-0.15","o96sk283ux","many_one","0","direct_first","1","ch06en15","0","28","2","1","3","1","","0","1","0","null","","","<div style=""font-size:60px;"">+</div>","null","","","","","","","","","",""
"","html-keyboard-response","200","859051","0.0-10.0-1.15","o96sk283ux","many_one","0","direct_first","1","ch06en15","0","28","2","1","3","1","","0","1","0","null","","","<img src = 'category2/CS6.png' width = '100%;'>","null","","","","","","","","","",""
"","html-keyboard-response","201","859310","0.0-10.0-2.15","o96sk283ux","many_one","0","direct_first","1","ch06en15","0","28","2","1","3","1","","0","1","0","null","","","<img src = 'targets/9.png' width = '100%;'>","null","","","","","","","","","",""
"","html-keyboard-response","202","860583","0.0-10.0-3.15","o96sk283ux","many_one","0","direct_first","1","ch06en15","0","28","2","1","3","1","","0","1","0","1273","","","<img src = 'targets/mask.png' width = '100%;'>","75","pos","CS","CS","2","category2/CS6.png","","targets/9.png","indirect","1","15"
"","html-keyboard-response","203","862087","0.0-10.0-0.16","o96sk283ux","many_one","0","direct_first","1","ch06en15","0","28","2","1","3","1","","0","1","0","null","","","<div style=""font-size:60px;"">+</div>","null","","","","","","","","","",""
"","html-keyboard-response","204","862183","0.0-10.0-1.16","o96sk283ux","many_one","0","direct_first","1","ch06en15","0","28","2","1","3","1","","0","1","0","null","","","<img src = 'category4/CS4.png' width = '100%;'>","null","","","","","","","","","",""
"","html-keyboard-response","205","862439","0.0-10.0-2.16","o96sk283ux","many_one","0","direct_first","1","ch06en15","0","28","2","1","3","1","","0","1","0","null","","","<img src = 'targets/48.png' width = '100%;'>","null","","","","","","","","","",""
"","html-keyboard-response","206","864192","0.0-10.0-3.16","o96sk283ux","many_one","0","direct_first","1","ch06en15","0","28","2","1","3","1","","0","1","0","1752","","","<img src = 'targets/mask.png' width = '100%;'>","68","neg","CS","CS","4","category4/CS4.png","","targets/48.png","indirect","0","16"
"","html-keyboard-response","207","865695","0.0-10.0-0.17","o96sk283ux","many_one","0","direct_first","1","ch06en15","0","28","2","1","3","1","","0","1","0","null","","","<div style=""font-size:60px;"">+</div>","null","","","","","","","","","",""
"","html-keyboard-response","208","865791","0.0-10.0-1.17","o96sk283ux","many_one","0","direct_first","1","ch06en15","0","28","2","1","3","1","","0","1","0","null","","","<img src = 'category4/CS7.png' width = '100%;'>","null","","","","","","","","","",""
"","html-keyboard-response","209","866047","0.0-10.0-2.17","o96sk283ux","many_one","0","direct_first","1","ch06en15","0","28","2","1","3","1","","0","1","0","null","","","<img src = 'targets/37.png' width = '100%;'>","null","","","","","","","","","",""
"","html-keyboard-response","210","867856","0.0-10.0-3.17","o96sk283ux","many_one","0","direct_first","1","ch06en15","0","28","2","1","3","1","","0","1","0","1809","","","<img src = 'targets/mask.png' width = '100%;'>","68","neg","CS","CS","4","category4/CS7.png","","targets/37.png","indirect","0","17"
"","html-keyboard-response","211","869358","0.0-10.0-0.18","o96sk283ux","many_one","0","direct_first","1","ch06en15","0","28","2","1","3","1","","0","1","0","null","","","<div style=""font-size:60px;"">+</div>","null","","","","","","","","","",""
"","html-keyboard-response","212","869454","0.0-10.0-1.18","o96sk283ux","many_one","0","direct_first","1","ch06en15","0","28","2","1","3","1","","0","1","0","null","","","<img src = 'category1/CS6.png' width = '100%;'>","null","","","","","","","","","",""
"","html-keyboard-response","213","869709","0.0-10.0-2.18","o96sk283ux","many_one","0","direct_first","1","ch06en15","0","28","2","1","3","1","","0","1","0","null","","","<img src = 'targets/35.png' width = '100%;'>","null","","","","","","","","","",""
"","html-keyboard-response","214","871759","0.0-10.0-3.18","o96sk283ux","many_one","0","direct_first","1","ch06en15","0","28","2","1","3","1","","0","1","0","2049","","","<img src = 'targets/mask.png' width = '100%;'>","75","neg","CS","CS","1","category1/CS6.png","","targets/35.png","indirect","1","18"
"","html-keyboard-response","215","873262","0.0-10.0-0.19","o96sk283ux","many_one","0","direct_first","1","ch06en15","0","28","2","1","3","1","","0","1","0","null","","","<div style=""font-size:60px;"">+</div>","null","","","","","","","","","",""
"","html-keyboard-response","216","873358","0.0-10.0-1.19","o96sk283ux","many_one","0","direct_first","1","ch06en15","0","28","2","1","3","1","","0","1","0","null","","","<img src = 'category1/CS9.png' width = '100%;'>","null","","","","","","","","","",""
"","html-keyboard-response","217","873612","0.0-10.0-2.19","o96sk283ux","many_one","0","direct_first","1","ch06en15","0","28","2","1","3","1","","0","1","0","null","","","<img src = 'targets/6.png' width = '100%;'>","null","","","","","","","","","",""
"","html-keyboard-response","218","875417","0.0-10.0-3.19","o96sk283ux","many_one","0","direct_first","1","ch06en15","0","28","2","1","3","1","","0","1","0","1804","","","<img src = 'targets/mask.png' width = '100%;'>","75","neg","GS","GSold","1","category1/CS9.png","","targets/6.png","indirect","1","19"
"","html-keyboard-response","219","876919","0.0-10.0-0.20","o96sk283ux","many_one","0","direct_first","1","ch06en15","0","28","2","1","3","1","","0","1","0","null","","","<div style=""font-size:60px;"">+</div>","null","","","","","","","","","",""
"","html-keyboard-response","220","877012","0.0-10.0-1.20","o96sk283ux","many_one","0","direct_first","1","ch06en15","0","28","2","1","3","1","","0","1","0","null","","","<img src = 'category1/CS7.png' width = '100%;'>","null","","","","","","","","","",""
"","html-keyboard-response","221","877267","0.0-10.0-2.20","o96sk283ux","many_one","0","direct_first","1","ch06en15","0","28","2","1","3","1","","0","1","0","null","","","<img src = 'targets/44.png' width = '100%;'>","null","","","","","","","","","",""
"","html-keyboard-response","222","878929","0.0-10.0-3.20","o96sk283ux","many_one","0","direct_first","1","ch06en15","0","28","2","1","3","1","","0","1","0","1662","","","<img src = 'targets/mask.png' width = '100%;'>","75","neg","CS","CS","1","category1/CS7.png","","targets/44.png","indirect","1","20"
"","html-keyboard-response","223","880430","0.0-10.0-0.21","o96sk283ux","many_one","0","direct_first","1","ch06en15","0","28","2","1","3","1","","0","1","0","null","","","<div style=""font-size:60px;"">+</div>","null","","","","","","","","","",""
"","html-keyboard-response","224","880524","0.0-10.0-1.21","o96sk283ux","many_one","0","direct_first","1","ch06en15","0","28","2","1","3","1","","0","1","0","null","","","<img src = 'category2/CS5.png' width = '100%;'>","null","","","","","","","","","",""
"","html-keyboard-response","225","880779","0.0-10.0-2.21","o96sk283ux","many_one","0","direct_first","1","ch06en15","0","28","2","1","3","1","","0","1","0","null","","","<img src = 'targets/31.png' width = '100%;'>","null","","","","","","","","","",""
"","html-keyboard-response","226","882289","0.0-10.0-3.21","o96sk283ux","many_one","0","direct_first","1","ch06en15","0","28","2","1","3","1","","0","1","0","1508","","","<img src = 'targets/mask.png' width = '100%;'>","68","pos","CS","CS","2","category2/CS5.png","","targets/31.png","indirect","0","21"
"","html-keyboard-response","227","883794","0.0-10.0-0.22","o96sk283ux","many_one","0","direct_first","1","ch06en15","0","28","2","1","3","1","","0","1","0","null","","","<div style=""font-size:60px;"">+</div>","null","","","","","","","","","",""
"","html-keyboard-response","228","883887","0.0-10.0-1.22","o96sk283ux","many_one","0","direct_first","1","ch06en15","0","28","2","1","3","1","","0","1","0","null","","","<img src = 'category4/CS3.png' width = '100%;'>","null","","","","","","","","","",""
"","html-keyboard-response","229","884145","0.0-10.0-2.22","o96sk283ux","many_one","0","direct_first","1","ch06en15","0","28","2","1","3","1","","0","1","0","null","","","<img src = 'targets/4.png' width = '100%;'>","null","","","","","","","","","",""
"","html-keyboard-response","230","885889","0.0-10.0-3.22","o96sk283ux","many_one","0","direct_first","1","ch06en15","0","28","2","1","3","1","","0","1","0","1742","","","<img src = 'targets/mask.png' width = '100%;'>","68","neg","CS","CS","4","category4/CS3.png","","targets/4.png","indirect","0","22"
"","html-keyboard-response","231","887397","0.0-10.0-0.23","o96sk283ux","many_one","0","direct_first","1","ch06en15","0","28","2","1","3","1","","0","1","0","null","","","<div style=""font-size:60px;"">+</div>","null","","","","","","","","","",""
"","html-keyboard-response","232","887490","0.0-10.0-1.23","o96sk283ux","many_one","0","direct_first","1","ch06en15","0","28","2","1","3","1","","0","1","0","null","","","<img src = 'category3/CS9.png' width = '100%;'>","null","","","","","","","","","",""
"","html-keyboard-response","233","887746","0.0-10.0-2.23","o96sk283ux","many_one","0","direct_first","1","ch06en15","0","28","2","1","3","1","","0","1","0","null","","","<img src = 'targets/32.png' width = '100%;'>","null","","","","","","","","","",""
"","html-keyboard-response","234","889965","0.0-10.0-3.23","o96sk283ux","many_one","0","direct_first","1","ch06en15","0","28","2","1","3","1","","0","1","0","2218","","","<img src = 'targets/mask.png' width = '100%;'>","68","pos","CS","CS","3","category3/CS9.png","","targets/32.png","indirect","0","23"
"","survey-html-form","235","895985","0.0-11.0","o96sk283ux","many_one","0","direct_first","1","ch06en15","0","28","2","1","3","1","","0","1","0","5515","","{}","","","","","","","","","","","",""
"","html-keyboard-response","236","898992","0.0-12.0-0.0","o96sk283ux","many_one","0","direct_first","1","ch06en15","0","28","2","1","3","1","","0","1","0","null","","","<div style=""font-size:60px;"">+</div>","null","","","","","","","","","",""
"","html-keyboard-response","237","899085","0.0-12.0-1.0","o96sk283ux","many_one","0","direct_first","1","ch06en15","0","28","2","1","3","1","","0","1","0","null","","","<img src = 'category4/CS9.png' width = '100%;'>","null","","","","","","","","","",""
"","html-keyboard-response","238","899340","0.0-12.0-2.0","o96sk283ux","many_one","0","direct_first","1","ch06en15","0","28","2","1","3","1","","0","1","0","null","","","<img src = 'targets/41.png' width = '100%;'>","null","","","","","","","","","",""
"","html-keyboard-response","239","900651","0.0-12.0-3.0","o96sk283ux","many_one","0","direct_first","1","ch06en15","0","28","2","1","3","1","","0","1","0","1308","","","<img src = 'targets/mask.png' width = '100%;'>","75","neg","GS","GSold","4","category4/CS9.png","","targets/41.png","indirect","1","24"
"","html-keyboard-response","240","902156","0.0-12.0-0.1","o96sk283ux","many_one","0","direct_first","1","ch06en15","0","28","2","1","3","1","","0","1","0","null","","","<div style=""font-size:60px;"">+</div>","null","","","","","","","","","",""
"","html-keyboard-response","241","902251","0.0-12.0-1.1","o96sk283ux","many_one","0","direct_first","1","ch06en15","0","28","2","1","3","1","","0","1","0","null","","","<img src = 'category4/GS3.png' width = '100%;'>","null","","","","","","","","","",""
"","html-keyboard-response","242","902507","0.0-12.0-2.1","o96sk283ux","many_one","0","direct_first","1","ch06en15","0","28","2","1","3","1","","0","1","0","null","","","<img src = 'targets/26.png' width = '100%;'>","null","","","","","","","","","",""
"","html-keyboard-response","243","903706","0.0-12.0-3.1","o96sk283ux","many_one","0","direct_first","1","ch06en15","0","28","2","1","3","1","","0","1","0","1199","","","<img src = 'targets/mask.png' width = '100%;'>","75","neg","GS","GSnew","4","category4/GS3.png","","targets/26.png","indirect","1","25"
"","html-keyboard-response","244","905214","0.0-12.0-0.2","o96sk283ux","many_one","0","direct_first","1","ch06en15","0","28","2","1","3","1","","0","1","0","null","","","<div style=""font-size:60px;"">+</div>","null","","","","","","","","","",""
"","html-keyboard-response","245","905308","0.0-12.0-1.2","o96sk283ux","many_one","0","direct_first","1","ch06en15","0","28","2","1","3","1","","0","1","0","null","","","<img src = 'category2/CS10.png' width = '100%;'>","null","","","","","","","","","",""
"","html-keyboard-response","246","905566","0.0-12.0-2.2","o96sk283ux","many_one","0","direct_first","1","ch06en15","0","28","2","1","3","1","","0","1","0","null","","","<img src = 'targets/14.png' width = '100%;'>","null","","","","","","","","","",""
"","html-keyboard-response","247","907386","0.0-12.0-3.2","o96sk283ux","many_one","0","direct_first","1","ch06en15","0","28","2","1","3","1","","0","1","0","1820","","","<img src = 'targets/mask.png' width = '100%;'>","75","pos","GS","GSold","2","category2/CS10.png","","targets/14.png","indirect","1","26"
"","html-keyboard-response","248","908892","0.0-12.0-0.3","o96sk283ux","many_one","0","direct_first","1","ch06en15","0","28","2","1","3","1","","0","1","0","null","","","<div style=""font-size:60px;"">+</div>","null","","","","","","","","","",""
"","html-keyboard-response","249","908985","0.0-12.0-1.3","o96sk283ux","many_one","0","direct_first","1","ch06en15","0","28","2","1","3","1","","0","1","0","null","","","<img src = 'category3/CS5.png' width = '100%;'>","null","","","","","","","","","",""
"","html-keyboard-response","250","909243","0.0-12.0-2.3","o96sk283ux","many_one","0","direct_first","1","ch06en15","0","28","2","1","3","1","","0","1","0","null","","","<img src = 'targets/8.png' width = '100%;'>","null","","","","","","","","","",""
"","html-keyboard-response","251","910522","0.0-12.0-3.3","o96sk283ux","many_one","0","direct_first","1","ch06en15","0","28","2","1","3","1","","0","1","0","1278","","","<img src = 'targets/mask.png' width = '100%;'>","68","pos","GS","GSold","3","category3/CS5.png","","targets/8.png","indirect","0","27"
"","html-keyboard-response","252","912029","0.0-12.0-0.4","o96sk283ux","many_one","0","direct_first","1","ch06en15","0","28","2","1","3","1","","0","1","0","null","","","<div style=""font-size:60px;"">+</div>","null","","","","","","","","","",""
"","html-keyboard-response","253","912122","0.0-12.0-1.4","o96sk283ux","many_one","0","direct_first","1","ch06en15","0","28","2","1","3","1","","0","1","0","null","","","<img src = 'category1/GS2.png' width = '100%;'>","null","","","","","","","","","",""
"","html-keyboard-response","254","912378","0.0-12.0-2.4","o96sk283ux","many_one","0","direct_first","1","ch06en15","0","28","2","1","3","1","","0","1","0","null","","","<img src = 'targets/45.png' width = '100%;'>","null","","","","","","","","","",""
"","html-keyboard-response","255","913410","0.0-12.0-3.4","o96sk283ux","many_one","0","direct_first","1","ch06en15","0","28","2","1","3","1","","0","1","0","1032","","","<img src = 'targets/mask.png' width = '100%;'>","68","neg","GS","GSnew","1","category1/GS2.png","","targets/45.png","indirect","0","28"
"","html-keyboard-response","256","914918","0.0-12.0-0.5","o96sk283ux","many_one","0","direct_first","1","ch06en15","0","28","2","1","3","1","","0","1","0","null","","","<div style=""font-size:60px;"">+</div>","null","","","","","","","","","",""
"","html-keyboard-response","257","915013","0.0-12.0-1.5","o96sk283ux","many_one","0","direct_first","1","ch06en15","0","28","2","1","3","1","","0","1","0","null","","","<img src = 'category2/GS1.png' width = '100%;'>","null","","","","","","","","","",""
"","html-keyboard-response","258","915269","0.0-12.0-2.5","o96sk283ux","many_one","0","direct_first","1","ch06en15","0","28","2","1","3","1","","0","1","0","null","","","<img src = 'targets/13.png' width = '100%;'>","null","","","","","","","","","",""
"","html-keyboard-response","259","916347","0.0-12.0-3.5","o96sk283ux","many_one","0","direct_first","1","ch06en15","0","28","2","1","3","1","","0","1","0","1077","","","<img src = 'targets/mask.png' width = '100%;'>","75","pos","GS","GSnew","2","category2/GS1.png","","targets/13.png","indirect","1","29"
"","html-keyboard-response","260","917852","0.0-12.0-0.6","o96sk283ux","many_one","0","direct_first","1","ch06en15","0","28","2","1","3","1","","0","1","0","null","","","<div style=""font-size:60px;"">+</div>","null","","","","","","","","","",""
"","html-keyboard-response","261","917945","0.0-12.0-1.6","o96sk283ux","many_one","0","direct_first","1","ch06en15","0","28","2","1","3","1","","0","1","0","null","","","<img src = 'category3/wang.png' width = '100%;'>","null","","","","","","","","","",""
"","html-keyboard-response","262","918203","0.0-12.0-2.6","o96sk283ux","many_one","0","direct_first","1","ch06en15","0","28","2","1","3","1","","0","1","0","null","","","<img src = 'targets/24.png' width = '100%;'>","null","","","","","","","","","",""
"","html-keyboard-response","263","919186","0.0-12.0-3.6","o96sk283ux","many_one","0","direct_first","1","ch06en15","0","28","2","1","3","1","","0","1","0","983","","","<img src = 'targets/mask.png' width = '100%;'>","68","pos","GS","abstract","3","category3/wang.png","","targets/24.png","indirect","0","30"
"","html-keyboard-response","264","920690","0.0-12.0-0.7","o96sk283ux","many_one","0","direct_first","1","ch06en15","0","28","2","1","3","1","","0","1","0","null","","","<div style=""font-size:60px;"">+</div>","null","","","","","","","","","",""
"","html-keyboard-response","265","920784","0.0-12.0-1.7","o96sk283ux","many_one","0","direct_first","1","ch06en15","0","28","2","1","3","1","","0","1","0","null","","","<img src = 'category3/GS3.png' width = '100%;'>","null","","","","","","","","","",""
"","html-keyboard-response","266","921042","0.0-12.0-2.7","o96sk283ux","many_one","0","direct_first","1","ch06en15","0","28","2","1","3","1","","0","1","0","null","","","<img src = 'targets/7.png' width = '100%;'>","null","","","","","","","","","",""
"","html-keyboard-response","267","922362","0.0-12.0-3.7","o96sk283ux","many_one","0","direct_first","1","ch06en15","0","28","2","1","3","1","","0","1","0","1320","","","<img src = 'targets/mask.png' width = '100%;'>","68","pos","GS","GSnew","3","category3/GS3.png","","targets/7.png","indirect","0","31"
"","html-keyboard-response","268","923871","0.0-12.0-0.8","o96sk283ux","many_one","0","direct_first","1","ch06en15","0","28","2","1","3","1","","0","1","0","null","","","<div style=""font-size:60px;"">+</div>","null","","","","","","","","","",""
"","html-keyboard-response","269","923965","0.0-12.0-1.8","o96sk283ux","many_one","0","direct_first","1","ch06en15","0","28","2","1","3","1","","0","1","0","null","","","<img src = 'category4/GS1.png' width = '100%;'>","null","","","","","","","","","",""
"","html-keyboard-response","270","924220","0.0-12.0-2.8","o96sk283ux","many_one","0","direct_first","1","ch06en15","0","28","2","1","3","1","","0","1","0","null","","","<img src = 'targets/18.png' width = '100%;'>","null","","","","","","","","","",""
"","html-keyboard-response","271","925130","0.0-12.0-3.8","o96sk283ux","many_one","0","direct_first","1","ch06en15","0","28","2","1","3","1","","0","1","0","910","","","<img src = 'targets/mask.png' width = '100%;'>","68","neg","GS","GSnew","4","category4/GS1.png","","targets/18.png","indirect","0","32"
"","html-keyboard-response","272","926637","0.0-12.0-0.9","o96sk283ux","many_one","0","direct_first","1","ch06en15","0","28","2","1","3","1","","0","1","0","null","","","<div style=""font-size:60px;"">+</div>","null","","","","","","","","","",""
"","html-keyboard-response","273","926730","0.0-12.0-1.9","o96sk283ux","many_one","0","direct_first","1","ch06en15","0","28","2","1","3","1","","0","1","0","null","","","<img src = 'category2/GS2.png' width = '100%;'>","null","","","","","","","","","",""
"","html-keyboard-response","274","926989","0.0-12.0-2.9","o96sk283ux","many_one","0","direct_first","1","ch06en15","0","28","2","1","3","1","","0","1","0","null","","","<img src = 'targets/43.png' width = '100%;'>","null","","","","","","","","","",""
"","html-keyboard-response","275","927690","0.0-12.0-3.9","o96sk283ux","many_one","0","direct_first","1","ch06en15","0","28","2","1","3","1","","0","1","0","700","","","<img src = 'targets/mask.png' width = '100%;'>","75","pos","GS","GSnew","2","category2/GS2.png","","targets/43.png","indirect","1","33"
"","html-keyboard-response","276","929194","0.0-12.0-0.10","o96sk283ux","many_one","0","direct_first","1","ch06en15","0","28","2","1","3","1","","0","1","0","null","","","<div style=""font-size:60px;"">+</div>","null","","","","","","","","","",""
"","html-keyboard-response","277","929287","0.0-12.0-1.10","o96sk283ux","many_one","0","direct_first","1","ch06en15","0","28","2","1","3","1","","0","1","0","null","","","<img src = 'category1/ma.png' width = '100%;'>","null","","","","","","","","","",""
"","html-keyboard-response","278","929543","0.0-12.0-2.10","o96sk283ux","many_one","0","direct_first","1","ch06en15","0","28","2","1","3","1","","0","1","0","null","","","<img src = 'targets/17.png' width = '100%;'>","null","","","","","","","","","",""
"","html-keyboard-response","279","930170","0.0-12.0-3.10","o96sk283ux","many_one","0","direct_first","1","ch06en15","0","28","2","1","3","1","","0","1","0","627","","","<img src = 'targets/mask.png' width = '100%;'>","75","neg","GS","abstract","1","category1/ma.png","","targets/17.png","indirect","1","34"
"","html-keyboard-response","280","931679","0.0-12.0-0.11","o96sk283ux","many_one","0","direct_first","1","ch06en15","0","28","2","1","3","1","","0","1","0","null","","","<div style=""font-size:60px;"">+</div>","null","","","","","","","","","",""
"","html-keyboard-response","281","931772","0.0-12.0-1.11","o96sk283ux","many_one","0","direct_first","1","ch06en15","0","28","2","1","3","1","","0","1","0","null","","","<img src = 'category4/CS2.png' width = '100%;'>","null","","","","","","","","","",""
"","html-keyboard-response","282","932027","0.0-12.0-2.11","o96sk283ux","many_one","0","direct_first","1","ch06en15","0","28","2","1","3","1","","0","1","0","null","","","<img src = 'targets/11.png' width = '100%;'>","null","","","","","","","","","",""
"","html-keyboard-response","283","933346","0.0-12.0-3.11","o96sk283ux","many_one","0","direct_first","1","ch06en15","0","28","2","1","3","1","","0","1","0","1318","","","<img src = 'targets/mask.png' width = '100%;'>","75","neg","GS","GSold","4","category4/CS2.png","","targets/11.png","indirect","1","35"
"","html-keyboard-response","284","934848","0.0-12.0-0.12","o96sk283ux","many_one","0","direct_first","1","ch06en15","0","28","2","1","3","1","","0","1","0","null","","","<div style=""font-size:60px;"">+</div>","null","","","","","","","","","",""
"","html-keyboard-response","285","934941","0.0-12.0-1.12","o96sk283ux","many_one","0","direct_first","1","ch06en15","0","28","2","1","3","1","","0","1","0","null","","","<img src = 'category1/GS3.png' width = '100%;'>","null","","","","","","","","","",""
"","html-keyboard-response","286","935199","0.0-12.0-2.12","o96sk283ux","many_one","0","direct_first","1","ch06en15","0","28","2","1","3","1","","0","1","0","null","","","<img src = 'targets/34.png' width = '100%;'>","null","","","","","","","","","",""
"","html-keyboard-response","287","936010","0.0-12.0-3.12","o96sk283ux","many_one","0","direct_first","1","ch06en15","0","28","2","1","3","1","","0","1","0","810","","","<img src = 'targets/mask.png' width = '100%;'>","68","neg","GS","GSnew","1","category1/GS3.png","","targets/34.png","indirect","0","36"
"","html-keyboard-response","288","937515","0.0-12.0-0.13","o96sk283ux","many_one","0","direct_first","1","ch06en15","0","28","2","1","3","1","","0","1","0","null","","","<div style=""font-size:60px;"">+</div>","null","","","","","","","","","",""
"","html-keyboard-response","289","937611","0.0-12.0-1.13","o96sk283ux","many_one","0","direct_first","1","ch06en15","0","28","2","1","3","1","","0","1","0","null","","","<img src = 'category2/CS4.png' width = '100%;'>","null","","","","","","","","","",""
"","html-keyboard-response","290","937867","0.0-12.0-2.13","o96sk283ux","many_one","0","direct_first","1","ch06en15","0","28","2","1","3","1","","0","1","0","null","","","<img src = 'targets/39.png' width = '100%;'>","null","","","","","","","","","",""
"","html-keyboard-response","291","938809","0.0-12.0-3.13","o96sk283ux","many_one","0","direct_first","1","ch06en15","0","28","2","1","3","1","","0","1","0","941","","","<img src = 'targets/mask.png' width = '100%;'>","68","pos","GS","GSold","2","category2/CS4.png","","targets/39.png","indirect","0","37"
"","html-keyboard-response","292","940314","0.0-12.0-0.14","o96sk283ux","many_one","0","direct_first","1","ch06en15","0","28","2","1","3","1","","0","1","0","null","","","<div style=""font-size:60px;"">+</div>","null","","","","","","","","","",""
"","html-keyboard-response","293","940406","0.0-12.0-1.14","o96sk283ux","many_one","0","direct_first","1","ch06en15","0","28","2","1","3","1","","0","1","0","null","","","<img src = 'category2/GS3.png' width = '100%;'>","null","","","","","","","","","",""
"","html-keyboard-response","294","940662","0.0-12.0-2.14","o96sk283ux","many_one","0","direct_first","1","ch06en15","0","28","2","1","3","1","","0","1","0","null","","","<img src = 'targets/20.png' width = '100%;'>","null","","","","","","","","","",""
"","html-keyboard-response","295","941890","0.0-12.0-3.14","o96sk283ux","many_one","0","direct_first","1","ch06en15","0","28","2","1","3","1","","0","1","0","1227","","","<img src = 'targets/mask.png' width = '100%;'>","75","pos","GS","GSnew","2","category2/GS3.png","","targets/20.png","indirect","1","38"
"","html-keyboard-response","296","943396","0.0-12.0-0.15","o96sk283ux","many_one","0","direct_first","1","ch06en15","0","28","2","1","3","1","","0","1","0","null","","","<div style=""font-size:60px;"">+</div>","null","","","","","","","","","",""
"","html-keyboard-response","297","943489","0.0-12.0-1.15","o96sk283ux","many_one","0","direct_first","1","ch06en15","0","28","2","1","3","1","","0","1","0","null","","","<img src = 'category3/CS8.png' width = '100%;'>","null","","","","","","","","","",""
"","html-keyboard-response","298","943744","0.0-12.0-2.15","o96sk283ux","many_one","0","direct_first","1","ch06en15","0","28","2","1","3","1","","0","1","0","null","","","<img src = 'targets/38.png' width = '100%;'>","null","","","","","","","","","",""
"","html-keyboard-response","299","944594","0.0-12.0-3.15","o96sk283ux","many_one","0","direct_first","1","ch06en15","0","28","2","1","3","1","","0","1","0","847","","","<img src = 'targets/mask.png' width = '100%;'>","75","pos","GS","GSold","3","category3/CS8.png","","targets/38.png","indirect","1","39"
"","html-keyboard-response","300","946101","0.0-12.0-0.16","o96sk283ux","many_one","0","direct_first","1","ch06en15","0","28","2","1","3","1","","0","1","0","null","","","<div style=""font-size:60px;"">+</div>","null","","","","","","","","","",""
"","html-keyboard-response","301","946194","0.0-12.0-1.16","o96sk283ux","many_one","0","direct_first","1","ch06en15","0","28","2","1","3","1","","0","1","0","null","","","<img src = 'category3/GS1.png' width = '100%;'>","null","","","","","","","","","",""
"","html-keyboard-response","302","946449","0.0-12.0-2.16","o96sk283ux","many_one","0","direct_first","1","ch06en15","0","28","2","1","3","1","","0","1","0","null","","","<img src = 'targets/10.png' width = '100%;'>","null","","","","","","","","","",""
"","html-keyboard-response","303","947201","0.0-12.0-3.16","o96sk283ux","many_one","0","direct_first","1","ch06en15","0","28","2","1","3","1","","0","1","0","751","","","<img src = 'targets/mask.png' width = '100%;'>","68","pos","GS","GSnew","3","category3/GS1.png","","targets/10.png","indirect","0","40"
"","html-keyboard-response","304","948704","0.0-12.0-0.17","o96sk283ux","many_one","0","direct_first","1","ch06en15","0","28","2","1","3","1","","0","1","0","null","","","<div style=""font-size:60px;"">+</div>","null","","","","","","","","","",""
"","html-keyboard-response","305","948800","0.0-12.0-1.17","o96sk283ux","many_one","0","direct_first","1","ch06en15","0","28","2","1","3","1","","0","1","0","null","","","<img src = 'category2/men.png' width = '100%;'>","null","","","","","","","","","",""
"","html-keyboard-response","306","949056","0.0-12.0-2.17","o96sk283ux","many_one","0","direct_first","1","ch06en15","0","28","2","1","3","1","","0","1","0","null","","","<img src = 'targets/1.png' width = '100%;'>","null","","","","","","","","","",""
"","html-keyboard-response","307","950129","0.0-12.0-3.17","o96sk283ux","many_one","0","direct_first","1","ch06en15","0","28","2","1","3","1","","0","1","0","1073","","","<img src = 'targets/mask.png' width = '100%;'>","75","pos","GS","abstract","2","category2/men.png","","targets/1.png","indirect","1","41"
"","html-keyboard-response","308","951633","0.0-12.0-0.18","o96sk283ux","many_one","0","direct_first","1","ch06en15","0","28","2","1","3","1","","0","1","0","null","","","<div style=""font-size:60px;"">+</div>","null","","","","","","","","","",""
"","html-keyboard-response","309","951729","0.0-12.0-1.18","o96sk283ux","many_one","0","direct_first","1","ch06en15","0","28","2","1","3","1","","0","1","0","null","","","<img src = 'category3/GS2.png' width = '100%;'>","null","","","","","","","","","",""
"","html-keyboard-response","310","951984","0.0-12.0-2.18","o96sk283ux","many_one","0","direct_first","1","ch06en15","0","28","2","1","3","1","","0","1","0","null","","","<img src = 'targets/29.png' width = '100%;'>","null","","","","","","","","","",""
"","html-keyboard-response","311","952754","0.0-12.0-3.18","o96sk283ux","many_one","0","direct_first","1","ch06en15","0","28","2","1","3","1","","0","1","0","768","","","<img src = 'targets/mask.png' width = '100%;'>","75","pos","GS","GSnew","3","category3/GS2.png","","targets/29.png","indirect","1","42"
"","html-keyboard-response","312","954260","0.0-12.0-0.19","o96sk283ux","many_one","0","direct_first","1","ch06en15","0","28","2","1","3","1","","0","1","0","null","","","<div style=""font-size:60px;"">+</div>","null","","","","","","","","","",""
"","html-keyboard-response","313","954353","0.0-12.0-1.19","o96sk283ux","many_one","0","direct_first","1","ch06en15","0","28","2","1","3","1","","0","1","0","null","","","<img src = 'category1/GS1.png' width = '100%;'>","null","","","","","","","","","",""
"","html-keyboard-response","314","954608","0.0-12.0-2.19","o96sk283ux","many_one","0","direct_first","1","ch06en15","0","28","2","1","3","1","","0","1","0","null","","","<img src = 'targets/19.png' width = '100%;'>","null","","","","","","","","","",""
"","html-keyboard-response","315","955361","0.0-12.0-3.19","o96sk283ux","many_one","0","direct_first","1","ch06en15","0","28","2","1","3","1","","0","1","0","752","","","<img src = 'targets/mask.png' width = '100%;'>","68","neg","GS","GSnew","1","category1/GS1.png","","targets/19.png","indirect","0","43"
"","html-keyboard-response","316","956866","0.0-12.0-0.20","o96sk283ux","many_one","0","direct_first","1","ch06en15","0","28","2","1","3","1","","0","1","0","null","","","<div style=""font-size:60px;"">+</div>","null","","","","","","","","","",""
"","html-keyboard-response","317","956959","0.0-12.0-1.20","o96sk283ux","many_one","0","direct_first","1","ch06en15","0","28","2","1","3","1","","0","1","0","null","","","<img src = 'category4/GS2.png' width = '100%;'>","null","","","","","","","","","",""
"","html-keyboard-response","318","957218","0.0-12.0-2.20","o96sk283ux","many_one","0","direct_first","1","ch06en15","0","28","2","1","3","1","","0","1","0","null","","","<img src = 'targets/22.png' width = '100%;'>","null","","","","","","","","","",""
"","html-keyboard-response","319","957881","0.0-12.0-3.20","o96sk283ux","many_one","0","direct_first","1","ch06en15","0","28","2","1","3","1","","0","1","0","663","","","<img src = 'targets/mask.png' width = '100%;'>","75","neg","GS","GSnew","4","category4/GS2.png","","targets/22.png","indirect","1","44"
"","html-keyboard-response","320","959388","0.0-12.0-0.21","o96sk283ux","many_one","0","direct_first","1","ch06en15","0","28","2","1","3","1","","0","1","0","null","","","<div style=""font-size:60px;"">+</div>","null","","","","","","","","","",""
"","html-keyboard-response","321","959484","0.0-12.0-1.21","o96sk283ux","many_one","0","direct_first","1","ch06en15","0","28","2","1","3","1","","0","1","0","null","","","<img src = 'category3/CS1.png' width = '100%;'>","null","","","","","","","","","",""
"","html-keyboard-response","322","959740","0.0-12.0-2.21","o96sk283ux","many_one","0","direct_first","1","ch06en15","0","28","2","1","3","1","","0","1","0","null","","","<img src = 'targets/5.png' width = '100%;'>","null","","","","","","","","","",""
"","html-keyboard-response","323","960666","0.0-12.0-3.21","o96sk283ux","many_one","0","direct_first","1","ch06en15","0","28","2","1","3","1","","0","1","0","925","","","<img src = 'targets/mask.png' width = '100%;'>","75","pos","GS","GSold","3","category3/CS1.png","","targets/5.png","indirect","1","45"
"","html-keyboard-response","324","962175","0.0-12.0-0.22","o96sk283ux","many_one","0","direct_first","1","ch06en15","0","28","2","1","3","1","","0","1","0","null","","","<div style=""font-size:60px;"">+</div>","null","","","","","","","","","",""
"","html-keyboard-response","325","962268","0.0-12.0-1.22","o96sk283ux","many_one","0","direct_first","1","ch06en15","0","28","2","1","3","1","","0","1","0","null","","","<img src = 'category4/CS8.png' width = '100%;'>","null","","","","","","","","","",""
"","html-keyboard-response","326","962523","0.0-12.0-2.22","o96sk283ux","many_one","0","direct_first","1","ch06en15","0","28","2","1","3","1","","0","1","0","null","","","<img src = 'targets/40.png' width = '100%;'>","null","","","","","","","","","",""
"","html-keyboard-response","327","963554","0.0-12.0-3.22","o96sk283ux","many_one","0","direct_first","1","ch06en15","0","28","2","1","3","1","","0","1","0","1029","","","<img src = 'targets/mask.png' width = '100%;'>","68","neg","GS","GSold","4","category4/CS8.png","","targets/40.png","indirect","0","46"
"","html-keyboard-response","328","965063","0.0-12.0-0.23","o96sk283ux","many_one","0","direct_first","1","ch06en15","0","28","2","1","3","1","","0","1","0","null","","","<div style=""font-size:60px;"">+</div>","null","","","","","","","","","",""
"","html-keyboard-response","329","965156","0.0-12.0-1.23","o96sk283ux","many_one","0","direct_first","1","ch06en15","0","28","2","1","3","1","","0","1","0","null","","","<img src = 'category4/lin.png' width = '100%;'>","null","","","","","","","","","",""
"","html-keyboard-response","330","965414","0.0-12.0-2.23","o96sk283ux","many_one","0","direct_first","1","ch06en15","0","28","2","1","3","1","","0","1","0","null","","","<img src = 'targets/15.png' width = '100%;'>","null","","","","","","","","","",""
"","html-keyboard-response","331","966297","0.0-12.0-3.23","o96sk283ux","many_one","0","direct_first","1","ch06en15","0","28","2","1","3","1","","0","1","0","881","","","<img src = 'targets/mask.png' width = '100%;'>","68","neg","GS","abstract","4","category4/lin.png","","targets/15.png","indirect","0","47"
"","survey-html-form","332","974810","0.0-13.0","o96sk283ux","many_one","0","direct_first","1","ch06en15","0","28","2","1","3","1","","0","1","0","8012","","{}","","","","","","","","","","","",""
