"success","trial_type","trial_index","time_elapsed","internal_node_id","subject","condition","condition_code","measure","measure_code","codeword","gender","age","education","chinese","fach","handedness","comment","hinschauen","ablenkung","gewissenhaft","rt","url","responses","stimulus","key_press","val","type","type_specific","category","cs_selected","response","target","task","indirect","nr_pres"
"true","fullscreen","0","7443","0.0-0.0","maa8axscqt","many_one","0","direct_first","1","le06er20","0","24","1","1","2","1","","0","1","0","","","","","","","","","","","","","","",""
"","external-html","1","91977","0.0-1.0","maa8axscqt","many_one","0","direct_first","1","le06er20","0","24","1","1","2","1","","0","1","0","84480.93000000017","text/information.html","","","","","","","","","","","","",""
"","external-html","2","113054","0.0-2.0","maa8axscqt","many_one","0","direct_first","1","le06er20","0","24","1","1","2","1","","0","1","0","20958.549999999843","text/consent.html","","","","","","","","","","","","",""
"","survey-html-form","3","169299","0.0-3.0","maa8axscqt","many_one","0","direct_first","1","le06er20","0","24","1","1","2","1","","0","1","0","56237.50500000006","","{""codeword_enter"":""le06er20""}","","","","","","","","","","","",""
"","survey-html-form","4","189970","0.0-4.0","maa8axscqt","many_one","0","direct_first","1","le06er20","0","24","1","1","2","1","","0","1","0","20661.554999999702","","{""age"":""24"",""education"":""1"",""subject"":""2"",""gender"":""0"",""handedness"":""1"",""chinese"":""1""}","","","","","","","","","","","",""
"","survey-html-form","5","198519","0.0-5.0","maa8axscqt","many_one","0","direct_first","1","le06er20","0","24","1","1","2","1","","0","1","0","8545.354999999749","","{}","","","","","","","","","","","",""
"","html-keyboard-response","6","202555","0.0-6.0-0.0-0.0","maa8axscqt","many_one","0","direct_first","1","le06er20","0","24","1","1","2","1","","0","1","0","null","","","<div class = 'row'><div class = 'column'><img src = 'category3/CS4.png' width = '70%;'></div><div class = 'column'><img src = 'usneg/6020.bmp' width = '100%;'></div></div>","null","neg","CS","CS","3","category3/CS4.png","","","","",""
"","html-keyboard-response","7","205075","0.0-6.0-0.0-0.1","maa8axscqt","many_one","0","direct_first","1","le06er20","0","24","1","1","2","1","","0","1","0","null","","","<div class = 'row'><div class = 'column'><img src = 'category4/CS8.png' width = '70%;'></div><div class = 'column'><img src = 'usneg/3300.bmp' width = '100%;'></div></div>","null","neg","CS","CS","4","category4/CS8.png","","","","",""
"","html-keyboard-response","8","207595","0.0-6.0-0.0-0.2","maa8axscqt","many_one","0","direct_first","1","le06er20","0","24","1","1","2","1","","0","1","0","null","","","<div class = 'row'><div class = 'column'><img src = 'uspos/5621.bmp' width = '100%;'></div><div class = 'column'><img src = 'category1/CS4.png' width = '70%;'></div></div>","null","pos","CS","CS","1","category1/CS4.png","","","","",""
"","html-keyboard-response","9","210106","0.0-6.0-0.0-0.3","maa8axscqt","many_one","0","direct_first","1","le06er20","0","24","1","1","2","1","","0","1","0","null","","","<div class = 'row'><div class = 'column'><img src = 'category4/CS9.png' width = '70%;'></div><div class = 'column'><img src = 'usneg/9520.bmp' width = '100%;'></div></div>","null","neg","CS","CS","4","category4/CS9.png","","","","",""
"","html-keyboard-response","10","212614","0.0-6.0-0.0-0.4","maa8axscqt","many_one","0","direct_first","1","le06er20","0","24","1","1","2","1","","0","1","0","null","","","<div class = 'row'><div class = 'column'><img src = 'category2/CS9.png' width = '70%;'></div><div class = 'column'><img src = 'uspos/1710.bmp' width = '100%;'></div></div>","null","pos","CS","CS","2","category2/CS9.png","","","","",""
"","html-keyboard-response","11","215133","0.0-6.0-0.0-0.5","maa8axscqt","many_one","0","direct_first","1","le06er20","0","24","1","1","2","1","","0","1","0","null","","","<div class = 'row'><div class = 'column'><img src = 'category2/CS1.png' width = '70%;'></div><div class = 'column'><img src = 'uspos/2208.bmp' width = '100%;'></div></div>","null","pos","CS","CS","2","category2/CS1.png","","","","",""
"","html-keyboard-response","12","217651","0.0-6.0-0.0-0.6","maa8axscqt","many_one","0","direct_first","1","le06er20","0","24","1","1","2","1","","0","1","0","null","","","<div class = 'row'><div class = 'column'><img src = 'usneg/3160.bmp' width = '100%;'></div><div class = 'column'><img src = 'category4/CS3.png' width = '70%;'></div></div>","null","neg","CS","CS","4","category4/CS3.png","","","","",""
"","html-keyboard-response","13","220182","0.0-6.0-0.0-0.7","maa8axscqt","many_one","0","direct_first","1","le06er20","0","24","1","1","2","1","","0","1","0","null","","","<div class = 'row'><div class = 'column'><img src = 'category4/CS7.png' width = '70%;'></div><div class = 'column'><img src = 'usneg/9181.bmp' width = '100%;'></div></div>","null","neg","CS","CS","4","category4/CS7.png","","","","",""
"","html-keyboard-response","14","222708","0.0-6.0-0.0-0.8","maa8axscqt","many_one","0","direct_first","1","le06er20","0","24","1","1","2","1","","0","1","0","null","","","<div class = 'row'><div class = 'column'><img src = 'usneg/9421.bmp' width = '100%;'></div><div class = 'column'><img src = 'category4/CS10.png' width = '70%;'></div></div>","null","neg","CS","CS","4","category4/CS10.png","","","","",""
"","html-keyboard-response","15","225220","0.0-6.0-0.0-0.9","maa8axscqt","many_one","0","direct_first","1","le06er20","0","24","1","1","2","1","","0","1","0","null","","","<div class = 'row'><div class = 'column'><img src = 'category1/CS3.png' width = '70%;'></div><div class = 'column'><img src = 'uspos/8461.bmp' width = '100%;'></div></div>","null","pos","CS","CS","1","category1/CS3.png","","","","",""
"","html-keyboard-response","16","227754","0.0-6.0-0.0-0.10","maa8axscqt","many_one","0","direct_first","1","le06er20","0","24","1","1","2","1","","0","1","0","null","","","<div class = 'row'><div class = 'column'><img src = 'uspos/1340.bmp' width = '100%;'></div><div class = 'column'><img src = 'category2/CS8.png' width = '70%;'></div></div>","null","pos","CS","CS","2","category2/CS8.png","","","","",""
"","html-keyboard-response","17","230273","0.0-6.0-0.0-0.11","maa8axscqt","many_one","0","direct_first","1","le06er20","0","24","1","1","2","1","","0","1","0","null","","","<div class = 'row'><div class = 'column'><img src = 'category3/CS6.png' width = '70%;'></div><div class = 'column'><img src = 'usneg/9404.bmp' width = '100%;'></div></div>","null","neg","CS","CS","3","category3/CS6.png","","","","",""
"","html-keyboard-response","18","232798","0.0-6.0-0.0-0.12","maa8axscqt","many_one","0","direct_first","1","le06er20","0","24","1","1","2","1","","0","1","0","null","","","<div class = 'row'><div class = 'column'><img src = 'usneg/9830.bmp' width = '100%;'></div><div class = 'column'><img src = 'category3/CS7.png' width = '70%;'></div></div>","null","neg","CS","CS","3","category3/CS7.png","","","","",""
"","html-keyboard-response","19","235325","0.0-6.0-0.0-0.13","maa8axscqt","many_one","0","direct_first","1","le06er20","0","24","1","1","2","1","","0","1","0","null","","","<div class = 'row'><div class = 'column'><img src = 'category2/CS5.png' width = '70%;'></div><div class = 'column'><img src = 'uspos/7325.bmp' width = '100%;'></div></div>","null","pos","CS","CS","2","category2/CS5.png","","","","",""
"","html-keyboard-response","20","237850","0.0-6.0-0.0-0.14","maa8axscqt","many_one","0","direct_first","1","le06er20","0","24","1","1","2","1","","0","1","0","null","","","<div class = 'row'><div class = 'column'><img src = 'usneg/1280.bmp' width = '100%;'></div><div class = 'column'><img src = 'category3/CS9.png' width = '70%;'></div></div>","null","neg","CS","CS","3","category3/CS9.png","","","","",""
"","html-keyboard-response","21","240367","0.0-6.0-0.0-0.15","maa8axscqt","many_one","0","direct_first","1","le06er20","0","24","1","1","2","1","","0","1","0","null","","","<div class = 'row'><div class = 'column'><img src = 'category1/CS6.png' width = '70%;'></div><div class = 'column'><img src = 'uspos/4599.bmp' width = '100%;'></div></div>","null","pos","CS","CS","1","category1/CS6.png","","","","",""
"","html-keyboard-response","22","242898","0.0-6.0-0.0-0.16","maa8axscqt","many_one","0","direct_first","1","le06er20","0","24","1","1","2","1","","0","1","0","null","","","<div class = 'row'><div class = 'column'><img src = 'uspos/1460.bmp' width = '100%;'></div><div class = 'column'><img src = 'category2/CS2.png' width = '70%;'></div></div>","null","pos","CS","CS","2","category2/CS2.png","","","","",""
"","html-keyboard-response","23","245422","0.0-6.0-0.0-0.17","maa8axscqt","many_one","0","direct_first","1","le06er20","0","24","1","1","2","1","","0","1","0","null","","","<div class = 'row'><div class = 'column'><img src = 'uspos/2165.bmp' width = '100%;'></div><div class = 'column'><img src = 'category1/CS9.png' width = '70%;'></div></div>","null","pos","CS","CS","1","category1/CS9.png","","","","",""
"","html-keyboard-response","24","247948","0.0-6.0-0.0-0.18","maa8axscqt","many_one","0","direct_first","1","le06er20","0","24","1","1","2","1","","0","1","0","null","","","<div class = 'row'><div class = 'column'><img src = 'category1/CS2.png' width = '70%;'></div><div class = 'column'><img src = 'uspos/8540.bmp' width = '100%;'></div></div>","null","pos","CS","CS","1","category1/CS2.png","","","","",""
"","html-keyboard-response","25","250483","0.0-6.0-0.0-0.19","maa8axscqt","many_one","0","direct_first","1","le06er20","0","24","1","1","2","1","","0","1","0","null","","","<div class = 'row'><div class = 'column'><img src = 'category3/CS3.png' width = '70%;'></div><div class = 'column'><img src = 'usneg/9340.bmp' width = '100%;'></div></div>","null","neg","CS","CS","3","category3/CS3.png","","","","",""
"","survey-html-form","26","255279","0.0-6.0-1.0","maa8axscqt","many_one","0","direct_first","1","le06er20","0","24","1","1","2","1","","0","1","0","4279.5799999999","","{}","","","","","","","","","","","",""
"","html-keyboard-response","27","259293","0.0-6.0-2.0-0.0","maa8axscqt","many_one","0","direct_first","1","le06er20","0","24","1","1","2","1","","0","1","0","null","","","<div class = 'row'><div class = 'column'><img src = 'category2/CS2.png' width = '70%;'></div><div class = 'column'><img src = 'uspos/1460.bmp' width = '100%;'></div></div>","null","pos","CS","CS","2","category2/CS2.png","","","","",""
"","html-keyboard-response","28","261800","0.0-6.0-2.0-0.1","maa8axscqt","many_one","0","direct_first","1","le06er20","0","24","1","1","2","1","","0","1","0","null","","","<div class = 'row'><div class = 'column'><img src = 'category3/CS6.png' width = '70%;'></div><div class = 'column'><img src = 'usneg/9404.bmp' width = '100%;'></div></div>","null","neg","CS","CS","3","category3/CS6.png","","","","",""
"","html-keyboard-response","29","264320","0.0-6.0-2.0-0.2","maa8axscqt","many_one","0","direct_first","1","le06er20","0","24","1","1","2","1","","0","1","0","null","","","<div class = 'row'><div class = 'column'><img src = 'category3/CS7.png' width = '70%;'></div><div class = 'column'><img src = 'usneg/9830.bmp' width = '100%;'></div></div>","null","neg","CS","CS","3","category3/CS7.png","","","","",""
"","html-keyboard-response","30","266840","0.0-6.0-2.0-0.3","maa8axscqt","many_one","0","direct_first","1","le06er20","0","24","1","1","2","1","","0","1","0","null","","","<div class = 'row'><div class = 'column'><img src = 'category1/CS4.png' width = '70%;'></div><div class = 'column'><img src = 'uspos/5621.bmp' width = '100%;'></div></div>","null","pos","CS","CS","1","category1/CS4.png","","","","",""
"","html-keyboard-response","31","269354","0.0-6.0-2.0-0.4","maa8axscqt","many_one","0","direct_first","1","le06er20","0","24","1","1","2","1","","0","1","0","null","","","<div class = 'row'><div class = 'column'><img src = 'category2/CS1.png' width = '70%;'></div><div class = 'column'><img src = 'uspos/2208.bmp' width = '100%;'></div></div>","null","pos","CS","CS","2","category2/CS1.png","","","","",""
"","html-keyboard-response","32","271882","0.0-6.0-2.0-0.5","maa8axscqt","many_one","0","direct_first","1","le06er20","0","24","1","1","2","1","","0","1","0","null","","","<div class = 'row'><div class = 'column'><img src = 'category3/CS3.png' width = '70%;'></div><div class = 'column'><img src = 'usneg/9340.bmp' width = '100%;'></div></div>","null","neg","CS","CS","3","category3/CS3.png","","","","",""
"","html-keyboard-response","33","274395","0.0-6.0-2.0-0.6","maa8axscqt","many_one","0","direct_first","1","le06er20","0","24","1","1","2","1","","0","1","0","null","","","<div class = 'row'><div class = 'column'><img src = 'usneg/6020.bmp' width = '100%;'></div><div class = 'column'><img src = 'category3/CS4.png' width = '70%;'></div></div>","null","neg","CS","CS","3","category3/CS4.png","","","","",""
"","html-keyboard-response","34","276925","0.0-6.0-2.0-0.7","maa8axscqt","many_one","0","direct_first","1","le06er20","0","24","1","1","2","1","","0","1","0","null","","","<div class = 'row'><div class = 'column'><img src = 'category1/CS3.png' width = '70%;'></div><div class = 'column'><img src = 'uspos/8461.bmp' width = '100%;'></div></div>","null","pos","CS","CS","1","category1/CS3.png","","","","",""
"","html-keyboard-response","35","279455","0.0-6.0-2.0-0.8","maa8axscqt","many_one","0","direct_first","1","le06er20","0","24","1","1","2","1","","0","1","0","null","","","<div class = 'row'><div class = 'column'><img src = 'category2/CS5.png' width = '70%;'></div><div class = 'column'><img src = 'uspos/7325.bmp' width = '100%;'></div></div>","null","pos","CS","CS","2","category2/CS5.png","","","","",""
"","html-keyboard-response","36","281980","0.0-6.0-2.0-0.9","maa8axscqt","many_one","0","direct_first","1","le06er20","0","24","1","1","2","1","","0","1","0","null","","","<div class = 'row'><div class = 'column'><img src = 'category4/CS8.png' width = '70%;'></div><div class = 'column'><img src = 'usneg/3300.bmp' width = '100%;'></div></div>","null","neg","CS","CS","4","category4/CS8.png","","","","",""
"","html-keyboard-response","37","284494","0.0-6.0-2.0-0.10","maa8axscqt","many_one","0","direct_first","1","le06er20","0","24","1","1","2","1","","0","1","0","null","","","<div class = 'row'><div class = 'column'><img src = 'category1/CS6.png' width = '70%;'></div><div class = 'column'><img src = 'uspos/4599.bmp' width = '100%;'></div></div>","null","pos","CS","CS","1","category1/CS6.png","","","","",""
"","html-keyboard-response","38","287016","0.0-6.0-2.0-0.11","maa8axscqt","many_one","0","direct_first","1","le06er20","0","24","1","1","2","1","","0","1","0","null","","","<div class = 'row'><div class = 'column'><img src = 'usneg/3160.bmp' width = '100%;'></div><div class = 'column'><img src = 'category4/CS3.png' width = '70%;'></div></div>","null","neg","CS","CS","4","category4/CS3.png","","","","",""
"","html-keyboard-response","39","289540","0.0-6.0-2.0-0.12","maa8axscqt","many_one","0","direct_first","1","le06er20","0","24","1","1","2","1","","0","1","0","null","","","<div class = 'row'><div class = 'column'><img src = 'category2/CS8.png' width = '70%;'></div><div class = 'column'><img src = 'uspos/1340.bmp' width = '100%;'></div></div>","null","pos","CS","CS","2","category2/CS8.png","","","","",""
"","html-keyboard-response","40","292070","0.0-6.0-2.0-0.13","maa8axscqt","many_one","0","direct_first","1","le06er20","0","24","1","1","2","1","","0","1","0","null","","","<div class = 'row'><div class = 'column'><img src = 'category4/CS9.png' width = '70%;'></div><div class = 'column'><img src = 'usneg/9520.bmp' width = '100%;'></div></div>","null","neg","CS","CS","4","category4/CS9.png","","","","",""
"","html-keyboard-response","41","294598","0.0-6.0-2.0-0.14","maa8axscqt","many_one","0","direct_first","1","le06er20","0","24","1","1","2","1","","0","1","0","null","","","<div class = 'row'><div class = 'column'><img src = 'category3/CS9.png' width = '70%;'></div><div class = 'column'><img src = 'usneg/1280.bmp' width = '100%;'></div></div>","null","neg","CS","CS","3","category3/CS9.png","","","","",""
"","html-keyboard-response","42","297105","0.0-6.0-2.0-0.15","maa8axscqt","many_one","0","direct_first","1","le06er20","0","24","1","1","2","1","","0","1","0","null","","","<div class = 'row'><div class = 'column'><img src = 'uspos/8540.bmp' width = '100%;'></div><div class = 'column'><img src = 'category1/CS2.png' width = '70%;'></div></div>","null","pos","CS","CS","1","category1/CS2.png","","","","",""
"","html-keyboard-response","43","299627","0.0-6.0-2.0-0.16","maa8axscqt","many_one","0","direct_first","1","le06er20","0","24","1","1","2","1","","0","1","0","null","","","<div class = 'row'><div class = 'column'><img src = 'category1/CS9.png' width = '70%;'></div><div class = 'column'><img src = 'uspos/2165.bmp' width = '100%;'></div></div>","null","pos","CS","CS","1","category1/CS9.png","","","","",""
"","html-keyboard-response","44","302134","0.0-6.0-2.0-0.17","maa8axscqt","many_one","0","direct_first","1","le06er20","0","24","1","1","2","1","","0","1","0","null","","","<div class = 'row'><div class = 'column'><img src = 'usneg/9181.bmp' width = '100%;'></div><div class = 'column'><img src = 'category4/CS7.png' width = '70%;'></div></div>","null","neg","CS","CS","4","category4/CS7.png","","","","",""
"","html-keyboard-response","45","304665","0.0-6.0-2.0-0.18","maa8axscqt","many_one","0","direct_first","1","le06er20","0","24","1","1","2","1","","0","1","0","null","","","<div class = 'row'><div class = 'column'><img src = 'category2/CS9.png' width = '70%;'></div><div class = 'column'><img src = 'uspos/1710.bmp' width = '100%;'></div></div>","null","pos","CS","CS","2","category2/CS9.png","","","","",""
"","html-keyboard-response","46","307187","0.0-6.0-2.0-0.19","maa8axscqt","many_one","0","direct_first","1","le06er20","0","24","1","1","2","1","","0","1","0","null","","","<div class = 'row'><div class = 'column'><img src = 'category4/CS10.png' width = '70%;'></div><div class = 'column'><img src = 'usneg/9421.bmp' width = '100%;'></div></div>","null","neg","CS","CS","4","category4/CS10.png","","","","",""
"","survey-html-form","47","313823","0.0-6.0-3.0","maa8axscqt","many_one","0","direct_first","1","le06er20","0","24","1","1","2","1","","0","1","0","6129.504999999888","","{}","","","","","","","","","","","",""
"","html-keyboard-response","48","317844","0.0-6.0-4.0-0.0","maa8axscqt","many_one","0","direct_first","1","le06er20","0","24","1","1","2","1","","0","1","0","null","","","<div class = 'row'><div class = 'column'><img src = 'uspos/8540.bmp' width = '100%;'></div><div class = 'column'><img src = 'category1/CS2.png' width = '70%;'></div></div>","null","pos","CS","CS","1","category1/CS2.png","","","","",""
"","html-keyboard-response","49","320357","0.0-6.0-4.0-0.1","maa8axscqt","many_one","0","direct_first","1","le06er20","0","24","1","1","2","1","","0","1","0","null","","","<div class = 'row'><div class = 'column'><img src = 'category4/CS8.png' width = '70%;'></div><div class = 'column'><img src = 'usneg/3300.bmp' width = '100%;'></div></div>","null","neg","CS","CS","4","category4/CS8.png","","","","",""
"","html-keyboard-response","50","322868","0.0-6.0-4.0-0.2","maa8axscqt","many_one","0","direct_first","1","le06er20","0","24","1","1","2","1","","0","1","0","null","","","<div class = 'row'><div class = 'column'><img src = 'category2/CS5.png' width = '70%;'></div><div class = 'column'><img src = 'uspos/7325.bmp' width = '100%;'></div></div>","null","pos","CS","CS","2","category2/CS5.png","","","","",""
"","html-keyboard-response","51","325379","0.0-6.0-4.0-0.3","maa8axscqt","many_one","0","direct_first","1","le06er20","0","24","1","1","2","1","","0","1","0","null","","","<div class = 'row'><div class = 'column'><img src = 'uspos/1340.bmp' width = '100%;'></div><div class = 'column'><img src = 'category2/CS8.png' width = '70%;'></div></div>","null","pos","CS","CS","2","category2/CS8.png","","","","",""
"","html-keyboard-response","52","327909","0.0-6.0-4.0-0.4","maa8axscqt","many_one","0","direct_first","1","le06er20","0","24","1","1","2","1","","0","1","0","null","","","<div class = 'row'><div class = 'column'><img src = 'uspos/1460.bmp' width = '100%;'></div><div class = 'column'><img src = 'category2/CS2.png' width = '70%;'></div></div>","null","pos","CS","CS","2","category2/CS2.png","","","","",""
"","html-keyboard-response","53","330441","0.0-6.0-4.0-0.5","maa8axscqt","many_one","0","direct_first","1","le06er20","0","24","1","1","2","1","","0","1","0","null","","","<div class = 'row'><div class = 'column'><img src = 'category2/CS9.png' width = '70%;'></div><div class = 'column'><img src = 'uspos/1710.bmp' width = '100%;'></div></div>","null","pos","CS","CS","2","category2/CS9.png","","","","",""
"","html-keyboard-response","54","332969","0.0-6.0-4.0-0.6","maa8axscqt","many_one","0","direct_first","1","le06er20","0","24","1","1","2","1","","0","1","0","null","","","<div class = 'row'><div class = 'column'><img src = 'uspos/4599.bmp' width = '100%;'></div><div class = 'column'><img src = 'category1/CS6.png' width = '70%;'></div></div>","null","pos","CS","CS","1","category1/CS6.png","","","","",""
"","html-keyboard-response","55","335496","0.0-6.0-4.0-0.7","maa8axscqt","many_one","0","direct_first","1","le06er20","0","24","1","1","2","1","","0","1","0","null","","","<div class = 'row'><div class = 'column'><img src = 'uspos/2165.bmp' width = '100%;'></div><div class = 'column'><img src = 'category1/CS9.png' width = '70%;'></div></div>","null","pos","CS","CS","1","category1/CS9.png","","","","",""
"","html-keyboard-response","56","338013","0.0-6.0-4.0-0.8","maa8axscqt","many_one","0","direct_first","1","le06er20","0","24","1","1","2","1","","0","1","0","null","","","<div class = 'row'><div class = 'column'><img src = 'usneg/9340.bmp' width = '100%;'></div><div class = 'column'><img src = 'category3/CS3.png' width = '70%;'></div></div>","null","neg","CS","CS","3","category3/CS3.png","","","","",""
"","html-keyboard-response","57","340535","0.0-6.0-4.0-0.9","maa8axscqt","many_one","0","direct_first","1","le06er20","0","24","1","1","2","1","","0","1","0","null","","","<div class = 'row'><div class = 'column'><img src = 'uspos/2208.bmp' width = '100%;'></div><div class = 'column'><img src = 'category2/CS1.png' width = '70%;'></div></div>","null","pos","CS","CS","2","category2/CS1.png","","","","",""
"","html-keyboard-response","58","343053","0.0-6.0-4.0-0.10","maa8axscqt","many_one","0","direct_first","1","le06er20","0","24","1","1","2","1","","0","1","0","null","","","<div class = 'row'><div class = 'column'><img src = 'uspos/8461.bmp' width = '100%;'></div><div class = 'column'><img src = 'category1/CS3.png' width = '70%;'></div></div>","null","pos","CS","CS","1","category1/CS3.png","","","","",""
"","html-keyboard-response","59","345581","0.0-6.0-4.0-0.11","maa8axscqt","many_one","0","direct_first","1","le06er20","0","24","1","1","2","1","","0","1","0","null","","","<div class = 'row'><div class = 'column'><img src = 'category3/CS7.png' width = '70%;'></div><div class = 'column'><img src = 'usneg/9830.bmp' width = '100%;'></div></div>","null","neg","CS","CS","3","category3/CS7.png","","","","",""
"","html-keyboard-response","60","348113","0.0-6.0-4.0-0.12","maa8axscqt","many_one","0","direct_first","1","le06er20","0","24","1","1","2","1","","0","1","0","null","","","<div class = 'row'><div class = 'column'><img src = 'usneg/9421.bmp' width = '100%;'></div><div class = 'column'><img src = 'category4/CS10.png' width = '70%;'></div></div>","null","neg","CS","CS","4","category4/CS10.png","","","","",""
"","html-keyboard-response","61","350638","0.0-6.0-4.0-0.13","maa8axscqt","many_one","0","direct_first","1","le06er20","0","24","1","1","2","1","","0","1","0","null","","","<div class = 'row'><div class = 'column'><img src = 'usneg/9404.bmp' width = '100%;'></div><div class = 'column'><img src = 'category3/CS6.png' width = '70%;'></div></div>","null","neg","CS","CS","3","category3/CS6.png","","","","",""
"","html-keyboard-response","62","353158","0.0-6.0-4.0-0.14","maa8axscqt","many_one","0","direct_first","1","le06er20","0","24","1","1","2","1","","0","1","0","null","","","<div class = 'row'><div class = 'column'><img src = 'usneg/9520.bmp' width = '100%;'></div><div class = 'column'><img src = 'category4/CS9.png' width = '70%;'></div></div>","null","neg","CS","CS","4","category4/CS9.png","","","","",""
"","html-keyboard-response","63","355681","0.0-6.0-4.0-0.15","maa8axscqt","many_one","0","direct_first","1","le06er20","0","24","1","1","2","1","","0","1","0","null","","","<div class = 'row'><div class = 'column'><img src = 'usneg/3160.bmp' width = '100%;'></div><div class = 'column'><img src = 'category4/CS3.png' width = '70%;'></div></div>","null","neg","CS","CS","4","category4/CS3.png","","","","",""
"","html-keyboard-response","64","358195","0.0-6.0-4.0-0.16","maa8axscqt","many_one","0","direct_first","1","le06er20","0","24","1","1","2","1","","0","1","0","null","","","<div class = 'row'><div class = 'column'><img src = 'category1/CS4.png' width = '70%;'></div><div class = 'column'><img src = 'uspos/5621.bmp' width = '100%;'></div></div>","null","pos","CS","CS","1","category1/CS4.png","","","","",""
"","html-keyboard-response","65","360721","0.0-6.0-4.0-0.17","maa8axscqt","many_one","0","direct_first","1","le06er20","0","24","1","1","2","1","","0","1","0","null","","","<div class = 'row'><div class = 'column'><img src = 'category3/CS9.png' width = '70%;'></div><div class = 'column'><img src = 'usneg/1280.bmp' width = '100%;'></div></div>","null","neg","CS","CS","3","category3/CS9.png","","","","",""
"","html-keyboard-response","66","363241","0.0-6.0-4.0-0.18","maa8axscqt","many_one","0","direct_first","1","le06er20","0","24","1","1","2","1","","0","1","0","null","","","<div class = 'row'><div class = 'column'><img src = 'category4/CS7.png' width = '70%;'></div><div class = 'column'><img src = 'usneg/9181.bmp' width = '100%;'></div></div>","null","neg","CS","CS","4","category4/CS7.png","","","","",""
"","html-keyboard-response","67","365762","0.0-6.0-4.0-0.19","maa8axscqt","many_one","0","direct_first","1","le06er20","0","24","1","1","2","1","","0","1","0","null","","","<div class = 'row'><div class = 'column'><img src = 'category3/CS4.png' width = '70%;'></div><div class = 'column'><img src = 'usneg/6020.bmp' width = '100%;'></div></div>","null","neg","CS","CS","3","category3/CS4.png","","","","",""
"","survey-html-form","68","372744","0.0-6.0-5.0","maa8axscqt","many_one","0","direct_first","1","le06er20","0","24","1","1","2","1","","0","1","0","6462.629999999946","","{}","","","","","","","","","","","",""
"","html-keyboard-response","69","376776","0.0-6.0-6.0-0.0","maa8axscqt","many_one","0","direct_first","1","le06er20","0","24","1","1","2","1","","0","1","0","null","","","<div class = 'row'><div class = 'column'><img src = 'category1/CS4.png' width = '70%;'></div><div class = 'column'><img src = 'uspos/5621.bmp' width = '100%;'></div></div>","null","pos","CS","CS","1","category1/CS4.png","","","","",""
"","html-keyboard-response","70","379300","0.0-6.0-6.0-0.1","maa8axscqt","many_one","0","direct_first","1","le06er20","0","24","1","1","2","1","","0","1","0","null","","","<div class = 'row'><div class = 'column'><img src = 'uspos/4599.bmp' width = '100%;'></div><div class = 'column'><img src = 'category1/CS6.png' width = '70%;'></div></div>","null","pos","CS","CS","1","category1/CS6.png","","","","",""
"","html-keyboard-response","71","381808","0.0-6.0-6.0-0.2","maa8axscqt","many_one","0","direct_first","1","le06er20","0","24","1","1","2","1","","0","1","0","null","","","<div class = 'row'><div class = 'column'><img src = 'category3/CS4.png' width = '70%;'></div><div class = 'column'><img src = 'usneg/6020.bmp' width = '100%;'></div></div>","null","neg","CS","CS","3","category3/CS4.png","","","","",""
"","html-keyboard-response","72","384332","0.0-6.0-6.0-0.3","maa8axscqt","many_one","0","direct_first","1","le06er20","0","24","1","1","2","1","","0","1","0","null","","","<div class = 'row'><div class = 'column'><img src = 'category1/CS2.png' width = '70%;'></div><div class = 'column'><img src = 'uspos/8540.bmp' width = '100%;'></div></div>","null","pos","CS","CS","1","category1/CS2.png","","","","",""
"","html-keyboard-response","73","386851","0.0-6.0-6.0-0.4","maa8axscqt","many_one","0","direct_first","1","le06er20","0","24","1","1","2","1","","0","1","0","null","","","<div class = 'row'><div class = 'column'><img src = 'category2/CS9.png' width = '70%;'></div><div class = 'column'><img src = 'uspos/1710.bmp' width = '100%;'></div></div>","null","pos","CS","CS","2","category2/CS9.png","","","","",""
"","html-keyboard-response","74","389378","0.0-6.0-6.0-0.5","maa8axscqt","many_one","0","direct_first","1","le06er20","0","24","1","1","2","1","","0","1","0","null","","","<div class = 'row'><div class = 'column'><img src = 'category3/CS7.png' width = '70%;'></div><div class = 'column'><img src = 'usneg/9830.bmp' width = '100%;'></div></div>","null","neg","CS","CS","3","category3/CS7.png","","","","",""
"","html-keyboard-response","75","391896","0.0-6.0-6.0-0.6","maa8axscqt","many_one","0","direct_first","1","le06er20","0","24","1","1","2","1","","0","1","0","null","","","<div class = 'row'><div class = 'column'><img src = 'usneg/1280.bmp' width = '100%;'></div><div class = 'column'><img src = 'category3/CS9.png' width = '70%;'></div></div>","null","neg","CS","CS","3","category3/CS9.png","","","","",""
"","html-keyboard-response","76","394426","0.0-6.0-6.0-0.7","maa8axscqt","many_one","0","direct_first","1","le06er20","0","24","1","1","2","1","","0","1","0","null","","","<div class = 'row'><div class = 'column'><img src = 'category2/CS8.png' width = '70%;'></div><div class = 'column'><img src = 'uspos/1340.bmp' width = '100%;'></div></div>","null","pos","CS","CS","2","category2/CS8.png","","","","",""
"","html-keyboard-response","77","396940","0.0-6.0-6.0-0.8","maa8axscqt","many_one","0","direct_first","1","le06er20","0","24","1","1","2","1","","0","1","0","null","","","<div class = 'row'><div class = 'column'><img src = 'uspos/2165.bmp' width = '100%;'></div><div class = 'column'><img src = 'category1/CS9.png' width = '70%;'></div></div>","null","pos","CS","CS","1","category1/CS9.png","","","","",""
"","html-keyboard-response","78","399453","0.0-6.0-6.0-0.9","maa8axscqt","many_one","0","direct_first","1","le06er20","0","24","1","1","2","1","","0","1","0","null","","","<div class = 'row'><div class = 'column'><img src = 'category3/CS6.png' width = '70%;'></div><div class = 'column'><img src = 'usneg/9404.bmp' width = '100%;'></div></div>","null","neg","CS","CS","3","category3/CS6.png","","","","",""
"","html-keyboard-response","79","401982","0.0-6.0-6.0-0.10","maa8axscqt","many_one","0","direct_first","1","le06er20","0","24","1","1","2","1","","0","1","0","null","","","<div class = 'row'><div class = 'column'><img src = 'category3/CS3.png' width = '70%;'></div><div class = 'column'><img src = 'usneg/9340.bmp' width = '100%;'></div></div>","null","neg","CS","CS","3","category3/CS3.png","","","","",""
"","html-keyboard-response","80","404500","0.0-6.0-6.0-0.11","maa8axscqt","many_one","0","direct_first","1","le06er20","0","24","1","1","2","1","","0","1","0","null","","","<div class = 'row'><div class = 'column'><img src = 'category1/CS3.png' width = '70%;'></div><div class = 'column'><img src = 'uspos/8461.bmp' width = '100%;'></div></div>","null","pos","CS","CS","1","category1/CS3.png","","","","",""
"","html-keyboard-response","81","407021","0.0-6.0-6.0-0.12","maa8axscqt","many_one","0","direct_first","1","le06er20","0","24","1","1","2","1","","0","1","0","null","","","<div class = 'row'><div class = 'column'><img src = 'uspos/7325.bmp' width = '100%;'></div><div class = 'column'><img src = 'category2/CS5.png' width = '70%;'></div></div>","null","pos","CS","CS","2","category2/CS5.png","","","","",""
"","html-keyboard-response","82","409552","0.0-6.0-6.0-0.13","maa8axscqt","many_one","0","direct_first","1","le06er20","0","24","1","1","2","1","","0","1","0","null","","","<div class = 'row'><div class = 'column'><img src = 'usneg/9181.bmp' width = '100%;'></div><div class = 'column'><img src = 'category4/CS7.png' width = '70%;'></div></div>","null","neg","CS","CS","4","category4/CS7.png","","","","",""
"","html-keyboard-response","83","412075","0.0-6.0-6.0-0.14","maa8axscqt","many_one","0","direct_first","1","le06er20","0","24","1","1","2","1","","0","1","0","null","","","<div class = 'row'><div class = 'column'><img src = 'usneg/9520.bmp' width = '100%;'></div><div class = 'column'><img src = 'category4/CS9.png' width = '70%;'></div></div>","null","neg","CS","CS","4","category4/CS9.png","","","","",""
"","html-keyboard-response","84","414605","0.0-6.0-6.0-0.15","maa8axscqt","many_one","0","direct_first","1","le06er20","0","24","1","1","2","1","","0","1","0","null","","","<div class = 'row'><div class = 'column'><img src = 'category4/CS8.png' width = '70%;'></div><div class = 'column'><img src = 'usneg/3300.bmp' width = '100%;'></div></div>","null","neg","CS","CS","4","category4/CS8.png","","","","",""
"","html-keyboard-response","85","417138","0.0-6.0-6.0-0.16","maa8axscqt","many_one","0","direct_first","1","le06er20","0","24","1","1","2","1","","0","1","0","null","","","<div class = 'row'><div class = 'column'><img src = 'usneg/3160.bmp' width = '100%;'></div><div class = 'column'><img src = 'category4/CS3.png' width = '70%;'></div></div>","null","neg","CS","CS","4","category4/CS3.png","","","","",""
"","html-keyboard-response","86","419662","0.0-6.0-6.0-0.17","maa8axscqt","many_one","0","direct_first","1","le06er20","0","24","1","1","2","1","","0","1","0","null","","","<div class = 'row'><div class = 'column'><img src = 'usneg/9421.bmp' width = '100%;'></div><div class = 'column'><img src = 'category4/CS10.png' width = '70%;'></div></div>","null","neg","CS","CS","4","category4/CS10.png","","","","",""
"","html-keyboard-response","87","422183","0.0-6.0-6.0-0.18","maa8axscqt","many_one","0","direct_first","1","le06er20","0","24","1","1","2","1","","0","1","0","null","","","<div class = 'row'><div class = 'column'><img src = 'category2/CS2.png' width = '70%;'></div><div class = 'column'><img src = 'uspos/1460.bmp' width = '100%;'></div></div>","null","pos","CS","CS","2","category2/CS2.png","","","","",""
"","html-keyboard-response","88","424701","0.0-6.0-6.0-0.19","maa8axscqt","many_one","0","direct_first","1","le06er20","0","24","1","1","2","1","","0","1","0","null","","","<div class = 'row'><div class = 'column'><img src = 'category2/CS1.png' width = '70%;'></div><div class = 'column'><img src = 'uspos/2208.bmp' width = '100%;'></div></div>","null","pos","CS","CS","2","category2/CS1.png","","","","",""
"","survey-html-form","89","437477","0.0-7.0","maa8axscqt","many_one","0","direct_first","1","le06er20","0","24","1","1","2","1","","0","1","0","12272.269999999902","","{}","","","","","","","","","","","",""
"","image-slider-response","90","446273","0.0-8.0-0.0","maa8axscqt","many_one","0","direct_first","1","le06er20","0","24","1","1","2","1","","0","1","0","6779.764999999781","","","","","pos","CS","CS","1","category1/CS6.png","24","targets/37.png","direct","",""
"","image-slider-response","91","453339","0.0-8.0-0.1","maa8axscqt","many_one","0","direct_first","1","le06er20","0","24","1","1","2","1","","0","1","0","7060.195000000007","","","","","neg","GS","GSold","3","category3/CS10.png","6","targets/28.png","direct","",""
"","image-slider-response","92","460920","0.0-8.0-0.2","maa8axscqt","many_one","0","direct_first","1","le06er20","0","24","1","1","2","1","","0","1","0","7577.205000000016","","","","","neg","GS","GSold","4","category4/CS5.png","-20","targets/6.png","direct","",""
"","image-slider-response","93","467274","0.0-8.0-0.3","maa8axscqt","many_one","0","direct_first","1","le06er20","0","24","1","1","2","1","","0","1","0","6347.6900000000605","","","","","neg","GS","GSnew","4","category4/GS2.png","46","targets/18.png","direct","",""
"","image-slider-response","94","475479","0.0-8.0-0.4","maa8axscqt","many_one","0","direct_first","1","le06er20","0","24","1","1","2","1","","0","1","0","8199.830000000016","","","","","neg","GS","GSnew","4","category4/GS1.png","46","targets/9.png","direct","",""
"","image-slider-response","95","481861","0.0-8.0-0.5","maa8axscqt","many_one","0","direct_first","1","le06er20","0","24","1","1","2","1","","0","1","0","6377.675000000163","","","","","neg","GS","GSnew","3","category3/GS2.png","41","targets/5.png","direct","",""
"","image-slider-response","96","485434","0.0-8.0-0.6","maa8axscqt","many_one","0","direct_first","1","le06er20","0","24","1","1","2","1","","0","1","0","3568.255000000121","","","","","pos","GS","GSnew","2","category2/GS1.png","-35","targets/36.png","direct","",""
"","image-slider-response","97","491342","0.0-8.0-0.7","maa8axscqt","many_one","0","direct_first","1","le06er20","0","24","1","1","2","1","","0","1","0","5905.084999999846","","","","","pos","CS","CS","2","category2/CS5.png","-28","targets/24.png","direct","",""
"","image-slider-response","98","495735","0.0-8.0-0.8","maa8axscqt","many_one","0","direct_first","1","le06er20","0","24","1","1","2","1","","0","1","0","4389.034999999683","","","","","neg","CS","CS","4","category4/CS3.png","19","targets/4.png","direct","",""
"","image-slider-response","99","499273","0.0-8.0-0.9","maa8axscqt","many_one","0","direct_first","1","le06er20","0","24","1","1","2","1","","0","1","0","3532.964999999909","","","","","pos","GS","abstract","2","category2/men.png","-71","targets/16.png","direct","",""
"","image-slider-response","100","504282","0.0-8.0-0.10","maa8axscqt","many_one","0","direct_first","1","le06er20","0","24","1","1","2","1","","0","1","0","5005.850000000035","","","","","pos","CS","CS","2","category2/CS8.png","10","targets/17.png","direct","",""
"","image-slider-response","101","511487","0.0-8.0-0.11","maa8axscqt","many_one","0","direct_first","1","le06er20","0","24","1","1","2","1","","0","1","0","7199.024999999907","","","","","neg","GS","GSnew","3","category3/GS3.png","-34","targets/22.png","direct","",""
"","image-slider-response","102","516304","0.0-8.0-0.12","maa8axscqt","many_one","0","direct_first","1","le06er20","0","24","1","1","2","1","","0","1","0","4813.235000000044","","","","","pos","CS","CS","2","category2/CS9.png","27","targets/40.png","direct","",""
"","image-slider-response","103","520258","0.0-8.0-0.13","maa8axscqt","many_one","0","direct_first","1","le06er20","0","24","1","1","2","1","","0","1","0","3950.3099999997066","","","","","pos","GS","GSold","2","category2/CS10.png","-52","targets/39.png","direct","",""
"","image-slider-response","104","531785","0.0-8.0-0.14","maa8axscqt","many_one","0","direct_first","1","le06er20","0","24","1","1","2","1","","0","1","0","11522.844999999972","","","","","pos","CS","CS","1","category1/CS3.png","5","targets/46.png","direct","",""
"","image-slider-response","105","535289","0.0-8.0-0.15","maa8axscqt","many_one","0","direct_first","1","le06er20","0","24","1","1","2","1","","0","1","0","3497.769999999902","","","","","pos","CS","CS","2","category2/CS1.png","-54","targets/23.png","direct","",""
"","image-slider-response","106","542294","0.0-8.0-0.16","maa8axscqt","many_one","0","direct_first","1","le06er20","0","24","1","1","2","1","","0","1","0","7001.324999999721","","","","","neg","CS","CS","4","category4/CS9.png","2","targets/1.png","direct","",""
"","image-slider-response","107","551276","0.0-8.0-0.17","maa8axscqt","many_one","0","direct_first","1","le06er20","0","24","1","1","2","1","","0","1","0","8977.130000000121","","","","","pos","GS","GSnew","1","category1/GS3.png","-52","targets/3.png","direct","",""
"","image-slider-response","108","554834","0.0-8.0-0.18","maa8axscqt","many_one","0","direct_first","1","le06er20","0","24","1","1","2","1","","0","1","0","3552.350000000326","","","","","pos","GS","GSold","1","category1/CS8.png","-77","targets/15.png","direct","",""
"","image-slider-response","109","558548","0.0-8.0-0.19","maa8axscqt","many_one","0","direct_first","1","le06er20","0","24","1","1","2","1","","0","1","0","3709.635000000242","","","","","neg","GS","GSold","3","category3/CS5.png","-80","targets/31.png","direct","",""
"","image-slider-response","110","564876","0.0-8.0-0.20","maa8axscqt","many_one","0","direct_first","1","le06er20","0","24","1","1","2","1","","0","1","0","6323.554999999935","","","","","neg","CS","CS","4","category4/CS10.png","-8","targets/13.png","direct","",""
"","image-slider-response","111","568731","0.0-8.0-0.21","maa8axscqt","many_one","0","direct_first","1","le06er20","0","24","1","1","2","1","","0","1","0","3851.310000000056","","","","","neg","CS","CS","3","category3/CS6.png","-76","targets/2.png","direct","",""
"","image-slider-response","112","572949","0.0-8.0-0.22","maa8axscqt","many_one","0","direct_first","1","le06er20","0","24","1","1","2","1","","0","1","0","4214.080000000191","","","","","pos","GS","GSold","2","category2/CS6.png","6","targets/25.png","direct","",""
"","image-slider-response","113","576243","0.0-8.0-0.23","maa8axscqt","many_one","0","direct_first","1","le06er20","0","24","1","1","2","1","","0","1","0","3287.2900000001537","","","","","pos","GS","GSnew","2","category2/GS2.png","-75","targets/19.png","direct","",""
"","image-slider-response","114","584072","0.0-8.0-0.24","maa8axscqt","many_one","0","direct_first","1","le06er20","0","24","1","1","2","1","","0","1","0","7824.935000000056","","","","","neg","CS","CS","4","category4/CS7.png","-22","targets/42.png","direct","",""
"","image-slider-response","115","590739","0.0-8.0-0.25","maa8axscqt","many_one","0","direct_first","1","le06er20","0","24","1","1","2","1","","0","1","0","6663.260000000242","","","","","neg","CS","CS","3","category3/CS7.png","-53","targets/12.png","direct","",""
"","image-slider-response","116","594617","0.0-8.0-0.26","maa8axscqt","many_one","0","direct_first","1","le06er20","0","24","1","1","2","1","","0","1","0","3871.8199999998324","","","","","pos","CS","CS","1","category1/CS2.png","-83","targets/27.png","direct","",""
"","image-slider-response","117","598861","0.0-8.0-0.27","maa8axscqt","many_one","0","direct_first","1","le06er20","0","24","1","1","2","1","","0","1","0","4237.70000000007","","","","","neg","GS","abstract","3","category3/wang.png","-96","targets/26.png","direct","",""
"","image-slider-response","118","605284","0.0-8.0-0.28","maa8axscqt","many_one","0","direct_first","1","le06er20","0","24","1","1","2","1","","0","1","0","6416.139999999781","","","","","neg","GS","GSold","4","category4/CS6.png","-14","targets/30.png","direct","",""
"","image-slider-response","119","609867","0.0-8.0-0.29","maa8axscqt","many_one","0","direct_first","1","le06er20","0","24","1","1","2","1","","0","1","0","4576.469999999972","","","","","pos","GS","GSold","2","category2/CS4.png","-11","targets/29.png","direct","",""
"","image-slider-response","120","613817","0.0-8.0-0.30","maa8axscqt","many_one","0","direct_first","1","le06er20","0","24","1","1","2","1","","0","1","0","3946.1099999998696","","","","","neg","CS","CS","3","category3/CS4.png","18","targets/10.png","direct","",""
"","image-slider-response","121","617627","0.0-8.0-0.31","maa8axscqt","many_one","0","direct_first","1","le06er20","0","24","1","1","2","1","","0","1","0","3805.950000000419","","","","","neg","CS","CS","3","category3/CS3.png","-35","targets/21.png","direct","",""
"","image-slider-response","122","621328","0.0-8.0-0.32","maa8axscqt","many_one","0","direct_first","1","le06er20","0","24","1","1","2","1","","0","1","0","3696.945000000065","","","","","pos","GS","GSold","1","category1/CS10.png","-80","targets/7.png","direct","",""
"","image-slider-response","123","626483","0.0-8.0-0.33","maa8axscqt","many_one","0","direct_first","1","le06er20","0","24","1","1","2","1","","0","1","0","5151.074999999721","","","","","pos","CS","CS","1","category1/CS9.png","45","targets/48.png","direct","",""
"","image-slider-response","124","630387","0.0-8.0-0.34","maa8axscqt","many_one","0","direct_first","1","le06er20","0","24","1","1","2","1","","0","1","0","3897.3299999998417","","","","","neg","GS","GSnew","4","category4/GS3.png","62","targets/11.png","direct","",""
"","image-slider-response","125","633986","0.0-8.0-0.35","maa8axscqt","many_one","0","direct_first","1","le06er20","0","24","1","1","2","1","","0","1","0","3594.875000000233","","","","","neg","CS","CS","4","category4/CS8.png","65","targets/34.png","direct","",""
"","image-slider-response","126","638395","0.0-8.0-0.36","maa8axscqt","many_one","0","direct_first","1","le06er20","0","24","1","1","2","1","","0","1","0","4402.824999999604","","","","","pos","GS","GSold","1","category1/CS7.png","75","targets/41.png","direct","",""
"","image-slider-response","127","642053","0.0-8.0-0.37","maa8axscqt","many_one","0","direct_first","1","le06er20","0","24","1","1","2","1","","0","1","0","3651.1099999998696","","","","","pos","GS","abstract","1","category1/ma.png","15","targets/44.png","direct","",""
"","image-slider-response","128","648361","0.0-8.0-0.38","maa8axscqt","many_one","0","direct_first","1","le06er20","0","24","1","1","2","1","","0","1","0","6304.0599999999395","","","","","neg","CS","CS","3","category3/CS9.png","5","targets/35.png","direct","",""
"","image-slider-response","129","652512","0.0-8.0-0.39","maa8axscqt","many_one","0","direct_first","1","le06er20","0","24","1","1","2","1","","0","1","0","4146.795000000158","","","","","neg","GS","abstract","4","category4/lin.png","58","targets/43.png","direct","",""
"","image-slider-response","130","657992","0.0-8.0-0.40","maa8axscqt","many_one","0","direct_first","1","le06er20","0","24","1","1","2","1","","0","1","0","5475.704999999725","","","","","pos","CS","CS","1","category1/CS4.png","-64","targets/20.png","direct","",""
"","image-slider-response","131","664425","0.0-8.0-0.41","maa8axscqt","many_one","0","direct_first","1","le06er20","0","24","1","1","2","1","","0","1","0","6426.314999999711","","","","","pos","GS","GSnew","2","category2/GS3.png","10","targets/45.png","direct","",""
"","image-slider-response","132","668378","0.0-8.0-0.42","maa8axscqt","many_one","0","direct_first","1","le06er20","0","24","1","1","2","1","","0","1","0","3948.2199999997392","","","","","pos","GS","GSnew","1","category1/GS2.png","-49","targets/47.png","direct","",""
"","image-slider-response","133","672454","0.0-8.0-0.43","maa8axscqt","many_one","0","direct_first","1","le06er20","0","24","1","1","2","1","","0","1","0","4071.910000000149","","","","","neg","GS","GSold","4","category4/CS2.png","4","targets/8.png","direct","",""
"","image-slider-response","134","677696","0.0-8.0-0.44","maa8axscqt","many_one","0","direct_first","1","le06er20","0","24","1","1","2","1","","0","1","0","5237.255000000005","","","","","neg","GS","GSold","3","category3/CS1.png","-8","targets/38.png","direct","",""
"","image-slider-response","135","683790","0.0-8.0-0.45","maa8axscqt","many_one","0","direct_first","1","le06er20","0","24","1","1","2","1","","0","1","0","6089.86500000034","","","","","pos","GS","GSnew","1","category1/GS1.png","-26","targets/33.png","direct","",""
"","image-slider-response","136","690306","0.0-8.0-0.46","maa8axscqt","many_one","0","direct_first","1","le06er20","0","24","1","1","2","1","","0","1","0","6510.52500000014","","","","","pos","CS","CS","2","category2/CS2.png","-52","targets/14.png","direct","",""
"","image-slider-response","137","694394","0.0-8.0-0.47","maa8axscqt","many_one","0","direct_first","1","le06er20","0","24","1","1","2","1","","0","1","0","4081.375000000233","","","","","neg","GS","GSnew","3","category3/GS1.png","-69","targets/32.png","direct","",""
"","html-keyboard-response","138","722637","0.0-9.0","maa8axscqt","many_one","0","direct_first","1","le06er20","0","24","1","1","2","1","","0","1","0","28239.355000000098","","","<p>Sie sehen nun die chinesischen Zeichen nur ganz kurz. Danach sehen Sie die jeweilige Aussprache der Zeichen als Silbe auf dem Bildschrim. Ihre Aufgabe ist es, für jede Silbe anzugeben, ob diese etwas angenehmes, oder unangenehmes bedeuten könnte. Verlassen Sie sich hier vor allem auf Ihre Intuition.<br><br>Die Zeichen werden nur zur Orientierung dargestellt, beachten Sie sie deshalb nicht. Konzentrieren Sie sich vor allem auf die Silben. <br>Reagieren Sie mit folgenden zwei Tasten: <br><br><b>'D' </b> wenn die Silbe etwas <b>unangenehmes</b> bedeuten könnte. <br><b>'K'</b> wenn die Silbe etwas <b>angenehmes</b> bedeuten könnte. <br><br>Bitte legen Sie nun den Zeigefinger der linken Hand auf die Taste 'D' und den Zeigefinger der rechten Hand auf die Taste 'K'. <br>Reagieren Sie auf jede Silbe so schnell wie möglich. Uns interessiert Ihre spontane Reaktion. <br> <br> <br>Drücken Sie 'D' oder 'K', um die nächste Aufgabe zu starten. </p>","75","","","","","","","","","",""
"","html-keyboard-response","139","725649","0.0-10.0-0.0","maa8axscqt","many_one","0","direct_first","1","le06er20","0","24","1","1","2","1","","0","1","0","null","","","<div style=""font-size:60px;"">+</div>","null","","","","","","","","","",""
"","html-keyboard-response","140","725757","0.0-10.0-1.0","maa8axscqt","many_one","0","direct_first","1","le06er20","0","24","1","1","2","1","","0","1","0","null","","","<img src = 'category3/CS10.png' width = '100%;'>","null","","","","","","","","","",""
"","html-keyboard-response","141","726022","0.0-10.0-2.0","maa8axscqt","many_one","0","direct_first","1","le06er20","0","24","1","1","2","1","","0","1","0","null","","","<img src = 'targets/28.png' width = '100%;'>","null","","","","","","","","","",""
"","html-keyboard-response","142","729514","0.0-10.0-3.0","maa8axscqt","many_one","0","direct_first","1","le06er20","0","24","1","1","2","1","","0","1","0","3485.8899999998976","","","<img src = 'targets/mask.png' width = '100%;'>","68","neg","GS","GSold","3","category3/CS10.png","","targets/28.png","indirect","0","0"
"","html-keyboard-response","143","731031","0.0-10.0-0.1","maa8axscqt","many_one","0","direct_first","1","le06er20","0","24","1","1","2","1","","0","1","0","null","","","<div style=""font-size:60px;"">+</div>","null","","","","","","","","","",""
"","html-keyboard-response","144","731126","0.0-10.0-1.1","maa8axscqt","many_one","0","direct_first","1","le06er20","0","24","1","1","2","1","","0","1","0","null","","","<img src = 'category2/CS1.png' width = '100%;'>","null","","","","","","","","","",""
"","html-keyboard-response","145","731398","0.0-10.0-2.1","maa8axscqt","many_one","0","direct_first","1","le06er20","0","24","1","1","2","1","","0","1","0","null","","","<img src = 'targets/23.png' width = '100%;'>","null","","","","","","","","","",""
"","html-keyboard-response","146","734626","0.0-10.0-3.1","maa8axscqt","many_one","0","direct_first","1","le06er20","0","24","1","1","2","1","","0","1","0","3222.895000000368","","","<img src = 'targets/mask.png' width = '100%;'>","75","pos","CS","CS","2","category2/CS1.png","","targets/23.png","indirect","1","1"
"","html-keyboard-response","147","736145","0.0-10.0-0.2","maa8axscqt","many_one","0","direct_first","1","le06er20","0","24","1","1","2","1","","0","1","0","null","","","<div style=""font-size:60px;"">+</div>","null","","","","","","","","","",""
"","html-keyboard-response","148","736240","0.0-10.0-1.2","maa8axscqt","many_one","0","direct_first","1","le06er20","0","24","1","1","2","1","","0","1","0","null","","","<img src = 'category1/CS6.png' width = '100%;'>","null","","","","","","","","","",""
"","html-keyboard-response","149","736522","0.0-10.0-2.2","maa8axscqt","many_one","0","direct_first","1","le06er20","0","24","1","1","2","1","","0","1","0","null","","","<img src = 'targets/37.png' width = '100%;'>","null","","","","","","","","","",""
"","html-keyboard-response","150","738662","0.0-10.0-3.2","maa8axscqt","many_one","0","direct_first","1","le06er20","0","24","1","1","2","1","","0","1","0","2134.6849999999395","","","<img src = 'targets/mask.png' width = '100%;'>","75","pos","CS","CS","1","category1/CS6.png","","targets/37.png","indirect","1","2"
"","html-keyboard-response","151","740172","0.0-10.0-0.3","maa8axscqt","many_one","0","direct_first","1","le06er20","0","24","1","1","2","1","","0","1","0","null","","","<div style=""font-size:60px;"">+</div>","null","","","","","","","","","",""
"","html-keyboard-response","152","740266","0.0-10.0-1.3","maa8axscqt","many_one","0","direct_first","1","le06er20","0","24","1","1","2","1","","0","1","0","null","","","<img src = 'category3/CS3.png' width = '100%;'>","null","","","","","","","","","",""
"","html-keyboard-response","153","740530","0.0-10.0-2.3","maa8axscqt","many_one","0","direct_first","1","le06er20","0","24","1","1","2","1","","0","1","0","null","","","<img src = 'targets/21.png' width = '100%;'>","null","","","","","","","","","",""
"","html-keyboard-response","154","741500","0.0-10.0-3.3","maa8axscqt","many_one","0","direct_first","1","le06er20","0","24","1","1","2","1","","0","1","0","965.9350000001723","","","<img src = 'targets/mask.png' width = '100%;'>","75","neg","CS","CS","3","category3/CS3.png","","targets/21.png","indirect","1","3"
"","html-keyboard-response","155","743008","0.0-10.0-0.4","maa8axscqt","many_one","0","direct_first","1","le06er20","0","24","1","1","2","1","","0","1","0","null","","","<div style=""font-size:60px;"">+</div>","null","","","","","","","","","",""
"","html-keyboard-response","156","743100","0.0-10.0-1.4","maa8axscqt","many_one","0","direct_first","1","le06er20","0","24","1","1","2","1","","0","1","0","null","","","<img src = 'category3/CS6.png' width = '100%;'>","null","","","","","","","","","",""
"","html-keyboard-response","157","743361","0.0-10.0-2.4","maa8axscqt","many_one","0","direct_first","1","le06er20","0","24","1","1","2","1","","0","1","0","null","","","<img src = 'targets/2.png' width = '100%;'>","null","","","","","","","","","",""
"","html-keyboard-response","158","746750","0.0-10.0-3.4","maa8axscqt","many_one","0","direct_first","1","le06er20","0","24","1","1","2","1","","0","1","0","3382.1700000002747","","","<img src = 'targets/mask.png' width = '100%;'>","75","neg","CS","CS","3","category3/CS6.png","","targets/2.png","indirect","1","4"
"","html-keyboard-response","159","748267","0.0-10.0-0.5","maa8axscqt","many_one","0","direct_first","1","le06er20","0","24","1","1","2","1","","0","1","0","null","","","<div style=""font-size:60px;"">+</div>","null","","","","","","","","","",""
"","html-keyboard-response","160","748364","0.0-10.0-1.5","maa8axscqt","many_one","0","direct_first","1","le06er20","0","24","1","1","2","1","","0","1","0","null","","","<img src = 'category4/CS3.png' width = '100%;'>","null","","","","","","","","","",""
"","html-keyboard-response","161","748617","0.0-10.0-2.5","maa8axscqt","many_one","0","direct_first","1","le06er20","0","24","1","1","2","1","","0","1","0","null","","","<img src = 'targets/4.png' width = '100%;'>","null","","","","","","","","","",""
"","html-keyboard-response","162","749355","0.0-10.0-3.5","maa8axscqt","many_one","0","direct_first","1","le06er20","0","24","1","1","2","1","","0","1","0","733.3600000001024","","","<img src = 'targets/mask.png' width = '100%;'>","68","neg","CS","CS","4","category4/CS3.png","","targets/4.png","indirect","0","5"
"","html-keyboard-response","163","750880","0.0-10.0-0.6","maa8axscqt","many_one","0","direct_first","1","le06er20","0","24","1","1","2","1","","0","1","0","null","","","<div style=""font-size:60px;"">+</div>","null","","","","","","","","","",""
"","html-keyboard-response","164","750988","0.0-10.0-1.6","maa8axscqt","many_one","0","direct_first","1","le06er20","0","24","1","1","2","1","","0","1","0","null","","","<img src = 'category1/CS2.png' width = '100%;'>","null","","","","","","","","","",""
"","html-keyboard-response","165","751241","0.0-10.0-2.6","maa8axscqt","many_one","0","direct_first","1","le06er20","0","24","1","1","2","1","","0","1","0","null","","","<img src = 'targets/27.png' width = '100%;'>","null","","","","","","","","","",""
"","html-keyboard-response","166","753376","0.0-10.0-3.6","maa8axscqt","many_one","0","direct_first","1","le06er20","0","24","1","1","2","1","","0","1","0","2131.005000000121","","","<img src = 'targets/mask.png' width = '100%;'>","75","pos","CS","CS","1","category1/CS2.png","","targets/27.png","indirect","1","6"
"","html-keyboard-response","167","754890","0.0-10.0-0.7","maa8axscqt","many_one","0","direct_first","1","le06er20","0","24","1","1","2","1","","0","1","0","null","","","<div style=""font-size:60px;"">+</div>","null","","","","","","","","","",""
"","html-keyboard-response","168","754992","0.0-10.0-1.7","maa8axscqt","many_one","0","direct_first","1","le06er20","0","24","1","1","2","1","","0","1","0","null","","","<img src = 'category3/CS9.png' width = '100%;'>","null","","","","","","","","","",""
"","html-keyboard-response","169","755249","0.0-10.0-2.7","maa8axscqt","many_one","0","direct_first","1","le06er20","0","24","1","1","2","1","","0","1","0","null","","","<img src = 'targets/35.png' width = '100%;'>","null","","","","","","","","","",""
"","html-keyboard-response","170","756330","0.0-10.0-3.7","maa8axscqt","many_one","0","direct_first","1","le06er20","0","24","1","1","2","1","","0","1","0","1077.229999999865","","","<img src = 'targets/mask.png' width = '100%;'>","68","neg","CS","CS","3","category3/CS9.png","","targets/35.png","indirect","0","7"
"","html-keyboard-response","171","757841","0.0-10.0-0.8","maa8axscqt","many_one","0","direct_first","1","le06er20","0","24","1","1","2","1","","0","1","0","null","","","<div style=""font-size:60px;"">+</div>","null","","","","","","","","","",""
"","html-keyboard-response","172","757936","0.0-10.0-1.8","maa8axscqt","many_one","0","direct_first","1","le06er20","0","24","1","1","2","1","","0","1","0","null","","","<img src = 'category3/CS4.png' width = '100%;'>","null","","","","","","","","","",""
"","html-keyboard-response","173","758203","0.0-10.0-2.8","maa8axscqt","many_one","0","direct_first","1","le06er20","0","24","1","1","2","1","","0","1","0","null","","","<img src = 'targets/10.png' width = '100%;'>","null","","","","","","","","","",""
"","html-keyboard-response","174","759192","0.0-10.0-3.8","maa8axscqt","many_one","0","direct_first","1","le06er20","0","24","1","1","2","1","","0","1","0","986.9650000000838","","","<img src = 'targets/mask.png' width = '100%;'>","68","neg","CS","CS","3","category3/CS4.png","","targets/10.png","indirect","0","8"
"","html-keyboard-response","175","760707","0.0-10.0-0.9","maa8axscqt","many_one","0","direct_first","1","le06er20","0","24","1","1","2","1","","0","1","0","null","","","<div style=""font-size:60px;"">+</div>","null","","","","","","","","","",""
"","html-keyboard-response","176","760800","0.0-10.0-1.9","maa8axscqt","many_one","0","direct_first","1","le06er20","0","24","1","1","2","1","","0","1","0","null","","","<img src = 'category2/CS2.png' width = '100%;'>","null","","","","","","","","","",""
"","html-keyboard-response","177","761071","0.0-10.0-2.9","maa8axscqt","many_one","0","direct_first","1","le06er20","0","24","1","1","2","1","","0","1","0","null","","","<img src = 'targets/14.png' width = '100%;'>","null","","","","","","","","","",""
"","html-keyboard-response","178","761971","0.0-10.0-3.9","maa8axscqt","many_one","0","direct_first","1","le06er20","0","24","1","1","2","1","","0","1","0","896.6249999998836","","","<img src = 'targets/mask.png' width = '100%;'>","68","pos","CS","CS","2","category2/CS2.png","","targets/14.png","indirect","0","9"
"","html-keyboard-response","179","763482","0.0-10.0-0.10","maa8axscqt","many_one","0","direct_first","1","le06er20","0","24","1","1","2","1","","0","1","0","null","","","<div style=""font-size:60px;"">+</div>","null","","","","","","","","","",""
"","html-keyboard-response","180","763576","0.0-10.0-1.10","maa8axscqt","many_one","0","direct_first","1","le06er20","0","24","1","1","2","1","","0","1","0","null","","","<img src = 'category4/CS7.png' width = '100%;'>","null","","","","","","","","","",""
"","html-keyboard-response","181","763846","0.0-10.0-2.10","maa8axscqt","many_one","0","direct_first","1","le06er20","0","24","1","1","2","1","","0","1","0","null","","","<img src = 'targets/42.png' width = '100%;'>","null","","","","","","","","","",""
"","html-keyboard-response","182","765439","0.0-10.0-3.10","maa8axscqt","many_one","0","direct_first","1","le06er20","0","24","1","1","2","1","","0","1","0","1588.7050000000745","","","<img src = 'targets/mask.png' width = '100%;'>","75","neg","CS","CS","4","category4/CS7.png","","targets/42.png","indirect","1","10"
"","html-keyboard-response","183","766960","0.0-10.0-0.11","maa8axscqt","many_one","0","direct_first","1","le06er20","0","24","1","1","2","1","","0","1","0","null","","","<div style=""font-size:60px;"">+</div>","null","","","","","","","","","",""
"","html-keyboard-response","184","767066","0.0-10.0-1.11","maa8axscqt","many_one","0","direct_first","1","le06er20","0","24","1","1","2","1","","0","1","0","null","","","<img src = 'category1/CS3.png' width = '100%;'>","null","","","","","","","","","",""
"","html-keyboard-response","185","767324","0.0-10.0-2.11","maa8axscqt","many_one","0","direct_first","1","le06er20","0","24","1","1","2","1","","0","1","0","null","","","<img src = 'targets/46.png' width = '100%;'>","null","","","","","","","","","",""
"","html-keyboard-response","186","767986","0.0-10.0-3.11","maa8axscqt","many_one","0","direct_first","1","le06er20","0","24","1","1","2","1","","0","1","0","656.675000000163","","","<img src = 'targets/mask.png' width = '100%;'>","75","pos","CS","CS","1","category1/CS3.png","","targets/46.png","indirect","1","11"
"","html-keyboard-response","187","769508","0.0-10.0-0.12","maa8axscqt","many_one","0","direct_first","1","le06er20","0","24","1","1","2","1","","0","1","0","null","","","<div style=""font-size:60px;"">+</div>","null","","","","","","","","","",""
"","html-keyboard-response","188","769603","0.0-10.0-1.12","maa8axscqt","many_one","0","direct_first","1","le06er20","0","24","1","1","2","1","","0","1","0","null","","","<img src = 'category3/CS7.png' width = '100%;'>","null","","","","","","","","","",""
"","html-keyboard-response","189","769858","0.0-10.0-2.12","maa8axscqt","many_one","0","direct_first","1","le06er20","0","24","1","1","2","1","","0","1","0","null","","","<img src = 'targets/12.png' width = '100%;'>","null","","","","","","","","","",""
"","html-keyboard-response","190","771031","0.0-10.0-3.12","maa8axscqt","many_one","0","direct_first","1","le06er20","0","24","1","1","2","1","","0","1","0","1170.0200000000186","","","<img src = 'targets/mask.png' width = '100%;'>","75","neg","CS","CS","3","category3/CS7.png","","targets/12.png","indirect","1","12"
"","html-keyboard-response","191","772553","0.0-10.0-0.13","maa8axscqt","many_one","0","direct_first","1","le06er20","0","24","1","1","2","1","","0","1","0","null","","","<div style=""font-size:60px;"">+</div>","null","","","","","","","","","",""
"","html-keyboard-response","192","772654","0.0-10.0-1.13","maa8axscqt","many_one","0","direct_first","1","le06er20","0","24","1","1","2","1","","0","1","0","null","","","<img src = 'category2/CS8.png' width = '100%;'>","null","","","","","","","","","",""
"","html-keyboard-response","193","772925","0.0-10.0-2.13","maa8axscqt","many_one","0","direct_first","1","le06er20","0","24","1","1","2","1","","0","1","0","null","","","<img src = 'targets/17.png' width = '100%;'>","null","","","","","","","","","",""
"","html-keyboard-response","194","773452","0.0-10.0-3.13","maa8axscqt","many_one","0","direct_first","1","le06er20","0","24","1","1","2","1","","0","1","0","524.1750000000466","","","<img src = 'targets/mask.png' width = '100%;'>","68","pos","CS","CS","2","category2/CS8.png","","targets/17.png","indirect","0","13"
"","html-keyboard-response","195","774972","0.0-10.0-0.14","maa8axscqt","many_one","0","direct_first","1","le06er20","0","24","1","1","2","1","","0","1","0","null","","","<div style=""font-size:60px;"">+</div>","null","","","","","","","","","",""
"","html-keyboard-response","196","775074","0.0-10.0-1.14","maa8axscqt","many_one","0","direct_first","1","le06er20","0","24","1","1","2","1","","0","1","0","null","","","<img src = 'category2/CS9.png' width = '100%;'>","null","","","","","","","","","",""
"","html-keyboard-response","197","775338","0.0-10.0-2.14","maa8axscqt","many_one","0","direct_first","1","le06er20","0","24","1","1","2","1","","0","1","0","null","","","<img src = 'targets/40.png' width = '100%;'>","null","","","","","","","","","",""
"","html-keyboard-response","198","776082","0.0-10.0-3.14","maa8axscqt","many_one","0","direct_first","1","le06er20","0","24","1","1","2","1","","0","1","0","741.4699999998556","","","<img src = 'targets/mask.png' width = '100%;'>","68","pos","CS","CS","2","category2/CS9.png","","targets/40.png","indirect","0","14"
"","html-keyboard-response","199","777596","0.0-10.0-0.15","maa8axscqt","many_one","0","direct_first","1","le06er20","0","24","1","1","2","1","","0","1","0","null","","","<div style=""font-size:60px;"">+</div>","null","","","","","","","","","",""
"","html-keyboard-response","200","777690","0.0-10.0-1.15","maa8axscqt","many_one","0","direct_first","1","le06er20","0","24","1","1","2","1","","0","1","0","null","","","<img src = 'category1/CS9.png' width = '100%;'>","null","","","","","","","","","",""
"","html-keyboard-response","201","777962","0.0-10.0-2.15","maa8axscqt","many_one","0","direct_first","1","le06er20","0","24","1","1","2","1","","0","1","0","null","","","<img src = 'targets/48.png' width = '100%;'>","null","","","","","","","","","",""
"","html-keyboard-response","202","779946","0.0-10.0-3.15","maa8axscqt","many_one","0","direct_first","1","le06er20","0","24","1","1","2","1","","0","1","0","1980.6900000002934","","","<img src = 'targets/mask.png' width = '100%;'>","75","pos","CS","CS","1","category1/CS9.png","","targets/48.png","indirect","1","15"
"","html-keyboard-response","203","781463","0.0-10.0-0.16","maa8axscqt","many_one","0","direct_first","1","le06er20","0","24","1","1","2","1","","0","1","0","null","","","<div style=""font-size:60px;"">+</div>","null","","","","","","","","","",""
"","html-keyboard-response","204","781566","0.0-10.0-1.16","maa8axscqt","many_one","0","direct_first","1","le06er20","0","24","1","1","2","1","","0","1","0","null","","","<img src = 'category3/CS1.png' width = '100%;'>","null","","","","","","","","","",""
"","html-keyboard-response","205","781831","0.0-10.0-2.16","maa8axscqt","many_one","0","direct_first","1","le06er20","0","24","1","1","2","1","","0","1","0","null","","","<img src = 'targets/38.png' width = '100%;'>","null","","","","","","","","","",""
"","html-keyboard-response","206","783720","0.0-10.0-3.16","maa8axscqt","many_one","0","direct_first","1","le06er20","0","24","1","1","2","1","","0","1","0","1885.5750000003027","","","<img src = 'targets/mask.png' width = '100%;'>","75","neg","GS","GSold","3","category3/CS1.png","","targets/38.png","indirect","1","16"
"","html-keyboard-response","207","785237","0.0-10.0-0.17","maa8axscqt","many_one","0","direct_first","1","le06er20","0","24","1","1","2","1","","0","1","0","null","","","<div style=""font-size:60px;"">+</div>","null","","","","","","","","","",""
"","html-keyboard-response","208","785332","0.0-10.0-1.17","maa8axscqt","many_one","0","direct_first","1","le06er20","0","24","1","1","2","1","","0","1","0","null","","","<img src = 'category4/CS9.png' width = '100%;'>","null","","","","","","","","","",""
"","html-keyboard-response","209","785607","0.0-10.0-2.17","maa8axscqt","many_one","0","direct_first","1","le06er20","0","24","1","1","2","1","","0","1","0","null","","","<img src = 'targets/1.png' width = '100%;'>","null","","","","","","","","","",""
"","html-keyboard-response","210","786503","0.0-10.0-3.17","maa8axscqt","many_one","0","direct_first","1","le06er20","0","24","1","1","2","1","","0","1","0","893.2199999999721","","","<img src = 'targets/mask.png' width = '100%;'>","68","neg","CS","CS","4","category4/CS9.png","","targets/1.png","indirect","0","17"
"","html-keyboard-response","211","788020","0.0-10.0-0.18","maa8axscqt","many_one","0","direct_first","1","le06er20","0","24","1","1","2","1","","0","1","0","null","","","<div style=""font-size:60px;"">+</div>","null","","","","","","","","","",""
"","html-keyboard-response","212","788113","0.0-10.0-1.18","maa8axscqt","many_one","0","direct_first","1","le06er20","0","24","1","1","2","1","","0","1","0","null","","","<img src = 'category4/CS10.png' width = '100%;'>","null","","","","","","","","","",""
"","html-keyboard-response","213","788388","0.0-10.0-2.18","maa8axscqt","many_one","0","direct_first","1","le06er20","0","24","1","1","2","1","","0","1","0","null","","","<img src = 'targets/13.png' width = '100%;'>","null","","","","","","","","","",""
"","html-keyboard-response","214","788929","0.0-10.0-3.18","maa8axscqt","many_one","0","direct_first","1","le06er20","0","24","1","1","2","1","","0","1","0","538.2949999998091","","","<img src = 'targets/mask.png' width = '100%;'>","68","neg","CS","CS","4","category4/CS10.png","","targets/13.png","indirect","0","18"
"","html-keyboard-response","215","790448","0.0-10.0-0.19","maa8axscqt","many_one","0","direct_first","1","le06er20","0","24","1","1","2","1","","0","1","0","null","","","<div style=""font-size:60px;"">+</div>","null","","","","","","","","","",""
"","html-keyboard-response","216","790543","0.0-10.0-1.19","maa8axscqt","many_one","0","direct_first","1","le06er20","0","24","1","1","2","1","","0","1","0","null","","","<img src = 'category2/CS5.png' width = '100%;'>","null","","","","","","","","","",""
"","html-keyboard-response","217","790812","0.0-10.0-2.19","maa8axscqt","many_one","0","direct_first","1","le06er20","0","24","1","1","2","1","","0","1","0","null","","","<img src = 'targets/24.png' width = '100%;'>","null","","","","","","","","","",""
"","html-keyboard-response","218","792221","0.0-10.0-3.19","maa8axscqt","many_one","0","direct_first","1","le06er20","0","24","1","1","2","1","","0","1","0","1406.1150000002235","","","<img src = 'targets/mask.png' width = '100%;'>","68","pos","CS","CS","2","category2/CS5.png","","targets/24.png","indirect","0","19"
"","html-keyboard-response","219","793745","0.0-10.0-0.20","maa8axscqt","many_one","0","direct_first","1","le06er20","0","24","1","1","2","1","","0","1","0","null","","","<div style=""font-size:60px;"">+</div>","null","","","","","","","","","",""
"","html-keyboard-response","220","793839","0.0-10.0-1.20","maa8axscqt","many_one","0","direct_first","1","le06er20","0","24","1","1","2","1","","0","1","0","null","","","<img src = 'category1/CS4.png' width = '100%;'>","null","","","","","","","","","",""
"","html-keyboard-response","221","794108","0.0-10.0-2.20","maa8axscqt","many_one","0","direct_first","1","le06er20","0","24","1","1","2","1","","0","1","0","null","","","<img src = 'targets/20.png' width = '100%;'>","null","","","","","","","","","",""
"","html-keyboard-response","222","797388","0.0-10.0-3.20","maa8axscqt","many_one","0","direct_first","1","le06er20","0","24","1","1","2","1","","0","1","0","3278.039999999688","","","<img src = 'targets/mask.png' width = '100%;'>","68","pos","CS","CS","1","category1/CS4.png","","targets/20.png","indirect","0","20"
"","html-keyboard-response","223","798905","0.0-10.0-0.21","maa8axscqt","many_one","0","direct_first","1","le06er20","0","24","1","1","2","1","","0","1","0","null","","","<div style=""font-size:60px;"">+</div>","null","","","","","","","","","",""
"","html-keyboard-response","224","799015","0.0-10.0-1.21","maa8axscqt","many_one","0","direct_first","1","le06er20","0","24","1","1","2","1","","0","1","0","null","","","<img src = 'category3/CS5.png' width = '100%;'>","null","","","","","","","","","",""
"","html-keyboard-response","225","799280","0.0-10.0-2.21","maa8axscqt","many_one","0","direct_first","1","le06er20","0","24","1","1","2","1","","0","1","0","null","","","<img src = 'targets/31.png' width = '100%;'>","null","","","","","","","","","",""
"","html-keyboard-response","226","799895","0.0-10.0-3.21","maa8axscqt","many_one","0","direct_first","1","le06er20","0","24","1","1","2","1","","0","1","0","611.5700000000652","","","<img src = 'targets/mask.png' width = '100%;'>","75","neg","GS","GSold","3","category3/CS5.png","","targets/31.png","indirect","1","21"
"","html-keyboard-response","227","801399","0.0-10.0-0.22","maa8axscqt","many_one","0","direct_first","1","le06er20","0","24","1","1","2","1","","0","1","0","null","","","<div style=""font-size:60px;"">+</div>","null","","","","","","","","","",""
"","html-keyboard-response","228","801491","0.0-10.0-1.22","maa8axscqt","many_one","0","direct_first","1","le06er20","0","24","1","1","2","1","","0","1","0","null","","","<img src = 'category1/CS7.png' width = '100%;'>","null","","","","","","","","","",""
"","html-keyboard-response","229","801765","0.0-10.0-2.22","maa8axscqt","many_one","0","direct_first","1","le06er20","0","24","1","1","2","1","","0","1","0","null","","","<img src = 'targets/41.png' width = '100%;'>","null","","","","","","","","","",""
"","html-keyboard-response","230","803276","0.0-10.0-3.22","maa8axscqt","many_one","0","direct_first","1","le06er20","0","24","1","1","2","1","","0","1","0","1508.3250000003027","","","<img src = 'targets/mask.png' width = '100%;'>","68","pos","GS","GSold","1","category1/CS7.png","","targets/41.png","indirect","0","22"
"","html-keyboard-response","231","804797","0.0-10.0-0.23","maa8axscqt","many_one","0","direct_first","1","le06er20","0","24","1","1","2","1","","0","1","0","null","","","<div style=""font-size:60px;"">+</div>","null","","","","","","","","","",""
"","html-keyboard-response","232","804891","0.0-10.0-1.23","maa8axscqt","many_one","0","direct_first","1","le06er20","0","24","1","1","2","1","","0","1","0","null","","","<img src = 'category4/CS8.png' width = '100%;'>","null","","","","","","","","","",""
"","html-keyboard-response","233","805161","0.0-10.0-2.23","maa8axscqt","many_one","0","direct_first","1","le06er20","0","24","1","1","2","1","","0","1","0","null","","","<img src = 'targets/34.png' width = '100%;'>","null","","","","","","","","","",""
"","html-keyboard-response","234","809348","0.0-10.0-3.23","maa8axscqt","many_one","0","direct_first","1","le06er20","0","24","1","1","2","1","","0","1","0","4182.084999999963","","","<img src = 'targets/mask.png' width = '100%;'>","75","neg","CS","CS","4","category4/CS8.png","","targets/34.png","indirect","1","23"
"","survey-html-form","235","816240","0.0-11.0","maa8axscqt","many_one","0","direct_first","1","le06er20","0","24","1","1","2","1","","0","1","0","6377.010000000242","","{}","","","","","","","","","","","",""
"","html-keyboard-response","236","819271","0.0-12.0-0.0","maa8axscqt","many_one","0","direct_first","1","le06er20","0","24","1","1","2","1","","0","1","0","null","","","<div style=""font-size:60px;"">+</div>","null","","","","","","","","","",""
"","html-keyboard-response","237","819373","0.0-12.0-1.0","maa8axscqt","many_one","0","direct_first","1","le06er20","0","24","1","1","2","1","","0","1","0","null","","","<img src = 'category2/GS3.png' width = '100%;'>","null","","","","","","","","","",""
"","html-keyboard-response","238","819640","0.0-12.0-2.0","maa8axscqt","many_one","0","direct_first","1","le06er20","0","24","1","1","2","1","","0","1","0","null","","","<img src = 'targets/45.png' width = '100%;'>","null","","","","","","","","","",""
"","html-keyboard-response","239","821197","0.0-12.0-3.0","maa8axscqt","many_one","0","direct_first","1","le06er20","0","24","1","1","2","1","","0","1","0","1551.5700000000652","","","<img src = 'targets/mask.png' width = '100%;'>","68","pos","GS","GSnew","2","category2/GS3.png","","targets/45.png","indirect","0","24"
"","html-keyboard-response","240","822713","0.0-12.0-0.1","maa8axscqt","many_one","0","direct_first","1","le06er20","0","24","1","1","2","1","","0","1","0","null","","","<div style=""font-size:60px;"">+</div>","null","","","","","","","","","",""
"","html-keyboard-response","241","822816","0.0-12.0-1.1","maa8axscqt","many_one","0","direct_first","1","le06er20","0","24","1","1","2","1","","0","1","0","null","","","<img src = 'category4/CS2.png' width = '100%;'>","null","","","","","","","","","",""
"","html-keyboard-response","242","823098","0.0-12.0-2.1","maa8axscqt","many_one","0","direct_first","1","le06er20","0","24","1","1","2","1","","0","1","0","null","","","<img src = 'targets/8.png' width = '100%;'>","null","","","","","","","","","",""
"","html-keyboard-response","243","824066","0.0-12.0-3.1","maa8axscqt","many_one","0","direct_first","1","le06er20","0","24","1","1","2","1","","0","1","0","965.1699999999255","","","<img src = 'targets/mask.png' width = '100%;'>","75","neg","GS","GSold","4","category4/CS2.png","","targets/8.png","indirect","1","25"
"","html-keyboard-response","244","825583","0.0-12.0-0.2","maa8axscqt","many_one","0","direct_first","1","le06er20","0","24","1","1","2","1","","0","1","0","null","","","<div style=""font-size:60px;"">+</div>","null","","","","","","","","","",""
"","html-keyboard-response","245","825678","0.0-12.0-1.2","maa8axscqt","many_one","0","direct_first","1","le06er20","0","24","1","1","2","1","","0","1","0","null","","","<img src = 'category1/CS10.png' width = '100%;'>","null","","","","","","","","","",""
"","html-keyboard-response","246","825944","0.0-12.0-2.2","maa8axscqt","many_one","0","direct_first","1","le06er20","0","24","1","1","2","1","","0","1","0","null","","","<img src = 'targets/7.png' width = '100%;'>","null","","","","","","","","","",""
"","html-keyboard-response","247","828040","0.0-12.0-3.2","maa8axscqt","many_one","0","direct_first","1","le06er20","0","24","1","1","2","1","","0","1","0","2090.0400000000373","","","<img src = 'targets/mask.png' width = '100%;'>","68","pos","GS","GSold","1","category1/CS10.png","","targets/7.png","indirect","0","26"
"","html-keyboard-response","248","829554","0.0-12.0-0.3","maa8axscqt","many_one","0","direct_first","1","le06er20","0","24","1","1","2","1","","0","1","0","null","","","<div style=""font-size:60px;"">+</div>","null","","","","","","","","","",""
"","html-keyboard-response","249","829656","0.0-12.0-1.3","maa8axscqt","many_one","0","direct_first","1","le06er20","0","24","1","1","2","1","","0","1","0","null","","","<img src = 'category2/GS1.png' width = '100%;'>","null","","","","","","","","","",""
"","html-keyboard-response","250","829919","0.0-12.0-2.3","maa8axscqt","many_one","0","direct_first","1","le06er20","0","24","1","1","2","1","","0","1","0","null","","","<img src = 'targets/36.png' width = '100%;'>","null","","","","","","","","","",""
"","html-keyboard-response","251","830618","0.0-12.0-3.3","maa8axscqt","many_one","0","direct_first","1","le06er20","0","24","1","1","2","1","","0","1","0","695.6399999998976","","","<img src = 'targets/mask.png' width = '100%;'>","68","pos","GS","GSnew","2","category2/GS1.png","","targets/36.png","indirect","0","27"
"","html-keyboard-response","252","832141","0.0-12.0-0.4","maa8axscqt","many_one","0","direct_first","1","le06er20","0","24","1","1","2","1","","0","1","0","null","","","<div style=""font-size:60px;"">+</div>","null","","","","","","","","","",""
"","html-keyboard-response","253","832249","0.0-12.0-1.4","maa8axscqt","many_one","0","direct_first","1","le06er20","0","24","1","1","2","1","","0","1","0","null","","","<img src = 'category4/CS5.png' width = '100%;'>","null","","","","","","","","","",""
"","html-keyboard-response","254","832517","0.0-12.0-2.4","maa8axscqt","many_one","0","direct_first","1","le06er20","0","24","1","1","2","1","","0","1","0","null","","","<img src = 'targets/6.png' width = '100%;'>","null","","","","","","","","","",""
"","html-keyboard-response","255","833910","0.0-12.0-3.4","maa8axscqt","many_one","0","direct_first","1","le06er20","0","24","1","1","2","1","","0","1","0","1387.7600000001257","","","<img src = 'targets/mask.png' width = '100%;'>","68","neg","GS","GSold","4","category4/CS5.png","","targets/6.png","indirect","0","28"
"","html-keyboard-response","256","835439","0.0-12.0-0.5","maa8axscqt","many_one","0","direct_first","1","le06er20","0","24","1","1","2","1","","0","1","0","null","","","<div style=""font-size:60px;"">+</div>","null","","","","","","","","","",""
"","html-keyboard-response","257","835533","0.0-12.0-1.5","maa8axscqt","many_one","0","direct_first","1","le06er20","0","24","1","1","2","1","","0","1","0","null","","","<img src = 'category4/GS3.png' width = '100%;'>","null","","","","","","","","","",""
"","html-keyboard-response","258","835810","0.0-12.0-2.5","maa8axscqt","many_one","0","direct_first","1","le06er20","0","24","1","1","2","1","","0","1","0","null","","","<img src = 'targets/11.png' width = '100%;'>","null","","","","","","","","","",""
"","html-keyboard-response","259","837004","0.0-12.0-3.5","maa8axscqt","many_one","0","direct_first","1","le06er20","0","24","1","1","2","1","","0","1","0","1191.5650000000605","","","<img src = 'targets/mask.png' width = '100%;'>","75","neg","GS","GSnew","4","category4/GS3.png","","targets/11.png","indirect","1","29"
"","html-keyboard-response","260","838532","0.0-12.0-0.6","maa8axscqt","many_one","0","direct_first","1","le06er20","0","24","1","1","2","1","","0","1","0","null","","","<div style=""font-size:60px;"">+</div>","null","","","","","","","","","",""
"","html-keyboard-response","261","838640","0.0-12.0-1.6","maa8axscqt","many_one","0","direct_first","1","le06er20","0","24","1","1","2","1","","0","1","0","null","","","<img src = 'category1/CS8.png' width = '100%;'>","null","","","","","","","","","",""
"","html-keyboard-response","262","838922","0.0-12.0-2.6","maa8axscqt","many_one","0","direct_first","1","le06er20","0","24","1","1","2","1","","0","1","0","null","","","<img src = 'targets/15.png' width = '100%;'>","null","","","","","","","","","",""
"","html-keyboard-response","263","839821","0.0-12.0-3.6","maa8axscqt","many_one","0","direct_first","1","le06er20","0","24","1","1","2","1","","0","1","0","896.6249999998836","","","<img src = 'targets/mask.png' width = '100%;'>","68","pos","GS","GSold","1","category1/CS8.png","","targets/15.png","indirect","0","30"
"","html-keyboard-response","264","841349","0.0-12.0-0.7","maa8axscqt","many_one","0","direct_first","1","le06er20","0","24","1","1","2","1","","0","1","0","null","","","<div style=""font-size:60px;"">+</div>","null","","","","","","","","","",""
"","html-keyboard-response","265","841442","0.0-12.0-1.7","maa8axscqt","many_one","0","direct_first","1","le06er20","0","24","1","1","2","1","","0","1","0","null","","","<img src = 'category3/GS2.png' width = '100%;'>","null","","","","","","","","","",""
"","html-keyboard-response","266","841714","0.0-12.0-2.7","maa8axscqt","many_one","0","direct_first","1","le06er20","0","24","1","1","2","1","","0","1","0","null","","","<img src = 'targets/5.png' width = '100%;'>","null","","","","","","","","","",""
"","html-keyboard-response","267","843598","0.0-12.0-3.7","maa8axscqt","many_one","0","direct_first","1","le06er20","0","24","1","1","2","1","","0","1","0","1881.0799999996088","","","<img src = 'targets/mask.png' width = '100%;'>","68","neg","GS","GSnew","3","category3/GS2.png","","targets/5.png","indirect","0","31"
"","html-keyboard-response","268","845118","0.0-12.0-0.8","maa8axscqt","many_one","0","direct_first","1","le06er20","0","24","1","1","2","1","","0","1","0","null","","","<div style=""font-size:60px;"">+</div>","null","","","","","","","","","",""
"","html-keyboard-response","269","845211","0.0-12.0-1.8","maa8axscqt","many_one","0","direct_first","1","le06er20","0","24","1","1","2","1","","0","1","0","null","","","<img src = 'category4/GS2.png' width = '100%;'>","null","","","","","","","","","",""
"","html-keyboard-response","270","845495","0.0-12.0-2.8","maa8axscqt","many_one","0","direct_first","1","le06er20","0","24","1","1","2","1","","0","1","0","null","","","<img src = 'targets/18.png' width = '100%;'>","null","","","","","","","","","",""
"","html-keyboard-response","271","846026","0.0-12.0-3.8","maa8axscqt","many_one","0","direct_first","1","le06er20","0","24","1","1","2","1","","0","1","0","528.8999999997905","","","<img src = 'targets/mask.png' width = '100%;'>","68","neg","GS","GSnew","4","category4/GS2.png","","targets/18.png","indirect","0","32"
"","html-keyboard-response","272","847545","0.0-12.0-0.9","maa8axscqt","many_one","0","direct_first","1","le06er20","0","24","1","1","2","1","","0","1","0","null","","","<div style=""font-size:60px;"">+</div>","null","","","","","","","","","",""
"","html-keyboard-response","273","847647","0.0-12.0-1.9","maa8axscqt","many_one","0","direct_first","1","le06er20","0","24","1","1","2","1","","0","1","0","null","","","<img src = 'category2/CS10.png' width = '100%;'>","null","","","","","","","","","",""
"","html-keyboard-response","274","847922","0.0-12.0-2.9","maa8axscqt","many_one","0","direct_first","1","le06er20","0","24","1","1","2","1","","0","1","0","null","","","<img src = 'targets/39.png' width = '100%;'>","null","","","","","","","","","",""
"","html-keyboard-response","275","848699","0.0-12.0-3.9","maa8axscqt","many_one","0","direct_first","1","le06er20","0","24","1","1","2","1","","0","1","0","771.680000000284","","","<img src = 'targets/mask.png' width = '100%;'>","75","pos","GS","GSold","2","category2/CS10.png","","targets/39.png","indirect","1","33"
"","html-keyboard-response","276","850218","0.0-12.0-0.10","maa8axscqt","many_one","0","direct_first","1","le06er20","0","24","1","1","2","1","","0","1","0","null","","","<div style=""font-size:60px;"">+</div>","null","","","","","","","","","",""
"","html-keyboard-response","277","850327","0.0-12.0-1.10","maa8axscqt","many_one","0","direct_first","1","le06er20","0","24","1","1","2","1","","0","1","0","null","","","<img src = 'category2/GS2.png' width = '100%;'>","null","","","","","","","","","",""
"","html-keyboard-response","278","850587","0.0-12.0-2.10","maa8axscqt","many_one","0","direct_first","1","le06er20","0","24","1","1","2","1","","0","1","0","null","","","<img src = 'targets/19.png' width = '100%;'>","null","","","","","","","","","",""
"","html-keyboard-response","279","851447","0.0-12.0-3.10","maa8axscqt","many_one","0","direct_first","1","le06er20","0","24","1","1","2","1","","0","1","0","857.3449999999721","","","<img src = 'targets/mask.png' width = '100%;'>","68","pos","GS","GSnew","2","category2/GS2.png","","targets/19.png","indirect","0","34"
"","html-keyboard-response","280","852973","0.0-12.0-0.11","maa8axscqt","many_one","0","direct_first","1","le06er20","0","24","1","1","2","1","","0","1","0","null","","","<div style=""font-size:60px;"">+</div>","null","","","","","","","","","",""
"","html-keyboard-response","281","853081","0.0-12.0-1.11","maa8axscqt","many_one","0","direct_first","1","le06er20","0","24","1","1","2","1","","0","1","0","null","","","<img src = 'category2/men.png' width = '100%;'>","null","","","","","","","","","",""
"","html-keyboard-response","282","853355","0.0-12.0-2.11","maa8axscqt","many_one","0","direct_first","1","le06er20","0","24","1","1","2","1","","0","1","0","null","","","<img src = 'targets/16.png' width = '100%;'>","null","","","","","","","","","",""
"","html-keyboard-response","283","853846","0.0-12.0-3.11","maa8axscqt","many_one","0","direct_first","1","le06er20","0","24","1","1","2","1","","0","1","0","488.8900000001304","","","<img src = 'targets/mask.png' width = '100%;'>","68","pos","GS","abstract","2","category2/men.png","","targets/16.png","indirect","0","35"
"","html-keyboard-response","284","855363","0.0-12.0-0.12","maa8axscqt","many_one","0","direct_first","1","le06er20","0","24","1","1","2","1","","0","1","0","null","","","<div style=""font-size:60px;"">+</div>","null","","","","","","","","","",""
"","html-keyboard-response","285","855462","0.0-12.0-1.12","maa8axscqt","many_one","0","direct_first","1","le06er20","0","24","1","1","2","1","","0","1","0","null","","","<img src = 'category4/GS1.png' width = '100%;'>","null","","","","","","","","","",""
"","html-keyboard-response","286","855735","0.0-12.0-2.12","maa8axscqt","many_one","0","direct_first","1","le06er20","0","24","1","1","2","1","","0","1","0","null","","","<img src = 'targets/9.png' width = '100%;'>","null","","","","","","","","","",""
"","html-keyboard-response","287","856625","0.0-12.0-3.12","maa8axscqt","many_one","0","direct_first","1","le06er20","0","24","1","1","2","1","","0","1","0","886.9000000000233","","","<img src = 'targets/mask.png' width = '100%;'>","75","neg","GS","GSnew","4","category4/GS1.png","","targets/9.png","indirect","1","36"
"","html-keyboard-response","288","858143","0.0-12.0-0.13","maa8axscqt","many_one","0","direct_first","1","le06er20","0","24","1","1","2","1","","0","1","0","null","","","<div style=""font-size:60px;"">+</div>","null","","","","","","","","","",""
"","html-keyboard-response","289","858236","0.0-12.0-1.13","maa8axscqt","many_one","0","direct_first","1","le06er20","0","24","1","1","2","1","","0","1","0","null","","","<img src = 'category3/GS3.png' width = '100%;'>","null","","","","","","","","","",""
"","html-keyboard-response","290","858509","0.0-12.0-2.13","maa8axscqt","many_one","0","direct_first","1","le06er20","0","24","1","1","2","1","","0","1","0","null","","","<img src = 'targets/22.png' width = '100%;'>","null","","","","","","","","","",""
"","html-keyboard-response","291","859409","0.0-12.0-3.13","maa8axscqt","many_one","0","direct_first","1","le06er20","0","24","1","1","2","1","","0","1","0","893.4250000002794","","","<img src = 'targets/mask.png' width = '100%;'>","68","neg","GS","GSnew","3","category3/GS3.png","","targets/22.png","indirect","0","37"
"","html-keyboard-response","292","860935","0.0-12.0-0.14","maa8axscqt","many_one","0","direct_first","1","le06er20","0","24","1","1","2","1","","0","1","0","null","","","<div style=""font-size:60px;"">+</div>","null","","","","","","","","","",""
"","html-keyboard-response","293","861039","0.0-12.0-1.14","maa8axscqt","many_one","0","direct_first","1","le06er20","0","24","1","1","2","1","","0","1","0","null","","","<img src = 'category1/ma.png' width = '100%;'>","null","","","","","","","","","",""
"","html-keyboard-response","294","861299","0.0-12.0-2.14","maa8axscqt","many_one","0","direct_first","1","le06er20","0","24","1","1","2","1","","0","1","0","null","","","<img src = 'targets/44.png' width = '100%;'>","null","","","","","","","","","",""
"","html-keyboard-response","295","862440","0.0-12.0-3.14","maa8axscqt","many_one","0","direct_first","1","le06er20","0","24","1","1","2","1","","0","1","0","1137.164999999688","","","<img src = 'targets/mask.png' width = '100%;'>","68","pos","GS","abstract","1","category1/ma.png","","targets/44.png","indirect","0","38"
"","html-keyboard-response","296","863952","0.0-12.0-0.15","maa8axscqt","many_one","0","direct_first","1","le06er20","0","24","1","1","2","1","","0","1","0","null","","","<div style=""font-size:60px;"">+</div>","null","","","","","","","","","",""
"","html-keyboard-response","297","864056","0.0-12.0-1.15","maa8axscqt","many_one","0","direct_first","1","le06er20","0","24","1","1","2","1","","0","1","0","null","","","<img src = 'category4/lin.png' width = '100%;'>","null","","","","","","","","","",""
"","html-keyboard-response","298","864321","0.0-12.0-2.15","maa8axscqt","many_one","0","direct_first","1","le06er20","0","24","1","1","2","1","","0","1","0","null","","","<img src = 'targets/43.png' width = '100%;'>","null","","","","","","","","","",""
"","html-keyboard-response","299","864933","0.0-12.0-3.15","maa8axscqt","many_one","0","direct_first","1","le06er20","0","24","1","1","2","1","","0","1","0","608.3299999999581","","","<img src = 'targets/mask.png' width = '100%;'>","68","neg","GS","abstract","4","category4/lin.png","","targets/43.png","indirect","0","39"
"","html-keyboard-response","300","866446","0.0-12.0-0.16","maa8axscqt","many_one","0","direct_first","1","le06er20","0","24","1","1","2","1","","0","1","0","null","","","<div style=""font-size:60px;"">+</div>","null","","","","","","","","","",""
"","html-keyboard-response","301","866539","0.0-12.0-1.16","maa8axscqt","many_one","0","direct_first","1","le06er20","0","24","1","1","2","1","","0","1","0","null","","","<img src = 'category4/CS6.png' width = '100%;'>","null","","","","","","","","","",""
"","html-keyboard-response","302","866806","0.0-12.0-2.16","maa8axscqt","many_one","0","direct_first","1","le06er20","0","24","1","1","2","1","","0","1","0","null","","","<img src = 'targets/30.png' width = '100%;'>","null","","","","","","","","","",""
"","html-keyboard-response","303","868139","0.0-12.0-3.16","maa8axscqt","many_one","0","direct_first","1","le06er20","0","24","1","1","2","1","","0","1","0","1329.555000000284","","","<img src = 'targets/mask.png' width = '100%;'>","68","neg","GS","GSold","4","category4/CS6.png","","targets/30.png","indirect","0","40"
"","html-keyboard-response","304","869649","0.0-12.0-0.17","maa8axscqt","many_one","0","direct_first","1","le06er20","0","24","1","1","2","1","","0","1","0","null","","","<div style=""font-size:60px;"">+</div>","null","","","","","","","","","",""
"","html-keyboard-response","305","869745","0.0-12.0-1.17","maa8axscqt","many_one","0","direct_first","1","le06er20","0","24","1","1","2","1","","0","1","0","null","","","<img src = 'category3/GS1.png' width = '100%;'>","null","","","","","","","","","",""
"","html-keyboard-response","306","870001","0.0-12.0-2.17","maa8axscqt","many_one","0","direct_first","1","le06er20","0","24","1","1","2","1","","0","1","0","null","","","<img src = 'targets/32.png' width = '100%;'>","null","","","","","","","","","",""
"","html-keyboard-response","307","870563","0.0-12.0-3.17","maa8axscqt","many_one","0","direct_first","1","le06er20","0","24","1","1","2","1","","0","1","0","559.4399999999441","","","<img src = 'targets/mask.png' width = '100%;'>","68","neg","GS","GSnew","3","category3/GS1.png","","targets/32.png","indirect","0","41"
"","html-keyboard-response","308","872086","0.0-12.0-0.18","maa8axscqt","many_one","0","direct_first","1","le06er20","0","24","1","1","2","1","","0","1","0","null","","","<div style=""font-size:60px;"">+</div>","null","","","","","","","","","",""
"","html-keyboard-response","309","872180","0.0-12.0-1.18","maa8axscqt","many_one","0","direct_first","1","le06er20","0","24","1","1","2","1","","0","1","0","null","","","<img src = 'category3/wang.png' width = '100%;'>","null","","","","","","","","","",""
"","html-keyboard-response","310","872453","0.0-12.0-2.18","maa8axscqt","many_one","0","direct_first","1","le06er20","0","24","1","1","2","1","","0","1","0","null","","","<img src = 'targets/26.png' width = '100%;'>","null","","","","","","","","","",""
"","html-keyboard-response","311","873324","0.0-12.0-3.18","maa8axscqt","many_one","0","direct_first","1","le06er20","0","24","1","1","2","1","","0","1","0","868.5249999999069","","","<img src = 'targets/mask.png' width = '100%;'>","68","neg","GS","abstract","3","category3/wang.png","","targets/26.png","indirect","0","42"
"","html-keyboard-response","312","874851","0.0-12.0-0.19","maa8axscqt","many_one","0","direct_first","1","le06er20","0","24","1","1","2","1","","0","1","0","null","","","<div style=""font-size:60px;"">+</div>","null","","","","","","","","","",""
"","html-keyboard-response","313","874948","0.0-12.0-1.19","maa8axscqt","many_one","0","direct_first","1","le06er20","0","24","1","1","2","1","","0","1","0","null","","","<img src = 'category1/GS3.png' width = '100%;'>","null","","","","","","","","","",""
"","html-keyboard-response","314","875214","0.0-12.0-2.19","maa8axscqt","many_one","0","direct_first","1","le06er20","0","24","1","1","2","1","","0","1","0","null","","","<img src = 'targets/3.png' width = '100%;'>","null","","","","","","","","","",""
"","html-keyboard-response","315","875998","0.0-12.0-3.19","maa8axscqt","many_one","0","direct_first","1","le06er20","0","24","1","1","2","1","","0","1","0","781.7000000000698","","","<img src = 'targets/mask.png' width = '100%;'>","68","pos","GS","GSnew","1","category1/GS3.png","","targets/3.png","indirect","0","43"
"","html-keyboard-response","316","877513","0.0-12.0-0.20","maa8axscqt","many_one","0","direct_first","1","le06er20","0","24","1","1","2","1","","0","1","0","null","","","<div style=""font-size:60px;"">+</div>","null","","","","","","","","","",""
"","html-keyboard-response","317","877611","0.0-12.0-1.20","maa8axscqt","many_one","0","direct_first","1","le06er20","0","24","1","1","2","1","","0","1","0","null","","","<img src = 'category2/CS6.png' width = '100%;'>","null","","","","","","","","","",""
"","html-keyboard-response","318","877877","0.0-12.0-2.20","maa8axscqt","many_one","0","direct_first","1","le06er20","0","24","1","1","2","1","","0","1","0","null","","","<img src = 'targets/25.png' width = '100%;'>","null","","","","","","","","","",""
"","html-keyboard-response","319","878393","0.0-12.0-3.20","maa8axscqt","many_one","0","direct_first","1","le06er20","0","24","1","1","2","1","","0","1","0","513.0399999998044","","","<img src = 'targets/mask.png' width = '100%;'>","75","pos","GS","GSold","2","category2/CS6.png","","targets/25.png","indirect","1","44"
"","html-keyboard-response","320","879922","0.0-12.0-0.21","maa8axscqt","many_one","0","direct_first","1","le06er20","0","24","1","1","2","1","","0","1","0","null","","","<div style=""font-size:60px;"">+</div>","null","","","","","","","","","",""
"","html-keyboard-response","321","880020","0.0-12.0-1.21","maa8axscqt","many_one","0","direct_first","1","le06er20","0","24","1","1","2","1","","0","1","0","null","","","<img src = 'category2/CS4.png' width = '100%;'>","null","","","","","","","","","",""
"","html-keyboard-response","322","880300","0.0-12.0-2.21","maa8axscqt","many_one","0","direct_first","1","le06er20","0","24","1","1","2","1","","0","1","0","null","","","<img src = 'targets/29.png' width = '100%;'>","null","","","","","","","","","",""
"","html-keyboard-response","323","880913","0.0-12.0-3.21","maa8axscqt","many_one","0","direct_first","1","le06er20","0","24","1","1","2","1","","0","1","0","610.4399999999441","","","<img src = 'targets/mask.png' width = '100%;'>","75","pos","GS","GSold","2","category2/CS4.png","","targets/29.png","indirect","1","45"
"","html-keyboard-response","324","882441","0.0-12.0-0.22","maa8axscqt","many_one","0","direct_first","1","le06er20","0","24","1","1","2","1","","0","1","0","null","","","<div style=""font-size:60px;"">+</div>","null","","","","","","","","","",""
"","html-keyboard-response","325","882534","0.0-12.0-1.22","maa8axscqt","many_one","0","direct_first","1","le06er20","0","24","1","1","2","1","","0","1","0","null","","","<img src = 'category1/GS2.png' width = '100%;'>","null","","","","","","","","","",""
"","html-keyboard-response","326","882802","0.0-12.0-2.22","maa8axscqt","many_one","0","direct_first","1","le06er20","0","24","1","1","2","1","","0","1","0","null","","","<img src = 'targets/47.png' width = '100%;'>","null","","","","","","","","","",""
"","html-keyboard-response","327","883403","0.0-12.0-3.22","maa8axscqt","many_one","0","direct_first","1","le06er20","0","24","1","1","2","1","","0","1","0","598.4100000000326","","","<img src = 'targets/mask.png' width = '100%;'>","68","pos","GS","GSnew","1","category1/GS2.png","","targets/47.png","indirect","0","46"
