"success","trial_type","trial_index","time_elapsed","internal_node_id","subject","condition","condition_code","measure","measure_code","codeword","gender","age","education","chinese","fach","handedness","comment","hinschauen","ablenkung","gewissenhaft","rt","url","responses","stimulus","key_press","val","type","type_specific","category","cs_selected","target","indirect","task","nr_pres","response"
"true","fullscreen","0","6356","0.0-0.0","b9msj7882x","one_one","1","indirect_first","0","ac06un17","0","19","1","1","3","1","","0","1","0","","","","","","","","","","","","","","",""
"","external-html","1","67952","0.0-1.0","b9msj7882x","one_one","1","indirect_first","0","ac06un17","0","19","1","1","3","1","","0","1","0","61561","text/information.html","","","","","","","","","","","","",""
"","external-html","2","86432","0.0-2.0","b9msj7882x","one_one","1","indirect_first","0","ac06un17","0","19","1","1","3","1","","0","1","0","18424","text/consent.html","","","","","","","","","","","","",""
"","survey-html-form","3","147473","0.0-3.0","b9msj7882x","one_one","1","indirect_first","0","ac06un17","0","19","1","1","3","1","","0","1","0","61036","","{""codeword_enter"":""ac06un17""}","","","","","","","","","","","",""
"","survey-html-form","4","165914","0.0-4.0","b9msj7882x","one_one","1","indirect_first","0","ac06un17","0","19","1","1","3","1","","0","1","0","18437","","{""age"":""19"",""education"":""1"",""subject"":""3"",""gender"":""0"",""handedness"":""1"",""chinese"":""1""}","","","","","","","","","","","",""
"","survey-html-form","5","173971","0.0-5.0","b9msj7882x","one_one","1","indirect_first","0","ac06un17","0","19","1","1","3","1","","0","1","0","8054","","{}","","","","","","","","","","","",""
"","html-keyboard-response","6","177976","0.0-6.0-0.0-0.0","b9msj7882x","one_one","1","indirect_first","0","ac06un17","0","19","1","1","3","1","","0","1","0","null","","","<div class = 'row'><div class = 'column'><img src = 'uspos/8490.bmp' width = '100%;'></div><div class = 'column'><img src = 'category3/CS1.png' width = '70%;'></div></div>","null","pos","CS","CS","3","category3/CS1.png","","","","",""
"","html-keyboard-response","7","180481","0.0-6.0-0.0-0.1","b9msj7882x","one_one","1","indirect_first","0","ac06un17","0","19","1","1","3","1","","0","1","0","null","","","<div class = 'row'><div class = 'column'><img src = 'usneg/6212.bmp' width = '100%;'></div><div class = 'column'><img src = 'category4/CS2.png' width = '70%;'></div></div>","null","neg","CS","CS","4","category4/CS2.png","","","","",""
"","html-keyboard-response","8","182984","0.0-6.0-0.0-0.2","b9msj7882x","one_one","1","indirect_first","0","ac06un17","0","19","1","1","3","1","","0","1","0","null","","","<div class = 'row'><div class = 'column'><img src = 'uspos/2341.bmp' width = '100%;'></div><div class = 'column'><img src = 'category2/CS9.png' width = '70%;'></div></div>","null","pos","CS","CS","2","category2/CS9.png","","","","",""
"","html-keyboard-response","9","185489","0.0-6.0-0.0-0.3","b9msj7882x","one_one","1","indirect_first","0","ac06un17","0","19","1","1","3","1","","0","1","0","null","","","<div class = 'row'><div class = 'column'><img src = 'usneg/9561.bmp' width = '100%;'></div><div class = 'column'><img src = 'category1/CS5.png' width = '70%;'></div></div>","null","neg","CS","CS","1","category1/CS5.png","","","","",""
"","html-keyboard-response","10","187992","0.0-6.0-0.0-0.4","b9msj7882x","one_one","1","indirect_first","0","ac06un17","0","19","1","1","3","1","","0","1","0","null","","","<div class = 'row'><div class = 'column'><img src = 'usneg/6212.bmp' width = '100%;'></div><div class = 'column'><img src = 'category4/CS2.png' width = '70%;'></div></div>","null","neg","CS","CS","4","category4/CS2.png","","","","",""
"","html-keyboard-response","11","190496","0.0-6.0-0.0-0.5","b9msj7882x","one_one","1","indirect_first","0","ac06un17","0","19","1","1","3","1","","0","1","0","null","","","<div class = 'row'><div class = 'column'><img src = 'category2/CS9.png' width = '70%;'></div><div class = 'column'><img src = 'uspos/2341.bmp' width = '100%;'></div></div>","null","pos","CS","CS","2","category2/CS9.png","","","","",""
"","html-keyboard-response","12","193000","0.0-6.0-0.0-0.6","b9msj7882x","one_one","1","indirect_first","0","ac06un17","0","19","1","1","3","1","","0","1","0","null","","","<div class = 'row'><div class = 'column'><img src = 'usneg/9561.bmp' width = '100%;'></div><div class = 'column'><img src = 'category1/CS5.png' width = '70%;'></div></div>","null","neg","CS","CS","1","category1/CS5.png","","","","",""
"","html-keyboard-response","13","195504","0.0-6.0-0.0-0.7","b9msj7882x","one_one","1","indirect_first","0","ac06un17","0","19","1","1","3","1","","0","1","0","null","","","<div class = 'row'><div class = 'column'><img src = 'category3/CS1.png' width = '70%;'></div><div class = 'column'><img src = 'uspos/8490.bmp' width = '100%;'></div></div>","null","pos","CS","CS","3","category3/CS1.png","","","","",""
"","html-keyboard-response","14","198008","0.0-6.0-0.0-0.8","b9msj7882x","one_one","1","indirect_first","0","ac06un17","0","19","1","1","3","1","","0","1","0","null","","","<div class = 'row'><div class = 'column'><img src = 'category2/CS9.png' width = '70%;'></div><div class = 'column'><img src = 'uspos/2341.bmp' width = '100%;'></div></div>","null","pos","CS","CS","2","category2/CS9.png","","","","",""
"","html-keyboard-response","15","200512","0.0-6.0-0.0-0.9","b9msj7882x","one_one","1","indirect_first","0","ac06un17","0","19","1","1","3","1","","0","1","0","null","","","<div class = 'row'><div class = 'column'><img src = 'category3/CS1.png' width = '70%;'></div><div class = 'column'><img src = 'uspos/8490.bmp' width = '100%;'></div></div>","null","pos","CS","CS","3","category3/CS1.png","","","","",""
"","html-keyboard-response","16","203015","0.0-6.0-0.0-0.10","b9msj7882x","one_one","1","indirect_first","0","ac06un17","0","19","1","1","3","1","","0","1","0","null","","","<div class = 'row'><div class = 'column'><img src = 'usneg/6212.bmp' width = '100%;'></div><div class = 'column'><img src = 'category4/CS2.png' width = '70%;'></div></div>","null","neg","CS","CS","4","category4/CS2.png","","","","",""
"","html-keyboard-response","17","205519","0.0-6.0-0.0-0.11","b9msj7882x","one_one","1","indirect_first","0","ac06un17","0","19","1","1","3","1","","0","1","0","null","","","<div class = 'row'><div class = 'column'><img src = 'category2/CS9.png' width = '70%;'></div><div class = 'column'><img src = 'uspos/2341.bmp' width = '100%;'></div></div>","null","pos","CS","CS","2","category2/CS9.png","","","","",""
"","html-keyboard-response","18","208023","0.0-6.0-0.0-0.12","b9msj7882x","one_one","1","indirect_first","0","ac06un17","0","19","1","1","3","1","","0","1","0","null","","","<div class = 'row'><div class = 'column'><img src = 'uspos/8490.bmp' width = '100%;'></div><div class = 'column'><img src = 'category3/CS1.png' width = '70%;'></div></div>","null","pos","CS","CS","3","category3/CS1.png","","","","",""
"","html-keyboard-response","19","210527","0.0-6.0-0.0-0.13","b9msj7882x","one_one","1","indirect_first","0","ac06un17","0","19","1","1","3","1","","0","1","0","null","","","<div class = 'row'><div class = 'column'><img src = 'category4/CS2.png' width = '70%;'></div><div class = 'column'><img src = 'usneg/6212.bmp' width = '100%;'></div></div>","null","neg","CS","CS","4","category4/CS2.png","","","","",""
"","html-keyboard-response","20","213031","0.0-6.0-0.0-0.14","b9msj7882x","one_one","1","indirect_first","0","ac06un17","0","19","1","1","3","1","","0","1","0","null","","","<div class = 'row'><div class = 'column'><img src = 'category1/CS5.png' width = '70%;'></div><div class = 'column'><img src = 'usneg/9561.bmp' width = '100%;'></div></div>","null","neg","CS","CS","1","category1/CS5.png","","","","",""
"","html-keyboard-response","21","215535","0.0-6.0-0.0-0.15","b9msj7882x","one_one","1","indirect_first","0","ac06un17","0","19","1","1","3","1","","0","1","0","null","","","<div class = 'row'><div class = 'column'><img src = 'category4/CS2.png' width = '70%;'></div><div class = 'column'><img src = 'usneg/6212.bmp' width = '100%;'></div></div>","null","neg","CS","CS","4","category4/CS2.png","","","","",""
"","html-keyboard-response","22","218039","0.0-6.0-0.0-0.16","b9msj7882x","one_one","1","indirect_first","0","ac06un17","0","19","1","1","3","1","","0","1","0","null","","","<div class = 'row'><div class = 'column'><img src = 'category1/CS5.png' width = '70%;'></div><div class = 'column'><img src = 'usneg/9561.bmp' width = '100%;'></div></div>","null","neg","CS","CS","1","category1/CS5.png","","","","",""
"","html-keyboard-response","23","220542","0.0-6.0-0.0-0.17","b9msj7882x","one_one","1","indirect_first","0","ac06un17","0","19","1","1","3","1","","0","1","0","null","","","<div class = 'row'><div class = 'column'><img src = 'uspos/2341.bmp' width = '100%;'></div><div class = 'column'><img src = 'category2/CS9.png' width = '70%;'></div></div>","null","pos","CS","CS","2","category2/CS9.png","","","","",""
"","html-keyboard-response","24","223046","0.0-6.0-0.0-0.18","b9msj7882x","one_one","1","indirect_first","0","ac06un17","0","19","1","1","3","1","","0","1","0","null","","","<div class = 'row'><div class = 'column'><img src = 'usneg/9561.bmp' width = '100%;'></div><div class = 'column'><img src = 'category1/CS5.png' width = '70%;'></div></div>","null","neg","CS","CS","1","category1/CS5.png","","","","",""
"","html-keyboard-response","25","225550","0.0-6.0-0.0-0.19","b9msj7882x","one_one","1","indirect_first","0","ac06un17","0","19","1","1","3","1","","0","1","0","null","","","<div class = 'row'><div class = 'column'><img src = 'category3/CS1.png' width = '70%;'></div><div class = 'column'><img src = 'uspos/8490.bmp' width = '100%;'></div></div>","null","pos","CS","CS","3","category3/CS1.png","","","","",""
"","survey-html-form","26","228300","0.0-6.0-1.0","b9msj7882x","one_one","1","indirect_first","0","ac06un17","0","19","1","1","3","1","","0","1","0","2248","","{}","","","","","","","","","","","",""
"","html-keyboard-response","27","232304","0.0-6.0-2.0-0.0","b9msj7882x","one_one","1","indirect_first","0","ac06un17","0","19","1","1","3","1","","0","1","0","null","","","<div class = 'row'><div class = 'column'><img src = 'category4/CS2.png' width = '70%;'></div><div class = 'column'><img src = 'usneg/6212.bmp' width = '100%;'></div></div>","null","neg","CS","CS","4","category4/CS2.png","","","","",""
"","html-keyboard-response","28","234808","0.0-6.0-2.0-0.1","b9msj7882x","one_one","1","indirect_first","0","ac06un17","0","19","1","1","3","1","","0","1","0","null","","","<div class = 'row'><div class = 'column'><img src = 'uspos/8490.bmp' width = '100%;'></div><div class = 'column'><img src = 'category3/CS1.png' width = '70%;'></div></div>","null","pos","CS","CS","3","category3/CS1.png","","","","",""
"","html-keyboard-response","29","237312","0.0-6.0-2.0-0.2","b9msj7882x","one_one","1","indirect_first","0","ac06un17","0","19","1","1","3","1","","0","1","0","null","","","<div class = 'row'><div class = 'column'><img src = 'uspos/2341.bmp' width = '100%;'></div><div class = 'column'><img src = 'category2/CS9.png' width = '70%;'></div></div>","null","pos","CS","CS","2","category2/CS9.png","","","","",""
"","html-keyboard-response","30","239816","0.0-6.0-2.0-0.3","b9msj7882x","one_one","1","indirect_first","0","ac06un17","0","19","1","1","3","1","","0","1","0","null","","","<div class = 'row'><div class = 'column'><img src = 'usneg/9561.bmp' width = '100%;'></div><div class = 'column'><img src = 'category1/CS5.png' width = '70%;'></div></div>","null","neg","CS","CS","1","category1/CS5.png","","","","",""
"","html-keyboard-response","31","242320","0.0-6.0-2.0-0.4","b9msj7882x","one_one","1","indirect_first","0","ac06un17","0","19","1","1","3","1","","0","1","0","null","","","<div class = 'row'><div class = 'column'><img src = 'usneg/6212.bmp' width = '100%;'></div><div class = 'column'><img src = 'category4/CS2.png' width = '70%;'></div></div>","null","neg","CS","CS","4","category4/CS2.png","","","","",""
"","html-keyboard-response","32","244824","0.0-6.0-2.0-0.5","b9msj7882x","one_one","1","indirect_first","0","ac06un17","0","19","1","1","3","1","","0","1","0","null","","","<div class = 'row'><div class = 'column'><img src = 'uspos/8490.bmp' width = '100%;'></div><div class = 'column'><img src = 'category3/CS1.png' width = '70%;'></div></div>","null","pos","CS","CS","3","category3/CS1.png","","","","",""
"","html-keyboard-response","33","247327","0.0-6.0-2.0-0.6","b9msj7882x","one_one","1","indirect_first","0","ac06un17","0","19","1","1","3","1","","0","1","0","null","","","<div class = 'row'><div class = 'column'><img src = 'usneg/6212.bmp' width = '100%;'></div><div class = 'column'><img src = 'category4/CS2.png' width = '70%;'></div></div>","null","neg","CS","CS","4","category4/CS2.png","","","","",""
"","html-keyboard-response","34","249833","0.0-6.0-2.0-0.7","b9msj7882x","one_one","1","indirect_first","0","ac06un17","0","19","1","1","3","1","","0","1","0","null","","","<div class = 'row'><div class = 'column'><img src = 'category2/CS9.png' width = '70%;'></div><div class = 'column'><img src = 'uspos/2341.bmp' width = '100%;'></div></div>","null","pos","CS","CS","2","category2/CS9.png","","","","",""
"","html-keyboard-response","35","252338","0.0-6.0-2.0-0.8","b9msj7882x","one_one","1","indirect_first","0","ac06un17","0","19","1","1","3","1","","0","1","0","null","","","<div class = 'row'><div class = 'column'><img src = 'usneg/9561.bmp' width = '100%;'></div><div class = 'column'><img src = 'category1/CS5.png' width = '70%;'></div></div>","null","neg","CS","CS","1","category1/CS5.png","","","","",""
"","html-keyboard-response","36","254841","0.0-6.0-2.0-0.9","b9msj7882x","one_one","1","indirect_first","0","ac06un17","0","19","1","1","3","1","","0","1","0","null","","","<div class = 'row'><div class = 'column'><img src = 'usneg/6212.bmp' width = '100%;'></div><div class = 'column'><img src = 'category4/CS2.png' width = '70%;'></div></div>","null","neg","CS","CS","4","category4/CS2.png","","","","",""
"","html-keyboard-response","37","257348","0.0-6.0-2.0-0.10","b9msj7882x","one_one","1","indirect_first","0","ac06un17","0","19","1","1","3","1","","0","1","0","null","","","<div class = 'row'><div class = 'column'><img src = 'uspos/2341.bmp' width = '100%;'></div><div class = 'column'><img src = 'category2/CS9.png' width = '70%;'></div></div>","null","pos","CS","CS","2","category2/CS9.png","","","","",""
"","html-keyboard-response","38","259852","0.0-6.0-2.0-0.11","b9msj7882x","one_one","1","indirect_first","0","ac06un17","0","19","1","1","3","1","","0","1","0","null","","","<div class = 'row'><div class = 'column'><img src = 'uspos/8490.bmp' width = '100%;'></div><div class = 'column'><img src = 'category3/CS1.png' width = '70%;'></div></div>","null","pos","CS","CS","3","category3/CS1.png","","","","",""
"","html-keyboard-response","39","262356","0.0-6.0-2.0-0.12","b9msj7882x","one_one","1","indirect_first","0","ac06un17","0","19","1","1","3","1","","0","1","0","null","","","<div class = 'row'><div class = 'column'><img src = 'usneg/9561.bmp' width = '100%;'></div><div class = 'column'><img src = 'category1/CS5.png' width = '70%;'></div></div>","null","neg","CS","CS","1","category1/CS5.png","","","","",""
"","html-keyboard-response","40","264860","0.0-6.0-2.0-0.13","b9msj7882x","one_one","1","indirect_first","0","ac06un17","0","19","1","1","3","1","","0","1","0","null","","","<div class = 'row'><div class = 'column'><img src = 'category2/CS9.png' width = '70%;'></div><div class = 'column'><img src = 'uspos/2341.bmp' width = '100%;'></div></div>","null","pos","CS","CS","2","category2/CS9.png","","","","",""
"","html-keyboard-response","41","267363","0.0-6.0-2.0-0.14","b9msj7882x","one_one","1","indirect_first","0","ac06un17","0","19","1","1","3","1","","0","1","0","null","","","<div class = 'row'><div class = 'column'><img src = 'uspos/8490.bmp' width = '100%;'></div><div class = 'column'><img src = 'category3/CS1.png' width = '70%;'></div></div>","null","pos","CS","CS","3","category3/CS1.png","","","","",""
"","html-keyboard-response","42","269867","0.0-6.0-2.0-0.15","b9msj7882x","one_one","1","indirect_first","0","ac06un17","0","19","1","1","3","1","","0","1","0","null","","","<div class = 'row'><div class = 'column'><img src = 'category1/CS5.png' width = '70%;'></div><div class = 'column'><img src = 'usneg/9561.bmp' width = '100%;'></div></div>","null","neg","CS","CS","1","category1/CS5.png","","","","",""
"","html-keyboard-response","43","272371","0.0-6.0-2.0-0.16","b9msj7882x","one_one","1","indirect_first","0","ac06un17","0","19","1","1","3","1","","0","1","0","null","","","<div class = 'row'><div class = 'column'><img src = 'uspos/2341.bmp' width = '100%;'></div><div class = 'column'><img src = 'category2/CS9.png' width = '70%;'></div></div>","null","pos","CS","CS","2","category2/CS9.png","","","","",""
"","html-keyboard-response","44","274875","0.0-6.0-2.0-0.17","b9msj7882x","one_one","1","indirect_first","0","ac06un17","0","19","1","1","3","1","","0","1","0","null","","","<div class = 'row'><div class = 'column'><img src = 'category4/CS2.png' width = '70%;'></div><div class = 'column'><img src = 'usneg/6212.bmp' width = '100%;'></div></div>","null","neg","CS","CS","4","category4/CS2.png","","","","",""
"","html-keyboard-response","45","277378","0.0-6.0-2.0-0.18","b9msj7882x","one_one","1","indirect_first","0","ac06un17","0","19","1","1","3","1","","0","1","0","null","","","<div class = 'row'><div class = 'column'><img src = 'usneg/9561.bmp' width = '100%;'></div><div class = 'column'><img src = 'category1/CS5.png' width = '70%;'></div></div>","null","neg","CS","CS","1","category1/CS5.png","","","","",""
"","html-keyboard-response","46","279882","0.0-6.0-2.0-0.19","b9msj7882x","one_one","1","indirect_first","0","ac06un17","0","19","1","1","3","1","","0","1","0","null","","","<div class = 'row'><div class = 'column'><img src = 'category3/CS1.png' width = '70%;'></div><div class = 'column'><img src = 'uspos/8490.bmp' width = '100%;'></div></div>","null","pos","CS","CS","3","category3/CS1.png","","","","",""
"","survey-html-form","47","283558","0.0-6.0-3.0","b9msj7882x","one_one","1","indirect_first","0","ac06un17","0","19","1","1","3","1","","0","1","0","3174","","{}","","","","","","","","","","","",""
"","html-keyboard-response","48","287563","0.0-6.0-4.0-0.0","b9msj7882x","one_one","1","indirect_first","0","ac06un17","0","19","1","1","3","1","","0","1","0","null","","","<div class = 'row'><div class = 'column'><img src = 'uspos/2341.bmp' width = '100%;'></div><div class = 'column'><img src = 'category2/CS9.png' width = '70%;'></div></div>","null","pos","CS","CS","2","category2/CS9.png","","","","",""
"","html-keyboard-response","49","290067","0.0-6.0-4.0-0.1","b9msj7882x","one_one","1","indirect_first","0","ac06un17","0","19","1","1","3","1","","0","1","0","null","","","<div class = 'row'><div class = 'column'><img src = 'uspos/8490.bmp' width = '100%;'></div><div class = 'column'><img src = 'category3/CS1.png' width = '70%;'></div></div>","null","pos","CS","CS","3","category3/CS1.png","","","","",""
"","html-keyboard-response","50","292571","0.0-6.0-4.0-0.2","b9msj7882x","one_one","1","indirect_first","0","ac06un17","0","19","1","1","3","1","","0","1","0","null","","","<div class = 'row'><div class = 'column'><img src = 'category4/CS2.png' width = '70%;'></div><div class = 'column'><img src = 'usneg/6212.bmp' width = '100%;'></div></div>","null","neg","CS","CS","4","category4/CS2.png","","","","",""
"","html-keyboard-response","51","295075","0.0-6.0-4.0-0.3","b9msj7882x","one_one","1","indirect_first","0","ac06un17","0","19","1","1","3","1","","0","1","0","null","","","<div class = 'row'><div class = 'column'><img src = 'uspos/8490.bmp' width = '100%;'></div><div class = 'column'><img src = 'category3/CS1.png' width = '70%;'></div></div>","null","pos","CS","CS","3","category3/CS1.png","","","","",""
"","html-keyboard-response","52","297583","0.0-6.0-4.0-0.4","b9msj7882x","one_one","1","indirect_first","0","ac06un17","0","19","1","1","3","1","","0","1","0","null","","","<div class = 'row'><div class = 'column'><img src = 'category2/CS9.png' width = '70%;'></div><div class = 'column'><img src = 'uspos/2341.bmp' width = '100%;'></div></div>","null","pos","CS","CS","2","category2/CS9.png","","","","",""
"","html-keyboard-response","53","300087","0.0-6.0-4.0-0.5","b9msj7882x","one_one","1","indirect_first","0","ac06un17","0","19","1","1","3","1","","0","1","0","null","","","<div class = 'row'><div class = 'column'><img src = 'category1/CS5.png' width = '70%;'></div><div class = 'column'><img src = 'usneg/9561.bmp' width = '100%;'></div></div>","null","neg","CS","CS","1","category1/CS5.png","","","","",""
"","html-keyboard-response","54","302591","0.0-6.0-4.0-0.6","b9msj7882x","one_one","1","indirect_first","0","ac06un17","0","19","1","1","3","1","","0","1","0","null","","","<div class = 'row'><div class = 'column'><img src = 'uspos/8490.bmp' width = '100%;'></div><div class = 'column'><img src = 'category3/CS1.png' width = '70%;'></div></div>","null","pos","CS","CS","3","category3/CS1.png","","","","",""
"","html-keyboard-response","55","305095","0.0-6.0-4.0-0.7","b9msj7882x","one_one","1","indirect_first","0","ac06un17","0","19","1","1","3","1","","0","1","0","null","","","<div class = 'row'><div class = 'column'><img src = 'category4/CS2.png' width = '70%;'></div><div class = 'column'><img src = 'usneg/6212.bmp' width = '100%;'></div></div>","null","neg","CS","CS","4","category4/CS2.png","","","","",""
"","html-keyboard-response","56","307598","0.0-6.0-4.0-0.8","b9msj7882x","one_one","1","indirect_first","0","ac06un17","0","19","1","1","3","1","","0","1","0","null","","","<div class = 'row'><div class = 'column'><img src = 'uspos/2341.bmp' width = '100%;'></div><div class = 'column'><img src = 'category2/CS9.png' width = '70%;'></div></div>","null","pos","CS","CS","2","category2/CS9.png","","","","",""
"","html-keyboard-response","57","310102","0.0-6.0-4.0-0.9","b9msj7882x","one_one","1","indirect_first","0","ac06un17","0","19","1","1","3","1","","0","1","0","null","","","<div class = 'row'><div class = 'column'><img src = 'usneg/9561.bmp' width = '100%;'></div><div class = 'column'><img src = 'category1/CS5.png' width = '70%;'></div></div>","null","neg","CS","CS","1","category1/CS5.png","","","","",""
"","html-keyboard-response","58","312606","0.0-6.0-4.0-0.10","b9msj7882x","one_one","1","indirect_first","0","ac06un17","0","19","1","1","3","1","","0","1","0","null","","","<div class = 'row'><div class = 'column'><img src = 'usneg/6212.bmp' width = '100%;'></div><div class = 'column'><img src = 'category4/CS2.png' width = '70%;'></div></div>","null","neg","CS","CS","4","category4/CS2.png","","","","",""
"","html-keyboard-response","59","315114","0.0-6.0-4.0-0.11","b9msj7882x","one_one","1","indirect_first","0","ac06un17","0","19","1","1","3","1","","0","1","0","null","","","<div class = 'row'><div class = 'column'><img src = 'usneg/9561.bmp' width = '100%;'></div><div class = 'column'><img src = 'category1/CS5.png' width = '70%;'></div></div>","null","neg","CS","CS","1","category1/CS5.png","","","","",""
"","html-keyboard-response","60","317618","0.0-6.0-4.0-0.12","b9msj7882x","one_one","1","indirect_first","0","ac06un17","0","19","1","1","3","1","","0","1","0","null","","","<div class = 'row'><div class = 'column'><img src = 'uspos/8490.bmp' width = '100%;'></div><div class = 'column'><img src = 'category3/CS1.png' width = '70%;'></div></div>","null","pos","CS","CS","3","category3/CS1.png","","","","",""
"","html-keyboard-response","61","320122","0.0-6.0-4.0-0.13","b9msj7882x","one_one","1","indirect_first","0","ac06un17","0","19","1","1","3","1","","0","1","0","null","","","<div class = 'row'><div class = 'column'><img src = 'usneg/6212.bmp' width = '100%;'></div><div class = 'column'><img src = 'category4/CS2.png' width = '70%;'></div></div>","null","neg","CS","CS","4","category4/CS2.png","","","","",""
"","html-keyboard-response","62","322625","0.0-6.0-4.0-0.14","b9msj7882x","one_one","1","indirect_first","0","ac06un17","0","19","1","1","3","1","","0","1","0","null","","","<div class = 'row'><div class = 'column'><img src = 'category2/CS9.png' width = '70%;'></div><div class = 'column'><img src = 'uspos/2341.bmp' width = '100%;'></div></div>","null","pos","CS","CS","2","category2/CS9.png","","","","",""
"","html-keyboard-response","63","325129","0.0-6.0-4.0-0.15","b9msj7882x","one_one","1","indirect_first","0","ac06un17","0","19","1","1","3","1","","0","1","0","null","","","<div class = 'row'><div class = 'column'><img src = 'category3/CS1.png' width = '70%;'></div><div class = 'column'><img src = 'uspos/8490.bmp' width = '100%;'></div></div>","null","pos","CS","CS","3","category3/CS1.png","","","","",""
"","html-keyboard-response","64","327633","0.0-6.0-4.0-0.16","b9msj7882x","one_one","1","indirect_first","0","ac06un17","0","19","1","1","3","1","","0","1","0","null","","","<div class = 'row'><div class = 'column'><img src = 'category2/CS9.png' width = '70%;'></div><div class = 'column'><img src = 'uspos/2341.bmp' width = '100%;'></div></div>","null","pos","CS","CS","2","category2/CS9.png","","","","",""
"","html-keyboard-response","65","330137","0.0-6.0-4.0-0.17","b9msj7882x","one_one","1","indirect_first","0","ac06un17","0","19","1","1","3","1","","0","1","0","null","","","<div class = 'row'><div class = 'column'><img src = 'usneg/9561.bmp' width = '100%;'></div><div class = 'column'><img src = 'category1/CS5.png' width = '70%;'></div></div>","null","neg","CS","CS","1","category1/CS5.png","","","","",""
"","html-keyboard-response","66","332641","0.0-6.0-4.0-0.18","b9msj7882x","one_one","1","indirect_first","0","ac06un17","0","19","1","1","3","1","","0","1","0","null","","","<div class = 'row'><div class = 'column'><img src = 'category4/CS2.png' width = '70%;'></div><div class = 'column'><img src = 'usneg/6212.bmp' width = '100%;'></div></div>","null","neg","CS","CS","4","category4/CS2.png","","","","",""
"","html-keyboard-response","67","335144","0.0-6.0-4.0-0.19","b9msj7882x","one_one","1","indirect_first","0","ac06un17","0","19","1","1","3","1","","0","1","0","null","","","<div class = 'row'><div class = 'column'><img src = 'category1/CS5.png' width = '70%;'></div><div class = 'column'><img src = 'usneg/9561.bmp' width = '100%;'></div></div>","null","neg","CS","CS","1","category1/CS5.png","","","","",""
"","survey-html-form","68","337836","0.0-6.0-5.0","b9msj7882x","one_one","1","indirect_first","0","ac06un17","0","19","1","1","3","1","","0","1","0","2189","","{}","","","","","","","","","","","",""
"","html-keyboard-response","69","341838","0.0-6.0-6.0-0.0","b9msj7882x","one_one","1","indirect_first","0","ac06un17","0","19","1","1","3","1","","0","1","0","null","","","<div class = 'row'><div class = 'column'><img src = 'usneg/6212.bmp' width = '100%;'></div><div class = 'column'><img src = 'category4/CS2.png' width = '70%;'></div></div>","null","neg","CS","CS","4","category4/CS2.png","","","","",""
"","html-keyboard-response","70","344342","0.0-6.0-6.0-0.1","b9msj7882x","one_one","1","indirect_first","0","ac06un17","0","19","1","1","3","1","","0","1","0","null","","","<div class = 'row'><div class = 'column'><img src = 'uspos/8490.bmp' width = '100%;'></div><div class = 'column'><img src = 'category3/CS1.png' width = '70%;'></div></div>","null","pos","CS","CS","3","category3/CS1.png","","","","",""
"","html-keyboard-response","71","346846","0.0-6.0-6.0-0.2","b9msj7882x","one_one","1","indirect_first","0","ac06un17","0","19","1","1","3","1","","0","1","0","null","","","<div class = 'row'><div class = 'column'><img src = 'uspos/2341.bmp' width = '100%;'></div><div class = 'column'><img src = 'category2/CS9.png' width = '70%;'></div></div>","null","pos","CS","CS","2","category2/CS9.png","","","","",""
"","html-keyboard-response","72","349350","0.0-6.0-6.0-0.3","b9msj7882x","one_one","1","indirect_first","0","ac06un17","0","19","1","1","3","1","","0","1","0","null","","","<div class = 'row'><div class = 'column'><img src = 'uspos/8490.bmp' width = '100%;'></div><div class = 'column'><img src = 'category3/CS1.png' width = '70%;'></div></div>","null","pos","CS","CS","3","category3/CS1.png","","","","",""
"","html-keyboard-response","73","351854","0.0-6.0-6.0-0.4","b9msj7882x","one_one","1","indirect_first","0","ac06un17","0","19","1","1","3","1","","0","1","0","null","","","<div class = 'row'><div class = 'column'><img src = 'uspos/2341.bmp' width = '100%;'></div><div class = 'column'><img src = 'category2/CS9.png' width = '70%;'></div></div>","null","pos","CS","CS","2","category2/CS9.png","","","","",""
"","html-keyboard-response","74","354358","0.0-6.0-6.0-0.5","b9msj7882x","one_one","1","indirect_first","0","ac06un17","0","19","1","1","3","1","","0","1","0","null","","","<div class = 'row'><div class = 'column'><img src = 'usneg/6212.bmp' width = '100%;'></div><div class = 'column'><img src = 'category4/CS2.png' width = '70%;'></div></div>","null","neg","CS","CS","4","category4/CS2.png","","","","",""
"","html-keyboard-response","75","356861","0.0-6.0-6.0-0.6","b9msj7882x","one_one","1","indirect_first","0","ac06un17","0","19","1","1","3","1","","0","1","0","null","","","<div class = 'row'><div class = 'column'><img src = 'category2/CS9.png' width = '70%;'></div><div class = 'column'><img src = 'uspos/2341.bmp' width = '100%;'></div></div>","null","pos","CS","CS","2","category2/CS9.png","","","","",""
"","html-keyboard-response","76","359365","0.0-6.0-6.0-0.7","b9msj7882x","one_one","1","indirect_first","0","ac06un17","0","19","1","1","3","1","","0","1","0","null","","","<div class = 'row'><div class = 'column'><img src = 'usneg/6212.bmp' width = '100%;'></div><div class = 'column'><img src = 'category4/CS2.png' width = '70%;'></div></div>","null","neg","CS","CS","4","category4/CS2.png","","","","",""
"","html-keyboard-response","77","361869","0.0-6.0-6.0-0.8","b9msj7882x","one_one","1","indirect_first","0","ac06un17","0","19","1","1","3","1","","0","1","0","null","","","<div class = 'row'><div class = 'column'><img src = 'category1/CS5.png' width = '70%;'></div><div class = 'column'><img src = 'usneg/9561.bmp' width = '100%;'></div></div>","null","neg","CS","CS","1","category1/CS5.png","","","","",""
"","html-keyboard-response","78","364373","0.0-6.0-6.0-0.9","b9msj7882x","one_one","1","indirect_first","0","ac06un17","0","19","1","1","3","1","","0","1","0","null","","","<div class = 'row'><div class = 'column'><img src = 'category2/CS9.png' width = '70%;'></div><div class = 'column'><img src = 'uspos/2341.bmp' width = '100%;'></div></div>","null","pos","CS","CS","2","category2/CS9.png","","","","",""
"","html-keyboard-response","79","366877","0.0-6.0-6.0-0.10","b9msj7882x","one_one","1","indirect_first","0","ac06un17","0","19","1","1","3","1","","0","1","0","null","","","<div class = 'row'><div class = 'column'><img src = 'usneg/9561.bmp' width = '100%;'></div><div class = 'column'><img src = 'category1/CS5.png' width = '70%;'></div></div>","null","neg","CS","CS","1","category1/CS5.png","","","","",""
"","html-keyboard-response","80","369381","0.0-6.0-6.0-0.11","b9msj7882x","one_one","1","indirect_first","0","ac06un17","0","19","1","1","3","1","","0","1","0","null","","","<div class = 'row'><div class = 'column'><img src = 'uspos/8490.bmp' width = '100%;'></div><div class = 'column'><img src = 'category3/CS1.png' width = '70%;'></div></div>","null","pos","CS","CS","3","category3/CS1.png","","","","",""
"","html-keyboard-response","81","371885","0.0-6.0-6.0-0.12","b9msj7882x","one_one","1","indirect_first","0","ac06un17","0","19","1","1","3","1","","0","1","0","null","","","<div class = 'row'><div class = 'column'><img src = 'usneg/9561.bmp' width = '100%;'></div><div class = 'column'><img src = 'category1/CS5.png' width = '70%;'></div></div>","null","neg","CS","CS","1","category1/CS5.png","","","","",""
"","html-keyboard-response","82","374389","0.0-6.0-6.0-0.13","b9msj7882x","one_one","1","indirect_first","0","ac06un17","0","19","1","1","3","1","","0","1","0","null","","","<div class = 'row'><div class = 'column'><img src = 'category4/CS2.png' width = '70%;'></div><div class = 'column'><img src = 'usneg/6212.bmp' width = '100%;'></div></div>","null","neg","CS","CS","4","category4/CS2.png","","","","",""
"","html-keyboard-response","83","376892","0.0-6.0-6.0-0.14","b9msj7882x","one_one","1","indirect_first","0","ac06un17","0","19","1","1","3","1","","0","1","0","null","","","<div class = 'row'><div class = 'column'><img src = 'category2/CS9.png' width = '70%;'></div><div class = 'column'><img src = 'uspos/2341.bmp' width = '100%;'></div></div>","null","pos","CS","CS","2","category2/CS9.png","","","","",""
"","html-keyboard-response","84","379396","0.0-6.0-6.0-0.15","b9msj7882x","one_one","1","indirect_first","0","ac06un17","0","19","1","1","3","1","","0","1","0","null","","","<div class = 'row'><div class = 'column'><img src = 'category3/CS1.png' width = '70%;'></div><div class = 'column'><img src = 'uspos/8490.bmp' width = '100%;'></div></div>","null","pos","CS","CS","3","category3/CS1.png","","","","",""
"","html-keyboard-response","85","381900","0.0-6.0-6.0-0.16","b9msj7882x","one_one","1","indirect_first","0","ac06un17","0","19","1","1","3","1","","0","1","0","null","","","<div class = 'row'><div class = 'column'><img src = 'category1/CS5.png' width = '70%;'></div><div class = 'column'><img src = 'usneg/9561.bmp' width = '100%;'></div></div>","null","neg","CS","CS","1","category1/CS5.png","","","","",""
"","html-keyboard-response","86","384409","0.0-6.0-6.0-0.17","b9msj7882x","one_one","1","indirect_first","0","ac06un17","0","19","1","1","3","1","","0","1","0","null","","","<div class = 'row'><div class = 'column'><img src = 'category3/CS1.png' width = '70%;'></div><div class = 'column'><img src = 'uspos/8490.bmp' width = '100%;'></div></div>","null","pos","CS","CS","3","category3/CS1.png","","","","",""
"","html-keyboard-response","87","386912","0.0-6.0-6.0-0.18","b9msj7882x","one_one","1","indirect_first","0","ac06un17","0","19","1","1","3","1","","0","1","0","null","","","<div class = 'row'><div class = 'column'><img src = 'category1/CS5.png' width = '70%;'></div><div class = 'column'><img src = 'usneg/9561.bmp' width = '100%;'></div></div>","null","neg","CS","CS","1","category1/CS5.png","","","","",""
"","html-keyboard-response","88","389417","0.0-6.0-6.0-0.19","b9msj7882x","one_one","1","indirect_first","0","ac06un17","0","19","1","1","3","1","","0","1","0","null","","","<div class = 'row'><div class = 'column'><img src = 'usneg/6212.bmp' width = '100%;'></div><div class = 'column'><img src = 'category4/CS2.png' width = '70%;'></div></div>","null","neg","CS","CS","4","category4/CS2.png","","","","",""
"","html-keyboard-response","89","413128","0.0-7.0","b9msj7882x","one_one","1","indirect_first","0","ac06un17","0","19","1","1","3","1","","0","1","0","23208.00000000006","","","<p>Sie sehen nun die chinesischen Zeichen nur ganz kurz. Danach sehen Sie die jeweilige Aussprache der Zeichen als Silbe auf dem Bildschrim. Ihre Aufgabe ist es, für jede Silbe anzugeben, ob diese etwas angenehmes, oder unangenehmes bedeuten könnte. Verlassen Sie sich hier vor allem auf Ihre Intuition.<br><br>Die Zeichen werden nur zur Orientierung dargestellt, beachten Sie sie deshalb nicht. Konzentrieren Sie sich vor allem auf die Silben. <br>Reagieren Sie mit folgenden zwei Tasten: <br><br><b>'D' </b> wenn die Silbe etwas <b>unangenehmes</b> bedeuten könnte. <br><b>'K'</b> wenn die Silbe etwas <b>angenehmes</b> bedeuten könnte. <br><br>Bitte legen Sie nun den Zeigefinger der linken Hand auf die Taste 'D' und den Zeigefinger der rechten Hand auf die Taste 'K'. <br>Reagieren Sie auf jede Silbe so schnell wie möglich. Uns interessiert Ihre spontane Reaktion. <br> <br> <br>Drücken Sie 'D' oder 'K', um die nächste Aufgabe zu starten. </p>","75","","","","","","","","","",""
"","html-keyboard-response","90","416131","0.0-8.0-0.0","b9msj7882x","one_one","1","indirect_first","0","ac06un17","0","19","1","1","3","1","","0","1","0","null","","","<div style=""font-size:60px;"">+</div>","null","","","","","","","","","",""
"","html-keyboard-response","91","416223","0.0-8.0-1.0","b9msj7882x","one_one","1","indirect_first","0","ac06un17","0","19","1","1","3","1","","0","1","0","null","","","<img src = 'category3/CS1.png' width = '100%;'>","null","","","","","","","","","",""
"","html-keyboard-response","92","416477","0.0-8.0-2.0","b9msj7882x","one_one","1","indirect_first","0","ac06un17","0","19","1","1","3","1","","0","1","0","null","","","<img src = 'targets/29.png' width = '100%;'>","null","","","","","","","","","",""
"","html-keyboard-response","93","423952","0.0-8.0-3.0","b9msj7882x","one_one","1","indirect_first","0","ac06un17","0","19","1","1","3","1","","0","1","0","7472.999999999942","","","<img src = 'targets/mask.png' width = '100%;'>","68","pos","CS","CS","3","category3/CS1.png","targets/29.png","0","indirect","0",""
"","html-keyboard-response","94","425457","0.0-8.0-0.1","b9msj7882x","one_one","1","indirect_first","0","ac06un17","0","19","1","1","3","1","","0","1","0","null","","","<div style=""font-size:60px;"">+</div>","null","","","","","","","","","",""
"","html-keyboard-response","95","425549","0.0-8.0-1.1","b9msj7882x","one_one","1","indirect_first","0","ac06un17","0","19","1","1","3","1","","0","1","0","null","","","<img src = 'category2/CS10.png' width = '100%;'>","null","","","","","","","","","",""
"","html-keyboard-response","96","425803","0.0-8.0-2.1","b9msj7882x","one_one","1","indirect_first","0","ac06un17","0","19","1","1","3","1","","0","1","0","null","","","<img src = 'targets/5.png' width = '100%;'>","null","","","","","","","","","",""
"","html-keyboard-response","97","429259","0.0-8.0-3.1","b9msj7882x","one_one","1","indirect_first","0","ac06un17","0","19","1","1","3","1","","0","1","0","3455","","","<img src = 'targets/mask.png' width = '100%;'>","75","pos","GS","GSold","2","category2/CS10.png","targets/5.png","1","indirect","1",""
"","html-keyboard-response","98","430763","0.0-8.0-0.2","b9msj7882x","one_one","1","indirect_first","0","ac06un17","0","19","1","1","3","1","","0","1","0","null","","","<div style=""font-size:60px;"">+</div>","null","","","","","","","","","",""
"","html-keyboard-response","99","430856","0.0-8.0-1.2","b9msj7882x","one_one","1","indirect_first","0","ac06un17","0","19","1","1","3","1","","0","1","0","null","","","<img src = 'category1/CS2.png' width = '100%;'>","null","","","","","","","","","",""
"","html-keyboard-response","100","431109","0.0-8.0-2.2","b9msj7882x","one_one","1","indirect_first","0","ac06un17","0","19","1","1","3","1","","0","1","0","null","","","<img src = 'targets/24.png' width = '100%;'>","null","","","","","","","","","",""
"","html-keyboard-response","101","433146","0.0-8.0-3.2","b9msj7882x","one_one","1","indirect_first","0","ac06un17","0","19","1","1","3","1","","0","1","0","2036","","","<img src = 'targets/mask.png' width = '100%;'>","75","neg","GS","GSold","1","category1/CS2.png","targets/24.png","1","indirect","2",""
"","html-keyboard-response","102","434650","0.0-8.0-0.3","b9msj7882x","one_one","1","indirect_first","0","ac06un17","0","19","1","1","3","1","","0","1","0","null","","","<div style=""font-size:60px;"">+</div>","null","","","","","","","","","",""
"","html-keyboard-response","103","434743","0.0-8.0-1.3","b9msj7882x","one_one","1","indirect_first","0","ac06un17","0","19","1","1","3","1","","0","1","0","null","","","<img src = 'category4/CS2.png' width = '100%;'>","null","","","","","","","","","",""
"","html-keyboard-response","104","434996","0.0-8.0-2.3","b9msj7882x","one_one","1","indirect_first","0","ac06un17","0","19","1","1","3","1","","0","1","0","null","","","<img src = 'targets/11.png' width = '100%;'>","null","","","","","","","","","",""
"","html-keyboard-response","105","436162","0.0-8.0-3.3","b9msj7882x","one_one","1","indirect_first","0","ac06un17","0","19","1","1","3","1","","0","1","0","1164","","","<img src = 'targets/mask.png' width = '100%;'>","75","neg","CS","CS","4","category4/CS2.png","targets/11.png","1","indirect","3",""
"","html-keyboard-response","106","437666","0.0-8.0-0.4","b9msj7882x","one_one","1","indirect_first","0","ac06un17","0","19","1","1","3","1","","0","1","0","null","","","<div style=""font-size:60px;"">+</div>","null","","","","","","","","","",""
"","html-keyboard-response","107","437759","0.0-8.0-1.4","b9msj7882x","one_one","1","indirect_first","0","ac06un17","0","19","1","1","3","1","","0","1","0","null","","","<img src = 'category1/CS10.png' width = '100%;'>","null","","","","","","","","","",""
"","html-keyboard-response","108","438012","0.0-8.0-2.4","b9msj7882x","one_one","1","indirect_first","0","ac06un17","0","19","1","1","3","1","","0","1","0","null","","","<img src = 'targets/10.png' width = '100%;'>","null","","","","","","","","","",""
"","html-keyboard-response","109","439882","0.0-8.0-3.4","b9msj7882x","one_one","1","indirect_first","0","ac06un17","0","19","1","1","3","1","","0","1","0","1868","","","<img src = 'targets/mask.png' width = '100%;'>","68","neg","GS","GSold","1","category1/CS10.png","targets/10.png","0","indirect","4",""
"","html-keyboard-response","110","441386","0.0-8.0-0.5","b9msj7882x","one_one","1","indirect_first","0","ac06un17","0","19","1","1","3","1","","0","1","0","null","","","<div style=""font-size:60px;"">+</div>","null","","","","","","","","","",""
"","html-keyboard-response","111","441478","0.0-8.0-1.5","b9msj7882x","one_one","1","indirect_first","0","ac06un17","0","19","1","1","3","1","","0","1","0","null","","","<img src = 'category4/CS1.png' width = '100%;'>","null","","","","","","","","","",""
"","html-keyboard-response","112","441731","0.0-8.0-2.5","b9msj7882x","one_one","1","indirect_first","0","ac06un17","0","19","1","1","3","1","","0","1","0","null","","","<img src = 'targets/23.png' width = '100%;'>","null","","","","","","","","","",""
"","html-keyboard-response","113","442816","0.0-8.0-3.5","b9msj7882x","one_one","1","indirect_first","0","ac06un17","0","19","1","1","3","1","","0","1","0","1083","","","<img src = 'targets/mask.png' width = '100%;'>","75","neg","GS","GSold","4","category4/CS1.png","targets/23.png","1","indirect","5",""
"","html-keyboard-response","114","444323","0.0-8.0-0.6","b9msj7882x","one_one","1","indirect_first","0","ac06un17","0","19","1","1","3","1","","0","1","0","null","","","<div style=""font-size:60px;"">+</div>","null","","","","","","","","","",""
"","html-keyboard-response","115","444415","0.0-8.0-1.6","b9msj7882x","one_one","1","indirect_first","0","ac06un17","0","19","1","1","3","1","","0","1","0","null","","","<img src = 'category4/CS8.png' width = '100%;'>","null","","","","","","","","","",""
"","html-keyboard-response","116","444669","0.0-8.0-2.6","b9msj7882x","one_one","1","indirect_first","0","ac06un17","0","19","1","1","3","1","","0","1","0","null","","","<img src = 'targets/12.png' width = '100%;'>","null","","","","","","","","","",""
"","html-keyboard-response","117","445518","0.0-8.0-3.6","b9msj7882x","one_one","1","indirect_first","0","ac06un17","0","19","1","1","3","1","","0","1","0","847","","","<img src = 'targets/mask.png' width = '100%;'>","75","neg","GS","GSold","4","category4/CS8.png","targets/12.png","1","indirect","6",""
"","html-keyboard-response","118","447022","0.0-8.0-0.7","b9msj7882x","one_one","1","indirect_first","0","ac06un17","0","19","1","1","3","1","","0","1","0","null","","","<div style=""font-size:60px;"">+</div>","null","","","","","","","","","",""
"","html-keyboard-response","119","447114","0.0-8.0-1.7","b9msj7882x","one_one","1","indirect_first","0","ac06un17","0","19","1","1","3","1","","0","1","0","null","","","<img src = 'category3/CS9.png' width = '100%;'>","null","","","","","","","","","",""
"","html-keyboard-response","120","447368","0.0-8.0-2.7","b9msj7882x","one_one","1","indirect_first","0","ac06un17","0","19","1","1","3","1","","0","1","0","null","","","<img src = 'targets/36.png' width = '100%;'>","null","","","","","","","","","",""
"","html-keyboard-response","121","448832","0.0-8.0-3.7","b9msj7882x","one_one","1","indirect_first","0","ac06un17","0","19","1","1","3","1","","0","1","0","1463","","","<img src = 'targets/mask.png' width = '100%;'>","75","pos","GS","GSold","3","category3/CS9.png","targets/36.png","1","indirect","7",""
"","html-keyboard-response","122","450336","0.0-8.0-0.8","b9msj7882x","one_one","1","indirect_first","0","ac06un17","0","19","1","1","3","1","","0","1","0","null","","","<div style=""font-size:60px;"">+</div>","null","","","","","","","","","",""
"","html-keyboard-response","123","450428","0.0-8.0-1.8","b9msj7882x","one_one","1","indirect_first","0","ac06un17","0","19","1","1","3","1","","0","1","0","null","","","<img src = 'category2/CS2.png' width = '100%;'>","null","","","","","","","","","",""
"","html-keyboard-response","124","450681","0.0-8.0-2.8","b9msj7882x","one_one","1","indirect_first","0","ac06un17","0","19","1","1","3","1","","0","1","0","null","","","<img src = 'targets/31.png' width = '100%;'>","null","","","","","","","","","",""
"","html-keyboard-response","125","451344","0.0-8.0-3.8","b9msj7882x","one_one","1","indirect_first","0","ac06un17","0","19","1","1","3","1","","0","1","0","661","","","<img src = 'targets/mask.png' width = '100%;'>","75","pos","GS","GSold","2","category2/CS2.png","targets/31.png","1","indirect","8",""
"","html-keyboard-response","126","452848","0.0-8.0-0.9","b9msj7882x","one_one","1","indirect_first","0","ac06un17","0","19","1","1","3","1","","0","1","0","null","","","<div style=""font-size:60px;"">+</div>","null","","","","","","","","","",""
"","html-keyboard-response","127","452940","0.0-8.0-1.9","b9msj7882x","one_one","1","indirect_first","0","ac06un17","0","19","1","1","3","1","","0","1","0","null","","","<img src = 'category3/CS8.png' width = '100%;'>","null","","","","","","","","","",""
"","html-keyboard-response","128","453193","0.0-8.0-2.9","b9msj7882x","one_one","1","indirect_first","0","ac06un17","0","19","1","1","3","1","","0","1","0","null","","","<img src = 'targets/37.png' width = '100%;'>","null","","","","","","","","","",""
"","html-keyboard-response","129","453712","0.0-8.0-3.9","b9msj7882x","one_one","1","indirect_first","0","ac06un17","0","19","1","1","3","1","","0","1","0","517","","","<img src = 'targets/mask.png' width = '100%;'>","75","pos","GS","GSold","3","category3/CS8.png","targets/37.png","1","indirect","9",""
"","html-keyboard-response","130","455216","0.0-8.0-0.10","b9msj7882x","one_one","1","indirect_first","0","ac06un17","0","19","1","1","3","1","","0","1","0","null","","","<div style=""font-size:60px;"">+</div>","null","","","","","","","","","",""
"","html-keyboard-response","131","455308","0.0-8.0-1.10","b9msj7882x","one_one","1","indirect_first","0","ac06un17","0","19","1","1","3","1","","0","1","0","null","","","<img src = 'category1/CS5.png' width = '100%;'>","null","","","","","","","","","",""
"","html-keyboard-response","132","455561","0.0-8.0-2.10","b9msj7882x","one_one","1","indirect_first","0","ac06un17","0","19","1","1","3","1","","0","1","0","null","","","<img src = 'targets/45.png' width = '100%;'>","null","","","","","","","","","",""
"","html-keyboard-response","133","456465","0.0-8.0-3.10","b9msj7882x","one_one","1","indirect_first","0","ac06un17","0","19","1","1","3","1","","0","1","0","901","","","<img src = 'targets/mask.png' width = '100%;'>","68","neg","CS","CS","1","category1/CS5.png","targets/45.png","0","indirect","10",""
"","html-keyboard-response","134","457969","0.0-8.0-0.11","b9msj7882x","one_one","1","indirect_first","0","ac06un17","0","19","1","1","3","1","","0","1","0","null","","","<div style=""font-size:60px;"">+</div>","null","","","","","","","","","",""
"","html-keyboard-response","135","458061","0.0-8.0-1.11","b9msj7882x","one_one","1","indirect_first","0","ac06un17","0","19","1","1","3","1","","0","1","0","null","","","<img src = 'category1/CS1.png' width = '100%;'>","null","","","","","","","","","",""
"","html-keyboard-response","136","458314","0.0-8.0-2.11","b9msj7882x","one_one","1","indirect_first","0","ac06un17","0","19","1","1","3","1","","0","1","0","null","","","<img src = 'targets/4.png' width = '100%;'>","null","","","","","","","","","",""
"","html-keyboard-response","137","459040","0.0-8.0-3.11","b9msj7882x","one_one","1","indirect_first","0","ac06un17","0","19","1","1","3","1","","0","1","0","723","","","<img src = 'targets/mask.png' width = '100%;'>","68","neg","GS","GSold","1","category1/CS1.png","targets/4.png","0","indirect","11",""
"","html-keyboard-response","138","460543","0.0-8.0-0.12","b9msj7882x","one_one","1","indirect_first","0","ac06un17","0","19","1","1","3","1","","0","1","0","null","","","<div style=""font-size:60px;"">+</div>","null","","","","","","","","","",""
"","html-keyboard-response","139","460636","0.0-8.0-1.12","b9msj7882x","one_one","1","indirect_first","0","ac06un17","0","19","1","1","3","1","","0","1","0","null","","","<img src = 'category3/CS7.png' width = '100%;'>","null","","","","","","","","","",""
"","html-keyboard-response","140","460889","0.0-8.0-2.12","b9msj7882x","one_one","1","indirect_first","0","ac06un17","0","19","1","1","3","1","","0","1","0","null","","","<img src = 'targets/14.png' width = '100%;'>","null","","","","","","","","","",""
"","html-keyboard-response","141","461284","0.0-8.0-3.12","b9msj7882x","one_one","1","indirect_first","0","ac06un17","0","19","1","1","3","1","","0","1","0","391.9999999999418","","","<img src = 'targets/mask.png' width = '100%;'>","75","pos","GS","GSold","3","category3/CS7.png","targets/14.png","1","indirect","12",""
"","html-keyboard-response","142","462788","0.0-8.0-0.13","b9msj7882x","one_one","1","indirect_first","0","ac06un17","0","19","1","1","3","1","","0","1","0","null","","","<div style=""font-size:60px;"">+</div>","null","","","","","","","","","",""
"","html-keyboard-response","143","462880","0.0-8.0-1.13","b9msj7882x","one_one","1","indirect_first","0","ac06un17","0","19","1","1","3","1","","0","1","0","null","","","<img src = 'category4/CS6.png' width = '100%;'>","null","","","","","","","","","",""
"","html-keyboard-response","144","463133","0.0-8.0-2.13","b9msj7882x","one_one","1","indirect_first","0","ac06un17","0","19","1","1","3","1","","0","1","0","null","","","<img src = 'targets/25.png' width = '100%;'>","null","","","","","","","","","",""
"","html-keyboard-response","145","463696","0.0-8.0-3.13","b9msj7882x","one_one","1","indirect_first","0","ac06un17","0","19","1","1","3","1","","0","1","0","560","","","<img src = 'targets/mask.png' width = '100%;'>","68","neg","GS","GSold","4","category4/CS6.png","targets/25.png","0","indirect","13",""
"","html-keyboard-response","146","465199","0.0-8.0-0.14","b9msj7882x","one_one","1","indirect_first","0","ac06un17","0","19","1","1","3","1","","0","1","0","null","","","<div style=""font-size:60px;"">+</div>","null","","","","","","","","","",""
"","html-keyboard-response","147","465292","0.0-8.0-1.14","b9msj7882x","one_one","1","indirect_first","0","ac06un17","0","19","1","1","3","1","","0","1","0","null","","","<img src = 'category2/CS9.png' width = '100%;'>","null","","","","","","","","","",""
"","html-keyboard-response","148","465545","0.0-8.0-2.14","b9msj7882x","one_one","1","indirect_first","0","ac06un17","0","19","1","1","3","1","","0","1","0","null","","","<img src = 'targets/33.png' width = '100%;'>","null","","","","","","","","","",""
"","html-keyboard-response","149","465992","0.0-8.0-3.14","b9msj7882x","one_one","1","indirect_first","0","ac06un17","0","19","1","1","3","1","","0","1","0","445","","","<img src = 'targets/mask.png' width = '100%;'>","75","pos","CS","CS","2","category2/CS9.png","targets/33.png","1","indirect","14",""
"","html-keyboard-response","150","467496","0.0-8.0-0.15","b9msj7882x","one_one","1","indirect_first","0","ac06un17","0","19","1","1","3","1","","0","1","0","null","","","<div style=""font-size:60px;"">+</div>","null","","","","","","","","","",""
"","html-keyboard-response","151","467588","0.0-8.0-1.15","b9msj7882x","one_one","1","indirect_first","0","ac06un17","0","19","1","1","3","1","","0","1","0","null","","","<img src = 'category2/CS6.png' width = '100%;'>","null","","","","","","","","","",""
"","html-keyboard-response","152","467841","0.0-8.0-2.15","b9msj7882x","one_one","1","indirect_first","0","ac06un17","0","19","1","1","3","1","","0","1","0","null","","","<img src = 'targets/35.png' width = '100%;'>","null","","","","","","","","","",""
"","html-keyboard-response","153","468178","0.0-8.0-3.15","b9msj7882x","one_one","1","indirect_first","0","ac06un17","0","19","1","1","3","1","","0","1","0","334","","","<img src = 'targets/mask.png' width = '100%;'>","75","pos","GS","GSold","2","category2/CS6.png","targets/35.png","1","indirect","15",""
"","survey-html-form","154","472615","0.0-9.0","b9msj7882x","one_one","1","indirect_first","0","ac06un17","0","19","1","1","3","1","","0","1","0","3935","","{}","","","","","","","","","","","",""
"","html-keyboard-response","155","475618","0.0-10.0-0.0","b9msj7882x","one_one","1","indirect_first","0","ac06un17","0","19","1","1","3","1","","0","1","0","null","","","<div style=""font-size:60px;"">+</div>","null","","","","","","","","","",""
"","html-keyboard-response","156","475710","0.0-10.0-1.0","b9msj7882x","one_one","1","indirect_first","0","ac06un17","0","19","1","1","3","1","","0","1","0","null","","","<img src = 'category1/GS3.png' width = '100%;'>","null","","","","","","","","","",""
"","html-keyboard-response","157","475963","0.0-10.0-2.0","b9msj7882x","one_one","1","indirect_first","0","ac06un17","0","19","1","1","3","1","","0","1","0","null","","","<img src = 'targets/6.png' width = '100%;'>","null","","","","","","","","","",""
"","html-keyboard-response","158","476647","0.0-10.0-3.0","b9msj7882x","one_one","1","indirect_first","0","ac06un17","0","19","1","1","3","1","","0","1","0","682","","","<img src = 'targets/mask.png' width = '100%;'>","75","neg","GS","GSnew","1","category1/GS3.png","targets/6.png","1","indirect","16",""
"","html-keyboard-response","159","478151","0.0-10.0-0.1","b9msj7882x","one_one","1","indirect_first","0","ac06un17","0","19","1","1","3","1","","0","1","0","null","","","<div style=""font-size:60px;"">+</div>","null","","","","","","","","","",""
"","html-keyboard-response","160","478247","0.0-10.0-1.1","b9msj7882x","one_one","1","indirect_first","0","ac06un17","0","19","1","1","3","1","","0","1","0","null","","","<img src = 'category3/GS2.png' width = '100%;'>","null","","","","","","","","","",""
"","html-keyboard-response","161","478501","0.0-10.0-2.1","b9msj7882x","one_one","1","indirect_first","0","ac06un17","0","19","1","1","3","1","","0","1","0","null","","","<img src = 'targets/18.png' width = '100%;'>","null","","","","","","","","","",""
"","html-keyboard-response","162","478983","0.0-10.0-3.1","b9msj7882x","one_one","1","indirect_first","0","ac06un17","0","19","1","1","3","1","","0","1","0","480","","","<img src = 'targets/mask.png' width = '100%;'>","75","pos","GS","GSnew","3","category3/GS2.png","targets/18.png","1","indirect","17",""
"","html-keyboard-response","163","480486","0.0-10.0-0.2","b9msj7882x","one_one","1","indirect_first","0","ac06un17","0","19","1","1","3","1","","0","1","0","null","","","<div style=""font-size:60px;"">+</div>","null","","","","","","","","","",""
"","html-keyboard-response","164","480579","0.0-10.0-1.2","b9msj7882x","one_one","1","indirect_first","0","ac06un17","0","19","1","1","3","1","","0","1","0","null","","","<img src = 'category3/GS1.png' width = '100%;'>","null","","","","","","","","","",""
"","html-keyboard-response","165","480832","0.0-10.0-2.2","b9msj7882x","one_one","1","indirect_first","0","ac06un17","0","19","1","1","3","1","","0","1","0","null","","","<img src = 'targets/8.png' width = '100%;'>","null","","","","","","","","","",""
"","html-keyboard-response","166","481091","0.0-10.0-3.2","b9msj7882x","one_one","1","indirect_first","0","ac06un17","0","19","1","1","3","1","","0","1","0","257","","","<img src = 'targets/mask.png' width = '100%;'>","68","pos","GS","GSnew","3","category3/GS1.png","targets/8.png","0","indirect","18",""
"","html-keyboard-response","167","482594","0.0-10.0-0.3","b9msj7882x","one_one","1","indirect_first","0","ac06un17","0","19","1","1","3","1","","0","1","0","null","","","<div style=""font-size:60px;"">+</div>","null","","","","","","","","","",""
"","html-keyboard-response","168","482686","0.0-10.0-1.3","b9msj7882x","one_one","1","indirect_first","0","ac06un17","0","19","1","1","3","1","","0","1","0","null","","","<img src = 'category2/GS1.png' width = '100%;'>","null","","","","","","","","","",""
"","html-keyboard-response","169","482938","0.0-10.0-2.3","b9msj7882x","one_one","1","indirect_first","0","ac06un17","0","19","1","1","3","1","","0","1","0","null","","","<img src = 'targets/13.png' width = '100%;'>","null","","","","","","","","","",""
"","html-keyboard-response","170","483295","0.0-10.0-3.3","b9msj7882x","one_one","1","indirect_first","0","ac06un17","0","19","1","1","3","1","","0","1","0","354.9999999999418","","","<img src = 'targets/mask.png' width = '100%;'>","68","pos","GS","GSnew","2","category2/GS1.png","targets/13.png","0","indirect","19",""
"","html-keyboard-response","171","484799","0.0-10.0-0.4","b9msj7882x","one_one","1","indirect_first","0","ac06un17","0","19","1","1","3","1","","0","1","0","null","","","<div style=""font-size:60px;"">+</div>","null","","","","","","","","","",""
"","html-keyboard-response","172","484891","0.0-10.0-1.4","b9msj7882x","one_one","1","indirect_first","0","ac06un17","0","19","1","1","3","1","","0","1","0","null","","","<img src = 'category2/GS3.png' width = '100%;'>","null","","","","","","","","","",""
"","html-keyboard-response","173","485145","0.0-10.0-2.4","b9msj7882x","one_one","1","indirect_first","0","ac06un17","0","19","1","1","3","1","","0","1","0","null","","","<img src = 'targets/16.png' width = '100%;'>","null","","","","","","","","","",""
"","html-keyboard-response","174","485333","0.0-10.0-3.4","b9msj7882x","one_one","1","indirect_first","0","ac06un17","0","19","1","1","3","1","","0","1","0","186","","","<img src = 'targets/mask.png' width = '100%;'>","75","pos","GS","GSnew","2","category2/GS3.png","targets/16.png","1","indirect","20",""
"","html-keyboard-response","175","486836","0.0-10.0-0.5","b9msj7882x","one_one","1","indirect_first","0","ac06un17","0","19","1","1","3","1","","0","1","0","null","","","<div style=""font-size:60px;"">+</div>","null","","","","","","","","","",""
"","html-keyboard-response","176","486929","0.0-10.0-1.5","b9msj7882x","one_one","1","indirect_first","0","ac06un17","0","19","1","1","3","1","","0","1","0","null","","","<img src = 'category1/ma.png' width = '100%;'>","null","","","","","","","","","",""
"","html-keyboard-response","177","487181","0.0-10.0-2.5","b9msj7882x","one_one","1","indirect_first","0","ac06un17","0","19","1","1","3","1","","0","1","0","null","","","<img src = 'targets/47.png' width = '100%;'>","null","","","","","","","","","",""
"","html-keyboard-response","178","487387","0.0-10.0-3.5","b9msj7882x","one_one","1","indirect_first","0","ac06un17","0","19","1","1","3","1","","0","1","0","204","","","<img src = 'targets/mask.png' width = '100%;'>","75","neg","GS","abstract","1","category1/ma.png","targets/47.png","1","indirect","21",""
"","html-keyboard-response","179","488891","0.0-10.0-0.6","b9msj7882x","one_one","1","indirect_first","0","ac06un17","0","19","1","1","3","1","","0","1","0","null","","","<div style=""font-size:60px;"">+</div>","null","","","","","","","","","",""
"","html-keyboard-response","180","488984","0.0-10.0-1.6","b9msj7882x","one_one","1","indirect_first","0","ac06un17","0","19","1","1","3","1","","0","1","0","null","","","<img src = 'category2/GS2.png' width = '100%;'>","null","","","","","","","","","",""
"","html-keyboard-response","181","489237","0.0-10.0-2.6","b9msj7882x","one_one","1","indirect_first","0","ac06un17","0","19","1","1","3","1","","0","1","0","null","","","<img src = 'targets/26.png' width = '100%;'>","null","","","","","","","","","",""
"","html-keyboard-response","182","489395","0.0-10.0-3.6","b9msj7882x","one_one","1","indirect_first","0","ac06un17","0","19","1","1","3","1","","0","1","0","156","","","<img src = 'targets/mask.png' width = '100%;'>","68","pos","GS","GSnew","2","category2/GS2.png","targets/26.png","0","indirect","22",""
"","html-keyboard-response","183","490899","0.0-10.0-0.7","b9msj7882x","one_one","1","indirect_first","0","ac06un17","0","19","1","1","3","1","","0","1","0","null","","","<div style=""font-size:60px;"">+</div>","null","","","","","","","","","",""
"","html-keyboard-response","184","490992","0.0-10.0-1.7","b9msj7882x","one_one","1","indirect_first","0","ac06un17","0","19","1","1","3","1","","0","1","0","null","","","<img src = 'category2/men.png' width = '100%;'>","null","","","","","","","","","",""
"","html-keyboard-response","185","491245","0.0-10.0-2.7","b9msj7882x","one_one","1","indirect_first","0","ac06un17","0","19","1","1","3","1","","0","1","0","null","","","<img src = 'targets/30.png' width = '100%;'>","null","","","","","","","","","",""
"","html-keyboard-response","186","491821","0.0-10.0-3.7","b9msj7882x","one_one","1","indirect_first","0","ac06un17","0","19","1","1","3","1","","0","1","0","574","","","<img src = 'targets/mask.png' width = '100%;'>","75","pos","GS","abstract","2","category2/men.png","targets/30.png","1","indirect","23",""
"","html-keyboard-response","187","493325","0.0-10.0-0.8","b9msj7882x","one_one","1","indirect_first","0","ac06un17","0","19","1","1","3","1","","0","1","0","null","","","<div style=""font-size:60px;"">+</div>","null","","","","","","","","","",""
"","html-keyboard-response","188","493417","0.0-10.0-1.8","b9msj7882x","one_one","1","indirect_first","0","ac06un17","0","19","1","1","3","1","","0","1","0","null","","","<img src = 'category3/wang.png' width = '100%;'>","null","","","","","","","","","",""
"","html-keyboard-response","189","493670","0.0-10.0-2.8","b9msj7882x","one_one","1","indirect_first","0","ac06un17","0","19","1","1","3","1","","0","1","0","null","","","<img src = 'targets/7.png' width = '100%;'>","null","","","","","","","","","",""
"","html-keyboard-response","190","494582","0.0-10.0-3.8","b9msj7882x","one_one","1","indirect_first","0","ac06un17","0","19","1","1","3","1","","0","1","0","911.0000000000582","","","<img src = 'targets/mask.png' width = '100%;'>","75","pos","GS","abstract","3","category3/wang.png","targets/7.png","1","indirect","24",""
"","html-keyboard-response","191","496085","0.0-10.0-0.9","b9msj7882x","one_one","1","indirect_first","0","ac06un17","0","19","1","1","3","1","","0","1","0","null","","","<div style=""font-size:60px;"">+</div>","null","","","","","","","","","",""
"","html-keyboard-response","192","496178","0.0-10.0-1.9","b9msj7882x","one_one","1","indirect_first","0","ac06un17","0","19","1","1","3","1","","0","1","0","null","","","<img src = 'category1/GS1.png' width = '100%;'>","null","","","","","","","","","",""
"","html-keyboard-response","193","496431","0.0-10.0-2.9","b9msj7882x","one_one","1","indirect_first","0","ac06un17","0","19","1","1","3","1","","0","1","0","null","","","<img src = 'targets/27.png' width = '100%;'>","null","","","","","","","","","",""
"","html-keyboard-response","194","496915","0.0-10.0-3.9","b9msj7882x","one_one","1","indirect_first","0","ac06un17","0","19","1","1","3","1","","0","1","0","479.0000000000582","","","<img src = 'targets/mask.png' width = '100%;'>","68","neg","GS","GSnew","1","category1/GS1.png","targets/27.png","0","indirect","25",""
"","html-keyboard-response","195","498418","0.0-10.0-0.10","b9msj7882x","one_one","1","indirect_first","0","ac06un17","0","19","1","1","3","1","","0","1","0","null","","","<div style=""font-size:60px;"">+</div>","null","","","","","","","","","",""
"","html-keyboard-response","196","498511","0.0-10.0-1.10","b9msj7882x","one_one","1","indirect_first","0","ac06un17","0","19","1","1","3","1","","0","1","0","null","","","<img src = 'category4/lin.png' width = '100%;'>","null","","","","","","","","","",""
"","html-keyboard-response","197","498764","0.0-10.0-2.10","b9msj7882x","one_one","1","indirect_first","0","ac06un17","0","19","1","1","3","1","","0","1","0","null","","","<img src = 'targets/41.png' width = '100%;'>","null","","","","","","","","","",""
"","html-keyboard-response","198","499157","0.0-10.0-3.10","b9msj7882x","one_one","1","indirect_first","0","ac06un17","0","19","1","1","3","1","","0","1","0","391","","","<img src = 'targets/mask.png' width = '100%;'>","75","neg","GS","abstract","4","category4/lin.png","targets/41.png","1","indirect","26",""
"","html-keyboard-response","199","500661","0.0-10.0-0.11","b9msj7882x","one_one","1","indirect_first","0","ac06un17","0","19","1","1","3","1","","0","1","0","null","","","<div style=""font-size:60px;"">+</div>","null","","","","","","","","","",""
"","html-keyboard-response","200","500753","0.0-10.0-1.11","b9msj7882x","one_one","1","indirect_first","0","ac06un17","0","19","1","1","3","1","","0","1","0","null","","","<img src = 'category4/GS1.png' width = '100%;'>","null","","","","","","","","","",""
"","html-keyboard-response","201","501007","0.0-10.0-2.11","b9msj7882x","one_one","1","indirect_first","0","ac06un17","0","19","1","1","3","1","","0","1","0","null","","","<img src = 'targets/2.png' width = '100%;'>","null","","","","","","","","","",""
"","html-keyboard-response","202","501241","0.0-10.0-3.11","b9msj7882x","one_one","1","indirect_first","0","ac06un17","0","19","1","1","3","1","","0","1","0","232","","","<img src = 'targets/mask.png' width = '100%;'>","68","neg","GS","GSnew","4","category4/GS1.png","targets/2.png","0","indirect","27",""
"","html-keyboard-response","203","502745","0.0-10.0-0.12","b9msj7882x","one_one","1","indirect_first","0","ac06un17","0","19","1","1","3","1","","0","1","0","null","","","<div style=""font-size:60px;"">+</div>","null","","","","","","","","","",""
"","html-keyboard-response","204","502837","0.0-10.0-1.12","b9msj7882x","one_one","1","indirect_first","0","ac06un17","0","19","1","1","3","1","","0","1","0","null","","","<img src = 'category3/GS3.png' width = '100%;'>","null","","","","","","","","","",""
"","html-keyboard-response","205","503091","0.0-10.0-2.12","b9msj7882x","one_one","1","indirect_first","0","ac06un17","0","19","1","1","3","1","","0","1","0","null","","","<img src = 'targets/28.png' width = '100%;'>","null","","","","","","","","","",""
"","html-keyboard-response","206","503296","0.0-10.0-3.12","b9msj7882x","one_one","1","indirect_first","0","ac06un17","0","19","1","1","3","1","","0","1","0","204","","","<img src = 'targets/mask.png' width = '100%;'>","75","pos","GS","GSnew","3","category3/GS3.png","targets/28.png","1","indirect","28",""
"","html-keyboard-response","207","504800","0.0-10.0-0.13","b9msj7882x","one_one","1","indirect_first","0","ac06un17","0","19","1","1","3","1","","0","1","0","null","","","<div style=""font-size:60px;"">+</div>","null","","","","","","","","","",""
"","html-keyboard-response","208","504893","0.0-10.0-1.13","b9msj7882x","one_one","1","indirect_first","0","ac06un17","0","19","1","1","3","1","","0","1","0","null","","","<img src = 'category4/GS3.png' width = '100%;'>","null","","","","","","","","","",""
"","html-keyboard-response","209","505146","0.0-10.0-2.13","b9msj7882x","one_one","1","indirect_first","0","ac06un17","0","19","1","1","3","1","","0","1","0","null","","","<img src = 'targets/1.png' width = '100%;'>","null","","","","","","","","","",""
"","html-keyboard-response","210","505222","0.0-10.0-3.13","b9msj7882x","one_one","1","indirect_first","0","ac06un17","0","19","1","1","3","1","","0","1","0","74","","","<img src = 'targets/mask.png' width = '100%;'>","75","neg","GS","GSnew","4","category4/GS3.png","targets/1.png","1","indirect","29",""
"","html-keyboard-response","211","506725","0.0-10.0-0.14","b9msj7882x","one_one","1","indirect_first","0","ac06un17","0","19","1","1","3","1","","0","1","0","null","","","<div style=""font-size:60px;"">+</div>","null","","","","","","","","","",""
"","html-keyboard-response","212","506818","0.0-10.0-1.14","b9msj7882x","one_one","1","indirect_first","0","ac06un17","0","19","1","1","3","1","","0","1","0","null","","","<img src = 'category4/GS2.png' width = '100%;'>","null","","","","","","","","","",""
"","html-keyboard-response","213","507071","0.0-10.0-2.14","b9msj7882x","one_one","1","indirect_first","0","ac06un17","0","19","1","1","3","1","","0","1","0","null","","","<img src = 'targets/15.png' width = '100%;'>","null","","","","","","","","","",""
"","html-keyboard-response","214","507103","0.0-10.0-3.14","b9msj7882x","one_one","1","indirect_first","0","ac06un17","0","19","1","1","3","1","","0","1","0","29.999999999941792","","","<img src = 'targets/mask.png' width = '100%;'>","75","neg","GS","GSnew","4","category4/GS2.png","targets/15.png","1","indirect","30",""
"","html-keyboard-response","215","508606","0.0-10.0-0.15","b9msj7882x","one_one","1","indirect_first","0","ac06un17","0","19","1","1","3","1","","0","1","0","null","","","<div style=""font-size:60px;"">+</div>","null","","","","","","","","","",""
"","html-keyboard-response","216","508698","0.0-10.0-1.15","b9msj7882x","one_one","1","indirect_first","0","ac06un17","0","19","1","1","3","1","","0","1","0","null","","","<img src = 'category1/GS2.png' width = '100%;'>","null","","","","","","","","","",""
"","html-keyboard-response","217","508951","0.0-10.0-2.15","b9msj7882x","one_one","1","indirect_first","0","ac06un17","0","19","1","1","3","1","","0","1","0","null","","","<img src = 'targets/17.png' width = '100%;'>","null","","","","","","","","","",""
"","html-keyboard-response","218","509185","0.0-10.0-3.15","b9msj7882x","one_one","1","indirect_first","0","ac06un17","0","19","1","1","3","1","","0","1","0","233.0000000000582","","","<img src = 'targets/mask.png' width = '100%;'>","68","neg","GS","GSnew","1","category1/GS2.png","targets/17.png","0","indirect","31",""
"","survey-html-form","219","517941","0.0-11.0","b9msj7882x","one_one","1","indirect_first","0","ac06un17","0","19","1","1","3","1","","0","1","0","8252.000000000058","","{}","","","","","","","","","","","",""
"","image-slider-response","220","526970","0.0-12.0-0.0","b9msj7882x","one_one","1","indirect_first","0","ac06un17","0","19","1","1","3","1","","0","1","0","7024","","","","","neg","GS","GSnew","4","category4/GS2.png","targets/15.png","","direct","","-65"
"","image-slider-response","221","529839","0.0-12.0-0.1","b9msj7882x","one_one","1","indirect_first","0","ac06un17","0","19","1","1","3","1","","0","1","0","2867.0000000001164","","","","","neg","GS","GSold","1","category1/CS2.png","targets/24.png","","direct","","-66"
"","image-slider-response","222","532333","0.0-12.0-0.2","b9msj7882x","one_one","1","indirect_first","0","ac06un17","0","19","1","1","3","1","","0","1","0","2492","","","","","pos","CS","CS","2","category2/CS9.png","targets/33.png","","direct","","-71"
"","image-slider-response","223","535711","0.0-12.0-0.3","b9msj7882x","one_one","1","indirect_first","0","ac06un17","0","19","1","1","3","1","","0","1","0","3375","","","","","neg","GS","GSnew","1","category1/GS3.png","targets/6.png","","direct","","63"
"","image-slider-response","224","538222","0.0-12.0-0.4","b9msj7882x","one_one","1","indirect_first","0","ac06un17","0","19","1","1","3","1","","0","1","0","2509","","","","","pos","GS","GSnew","2","category2/GS3.png","targets/16.png","","direct","","76"
"","image-slider-response","225","540773","0.0-12.0-0.5","b9msj7882x","one_one","1","indirect_first","0","ac06un17","0","19","1","1","3","1","","0","1","0","2548","","","","","neg","GS","GSold","4","category4/CS8.png","targets/12.png","","direct","","-66"
"","image-slider-response","226","544823","0.0-12.0-0.6","b9msj7882x","one_one","1","indirect_first","0","ac06un17","0","19","1","1","3","1","","0","1","0","4047","","","","","neg","GS","GSnew","4","category4/GS1.png","targets/2.png","","direct","","61"
"","image-slider-response","227","546876","0.0-12.0-0.7","b9msj7882x","one_one","1","indirect_first","0","ac06un17","0","19","1","1","3","1","","0","1","0","2051","","","","","pos","GS","GSnew","3","category3/GS2.png","targets/18.png","","direct","","-56"
"","image-slider-response","228","548713","0.0-12.0-0.8","b9msj7882x","one_one","1","indirect_first","0","ac06un17","0","19","1","1","3","1","","0","1","0","1836","","","","","neg","GS","GSnew","1","category1/GS2.png","targets/17.png","","direct","","-65"
"","image-slider-response","229","550910","0.0-12.0-0.9","b9msj7882x","one_one","1","indirect_first","0","ac06un17","0","19","1","1","3","1","","0","1","0","2194","","","","","pos","GS","GSold","2","category2/CS10.png","targets/5.png","","direct","","-72"
"","image-slider-response","230","553598","0.0-12.0-0.10","b9msj7882x","one_one","1","indirect_first","0","ac06un17","0","19","1","1","3","1","","0","1","0","2684.9999999998836","","","","","neg","GS","GSold","1","category1/CS10.png","targets/10.png","","direct","","-70"
"","image-slider-response","231","555582","0.0-12.0-0.11","b9msj7882x","one_one","1","indirect_first","0","ac06un17","0","19","1","1","3","1","","0","1","0","1982","","","","","neg","GS","GSold","1","category1/CS1.png","targets/4.png","","direct","","-73"
"","image-slider-response","232","557832","0.0-12.0-0.12","b9msj7882x","one_one","1","indirect_first","0","ac06un17","0","19","1","1","3","1","","0","1","0","2248","","","","","pos","GS","GSold","3","category3/CS8.png","targets/37.png","","direct","","-76"
"","image-slider-response","233","559826","0.0-12.0-0.13","b9msj7882x","one_one","1","indirect_first","0","ac06un17","0","19","1","1","3","1","","0","1","0","1990.9999999998836","","","","","neg","CS","CS","1","category1/CS5.png","targets/45.png","","direct","","-70"
"","image-slider-response","234","561786","0.0-12.0-0.14","b9msj7882x","one_one","1","indirect_first","0","ac06un17","0","19","1","1","3","1","","0","1","0","1958","","","","","neg","GS","abstract","1","category1/ma.png","targets/47.png","","direct","","72"
"","image-slider-response","235","563976","0.0-12.0-0.15","b9msj7882x","one_one","1","indirect_first","0","ac06un17","0","19","1","1","3","1","","0","1","0","2187","","","","","neg","GS","GSnew","4","category4/GS3.png","targets/1.png","","direct","","-54"
"","image-slider-response","236","565873","0.0-12.0-0.16","b9msj7882x","one_one","1","indirect_first","0","ac06un17","0","19","1","1","3","1","","0","1","0","1895","","","","","pos","GS","GSnew","3","category3/GS1.png","targets/8.png","","direct","","-53"
"","image-slider-response","237","567640","0.0-12.0-0.17","b9msj7882x","one_one","1","indirect_first","0","ac06un17","0","19","1","1","3","1","","0","1","0","1766","","","","","pos","GS","GSnew","3","category3/GS3.png","targets/28.png","","direct","","37"
"","image-slider-response","238","569845","0.0-12.0-0.18","b9msj7882x","one_one","1","indirect_first","0","ac06un17","0","19","1","1","3","1","","0","1","0","2203","","","","","neg","CS","CS","4","category4/CS2.png","targets/11.png","","direct","","91"
"","image-slider-response","239","571901","0.0-12.0-0.19","b9msj7882x","one_one","1","indirect_first","0","ac06un17","0","19","1","1","3","1","","0","1","0","2054","","","","","pos","CS","CS","3","category3/CS1.png","targets/29.png","","direct","","-89"
"","image-slider-response","240","573915","0.0-12.0-0.20","b9msj7882x","one_one","1","indirect_first","0","ac06un17","0","19","1","1","3","1","","0","1","0","2012","","","","","pos","GS","GSnew","2","category2/GS2.png","targets/26.png","","direct","","-53"
"","image-slider-response","241","576023","0.0-12.0-0.21","b9msj7882x","one_one","1","indirect_first","0","ac06un17","0","19","1","1","3","1","","0","1","0","2106","","","","","neg","GS","GSnew","1","category1/GS1.png","targets/27.png","","direct","","-51"
"","image-slider-response","242","578176","0.0-12.0-0.22","b9msj7882x","one_one","1","indirect_first","0","ac06un17","0","19","1","1","3","1","","0","1","0","2150","","","","","pos","GS","GSold","3","category3/CS9.png","targets/36.png","","direct","","-52"
"","image-slider-response","243","580669","0.0-12.0-0.23","b9msj7882x","one_one","1","indirect_first","0","ac06un17","0","19","1","1","3","1","","0","1","0","2492","","","","","pos","GS","abstract","2","category2/men.png","targets/30.png","","direct","","100"
"","image-slider-response","244","582568","0.0-12.0-0.24","b9msj7882x","one_one","1","indirect_first","0","ac06un17","0","19","1","1","3","1","","0","1","0","1896","","","","","pos","GS","GSold","3","category3/CS7.png","targets/14.png","","direct","","-61"
"","image-slider-response","245","584380","0.0-12.0-0.25","b9msj7882x","one_one","1","indirect_first","0","ac06un17","0","19","1","1","3","1","","0","1","0","1809","","","","","neg","GS","GSold","4","category4/CS1.png","targets/23.png","","direct","","24"
"","image-slider-response","246","586821","0.0-12.0-0.26","b9msj7882x","one_one","1","indirect_first","0","ac06un17","0","19","1","1","3","1","","0","1","0","2439","","","","","pos","GS","abstract","3","category3/wang.png","targets/7.png","","direct","","100"
"","image-slider-response","247","588912","0.0-12.0-0.27","b9msj7882x","one_one","1","indirect_first","0","ac06un17","0","19","1","1","3","1","","0","1","0","2089","","","","","neg","GS","abstract","4","category4/lin.png","targets/41.png","","direct","","100"
"","image-slider-response","248","590977","0.0-12.0-0.28","b9msj7882x","one_one","1","indirect_first","0","ac06un17","0","19","1","1","3","1","","0","1","0","2063","","","","","pos","GS","GSold","2","category2/CS6.png","targets/35.png","","direct","","-68"
"","image-slider-response","249","593096","0.0-12.0-0.29","b9msj7882x","one_one","1","indirect_first","0","ac06un17","0","19","1","1","3","1","","0","1","0","2117","","","","","pos","GS","GSold","2","category2/CS2.png","targets/31.png","","direct","","-70"
"","image-slider-response","250","594853","0.0-12.0-0.30","b9msj7882x","one_one","1","indirect_first","0","ac06un17","0","19","1","1","3","1","","0","1","0","1755","","","","","pos","GS","GSnew","2","category2/GS1.png","targets/13.png","","direct","","-72"
"","image-slider-response","251","596980","0.0-12.0-0.31","b9msj7882x","one_one","1","indirect_first","0","ac06un17","0","19","1","1","3","1","","0","1","0","2125","","","","","neg","GS","GSold","4","category4/CS6.png","targets/25.png","","direct","","-74"
"","survey-html-form","252","600928","0.0-13.0","b9msj7882x","one_one","1","indirect_first","0","ac06un17","0","19","1","1","3","1","","0","1","0","3947","","{}","","","","","","","","","","","",""
"","image-slider-response","253","605144","0.0-14.0-0.0","b9msj7882x","one_one","1","indirect_first","0","ac06un17","0","19","1","1","3","1","","0","1","0","3212","","","","","pos","All","all","3","category3/wang_all.png","","","all","","-58"
"","image-slider-response","254","607290","0.0-14.0-0.1","b9msj7882x","one_one","1","indirect_first","0","ac06un17","0","19","1","1","3","1","","0","1","0","2143","","","","","neg","All","all","4","category4/lin_all.png","","","all","","-100"
"","image-slider-response","255","609230","0.0-14.0-0.2","b9msj7882x","one_one","1","indirect_first","0","ac06un17","0","19","1","1","3","1","","0","1","0","1938.0000000001164","","","","","pos","All","all","2","category2/men_all.png","","","all","","-63"
"","image-slider-response","256","611200","0.0-14.0-0.3","b9msj7882x","one_one","1","indirect_first","0","ac06un17","0","19","1","1","3","1","","0","1","0","1966","","","","","neg","All","all","1","category1/ma_all.png","","","all","","-50"
"","survey-text","257","616208","0.0-15.0","b9msj7882x","one_one","1","indirect_first","0","ac06un17","0","19","1","1","3","1","","0","1","0","5004","","{""comment"":""""}","","","","","","","","","","","",""
"","survey-html-form","258","626735","0.0-16.0","b9msj7882x","one_one","1","indirect_first","0","ac06un17","0","19","1","1","3","1","","0","1","0","10525","","{""hinschauen"":""0"",""ablenkung"":""1"",""gewissenhaft"":""0""}","","","","","","","","","","","",""
