"success","trial_type","trial_index","time_elapsed","internal_node_id","subject","condition","condition_code","measure","measure_code","codeword","gender","age","education","chinese","fach","handedness","comment","hinschauen","ablenkung","gewissenhaft","rt","url","responses","stimulus","key_press","val","type","type_specific","category","cs_selected","response","target","task","indirect","nr_pres"
"true","fullscreen","0","6343","0.0-0.0","4dg21jcf26","many_one","0","direct_first","1","CH08RD30","0","23","1","1","1","1","Mir ist bei den Paaren von Bildern und chinesischen Zeichen ziemlich schnell aufgefallen, welche Komponente der Zeichen mit welcher Art von Bildern gekoppelt sind (Bei meiner Condition z.B.: Baum-Radikal = positiv). Ich habe keine Erfahrung mit der chinesischen Sprache, jedoch mit der Japanischen, wo auch die Kanji stark auf den chinesischen Zeichen beruhen. Daher viel es mir recht leicht die Radikale mit den Bildern zu verbinden. Aber somit fiel es mir schwer spontan zu antworten, wenn nach meinem Empfinden gefragt wurde.   
","0","1","0","","","","","","","","","","","","","","",""
"","external-html","1","69229","0.0-1.0","4dg21jcf26","many_one","0","direct_first","1","CH08RD30","0","23","1","1","1","1","Mir ist bei den Paaren von Bildern und chinesischen Zeichen ziemlich schnell aufgefallen, welche Komponente der Zeichen mit welcher Art von Bildern gekoppelt sind (Bei meiner Condition z.B.: Baum-Radikal = positiv). Ich habe keine Erfahrung mit der chinesischen Sprache, jedoch mit der Japanischen, wo auch die Kanji stark auf den chinesischen Zeichen beruhen. Daher viel es mir recht leicht die Radikale mit den Bildern zu verbinden. Aber somit fiel es mir schwer spontan zu antworten, wenn nach meinem Empfinden gefragt wurde.   
","0","1","0","62767","text/information.html","","","","","","","","","","","","",""
"","external-html","2","76250","0.0-2.0","4dg21jcf26","many_one","0","direct_first","1","CH08RD30","0","23","1","1","1","1","Mir ist bei den Paaren von Bildern und chinesischen Zeichen ziemlich schnell aufgefallen, welche Komponente der Zeichen mit welcher Art von Bildern gekoppelt sind (Bei meiner Condition z.B.: Baum-Radikal = positiv). Ich habe keine Erfahrung mit der chinesischen Sprache, jedoch mit der Japanischen, wo auch die Kanji stark auf den chinesischen Zeichen beruhen. Daher viel es mir recht leicht die Radikale mit den Bildern zu verbinden. Aber somit fiel es mir schwer spontan zu antworten, wenn nach meinem Empfinden gefragt wurde.   
","0","1","0","6823","text/consent.html","","","","","","","","","","","","",""
"","survey-html-form","3","110671","0.0-3.0","4dg21jcf26","many_one","0","direct_first","1","CH08RD30","0","23","1","1","1","1","Mir ist bei den Paaren von Bildern und chinesischen Zeichen ziemlich schnell aufgefallen, welche Komponente der Zeichen mit welcher Art von Bildern gekoppelt sind (Bei meiner Condition z.B.: Baum-Radikal = positiv). Ich habe keine Erfahrung mit der chinesischen Sprache, jedoch mit der Japanischen, wo auch die Kanji stark auf den chinesischen Zeichen beruhen. Daher viel es mir recht leicht die Radikale mit den Bildern zu verbinden. Aber somit fiel es mir schwer spontan zu antworten, wenn nach meinem Empfinden gefragt wurde.   
","0","1","0","34416","","{""codeword_enter"":""CH08RD30""}","","","","","","","","","","","",""
"","survey-html-form","4","142092","0.0-4.0","4dg21jcf26","many_one","0","direct_first","1","CH08RD30","0","23","1","1","1","1","Mir ist bei den Paaren von Bildern und chinesischen Zeichen ziemlich schnell aufgefallen, welche Komponente der Zeichen mit welcher Art von Bildern gekoppelt sind (Bei meiner Condition z.B.: Baum-Radikal = positiv). Ich habe keine Erfahrung mit der chinesischen Sprache, jedoch mit der Japanischen, wo auch die Kanji stark auf den chinesischen Zeichen beruhen. Daher viel es mir recht leicht die Radikale mit den Bildern zu verbinden. Aber somit fiel es mir schwer spontan zu antworten, wenn nach meinem Empfinden gefragt wurde.   
","0","1","0","31415","","{""age"":""23"",""education"":""1"",""subject"":""1"",""gender"":""0"",""handedness"":""1"",""chinese"":""1""}","","","","","","","","","","","",""
"","survey-html-form","5","161864","0.0-5.0","4dg21jcf26","many_one","0","direct_first","1","CH08RD30","0","23","1","1","1","1","Mir ist bei den Paaren von Bildern und chinesischen Zeichen ziemlich schnell aufgefallen, welche Komponente der Zeichen mit welcher Art von Bildern gekoppelt sind (Bei meiner Condition z.B.: Baum-Radikal = positiv). Ich habe keine Erfahrung mit der chinesischen Sprache, jedoch mit der Japanischen, wo auch die Kanji stark auf den chinesischen Zeichen beruhen. Daher viel es mir recht leicht die Radikale mit den Bildern zu verbinden. Aber somit fiel es mir schwer spontan zu antworten, wenn nach meinem Empfinden gefragt wurde.   
","0","1","0","19767","","{}","","","","","","","","","","","",""
"","html-keyboard-response","6","165885","0.0-6.0-0.0-0.0","4dg21jcf26","many_one","0","direct_first","1","CH08RD30","0","23","1","1","1","1","Mir ist bei den Paaren von Bildern und chinesischen Zeichen ziemlich schnell aufgefallen, welche Komponente der Zeichen mit welcher Art von Bildern gekoppelt sind (Bei meiner Condition z.B.: Baum-Radikal = positiv). Ich habe keine Erfahrung mit der chinesischen Sprache, jedoch mit der Japanischen, wo auch die Kanji stark auf den chinesischen Zeichen beruhen. Daher viel es mir recht leicht die Radikale mit den Bildern zu verbinden. Aber somit fiel es mir schwer spontan zu antworten, wenn nach meinem Empfinden gefragt wurde.   
","0","1","0","null","","","<div class = 'row'><div class = 'column'><img src = 'category2/CS2.png' width = '70%;'></div><div class = 'column'><img src = 'usneg/9000.bmp' width = '100%;'></div></div>","null","neg","CS","CS","2","category2/CS2.png","","","","",""
"","html-keyboard-response","7","168413","0.0-6.0-0.0-0.1","4dg21jcf26","many_one","0","direct_first","1","CH08RD30","0","23","1","1","1","1","Mir ist bei den Paaren von Bildern und chinesischen Zeichen ziemlich schnell aufgefallen, welche Komponente der Zeichen mit welcher Art von Bildern gekoppelt sind (Bei meiner Condition z.B.: Baum-Radikal = positiv). Ich habe keine Erfahrung mit der chinesischen Sprache, jedoch mit der Japanischen, wo auch die Kanji stark auf den chinesischen Zeichen beruhen. Daher viel es mir recht leicht die Radikale mit den Bildern zu verbinden. Aber somit fiel es mir schwer spontan zu antworten, wenn nach meinem Empfinden gefragt wurde.   
","0","1","0","null","","","<div class = 'row'><div class = 'column'><img src = 'usneg/2205.bmp' width = '100%;'></div><div class = 'column'><img src = 'category3/CS2.png' width = '70%;'></div></div>","null","neg","CS","CS","3","category3/CS2.png","","","","",""
"","html-keyboard-response","8","170943","0.0-6.0-0.0-0.2","4dg21jcf26","many_one","0","direct_first","1","CH08RD30","0","23","1","1","1","1","Mir ist bei den Paaren von Bildern und chinesischen Zeichen ziemlich schnell aufgefallen, welche Komponente der Zeichen mit welcher Art von Bildern gekoppelt sind (Bei meiner Condition z.B.: Baum-Radikal = positiv). Ich habe keine Erfahrung mit der chinesischen Sprache, jedoch mit der Japanischen, wo auch die Kanji stark auf den chinesischen Zeichen beruhen. Daher viel es mir recht leicht die Radikale mit den Bildern zu verbinden. Aber somit fiel es mir schwer spontan zu antworten, wenn nach meinem Empfinden gefragt wurde.   
","0","1","0","null","","","<div class = 'row'><div class = 'column'><img src = 'uspos/2040.bmp' width = '100%;'></div><div class = 'column'><img src = 'category4/CS8.png' width = '70%;'></div></div>","null","pos","CS","CS","4","category4/CS8.png","","","","",""
"","html-keyboard-response","9","173473","0.0-6.0-0.0-0.3","4dg21jcf26","many_one","0","direct_first","1","CH08RD30","0","23","1","1","1","1","Mir ist bei den Paaren von Bildern und chinesischen Zeichen ziemlich schnell aufgefallen, welche Komponente der Zeichen mit welcher Art von Bildern gekoppelt sind (Bei meiner Condition z.B.: Baum-Radikal = positiv). Ich habe keine Erfahrung mit der chinesischen Sprache, jedoch mit der Japanischen, wo auch die Kanji stark auf den chinesischen Zeichen beruhen. Daher viel es mir recht leicht die Radikale mit den Bildern zu verbinden. Aber somit fiel es mir schwer spontan zu antworten, wenn nach meinem Empfinden gefragt wurde.   
","0","1","0","null","","","<div class = 'row'><div class = 'column'><img src = 'usneg/9635.2.bmp' width = '100%;'></div><div class = 'column'><img src = 'category2/CS4.png' width = '70%;'></div></div>","null","neg","CS","CS","2","category2/CS4.png","","","","",""
"","html-keyboard-response","10","175995","0.0-6.0-0.0-0.4","4dg21jcf26","many_one","0","direct_first","1","CH08RD30","0","23","1","1","1","1","Mir ist bei den Paaren von Bildern und chinesischen Zeichen ziemlich schnell aufgefallen, welche Komponente der Zeichen mit welcher Art von Bildern gekoppelt sind (Bei meiner Condition z.B.: Baum-Radikal = positiv). Ich habe keine Erfahrung mit der chinesischen Sprache, jedoch mit der Japanischen, wo auch die Kanji stark auf den chinesischen Zeichen beruhen. Daher viel es mir recht leicht die Radikale mit den Bildern zu verbinden. Aber somit fiel es mir schwer spontan zu antworten, wenn nach meinem Empfinden gefragt wurde.   
","0","1","0","null","","","<div class = 'row'><div class = 'column'><img src = 'usneg/9280.bmp' width = '100%;'></div><div class = 'column'><img src = 'category2/CS6.png' width = '70%;'></div></div>","null","neg","CS","CS","2","category2/CS6.png","","","","",""
"","html-keyboard-response","11","178508","0.0-6.0-0.0-0.5","4dg21jcf26","many_one","0","direct_first","1","CH08RD30","0","23","1","1","1","1","Mir ist bei den Paaren von Bildern und chinesischen Zeichen ziemlich schnell aufgefallen, welche Komponente der Zeichen mit welcher Art von Bildern gekoppelt sind (Bei meiner Condition z.B.: Baum-Radikal = positiv). Ich habe keine Erfahrung mit der chinesischen Sprache, jedoch mit der Japanischen, wo auch die Kanji stark auf den chinesischen Zeichen beruhen. Daher viel es mir recht leicht die Radikale mit den Bildern zu verbinden. Aber somit fiel es mir schwer spontan zu antworten, wenn nach meinem Empfinden gefragt wurde.   
","0","1","0","null","","","<div class = 'row'><div class = 'column'><img src = 'usneg/9290.bmp' width = '100%;'></div><div class = 'column'><img src = 'category3/CS9.png' width = '70%;'></div></div>","null","neg","CS","CS","3","category3/CS9.png","","","","",""
"","html-keyboard-response","12","181033","0.0-6.0-0.0-0.6","4dg21jcf26","many_one","0","direct_first","1","CH08RD30","0","23","1","1","1","1","Mir ist bei den Paaren von Bildern und chinesischen Zeichen ziemlich schnell aufgefallen, welche Komponente der Zeichen mit welcher Art von Bildern gekoppelt sind (Bei meiner Condition z.B.: Baum-Radikal = positiv). Ich habe keine Erfahrung mit der chinesischen Sprache, jedoch mit der Japanischen, wo auch die Kanji stark auf den chinesischen Zeichen beruhen. Daher viel es mir recht leicht die Radikale mit den Bildern zu verbinden. Aber somit fiel es mir schwer spontan zu antworten, wenn nach meinem Empfinden gefragt wurde.   
","0","1","0","null","","","<div class = 'row'><div class = 'column'><img src = 'category2/CS10.png' width = '70%;'></div><div class = 'column'><img src = 'usneg/1280.bmp' width = '100%;'></div></div>","null","neg","CS","CS","2","category2/CS10.png","","","","",""
"","html-keyboard-response","13","183553","0.0-6.0-0.0-0.7","4dg21jcf26","many_one","0","direct_first","1","CH08RD30","0","23","1","1","1","1","Mir ist bei den Paaren von Bildern und chinesischen Zeichen ziemlich schnell aufgefallen, welche Komponente der Zeichen mit welcher Art von Bildern gekoppelt sind (Bei meiner Condition z.B.: Baum-Radikal = positiv). Ich habe keine Erfahrung mit der chinesischen Sprache, jedoch mit der Japanischen, wo auch die Kanji stark auf den chinesischen Zeichen beruhen. Daher viel es mir recht leicht die Radikale mit den Bildern zu verbinden. Aber somit fiel es mir schwer spontan zu antworten, wenn nach meinem Empfinden gefragt wurde.   
","0","1","0","null","","","<div class = 'row'><div class = 'column'><img src = 'category3/CS3.png' width = '70%;'></div><div class = 'column'><img src = 'usneg/2900.bmp' width = '100%;'></div></div>","null","neg","CS","CS","3","category3/CS3.png","","","","",""
"","html-keyboard-response","14","186083","0.0-6.0-0.0-0.8","4dg21jcf26","many_one","0","direct_first","1","CH08RD30","0","23","1","1","1","1","Mir ist bei den Paaren von Bildern und chinesischen Zeichen ziemlich schnell aufgefallen, welche Komponente der Zeichen mit welcher Art von Bildern gekoppelt sind (Bei meiner Condition z.B.: Baum-Radikal = positiv). Ich habe keine Erfahrung mit der chinesischen Sprache, jedoch mit der Japanischen, wo auch die Kanji stark auf den chinesischen Zeichen beruhen. Daher viel es mir recht leicht die Radikale mit den Bildern zu verbinden. Aber somit fiel es mir schwer spontan zu antworten, wenn nach meinem Empfinden gefragt wurde.   
","0","1","0","null","","","<div class = 'row'><div class = 'column'><img src = 'uspos/5830.bmp' width = '100%;'></div><div class = 'column'><img src = 'category1/CS7.png' width = '70%;'></div></div>","null","pos","CS","CS","1","category1/CS7.png","","","","",""
"","html-keyboard-response","15","188623","0.0-6.0-0.0-0.9","4dg21jcf26","many_one","0","direct_first","1","CH08RD30","0","23","1","1","1","1","Mir ist bei den Paaren von Bildern und chinesischen Zeichen ziemlich schnell aufgefallen, welche Komponente der Zeichen mit welcher Art von Bildern gekoppelt sind (Bei meiner Condition z.B.: Baum-Radikal = positiv). Ich habe keine Erfahrung mit der chinesischen Sprache, jedoch mit der Japanischen, wo auch die Kanji stark auf den chinesischen Zeichen beruhen. Daher viel es mir recht leicht die Radikale mit den Bildern zu verbinden. Aber somit fiel es mir schwer spontan zu antworten, wenn nach meinem Empfinden gefragt wurde.   
","0","1","0","null","","","<div class = 'row'><div class = 'column'><img src = 'category1/CS5.png' width = '70%;'></div><div class = 'column'><img src = 'uspos/4625.bmp' width = '100%;'></div></div>","null","pos","CS","CS","1","category1/CS5.png","","","","",""
"","html-keyboard-response","16","191153","0.0-6.0-0.0-0.10","4dg21jcf26","many_one","0","direct_first","1","CH08RD30","0","23","1","1","1","1","Mir ist bei den Paaren von Bildern und chinesischen Zeichen ziemlich schnell aufgefallen, welche Komponente der Zeichen mit welcher Art von Bildern gekoppelt sind (Bei meiner Condition z.B.: Baum-Radikal = positiv). Ich habe keine Erfahrung mit der chinesischen Sprache, jedoch mit der Japanischen, wo auch die Kanji stark auf den chinesischen Zeichen beruhen. Daher viel es mir recht leicht die Radikale mit den Bildern zu verbinden. Aber somit fiel es mir schwer spontan zu antworten, wenn nach meinem Empfinden gefragt wurde.   
","0","1","0","null","","","<div class = 'row'><div class = 'column'><img src = 'category2/CS7.png' width = '70%;'></div><div class = 'column'><img src = 'usneg/3300.bmp' width = '100%;'></div></div>","null","neg","CS","CS","2","category2/CS7.png","","","","",""
"","html-keyboard-response","17","193683","0.0-6.0-0.0-0.11","4dg21jcf26","many_one","0","direct_first","1","CH08RD30","0","23","1","1","1","1","Mir ist bei den Paaren von Bildern und chinesischen Zeichen ziemlich schnell aufgefallen, welche Komponente der Zeichen mit welcher Art von Bildern gekoppelt sind (Bei meiner Condition z.B.: Baum-Radikal = positiv). Ich habe keine Erfahrung mit der chinesischen Sprache, jedoch mit der Japanischen, wo auch die Kanji stark auf den chinesischen Zeichen beruhen. Daher viel es mir recht leicht die Radikale mit den Bildern zu verbinden. Aber somit fiel es mir schwer spontan zu antworten, wenn nach meinem Empfinden gefragt wurde.   
","0","1","0","null","","","<div class = 'row'><div class = 'column'><img src = 'uspos/5621.bmp' width = '100%;'></div><div class = 'column'><img src = 'category1/CS1.png' width = '70%;'></div></div>","null","pos","CS","CS","1","category1/CS1.png","","","","",""
"","html-keyboard-response","18","196213","0.0-6.0-0.0-0.12","4dg21jcf26","many_one","0","direct_first","1","CH08RD30","0","23","1","1","1","1","Mir ist bei den Paaren von Bildern und chinesischen Zeichen ziemlich schnell aufgefallen, welche Komponente der Zeichen mit welcher Art von Bildern gekoppelt sind (Bei meiner Condition z.B.: Baum-Radikal = positiv). Ich habe keine Erfahrung mit der chinesischen Sprache, jedoch mit der Japanischen, wo auch die Kanji stark auf den chinesischen Zeichen beruhen. Daher viel es mir recht leicht die Radikale mit den Bildern zu verbinden. Aber somit fiel es mir schwer spontan zu antworten, wenn nach meinem Empfinden gefragt wurde.   
","0","1","0","null","","","<div class = 'row'><div class = 'column'><img src = 'usneg/9342.bmp' width = '100%;'></div><div class = 'column'><img src = 'category3/CS8.png' width = '70%;'></div></div>","null","neg","CS","CS","3","category3/CS8.png","","","","",""
"","html-keyboard-response","19","198744","0.0-6.0-0.0-0.13","4dg21jcf26","many_one","0","direct_first","1","CH08RD30","0","23","1","1","1","1","Mir ist bei den Paaren von Bildern und chinesischen Zeichen ziemlich schnell aufgefallen, welche Komponente der Zeichen mit welcher Art von Bildern gekoppelt sind (Bei meiner Condition z.B.: Baum-Radikal = positiv). Ich habe keine Erfahrung mit der chinesischen Sprache, jedoch mit der Japanischen, wo auch die Kanji stark auf den chinesischen Zeichen beruhen. Daher viel es mir recht leicht die Radikale mit den Bildern zu verbinden. Aber somit fiel es mir schwer spontan zu antworten, wenn nach meinem Empfinden gefragt wurde.   
","0","1","0","null","","","<div class = 'row'><div class = 'column'><img src = 'category4/CS6.png' width = '70%;'></div><div class = 'column'><img src = 'uspos/2550.bmp' width = '100%;'></div></div>","null","pos","CS","CS","4","category4/CS6.png","","","","",""
"","html-keyboard-response","20","201273","0.0-6.0-0.0-0.14","4dg21jcf26","many_one","0","direct_first","1","CH08RD30","0","23","1","1","1","1","Mir ist bei den Paaren von Bildern und chinesischen Zeichen ziemlich schnell aufgefallen, welche Komponente der Zeichen mit welcher Art von Bildern gekoppelt sind (Bei meiner Condition z.B.: Baum-Radikal = positiv). Ich habe keine Erfahrung mit der chinesischen Sprache, jedoch mit der Japanischen, wo auch die Kanji stark auf den chinesischen Zeichen beruhen. Daher viel es mir recht leicht die Radikale mit den Bildern zu verbinden. Aber somit fiel es mir schwer spontan zu antworten, wenn nach meinem Empfinden gefragt wurde.   
","0","1","0","null","","","<div class = 'row'><div class = 'column'><img src = 'uspos/2058.bmp' width = '100%;'></div><div class = 'column'><img src = 'category1/CS6.png' width = '70%;'></div></div>","null","pos","CS","CS","1","category1/CS6.png","","","","",""
"","html-keyboard-response","21","203803","0.0-6.0-0.0-0.15","4dg21jcf26","many_one","0","direct_first","1","CH08RD30","0","23","1","1","1","1","Mir ist bei den Paaren von Bildern und chinesischen Zeichen ziemlich schnell aufgefallen, welche Komponente der Zeichen mit welcher Art von Bildern gekoppelt sind (Bei meiner Condition z.B.: Baum-Radikal = positiv). Ich habe keine Erfahrung mit der chinesischen Sprache, jedoch mit der Japanischen, wo auch die Kanji stark auf den chinesischen Zeichen beruhen. Daher viel es mir recht leicht die Radikale mit den Bildern zu verbinden. Aber somit fiel es mir schwer spontan zu antworten, wenn nach meinem Empfinden gefragt wurde.   
","0","1","0","null","","","<div class = 'row'><div class = 'column'><img src = 'category4/CS5.png' width = '70%;'></div><div class = 'column'><img src = 'uspos/5700.bmp' width = '100%;'></div></div>","null","pos","CS","CS","4","category4/CS5.png","","","","",""
"","html-keyboard-response","22","206334","0.0-6.0-0.0-0.16","4dg21jcf26","many_one","0","direct_first","1","CH08RD30","0","23","1","1","1","1","Mir ist bei den Paaren von Bildern und chinesischen Zeichen ziemlich schnell aufgefallen, welche Komponente der Zeichen mit welcher Art von Bildern gekoppelt sind (Bei meiner Condition z.B.: Baum-Radikal = positiv). Ich habe keine Erfahrung mit der chinesischen Sprache, jedoch mit der Japanischen, wo auch die Kanji stark auf den chinesischen Zeichen beruhen. Daher viel es mir recht leicht die Radikale mit den Bildern zu verbinden. Aber somit fiel es mir schwer spontan zu antworten, wenn nach meinem Empfinden gefragt wurde.   
","0","1","0","null","","","<div class = 'row'><div class = 'column'><img src = 'category3/CS7.png' width = '70%;'></div><div class = 'column'><img src = 'usneg/9584.bmp' width = '100%;'></div></div>","null","neg","CS","CS","3","category3/CS7.png","","","","",""
"","html-keyboard-response","23","208854","0.0-6.0-0.0-0.17","4dg21jcf26","many_one","0","direct_first","1","CH08RD30","0","23","1","1","1","1","Mir ist bei den Paaren von Bildern und chinesischen Zeichen ziemlich schnell aufgefallen, welche Komponente der Zeichen mit welcher Art von Bildern gekoppelt sind (Bei meiner Condition z.B.: Baum-Radikal = positiv). Ich habe keine Erfahrung mit der chinesischen Sprache, jedoch mit der Japanischen, wo auch die Kanji stark auf den chinesischen Zeichen beruhen. Daher viel es mir recht leicht die Radikale mit den Bildern zu verbinden. Aber somit fiel es mir schwer spontan zu antworten, wenn nach meinem Empfinden gefragt wurde.   
","0","1","0","null","","","<div class = 'row'><div class = 'column'><img src = 'category4/CS3.png' width = '70%;'></div><div class = 'column'><img src = 'uspos/8350.bmp' width = '100%;'></div></div>","null","pos","CS","CS","4","category4/CS3.png","","","","",""
"","html-keyboard-response","24","211374","0.0-6.0-0.0-0.18","4dg21jcf26","many_one","0","direct_first","1","CH08RD30","0","23","1","1","1","1","Mir ist bei den Paaren von Bildern und chinesischen Zeichen ziemlich schnell aufgefallen, welche Komponente der Zeichen mit welcher Art von Bildern gekoppelt sind (Bei meiner Condition z.B.: Baum-Radikal = positiv). Ich habe keine Erfahrung mit der chinesischen Sprache, jedoch mit der Japanischen, wo auch die Kanji stark auf den chinesischen Zeichen beruhen. Daher viel es mir recht leicht die Radikale mit den Bildern zu verbinden. Aber somit fiel es mir schwer spontan zu antworten, wenn nach meinem Empfinden gefragt wurde.   
","0","1","0","null","","","<div class = 'row'><div class = 'column'><img src = 'category1/CS10.png' width = '70%;'></div><div class = 'column'><img src = 'uspos/2340.bmp' width = '100%;'></div></div>","null","pos","CS","CS","1","category1/CS10.png","","","","",""
"","html-keyboard-response","25","213903","0.0-6.0-0.0-0.19","4dg21jcf26","many_one","0","direct_first","1","CH08RD30","0","23","1","1","1","1","Mir ist bei den Paaren von Bildern und chinesischen Zeichen ziemlich schnell aufgefallen, welche Komponente der Zeichen mit welcher Art von Bildern gekoppelt sind (Bei meiner Condition z.B.: Baum-Radikal = positiv). Ich habe keine Erfahrung mit der chinesischen Sprache, jedoch mit der Japanischen, wo auch die Kanji stark auf den chinesischen Zeichen beruhen. Daher viel es mir recht leicht die Radikale mit den Bildern zu verbinden. Aber somit fiel es mir schwer spontan zu antworten, wenn nach meinem Empfinden gefragt wurde.   
","0","1","0","null","","","<div class = 'row'><div class = 'column'><img src = 'uspos/1463.bmp' width = '100%;'></div><div class = 'column'><img src = 'category4/CS7.png' width = '70%;'></div></div>","null","pos","CS","CS","4","category4/CS7.png","","","","",""
"","survey-html-form","26","216883","0.0-6.0-1.0","4dg21jcf26","many_one","0","direct_first","1","CH08RD30","0","23","1","1","1","1","Mir ist bei den Paaren von Bildern und chinesischen Zeichen ziemlich schnell aufgefallen, welche Komponente der Zeichen mit welcher Art von Bildern gekoppelt sind (Bei meiner Condition z.B.: Baum-Radikal = positiv). Ich habe keine Erfahrung mit der chinesischen Sprache, jedoch mit der Japanischen, wo auch die Kanji stark auf den chinesischen Zeichen beruhen. Daher viel es mir recht leicht die Radikale mit den Bildern zu verbinden. Aber somit fiel es mir schwer spontan zu antworten, wenn nach meinem Empfinden gefragt wurde.   
","0","1","0","2459","","{}","","","","","","","","","","","",""
"","html-keyboard-response","27","220903","0.0-6.0-2.0-0.0","4dg21jcf26","many_one","0","direct_first","1","CH08RD30","0","23","1","1","1","1","Mir ist bei den Paaren von Bildern und chinesischen Zeichen ziemlich schnell aufgefallen, welche Komponente der Zeichen mit welcher Art von Bildern gekoppelt sind (Bei meiner Condition z.B.: Baum-Radikal = positiv). Ich habe keine Erfahrung mit der chinesischen Sprache, jedoch mit der Japanischen, wo auch die Kanji stark auf den chinesischen Zeichen beruhen. Daher viel es mir recht leicht die Radikale mit den Bildern zu verbinden. Aber somit fiel es mir schwer spontan zu antworten, wenn nach meinem Empfinden gefragt wurde.   
","0","1","0","null","","","<div class = 'row'><div class = 'column'><img src = 'uspos/2550.bmp' width = '100%;'></div><div class = 'column'><img src = 'category4/CS6.png' width = '70%;'></div></div>","null","pos","CS","CS","4","category4/CS6.png","","","","",""
"","html-keyboard-response","28","223442","0.0-6.0-2.0-0.1","4dg21jcf26","many_one","0","direct_first","1","CH08RD30","0","23","1","1","1","1","Mir ist bei den Paaren von Bildern und chinesischen Zeichen ziemlich schnell aufgefallen, welche Komponente der Zeichen mit welcher Art von Bildern gekoppelt sind (Bei meiner Condition z.B.: Baum-Radikal = positiv). Ich habe keine Erfahrung mit der chinesischen Sprache, jedoch mit der Japanischen, wo auch die Kanji stark auf den chinesischen Zeichen beruhen. Daher viel es mir recht leicht die Radikale mit den Bildern zu verbinden. Aber somit fiel es mir schwer spontan zu antworten, wenn nach meinem Empfinden gefragt wurde.   
","0","1","0","null","","","<div class = 'row'><div class = 'column'><img src = 'usneg/9342.bmp' width = '100%;'></div><div class = 'column'><img src = 'category3/CS8.png' width = '70%;'></div></div>","null","neg","CS","CS","3","category3/CS8.png","","","","",""
"","html-keyboard-response","29","225963","0.0-6.0-2.0-0.2","4dg21jcf26","many_one","0","direct_first","1","CH08RD30","0","23","1","1","1","1","Mir ist bei den Paaren von Bildern und chinesischen Zeichen ziemlich schnell aufgefallen, welche Komponente der Zeichen mit welcher Art von Bildern gekoppelt sind (Bei meiner Condition z.B.: Baum-Radikal = positiv). Ich habe keine Erfahrung mit der chinesischen Sprache, jedoch mit der Japanischen, wo auch die Kanji stark auf den chinesischen Zeichen beruhen. Daher viel es mir recht leicht die Radikale mit den Bildern zu verbinden. Aber somit fiel es mir schwer spontan zu antworten, wenn nach meinem Empfinden gefragt wurde.   
","0","1","0","null","","","<div class = 'row'><div class = 'column'><img src = 'category3/CS7.png' width = '70%;'></div><div class = 'column'><img src = 'usneg/9584.bmp' width = '100%;'></div></div>","null","neg","CS","CS","3","category3/CS7.png","","","","",""
"","html-keyboard-response","30","228494","0.0-6.0-2.0-0.3","4dg21jcf26","many_one","0","direct_first","1","CH08RD30","0","23","1","1","1","1","Mir ist bei den Paaren von Bildern und chinesischen Zeichen ziemlich schnell aufgefallen, welche Komponente der Zeichen mit welcher Art von Bildern gekoppelt sind (Bei meiner Condition z.B.: Baum-Radikal = positiv). Ich habe keine Erfahrung mit der chinesischen Sprache, jedoch mit der Japanischen, wo auch die Kanji stark auf den chinesischen Zeichen beruhen. Daher viel es mir recht leicht die Radikale mit den Bildern zu verbinden. Aber somit fiel es mir schwer spontan zu antworten, wenn nach meinem Empfinden gefragt wurde.   
","0","1","0","null","","","<div class = 'row'><div class = 'column'><img src = 'category2/CS4.png' width = '70%;'></div><div class = 'column'><img src = 'usneg/9635.2.bmp' width = '100%;'></div></div>","null","neg","CS","CS","2","category2/CS4.png","","","","",""
"","html-keyboard-response","31","231034","0.0-6.0-2.0-0.4","4dg21jcf26","many_one","0","direct_first","1","CH08RD30","0","23","1","1","1","1","Mir ist bei den Paaren von Bildern und chinesischen Zeichen ziemlich schnell aufgefallen, welche Komponente der Zeichen mit welcher Art von Bildern gekoppelt sind (Bei meiner Condition z.B.: Baum-Radikal = positiv). Ich habe keine Erfahrung mit der chinesischen Sprache, jedoch mit der Japanischen, wo auch die Kanji stark auf den chinesischen Zeichen beruhen. Daher viel es mir recht leicht die Radikale mit den Bildern zu verbinden. Aber somit fiel es mir schwer spontan zu antworten, wenn nach meinem Empfinden gefragt wurde.   
","0","1","0","null","","","<div class = 'row'><div class = 'column'><img src = 'category4/CS3.png' width = '70%;'></div><div class = 'column'><img src = 'uspos/8350.bmp' width = '100%;'></div></div>","null","pos","CS","CS","4","category4/CS3.png","","","","",""
"","html-keyboard-response","32","233564","0.0-6.0-2.0-0.5","4dg21jcf26","many_one","0","direct_first","1","CH08RD30","0","23","1","1","1","1","Mir ist bei den Paaren von Bildern und chinesischen Zeichen ziemlich schnell aufgefallen, welche Komponente der Zeichen mit welcher Art von Bildern gekoppelt sind (Bei meiner Condition z.B.: Baum-Radikal = positiv). Ich habe keine Erfahrung mit der chinesischen Sprache, jedoch mit der Japanischen, wo auch die Kanji stark auf den chinesischen Zeichen beruhen. Daher viel es mir recht leicht die Radikale mit den Bildern zu verbinden. Aber somit fiel es mir schwer spontan zu antworten, wenn nach meinem Empfinden gefragt wurde.   
","0","1","0","null","","","<div class = 'row'><div class = 'column'><img src = 'category1/CS1.png' width = '70%;'></div><div class = 'column'><img src = 'uspos/5621.bmp' width = '100%;'></div></div>","null","pos","CS","CS","1","category1/CS1.png","","","","",""
"","html-keyboard-response","33","236093","0.0-6.0-2.0-0.6","4dg21jcf26","many_one","0","direct_first","1","CH08RD30","0","23","1","1","1","1","Mir ist bei den Paaren von Bildern und chinesischen Zeichen ziemlich schnell aufgefallen, welche Komponente der Zeichen mit welcher Art von Bildern gekoppelt sind (Bei meiner Condition z.B.: Baum-Radikal = positiv). Ich habe keine Erfahrung mit der chinesischen Sprache, jedoch mit der Japanischen, wo auch die Kanji stark auf den chinesischen Zeichen beruhen. Daher viel es mir recht leicht die Radikale mit den Bildern zu verbinden. Aber somit fiel es mir schwer spontan zu antworten, wenn nach meinem Empfinden gefragt wurde.   
","0","1","0","null","","","<div class = 'row'><div class = 'column'><img src = 'category2/CS2.png' width = '70%;'></div><div class = 'column'><img src = 'usneg/9000.bmp' width = '100%;'></div></div>","null","neg","CS","CS","2","category2/CS2.png","","","","",""
"","html-keyboard-response","34","238624","0.0-6.0-2.0-0.7","4dg21jcf26","many_one","0","direct_first","1","CH08RD30","0","23","1","1","1","1","Mir ist bei den Paaren von Bildern und chinesischen Zeichen ziemlich schnell aufgefallen, welche Komponente der Zeichen mit welcher Art von Bildern gekoppelt sind (Bei meiner Condition z.B.: Baum-Radikal = positiv). Ich habe keine Erfahrung mit der chinesischen Sprache, jedoch mit der Japanischen, wo auch die Kanji stark auf den chinesischen Zeichen beruhen. Daher viel es mir recht leicht die Radikale mit den Bildern zu verbinden. Aber somit fiel es mir schwer spontan zu antworten, wenn nach meinem Empfinden gefragt wurde.   
","0","1","0","null","","","<div class = 'row'><div class = 'column'><img src = 'usneg/2900.bmp' width = '100%;'></div><div class = 'column'><img src = 'category3/CS3.png' width = '70%;'></div></div>","null","neg","CS","CS","3","category3/CS3.png","","","","",""
"","html-keyboard-response","35","241161","0.0-6.0-2.0-0.8","4dg21jcf26","many_one","0","direct_first","1","CH08RD30","0","23","1","1","1","1","Mir ist bei den Paaren von Bildern und chinesischen Zeichen ziemlich schnell aufgefallen, welche Komponente der Zeichen mit welcher Art von Bildern gekoppelt sind (Bei meiner Condition z.B.: Baum-Radikal = positiv). Ich habe keine Erfahrung mit der chinesischen Sprache, jedoch mit der Japanischen, wo auch die Kanji stark auf den chinesischen Zeichen beruhen. Daher viel es mir recht leicht die Radikale mit den Bildern zu verbinden. Aber somit fiel es mir schwer spontan zu antworten, wenn nach meinem Empfinden gefragt wurde.   
","0","1","0","null","","","<div class = 'row'><div class = 'column'><img src = 'category2/CS10.png' width = '70%;'></div><div class = 'column'><img src = 'usneg/1280.bmp' width = '100%;'></div></div>","null","neg","CS","CS","2","category2/CS10.png","","","","",""
"","html-keyboard-response","36","243692","0.0-6.0-2.0-0.9","4dg21jcf26","many_one","0","direct_first","1","CH08RD30","0","23","1","1","1","1","Mir ist bei den Paaren von Bildern und chinesischen Zeichen ziemlich schnell aufgefallen, welche Komponente der Zeichen mit welcher Art von Bildern gekoppelt sind (Bei meiner Condition z.B.: Baum-Radikal = positiv). Ich habe keine Erfahrung mit der chinesischen Sprache, jedoch mit der Japanischen, wo auch die Kanji stark auf den chinesischen Zeichen beruhen. Daher viel es mir recht leicht die Radikale mit den Bildern zu verbinden. Aber somit fiel es mir schwer spontan zu antworten, wenn nach meinem Empfinden gefragt wurde.   
","0","1","0","null","","","<div class = 'row'><div class = 'column'><img src = 'category1/CS6.png' width = '70%;'></div><div class = 'column'><img src = 'uspos/2058.bmp' width = '100%;'></div></div>","null","pos","CS","CS","1","category1/CS6.png","","","","",""
"","html-keyboard-response","37","246213","0.0-6.0-2.0-0.10","4dg21jcf26","many_one","0","direct_first","1","CH08RD30","0","23","1","1","1","1","Mir ist bei den Paaren von Bildern und chinesischen Zeichen ziemlich schnell aufgefallen, welche Komponente der Zeichen mit welcher Art von Bildern gekoppelt sind (Bei meiner Condition z.B.: Baum-Radikal = positiv). Ich habe keine Erfahrung mit der chinesischen Sprache, jedoch mit der Japanischen, wo auch die Kanji stark auf den chinesischen Zeichen beruhen. Daher viel es mir recht leicht die Radikale mit den Bildern zu verbinden. Aber somit fiel es mir schwer spontan zu antworten, wenn nach meinem Empfinden gefragt wurde.   
","0","1","0","null","","","<div class = 'row'><div class = 'column'><img src = 'category1/CS7.png' width = '70%;'></div><div class = 'column'><img src = 'uspos/5830.bmp' width = '100%;'></div></div>","null","pos","CS","CS","1","category1/CS7.png","","","","",""
"","html-keyboard-response","38","248733","0.0-6.0-2.0-0.11","4dg21jcf26","many_one","0","direct_first","1","CH08RD30","0","23","1","1","1","1","Mir ist bei den Paaren von Bildern und chinesischen Zeichen ziemlich schnell aufgefallen, welche Komponente der Zeichen mit welcher Art von Bildern gekoppelt sind (Bei meiner Condition z.B.: Baum-Radikal = positiv). Ich habe keine Erfahrung mit der chinesischen Sprache, jedoch mit der Japanischen, wo auch die Kanji stark auf den chinesischen Zeichen beruhen. Daher viel es mir recht leicht die Radikale mit den Bildern zu verbinden. Aber somit fiel es mir schwer spontan zu antworten, wenn nach meinem Empfinden gefragt wurde.   
","0","1","0","null","","","<div class = 'row'><div class = 'column'><img src = 'category1/CS5.png' width = '70%;'></div><div class = 'column'><img src = 'uspos/4625.bmp' width = '100%;'></div></div>","null","pos","CS","CS","1","category1/CS5.png","","","","",""
"","html-keyboard-response","39","251264","0.0-6.0-2.0-0.12","4dg21jcf26","many_one","0","direct_first","1","CH08RD30","0","23","1","1","1","1","Mir ist bei den Paaren von Bildern und chinesischen Zeichen ziemlich schnell aufgefallen, welche Komponente der Zeichen mit welcher Art von Bildern gekoppelt sind (Bei meiner Condition z.B.: Baum-Radikal = positiv). Ich habe keine Erfahrung mit der chinesischen Sprache, jedoch mit der Japanischen, wo auch die Kanji stark auf den chinesischen Zeichen beruhen. Daher viel es mir recht leicht die Radikale mit den Bildern zu verbinden. Aber somit fiel es mir schwer spontan zu antworten, wenn nach meinem Empfinden gefragt wurde.   
","0","1","0","null","","","<div class = 'row'><div class = 'column'><img src = 'usneg/9290.bmp' width = '100%;'></div><div class = 'column'><img src = 'category3/CS9.png' width = '70%;'></div></div>","null","neg","CS","CS","3","category3/CS9.png","","","","",""
"","html-keyboard-response","40","253803","0.0-6.0-2.0-0.13","4dg21jcf26","many_one","0","direct_first","1","CH08RD30","0","23","1","1","1","1","Mir ist bei den Paaren von Bildern und chinesischen Zeichen ziemlich schnell aufgefallen, welche Komponente der Zeichen mit welcher Art von Bildern gekoppelt sind (Bei meiner Condition z.B.: Baum-Radikal = positiv). Ich habe keine Erfahrung mit der chinesischen Sprache, jedoch mit der Japanischen, wo auch die Kanji stark auf den chinesischen Zeichen beruhen. Daher viel es mir recht leicht die Radikale mit den Bildern zu verbinden. Aber somit fiel es mir schwer spontan zu antworten, wenn nach meinem Empfinden gefragt wurde.   
","0","1","0","null","","","<div class = 'row'><div class = 'column'><img src = 'category3/CS2.png' width = '70%;'></div><div class = 'column'><img src = 'usneg/2205.bmp' width = '100%;'></div></div>","null","neg","CS","CS","3","category3/CS2.png","","","","",""
"","html-keyboard-response","41","256322","0.0-6.0-2.0-0.14","4dg21jcf26","many_one","0","direct_first","1","CH08RD30","0","23","1","1","1","1","Mir ist bei den Paaren von Bildern und chinesischen Zeichen ziemlich schnell aufgefallen, welche Komponente der Zeichen mit welcher Art von Bildern gekoppelt sind (Bei meiner Condition z.B.: Baum-Radikal = positiv). Ich habe keine Erfahrung mit der chinesischen Sprache, jedoch mit der Japanischen, wo auch die Kanji stark auf den chinesischen Zeichen beruhen. Daher viel es mir recht leicht die Radikale mit den Bildern zu verbinden. Aber somit fiel es mir schwer spontan zu antworten, wenn nach meinem Empfinden gefragt wurde.   
","0","1","0","null","","","<div class = 'row'><div class = 'column'><img src = 'uspos/5700.bmp' width = '100%;'></div><div class = 'column'><img src = 'category4/CS5.png' width = '70%;'></div></div>","null","pos","CS","CS","4","category4/CS5.png","","","","",""
"","html-keyboard-response","42","258854","0.0-6.0-2.0-0.15","4dg21jcf26","many_one","0","direct_first","1","CH08RD30","0","23","1","1","1","1","Mir ist bei den Paaren von Bildern und chinesischen Zeichen ziemlich schnell aufgefallen, welche Komponente der Zeichen mit welcher Art von Bildern gekoppelt sind (Bei meiner Condition z.B.: Baum-Radikal = positiv). Ich habe keine Erfahrung mit der chinesischen Sprache, jedoch mit der Japanischen, wo auch die Kanji stark auf den chinesischen Zeichen beruhen. Daher viel es mir recht leicht die Radikale mit den Bildern zu verbinden. Aber somit fiel es mir schwer spontan zu antworten, wenn nach meinem Empfinden gefragt wurde.   
","0","1","0","null","","","<div class = 'row'><div class = 'column'><img src = 'category4/CS8.png' width = '70%;'></div><div class = 'column'><img src = 'uspos/2040.bmp' width = '100%;'></div></div>","null","pos","CS","CS","4","category4/CS8.png","","","","",""
"","html-keyboard-response","43","261383","0.0-6.0-2.0-0.16","4dg21jcf26","many_one","0","direct_first","1","CH08RD30","0","23","1","1","1","1","Mir ist bei den Paaren von Bildern und chinesischen Zeichen ziemlich schnell aufgefallen, welche Komponente der Zeichen mit welcher Art von Bildern gekoppelt sind (Bei meiner Condition z.B.: Baum-Radikal = positiv). Ich habe keine Erfahrung mit der chinesischen Sprache, jedoch mit der Japanischen, wo auch die Kanji stark auf den chinesischen Zeichen beruhen. Daher viel es mir recht leicht die Radikale mit den Bildern zu verbinden. Aber somit fiel es mir schwer spontan zu antworten, wenn nach meinem Empfinden gefragt wurde.   
","0","1","0","null","","","<div class = 'row'><div class = 'column'><img src = 'category2/CS6.png' width = '70%;'></div><div class = 'column'><img src = 'usneg/9280.bmp' width = '100%;'></div></div>","null","neg","CS","CS","2","category2/CS6.png","","","","",""
"","html-keyboard-response","44","263913","0.0-6.0-2.0-0.17","4dg21jcf26","many_one","0","direct_first","1","CH08RD30","0","23","1","1","1","1","Mir ist bei den Paaren von Bildern und chinesischen Zeichen ziemlich schnell aufgefallen, welche Komponente der Zeichen mit welcher Art von Bildern gekoppelt sind (Bei meiner Condition z.B.: Baum-Radikal = positiv). Ich habe keine Erfahrung mit der chinesischen Sprache, jedoch mit der Japanischen, wo auch die Kanji stark auf den chinesischen Zeichen beruhen. Daher viel es mir recht leicht die Radikale mit den Bildern zu verbinden. Aber somit fiel es mir schwer spontan zu antworten, wenn nach meinem Empfinden gefragt wurde.   
","0","1","0","null","","","<div class = 'row'><div class = 'column'><img src = 'uspos/1463.bmp' width = '100%;'></div><div class = 'column'><img src = 'category4/CS7.png' width = '70%;'></div></div>","null","pos","CS","CS","4","category4/CS7.png","","","","",""
"","html-keyboard-response","45","266444","0.0-6.0-2.0-0.18","4dg21jcf26","many_one","0","direct_first","1","CH08RD30","0","23","1","1","1","1","Mir ist bei den Paaren von Bildern und chinesischen Zeichen ziemlich schnell aufgefallen, welche Komponente der Zeichen mit welcher Art von Bildern gekoppelt sind (Bei meiner Condition z.B.: Baum-Radikal = positiv). Ich habe keine Erfahrung mit der chinesischen Sprache, jedoch mit der Japanischen, wo auch die Kanji stark auf den chinesischen Zeichen beruhen. Daher viel es mir recht leicht die Radikale mit den Bildern zu verbinden. Aber somit fiel es mir schwer spontan zu antworten, wenn nach meinem Empfinden gefragt wurde.   
","0","1","0","null","","","<div class = 'row'><div class = 'column'><img src = 'uspos/2340.bmp' width = '100%;'></div><div class = 'column'><img src = 'category1/CS10.png' width = '70%;'></div></div>","null","pos","CS","CS","1","category1/CS10.png","","","","",""
"","html-keyboard-response","46","268973","0.0-6.0-2.0-0.19","4dg21jcf26","many_one","0","direct_first","1","CH08RD30","0","23","1","1","1","1","Mir ist bei den Paaren von Bildern und chinesischen Zeichen ziemlich schnell aufgefallen, welche Komponente der Zeichen mit welcher Art von Bildern gekoppelt sind (Bei meiner Condition z.B.: Baum-Radikal = positiv). Ich habe keine Erfahrung mit der chinesischen Sprache, jedoch mit der Japanischen, wo auch die Kanji stark auf den chinesischen Zeichen beruhen. Daher viel es mir recht leicht die Radikale mit den Bildern zu verbinden. Aber somit fiel es mir schwer spontan zu antworten, wenn nach meinem Empfinden gefragt wurde.   
","0","1","0","null","","","<div class = 'row'><div class = 'column'><img src = 'category2/CS7.png' width = '70%;'></div><div class = 'column'><img src = 'usneg/3300.bmp' width = '100%;'></div></div>","null","neg","CS","CS","2","category2/CS7.png","","","","",""
"","survey-html-form","47","271020","0.0-6.0-3.0","4dg21jcf26","many_one","0","direct_first","1","CH08RD30","0","23","1","1","1","1","Mir ist bei den Paaren von Bildern und chinesischen Zeichen ziemlich schnell aufgefallen, welche Komponente der Zeichen mit welcher Art von Bildern gekoppelt sind (Bei meiner Condition z.B.: Baum-Radikal = positiv). Ich habe keine Erfahrung mit der chinesischen Sprache, jedoch mit der Japanischen, wo auch die Kanji stark auf den chinesischen Zeichen beruhen. Daher viel es mir recht leicht die Radikale mit den Bildern zu verbinden. Aber somit fiel es mir schwer spontan zu antworten, wenn nach meinem Empfinden gefragt wurde.   
","0","1","0","1535","","{}","","","","","","","","","","","",""
"","html-keyboard-response","48","275043","0.0-6.0-4.0-0.0","4dg21jcf26","many_one","0","direct_first","1","CH08RD30","0","23","1","1","1","1","Mir ist bei den Paaren von Bildern und chinesischen Zeichen ziemlich schnell aufgefallen, welche Komponente der Zeichen mit welcher Art von Bildern gekoppelt sind (Bei meiner Condition z.B.: Baum-Radikal = positiv). Ich habe keine Erfahrung mit der chinesischen Sprache, jedoch mit der Japanischen, wo auch die Kanji stark auf den chinesischen Zeichen beruhen. Daher viel es mir recht leicht die Radikale mit den Bildern zu verbinden. Aber somit fiel es mir schwer spontan zu antworten, wenn nach meinem Empfinden gefragt wurde.   
","0","1","0","null","","","<div class = 'row'><div class = 'column'><img src = 'usneg/9290.bmp' width = '100%;'></div><div class = 'column'><img src = 'category3/CS9.png' width = '70%;'></div></div>","null","neg","CS","CS","3","category3/CS9.png","","","","",""
"","html-keyboard-response","49","277572","0.0-6.0-4.0-0.1","4dg21jcf26","many_one","0","direct_first","1","CH08RD30","0","23","1","1","1","1","Mir ist bei den Paaren von Bildern und chinesischen Zeichen ziemlich schnell aufgefallen, welche Komponente der Zeichen mit welcher Art von Bildern gekoppelt sind (Bei meiner Condition z.B.: Baum-Radikal = positiv). Ich habe keine Erfahrung mit der chinesischen Sprache, jedoch mit der Japanischen, wo auch die Kanji stark auf den chinesischen Zeichen beruhen. Daher viel es mir recht leicht die Radikale mit den Bildern zu verbinden. Aber somit fiel es mir schwer spontan zu antworten, wenn nach meinem Empfinden gefragt wurde.   
","0","1","0","null","","","<div class = 'row'><div class = 'column'><img src = 'category3/CS2.png' width = '70%;'></div><div class = 'column'><img src = 'usneg/2205.bmp' width = '100%;'></div></div>","null","neg","CS","CS","3","category3/CS2.png","","","","",""
"","html-keyboard-response","50","280103","0.0-6.0-4.0-0.2","4dg21jcf26","many_one","0","direct_first","1","CH08RD30","0","23","1","1","1","1","Mir ist bei den Paaren von Bildern und chinesischen Zeichen ziemlich schnell aufgefallen, welche Komponente der Zeichen mit welcher Art von Bildern gekoppelt sind (Bei meiner Condition z.B.: Baum-Radikal = positiv). Ich habe keine Erfahrung mit der chinesischen Sprache, jedoch mit der Japanischen, wo auch die Kanji stark auf den chinesischen Zeichen beruhen. Daher viel es mir recht leicht die Radikale mit den Bildern zu verbinden. Aber somit fiel es mir schwer spontan zu antworten, wenn nach meinem Empfinden gefragt wurde.   
","0","1","0","null","","","<div class = 'row'><div class = 'column'><img src = 'category2/CS7.png' width = '70%;'></div><div class = 'column'><img src = 'usneg/3300.bmp' width = '100%;'></div></div>","null","neg","CS","CS","2","category2/CS7.png","","","","",""
"","html-keyboard-response","51","282633","0.0-6.0-4.0-0.3","4dg21jcf26","many_one","0","direct_first","1","CH08RD30","0","23","1","1","1","1","Mir ist bei den Paaren von Bildern und chinesischen Zeichen ziemlich schnell aufgefallen, welche Komponente der Zeichen mit welcher Art von Bildern gekoppelt sind (Bei meiner Condition z.B.: Baum-Radikal = positiv). Ich habe keine Erfahrung mit der chinesischen Sprache, jedoch mit der Japanischen, wo auch die Kanji stark auf den chinesischen Zeichen beruhen. Daher viel es mir recht leicht die Radikale mit den Bildern zu verbinden. Aber somit fiel es mir schwer spontan zu antworten, wenn nach meinem Empfinden gefragt wurde.   
","0","1","0","null","","","<div class = 'row'><div class = 'column'><img src = 'usneg/1280.bmp' width = '100%;'></div><div class = 'column'><img src = 'category2/CS10.png' width = '70%;'></div></div>","null","neg","CS","CS","2","category2/CS10.png","","","","",""
"","html-keyboard-response","52","285162","0.0-6.0-4.0-0.4","4dg21jcf26","many_one","0","direct_first","1","CH08RD30","0","23","1","1","1","1","Mir ist bei den Paaren von Bildern und chinesischen Zeichen ziemlich schnell aufgefallen, welche Komponente der Zeichen mit welcher Art von Bildern gekoppelt sind (Bei meiner Condition z.B.: Baum-Radikal = positiv). Ich habe keine Erfahrung mit der chinesischen Sprache, jedoch mit der Japanischen, wo auch die Kanji stark auf den chinesischen Zeichen beruhen. Daher viel es mir recht leicht die Radikale mit den Bildern zu verbinden. Aber somit fiel es mir schwer spontan zu antworten, wenn nach meinem Empfinden gefragt wurde.   
","0","1","0","null","","","<div class = 'row'><div class = 'column'><img src = 'category1/CS5.png' width = '70%;'></div><div class = 'column'><img src = 'uspos/4625.bmp' width = '100%;'></div></div>","null","pos","CS","CS","1","category1/CS5.png","","","","",""
"","html-keyboard-response","53","287683","0.0-6.0-4.0-0.5","4dg21jcf26","many_one","0","direct_first","1","CH08RD30","0","23","1","1","1","1","Mir ist bei den Paaren von Bildern und chinesischen Zeichen ziemlich schnell aufgefallen, welche Komponente der Zeichen mit welcher Art von Bildern gekoppelt sind (Bei meiner Condition z.B.: Baum-Radikal = positiv). Ich habe keine Erfahrung mit der chinesischen Sprache, jedoch mit der Japanischen, wo auch die Kanji stark auf den chinesischen Zeichen beruhen. Daher viel es mir recht leicht die Radikale mit den Bildern zu verbinden. Aber somit fiel es mir schwer spontan zu antworten, wenn nach meinem Empfinden gefragt wurde.   
","0","1","0","null","","","<div class = 'row'><div class = 'column'><img src = 'usneg/9342.bmp' width = '100%;'></div><div class = 'column'><img src = 'category3/CS8.png' width = '70%;'></div></div>","null","neg","CS","CS","3","category3/CS8.png","","","","",""
"","html-keyboard-response","54","290212","0.0-6.0-4.0-0.6","4dg21jcf26","many_one","0","direct_first","1","CH08RD30","0","23","1","1","1","1","Mir ist bei den Paaren von Bildern und chinesischen Zeichen ziemlich schnell aufgefallen, welche Komponente der Zeichen mit welcher Art von Bildern gekoppelt sind (Bei meiner Condition z.B.: Baum-Radikal = positiv). Ich habe keine Erfahrung mit der chinesischen Sprache, jedoch mit der Japanischen, wo auch die Kanji stark auf den chinesischen Zeichen beruhen. Daher viel es mir recht leicht die Radikale mit den Bildern zu verbinden. Aber somit fiel es mir schwer spontan zu antworten, wenn nach meinem Empfinden gefragt wurde.   
","0","1","0","null","","","<div class = 'row'><div class = 'column'><img src = 'uspos/5700.bmp' width = '100%;'></div><div class = 'column'><img src = 'category4/CS5.png' width = '70%;'></div></div>","null","pos","CS","CS","4","category4/CS5.png","","","","",""
"","html-keyboard-response","55","292723","0.0-6.0-4.0-0.7","4dg21jcf26","many_one","0","direct_first","1","CH08RD30","0","23","1","1","1","1","Mir ist bei den Paaren von Bildern und chinesischen Zeichen ziemlich schnell aufgefallen, welche Komponente der Zeichen mit welcher Art von Bildern gekoppelt sind (Bei meiner Condition z.B.: Baum-Radikal = positiv). Ich habe keine Erfahrung mit der chinesischen Sprache, jedoch mit der Japanischen, wo auch die Kanji stark auf den chinesischen Zeichen beruhen. Daher viel es mir recht leicht die Radikale mit den Bildern zu verbinden. Aber somit fiel es mir schwer spontan zu antworten, wenn nach meinem Empfinden gefragt wurde.   
","0","1","0","null","","","<div class = 'row'><div class = 'column'><img src = 'category1/CS10.png' width = '70%;'></div><div class = 'column'><img src = 'uspos/2340.bmp' width = '100%;'></div></div>","null","pos","CS","CS","1","category1/CS10.png","","","","",""
"","html-keyboard-response","56","295253","0.0-6.0-4.0-0.8","4dg21jcf26","many_one","0","direct_first","1","CH08RD30","0","23","1","1","1","1","Mir ist bei den Paaren von Bildern und chinesischen Zeichen ziemlich schnell aufgefallen, welche Komponente der Zeichen mit welcher Art von Bildern gekoppelt sind (Bei meiner Condition z.B.: Baum-Radikal = positiv). Ich habe keine Erfahrung mit der chinesischen Sprache, jedoch mit der Japanischen, wo auch die Kanji stark auf den chinesischen Zeichen beruhen. Daher viel es mir recht leicht die Radikale mit den Bildern zu verbinden. Aber somit fiel es mir schwer spontan zu antworten, wenn nach meinem Empfinden gefragt wurde.   
","0","1","0","null","","","<div class = 'row'><div class = 'column'><img src = 'category1/CS7.png' width = '70%;'></div><div class = 'column'><img src = 'uspos/5830.bmp' width = '100%;'></div></div>","null","pos","CS","CS","1","category1/CS7.png","","","","",""
"","html-keyboard-response","57","297783","0.0-6.0-4.0-0.9","4dg21jcf26","many_one","0","direct_first","1","CH08RD30","0","23","1","1","1","1","Mir ist bei den Paaren von Bildern und chinesischen Zeichen ziemlich schnell aufgefallen, welche Komponente der Zeichen mit welcher Art von Bildern gekoppelt sind (Bei meiner Condition z.B.: Baum-Radikal = positiv). Ich habe keine Erfahrung mit der chinesischen Sprache, jedoch mit der Japanischen, wo auch die Kanji stark auf den chinesischen Zeichen beruhen. Daher viel es mir recht leicht die Radikale mit den Bildern zu verbinden. Aber somit fiel es mir schwer spontan zu antworten, wenn nach meinem Empfinden gefragt wurde.   
","0","1","0","null","","","<div class = 'row'><div class = 'column'><img src = 'category2/CS2.png' width = '70%;'></div><div class = 'column'><img src = 'usneg/9000.bmp' width = '100%;'></div></div>","null","neg","CS","CS","2","category2/CS2.png","","","","",""
"","html-keyboard-response","58","300302","0.0-6.0-4.0-0.10","4dg21jcf26","many_one","0","direct_first","1","CH08RD30","0","23","1","1","1","1","Mir ist bei den Paaren von Bildern und chinesischen Zeichen ziemlich schnell aufgefallen, welche Komponente der Zeichen mit welcher Art von Bildern gekoppelt sind (Bei meiner Condition z.B.: Baum-Radikal = positiv). Ich habe keine Erfahrung mit der chinesischen Sprache, jedoch mit der Japanischen, wo auch die Kanji stark auf den chinesischen Zeichen beruhen. Daher viel es mir recht leicht die Radikale mit den Bildern zu verbinden. Aber somit fiel es mir schwer spontan zu antworten, wenn nach meinem Empfinden gefragt wurde.   
","0","1","0","null","","","<div class = 'row'><div class = 'column'><img src = 'category4/CS6.png' width = '70%;'></div><div class = 'column'><img src = 'uspos/2550.bmp' width = '100%;'></div></div>","null","pos","CS","CS","4","category4/CS6.png","","","","",""
"","html-keyboard-response","59","302833","0.0-6.0-4.0-0.11","4dg21jcf26","many_one","0","direct_first","1","CH08RD30","0","23","1","1","1","1","Mir ist bei den Paaren von Bildern und chinesischen Zeichen ziemlich schnell aufgefallen, welche Komponente der Zeichen mit welcher Art von Bildern gekoppelt sind (Bei meiner Condition z.B.: Baum-Radikal = positiv). Ich habe keine Erfahrung mit der chinesischen Sprache, jedoch mit der Japanischen, wo auch die Kanji stark auf den chinesischen Zeichen beruhen. Daher viel es mir recht leicht die Radikale mit den Bildern zu verbinden. Aber somit fiel es mir schwer spontan zu antworten, wenn nach meinem Empfinden gefragt wurde.   
","0","1","0","null","","","<div class = 'row'><div class = 'column'><img src = 'usneg/9280.bmp' width = '100%;'></div><div class = 'column'><img src = 'category2/CS6.png' width = '70%;'></div></div>","null","neg","CS","CS","2","category2/CS6.png","","","","",""
"","html-keyboard-response","60","305362","0.0-6.0-4.0-0.12","4dg21jcf26","many_one","0","direct_first","1","CH08RD30","0","23","1","1","1","1","Mir ist bei den Paaren von Bildern und chinesischen Zeichen ziemlich schnell aufgefallen, welche Komponente der Zeichen mit welcher Art von Bildern gekoppelt sind (Bei meiner Condition z.B.: Baum-Radikal = positiv). Ich habe keine Erfahrung mit der chinesischen Sprache, jedoch mit der Japanischen, wo auch die Kanji stark auf den chinesischen Zeichen beruhen. Daher viel es mir recht leicht die Radikale mit den Bildern zu verbinden. Aber somit fiel es mir schwer spontan zu antworten, wenn nach meinem Empfinden gefragt wurde.   
","0","1","0","null","","","<div class = 'row'><div class = 'column'><img src = 'usneg/9635.2.bmp' width = '100%;'></div><div class = 'column'><img src = 'category2/CS4.png' width = '70%;'></div></div>","null","neg","CS","CS","2","category2/CS4.png","","","","",""
"","html-keyboard-response","61","307873","0.0-6.0-4.0-0.13","4dg21jcf26","many_one","0","direct_first","1","CH08RD30","0","23","1","1","1","1","Mir ist bei den Paaren von Bildern und chinesischen Zeichen ziemlich schnell aufgefallen, welche Komponente der Zeichen mit welcher Art von Bildern gekoppelt sind (Bei meiner Condition z.B.: Baum-Radikal = positiv). Ich habe keine Erfahrung mit der chinesischen Sprache, jedoch mit der Japanischen, wo auch die Kanji stark auf den chinesischen Zeichen beruhen. Daher viel es mir recht leicht die Radikale mit den Bildern zu verbinden. Aber somit fiel es mir schwer spontan zu antworten, wenn nach meinem Empfinden gefragt wurde.   
","0","1","0","null","","","<div class = 'row'><div class = 'column'><img src = 'usneg/2900.bmp' width = '100%;'></div><div class = 'column'><img src = 'category3/CS3.png' width = '70%;'></div></div>","null","neg","CS","CS","3","category3/CS3.png","","","","",""
"","html-keyboard-response","62","310403","0.0-6.0-4.0-0.14","4dg21jcf26","many_one","0","direct_first","1","CH08RD30","0","23","1","1","1","1","Mir ist bei den Paaren von Bildern und chinesischen Zeichen ziemlich schnell aufgefallen, welche Komponente der Zeichen mit welcher Art von Bildern gekoppelt sind (Bei meiner Condition z.B.: Baum-Radikal = positiv). Ich habe keine Erfahrung mit der chinesischen Sprache, jedoch mit der Japanischen, wo auch die Kanji stark auf den chinesischen Zeichen beruhen. Daher viel es mir recht leicht die Radikale mit den Bildern zu verbinden. Aber somit fiel es mir schwer spontan zu antworten, wenn nach meinem Empfinden gefragt wurde.   
","0","1","0","null","","","<div class = 'row'><div class = 'column'><img src = 'category4/CS8.png' width = '70%;'></div><div class = 'column'><img src = 'uspos/2040.bmp' width = '100%;'></div></div>","null","pos","CS","CS","4","category4/CS8.png","","","","",""
"","html-keyboard-response","63","312923","0.0-6.0-4.0-0.15","4dg21jcf26","many_one","0","direct_first","1","CH08RD30","0","23","1","1","1","1","Mir ist bei den Paaren von Bildern und chinesischen Zeichen ziemlich schnell aufgefallen, welche Komponente der Zeichen mit welcher Art von Bildern gekoppelt sind (Bei meiner Condition z.B.: Baum-Radikal = positiv). Ich habe keine Erfahrung mit der chinesischen Sprache, jedoch mit der Japanischen, wo auch die Kanji stark auf den chinesischen Zeichen beruhen. Daher viel es mir recht leicht die Radikale mit den Bildern zu verbinden. Aber somit fiel es mir schwer spontan zu antworten, wenn nach meinem Empfinden gefragt wurde.   
","0","1","0","null","","","<div class = 'row'><div class = 'column'><img src = 'category4/CS3.png' width = '70%;'></div><div class = 'column'><img src = 'uspos/8350.bmp' width = '100%;'></div></div>","null","pos","CS","CS","4","category4/CS3.png","","","","",""
"","html-keyboard-response","64","315453","0.0-6.0-4.0-0.16","4dg21jcf26","many_one","0","direct_first","1","CH08RD30","0","23","1","1","1","1","Mir ist bei den Paaren von Bildern und chinesischen Zeichen ziemlich schnell aufgefallen, welche Komponente der Zeichen mit welcher Art von Bildern gekoppelt sind (Bei meiner Condition z.B.: Baum-Radikal = positiv). Ich habe keine Erfahrung mit der chinesischen Sprache, jedoch mit der Japanischen, wo auch die Kanji stark auf den chinesischen Zeichen beruhen. Daher viel es mir recht leicht die Radikale mit den Bildern zu verbinden. Aber somit fiel es mir schwer spontan zu antworten, wenn nach meinem Empfinden gefragt wurde.   
","0","1","0","null","","","<div class = 'row'><div class = 'column'><img src = 'category4/CS7.png' width = '70%;'></div><div class = 'column'><img src = 'uspos/1463.bmp' width = '100%;'></div></div>","null","pos","CS","CS","4","category4/CS7.png","","","","",""
"","html-keyboard-response","65","317973","0.0-6.0-4.0-0.17","4dg21jcf26","many_one","0","direct_first","1","CH08RD30","0","23","1","1","1","1","Mir ist bei den Paaren von Bildern und chinesischen Zeichen ziemlich schnell aufgefallen, welche Komponente der Zeichen mit welcher Art von Bildern gekoppelt sind (Bei meiner Condition z.B.: Baum-Radikal = positiv). Ich habe keine Erfahrung mit der chinesischen Sprache, jedoch mit der Japanischen, wo auch die Kanji stark auf den chinesischen Zeichen beruhen. Daher viel es mir recht leicht die Radikale mit den Bildern zu verbinden. Aber somit fiel es mir schwer spontan zu antworten, wenn nach meinem Empfinden gefragt wurde.   
","0","1","0","null","","","<div class = 'row'><div class = 'column'><img src = 'category1/CS6.png' width = '70%;'></div><div class = 'column'><img src = 'uspos/2058.bmp' width = '100%;'></div></div>","null","pos","CS","CS","1","category1/CS6.png","","","","",""
"","html-keyboard-response","66","320502","0.0-6.0-4.0-0.18","4dg21jcf26","many_one","0","direct_first","1","CH08RD30","0","23","1","1","1","1","Mir ist bei den Paaren von Bildern und chinesischen Zeichen ziemlich schnell aufgefallen, welche Komponente der Zeichen mit welcher Art von Bildern gekoppelt sind (Bei meiner Condition z.B.: Baum-Radikal = positiv). Ich habe keine Erfahrung mit der chinesischen Sprache, jedoch mit der Japanischen, wo auch die Kanji stark auf den chinesischen Zeichen beruhen. Daher viel es mir recht leicht die Radikale mit den Bildern zu verbinden. Aber somit fiel es mir schwer spontan zu antworten, wenn nach meinem Empfinden gefragt wurde.   
","0","1","0","null","","","<div class = 'row'><div class = 'column'><img src = 'usneg/9584.bmp' width = '100%;'></div><div class = 'column'><img src = 'category3/CS7.png' width = '70%;'></div></div>","null","neg","CS","CS","3","category3/CS7.png","","","","",""
"","html-keyboard-response","67","323044","0.0-6.0-4.0-0.19","4dg21jcf26","many_one","0","direct_first","1","CH08RD30","0","23","1","1","1","1","Mir ist bei den Paaren von Bildern und chinesischen Zeichen ziemlich schnell aufgefallen, welche Komponente der Zeichen mit welcher Art von Bildern gekoppelt sind (Bei meiner Condition z.B.: Baum-Radikal = positiv). Ich habe keine Erfahrung mit der chinesischen Sprache, jedoch mit der Japanischen, wo auch die Kanji stark auf den chinesischen Zeichen beruhen. Daher viel es mir recht leicht die Radikale mit den Bildern zu verbinden. Aber somit fiel es mir schwer spontan zu antworten, wenn nach meinem Empfinden gefragt wurde.   
","0","1","0","null","","","<div class = 'row'><div class = 'column'><img src = 'category1/CS1.png' width = '70%;'></div><div class = 'column'><img src = 'uspos/5621.bmp' width = '100%;'></div></div>","null","pos","CS","CS","1","category1/CS1.png","","","","",""
"","survey-html-form","68","325414","0.0-6.0-5.0","4dg21jcf26","many_one","0","direct_first","1","CH08RD30","0","23","1","1","1","1","Mir ist bei den Paaren von Bildern und chinesischen Zeichen ziemlich schnell aufgefallen, welche Komponente der Zeichen mit welcher Art von Bildern gekoppelt sind (Bei meiner Condition z.B.: Baum-Radikal = positiv). Ich habe keine Erfahrung mit der chinesischen Sprache, jedoch mit der Japanischen, wo auch die Kanji stark auf den chinesischen Zeichen beruhen. Daher viel es mir recht leicht die Radikale mit den Bildern zu verbinden. Aber somit fiel es mir schwer spontan zu antworten, wenn nach meinem Empfinden gefragt wurde.   
","0","1","0","1859","","{}","","","","","","","","","","","",""
"","html-keyboard-response","69","329443","0.0-6.0-6.0-0.0","4dg21jcf26","many_one","0","direct_first","1","CH08RD30","0","23","1","1","1","1","Mir ist bei den Paaren von Bildern und chinesischen Zeichen ziemlich schnell aufgefallen, welche Komponente der Zeichen mit welcher Art von Bildern gekoppelt sind (Bei meiner Condition z.B.: Baum-Radikal = positiv). Ich habe keine Erfahrung mit der chinesischen Sprache, jedoch mit der Japanischen, wo auch die Kanji stark auf den chinesischen Zeichen beruhen. Daher viel es mir recht leicht die Radikale mit den Bildern zu verbinden. Aber somit fiel es mir schwer spontan zu antworten, wenn nach meinem Empfinden gefragt wurde.   
","0","1","0","null","","","<div class = 'row'><div class = 'column'><img src = 'usneg/3300.bmp' width = '100%;'></div><div class = 'column'><img src = 'category2/CS7.png' width = '70%;'></div></div>","null","neg","CS","CS","2","category2/CS7.png","","","","",""
"","html-keyboard-response","70","331973","0.0-6.0-6.0-0.1","4dg21jcf26","many_one","0","direct_first","1","CH08RD30","0","23","1","1","1","1","Mir ist bei den Paaren von Bildern und chinesischen Zeichen ziemlich schnell aufgefallen, welche Komponente der Zeichen mit welcher Art von Bildern gekoppelt sind (Bei meiner Condition z.B.: Baum-Radikal = positiv). Ich habe keine Erfahrung mit der chinesischen Sprache, jedoch mit der Japanischen, wo auch die Kanji stark auf den chinesischen Zeichen beruhen. Daher viel es mir recht leicht die Radikale mit den Bildern zu verbinden. Aber somit fiel es mir schwer spontan zu antworten, wenn nach meinem Empfinden gefragt wurde.   
","0","1","0","null","","","<div class = 'row'><div class = 'column'><img src = 'category3/CS3.png' width = '70%;'></div><div class = 'column'><img src = 'usneg/2900.bmp' width = '100%;'></div></div>","null","neg","CS","CS","3","category3/CS3.png","","","","",""
"","html-keyboard-response","71","334493","0.0-6.0-6.0-0.2","4dg21jcf26","many_one","0","direct_first","1","CH08RD30","0","23","1","1","1","1","Mir ist bei den Paaren von Bildern und chinesischen Zeichen ziemlich schnell aufgefallen, welche Komponente der Zeichen mit welcher Art von Bildern gekoppelt sind (Bei meiner Condition z.B.: Baum-Radikal = positiv). Ich habe keine Erfahrung mit der chinesischen Sprache, jedoch mit der Japanischen, wo auch die Kanji stark auf den chinesischen Zeichen beruhen. Daher viel es mir recht leicht die Radikale mit den Bildern zu verbinden. Aber somit fiel es mir schwer spontan zu antworten, wenn nach meinem Empfinden gefragt wurde.   
","0","1","0","null","","","<div class = 'row'><div class = 'column'><img src = 'category1/CS5.png' width = '70%;'></div><div class = 'column'><img src = 'uspos/4625.bmp' width = '100%;'></div></div>","null","pos","CS","CS","1","category1/CS5.png","","","","",""
"","html-keyboard-response","72","337023","0.0-6.0-6.0-0.3","4dg21jcf26","many_one","0","direct_first","1","CH08RD30","0","23","1","1","1","1","Mir ist bei den Paaren von Bildern und chinesischen Zeichen ziemlich schnell aufgefallen, welche Komponente der Zeichen mit welcher Art von Bildern gekoppelt sind (Bei meiner Condition z.B.: Baum-Radikal = positiv). Ich habe keine Erfahrung mit der chinesischen Sprache, jedoch mit der Japanischen, wo auch die Kanji stark auf den chinesischen Zeichen beruhen. Daher viel es mir recht leicht die Radikale mit den Bildern zu verbinden. Aber somit fiel es mir schwer spontan zu antworten, wenn nach meinem Empfinden gefragt wurde.   
","0","1","0","null","","","<div class = 'row'><div class = 'column'><img src = 'category1/CS6.png' width = '70%;'></div><div class = 'column'><img src = 'uspos/2058.bmp' width = '100%;'></div></div>","null","pos","CS","CS","1","category1/CS6.png","","","","",""
"","html-keyboard-response","73","339543","0.0-6.0-6.0-0.4","4dg21jcf26","many_one","0","direct_first","1","CH08RD30","0","23","1","1","1","1","Mir ist bei den Paaren von Bildern und chinesischen Zeichen ziemlich schnell aufgefallen, welche Komponente der Zeichen mit welcher Art von Bildern gekoppelt sind (Bei meiner Condition z.B.: Baum-Radikal = positiv). Ich habe keine Erfahrung mit der chinesischen Sprache, jedoch mit der Japanischen, wo auch die Kanji stark auf den chinesischen Zeichen beruhen. Daher viel es mir recht leicht die Radikale mit den Bildern zu verbinden. Aber somit fiel es mir schwer spontan zu antworten, wenn nach meinem Empfinden gefragt wurde.   
","0","1","0","null","","","<div class = 'row'><div class = 'column'><img src = 'uspos/2040.bmp' width = '100%;'></div><div class = 'column'><img src = 'category4/CS8.png' width = '70%;'></div></div>","null","pos","CS","CS","4","category4/CS8.png","","","","",""
"","html-keyboard-response","74","342073","0.0-6.0-6.0-0.5","4dg21jcf26","many_one","0","direct_first","1","CH08RD30","0","23","1","1","1","1","Mir ist bei den Paaren von Bildern und chinesischen Zeichen ziemlich schnell aufgefallen, welche Komponente der Zeichen mit welcher Art von Bildern gekoppelt sind (Bei meiner Condition z.B.: Baum-Radikal = positiv). Ich habe keine Erfahrung mit der chinesischen Sprache, jedoch mit der Japanischen, wo auch die Kanji stark auf den chinesischen Zeichen beruhen. Daher viel es mir recht leicht die Radikale mit den Bildern zu verbinden. Aber somit fiel es mir schwer spontan zu antworten, wenn nach meinem Empfinden gefragt wurde.   
","0","1","0","null","","","<div class = 'row'><div class = 'column'><img src = 'uspos/5830.bmp' width = '100%;'></div><div class = 'column'><img src = 'category1/CS7.png' width = '70%;'></div></div>","null","pos","CS","CS","1","category1/CS7.png","","","","",""
"","html-keyboard-response","75","344604","0.0-6.0-6.0-0.6","4dg21jcf26","many_one","0","direct_first","1","CH08RD30","0","23","1","1","1","1","Mir ist bei den Paaren von Bildern und chinesischen Zeichen ziemlich schnell aufgefallen, welche Komponente der Zeichen mit welcher Art von Bildern gekoppelt sind (Bei meiner Condition z.B.: Baum-Radikal = positiv). Ich habe keine Erfahrung mit der chinesischen Sprache, jedoch mit der Japanischen, wo auch die Kanji stark auf den chinesischen Zeichen beruhen. Daher viel es mir recht leicht die Radikale mit den Bildern zu verbinden. Aber somit fiel es mir schwer spontan zu antworten, wenn nach meinem Empfinden gefragt wurde.   
","0","1","0","null","","","<div class = 'row'><div class = 'column'><img src = 'usneg/9584.bmp' width = '100%;'></div><div class = 'column'><img src = 'category3/CS7.png' width = '70%;'></div></div>","null","neg","CS","CS","3","category3/CS7.png","","","","",""
"","html-keyboard-response","76","347133","0.0-6.0-6.0-0.7","4dg21jcf26","many_one","0","direct_first","1","CH08RD30","0","23","1","1","1","1","Mir ist bei den Paaren von Bildern und chinesischen Zeichen ziemlich schnell aufgefallen, welche Komponente der Zeichen mit welcher Art von Bildern gekoppelt sind (Bei meiner Condition z.B.: Baum-Radikal = positiv). Ich habe keine Erfahrung mit der chinesischen Sprache, jedoch mit der Japanischen, wo auch die Kanji stark auf den chinesischen Zeichen beruhen. Daher viel es mir recht leicht die Radikale mit den Bildern zu verbinden. Aber somit fiel es mir schwer spontan zu antworten, wenn nach meinem Empfinden gefragt wurde.   
","0","1","0","null","","","<div class = 'row'><div class = 'column'><img src = 'usneg/9290.bmp' width = '100%;'></div><div class = 'column'><img src = 'category3/CS9.png' width = '70%;'></div></div>","null","neg","CS","CS","3","category3/CS9.png","","","","",""
"","html-keyboard-response","77","349654","0.0-6.0-6.0-0.8","4dg21jcf26","many_one","0","direct_first","1","CH08RD30","0","23","1","1","1","1","Mir ist bei den Paaren von Bildern und chinesischen Zeichen ziemlich schnell aufgefallen, welche Komponente der Zeichen mit welcher Art von Bildern gekoppelt sind (Bei meiner Condition z.B.: Baum-Radikal = positiv). Ich habe keine Erfahrung mit der chinesischen Sprache, jedoch mit der Japanischen, wo auch die Kanji stark auf den chinesischen Zeichen beruhen. Daher viel es mir recht leicht die Radikale mit den Bildern zu verbinden. Aber somit fiel es mir schwer spontan zu antworten, wenn nach meinem Empfinden gefragt wurde.   
","0","1","0","null","","","<div class = 'row'><div class = 'column'><img src = 'category4/CS3.png' width = '70%;'></div><div class = 'column'><img src = 'uspos/8350.bmp' width = '100%;'></div></div>","null","pos","CS","CS","4","category4/CS3.png","","","","",""
"","html-keyboard-response","78","352183","0.0-6.0-6.0-0.9","4dg21jcf26","many_one","0","direct_first","1","CH08RD30","0","23","1","1","1","1","Mir ist bei den Paaren von Bildern und chinesischen Zeichen ziemlich schnell aufgefallen, welche Komponente der Zeichen mit welcher Art von Bildern gekoppelt sind (Bei meiner Condition z.B.: Baum-Radikal = positiv). Ich habe keine Erfahrung mit der chinesischen Sprache, jedoch mit der Japanischen, wo auch die Kanji stark auf den chinesischen Zeichen beruhen. Daher viel es mir recht leicht die Radikale mit den Bildern zu verbinden. Aber somit fiel es mir schwer spontan zu antworten, wenn nach meinem Empfinden gefragt wurde.   
","0","1","0","null","","","<div class = 'row'><div class = 'column'><img src = 'usneg/9000.bmp' width = '100%;'></div><div class = 'column'><img src = 'category2/CS2.png' width = '70%;'></div></div>","null","neg","CS","CS","2","category2/CS2.png","","","","",""
"","html-keyboard-response","79","354713","0.0-6.0-6.0-0.10","4dg21jcf26","many_one","0","direct_first","1","CH08RD30","0","23","1","1","1","1","Mir ist bei den Paaren von Bildern und chinesischen Zeichen ziemlich schnell aufgefallen, welche Komponente der Zeichen mit welcher Art von Bildern gekoppelt sind (Bei meiner Condition z.B.: Baum-Radikal = positiv). Ich habe keine Erfahrung mit der chinesischen Sprache, jedoch mit der Japanischen, wo auch die Kanji stark auf den chinesischen Zeichen beruhen. Daher viel es mir recht leicht die Radikale mit den Bildern zu verbinden. Aber somit fiel es mir schwer spontan zu antworten, wenn nach meinem Empfinden gefragt wurde.   
","0","1","0","null","","","<div class = 'row'><div class = 'column'><img src = 'uspos/2550.bmp' width = '100%;'></div><div class = 'column'><img src = 'category4/CS6.png' width = '70%;'></div></div>","null","pos","CS","CS","4","category4/CS6.png","","","","",""
"","html-keyboard-response","80","357242","0.0-6.0-6.0-0.11","4dg21jcf26","many_one","0","direct_first","1","CH08RD30","0","23","1","1","1","1","Mir ist bei den Paaren von Bildern und chinesischen Zeichen ziemlich schnell aufgefallen, welche Komponente der Zeichen mit welcher Art von Bildern gekoppelt sind (Bei meiner Condition z.B.: Baum-Radikal = positiv). Ich habe keine Erfahrung mit der chinesischen Sprache, jedoch mit der Japanischen, wo auch die Kanji stark auf den chinesischen Zeichen beruhen. Daher viel es mir recht leicht die Radikale mit den Bildern zu verbinden. Aber somit fiel es mir schwer spontan zu antworten, wenn nach meinem Empfinden gefragt wurde.   
","0","1","0","null","","","<div class = 'row'><div class = 'column'><img src = 'uspos/2340.bmp' width = '100%;'></div><div class = 'column'><img src = 'category1/CS10.png' width = '70%;'></div></div>","null","pos","CS","CS","1","category1/CS10.png","","","","",""
"","html-keyboard-response","81","359772","0.0-6.0-6.0-0.12","4dg21jcf26","many_one","0","direct_first","1","CH08RD30","0","23","1","1","1","1","Mir ist bei den Paaren von Bildern und chinesischen Zeichen ziemlich schnell aufgefallen, welche Komponente der Zeichen mit welcher Art von Bildern gekoppelt sind (Bei meiner Condition z.B.: Baum-Radikal = positiv). Ich habe keine Erfahrung mit der chinesischen Sprache, jedoch mit der Japanischen, wo auch die Kanji stark auf den chinesischen Zeichen beruhen. Daher viel es mir recht leicht die Radikale mit den Bildern zu verbinden. Aber somit fiel es mir schwer spontan zu antworten, wenn nach meinem Empfinden gefragt wurde.   
","0","1","0","null","","","<div class = 'row'><div class = 'column'><img src = 'usneg/1280.bmp' width = '100%;'></div><div class = 'column'><img src = 'category2/CS10.png' width = '70%;'></div></div>","null","neg","CS","CS","2","category2/CS10.png","","","","",""
"","html-keyboard-response","82","362298","0.0-6.0-6.0-0.13","4dg21jcf26","many_one","0","direct_first","1","CH08RD30","0","23","1","1","1","1","Mir ist bei den Paaren von Bildern und chinesischen Zeichen ziemlich schnell aufgefallen, welche Komponente der Zeichen mit welcher Art von Bildern gekoppelt sind (Bei meiner Condition z.B.: Baum-Radikal = positiv). Ich habe keine Erfahrung mit der chinesischen Sprache, jedoch mit der Japanischen, wo auch die Kanji stark auf den chinesischen Zeichen beruhen. Daher viel es mir recht leicht die Radikale mit den Bildern zu verbinden. Aber somit fiel es mir schwer spontan zu antworten, wenn nach meinem Empfinden gefragt wurde.   
","0","1","0","null","","","<div class = 'row'><div class = 'column'><img src = 'category3/CS2.png' width = '70%;'></div><div class = 'column'><img src = 'usneg/2205.bmp' width = '100%;'></div></div>","null","neg","CS","CS","3","category3/CS2.png","","","","",""
"","html-keyboard-response","83","364812","0.0-6.0-6.0-0.14","4dg21jcf26","many_one","0","direct_first","1","CH08RD30","0","23","1","1","1","1","Mir ist bei den Paaren von Bildern und chinesischen Zeichen ziemlich schnell aufgefallen, welche Komponente der Zeichen mit welcher Art von Bildern gekoppelt sind (Bei meiner Condition z.B.: Baum-Radikal = positiv). Ich habe keine Erfahrung mit der chinesischen Sprache, jedoch mit der Japanischen, wo auch die Kanji stark auf den chinesischen Zeichen beruhen. Daher viel es mir recht leicht die Radikale mit den Bildern zu verbinden. Aber somit fiel es mir schwer spontan zu antworten, wenn nach meinem Empfinden gefragt wurde.   
","0","1","0","null","","","<div class = 'row'><div class = 'column'><img src = 'category2/CS4.png' width = '70%;'></div><div class = 'column'><img src = 'usneg/9635.2.bmp' width = '100%;'></div></div>","null","neg","CS","CS","2","category2/CS4.png","","","","",""
"","html-keyboard-response","84","367343","0.0-6.0-6.0-0.15","4dg21jcf26","many_one","0","direct_first","1","CH08RD30","0","23","1","1","1","1","Mir ist bei den Paaren von Bildern und chinesischen Zeichen ziemlich schnell aufgefallen, welche Komponente der Zeichen mit welcher Art von Bildern gekoppelt sind (Bei meiner Condition z.B.: Baum-Radikal = positiv). Ich habe keine Erfahrung mit der chinesischen Sprache, jedoch mit der Japanischen, wo auch die Kanji stark auf den chinesischen Zeichen beruhen. Daher viel es mir recht leicht die Radikale mit den Bildern zu verbinden. Aber somit fiel es mir schwer spontan zu antworten, wenn nach meinem Empfinden gefragt wurde.   
","0","1","0","null","","","<div class = 'row'><div class = 'column'><img src = 'uspos/5700.bmp' width = '100%;'></div><div class = 'column'><img src = 'category4/CS5.png' width = '70%;'></div></div>","null","pos","CS","CS","4","category4/CS5.png","","","","",""
"","html-keyboard-response","85","369873","0.0-6.0-6.0-0.16","4dg21jcf26","many_one","0","direct_first","1","CH08RD30","0","23","1","1","1","1","Mir ist bei den Paaren von Bildern und chinesischen Zeichen ziemlich schnell aufgefallen, welche Komponente der Zeichen mit welcher Art von Bildern gekoppelt sind (Bei meiner Condition z.B.: Baum-Radikal = positiv). Ich habe keine Erfahrung mit der chinesischen Sprache, jedoch mit der Japanischen, wo auch die Kanji stark auf den chinesischen Zeichen beruhen. Daher viel es mir recht leicht die Radikale mit den Bildern zu verbinden. Aber somit fiel es mir schwer spontan zu antworten, wenn nach meinem Empfinden gefragt wurde.   
","0","1","0","null","","","<div class = 'row'><div class = 'column'><img src = 'category1/CS1.png' width = '70%;'></div><div class = 'column'><img src = 'uspos/5621.bmp' width = '100%;'></div></div>","null","pos","CS","CS","1","category1/CS1.png","","","","",""
"","html-keyboard-response","86","372406","0.0-6.0-6.0-0.17","4dg21jcf26","many_one","0","direct_first","1","CH08RD30","0","23","1","1","1","1","Mir ist bei den Paaren von Bildern und chinesischen Zeichen ziemlich schnell aufgefallen, welche Komponente der Zeichen mit welcher Art von Bildern gekoppelt sind (Bei meiner Condition z.B.: Baum-Radikal = positiv). Ich habe keine Erfahrung mit der chinesischen Sprache, jedoch mit der Japanischen, wo auch die Kanji stark auf den chinesischen Zeichen beruhen. Daher viel es mir recht leicht die Radikale mit den Bildern zu verbinden. Aber somit fiel es mir schwer spontan zu antworten, wenn nach meinem Empfinden gefragt wurde.   
","0","1","0","null","","","<div class = 'row'><div class = 'column'><img src = 'uspos/1463.bmp' width = '100%;'></div><div class = 'column'><img src = 'category4/CS7.png' width = '70%;'></div></div>","null","pos","CS","CS","4","category4/CS7.png","","","","",""
"","html-keyboard-response","87","374943","0.0-6.0-6.0-0.18","4dg21jcf26","many_one","0","direct_first","1","CH08RD30","0","23","1","1","1","1","Mir ist bei den Paaren von Bildern und chinesischen Zeichen ziemlich schnell aufgefallen, welche Komponente der Zeichen mit welcher Art von Bildern gekoppelt sind (Bei meiner Condition z.B.: Baum-Radikal = positiv). Ich habe keine Erfahrung mit der chinesischen Sprache, jedoch mit der Japanischen, wo auch die Kanji stark auf den chinesischen Zeichen beruhen. Daher viel es mir recht leicht die Radikale mit den Bildern zu verbinden. Aber somit fiel es mir schwer spontan zu antworten, wenn nach meinem Empfinden gefragt wurde.   
","0","1","0","null","","","<div class = 'row'><div class = 'column'><img src = 'category2/CS6.png' width = '70%;'></div><div class = 'column'><img src = 'usneg/9280.bmp' width = '100%;'></div></div>","null","neg","CS","CS","2","category2/CS6.png","","","","",""
"","html-keyboard-response","88","377463","0.0-6.0-6.0-0.19","4dg21jcf26","many_one","0","direct_first","1","CH08RD30","0","23","1","1","1","1","Mir ist bei den Paaren von Bildern und chinesischen Zeichen ziemlich schnell aufgefallen, welche Komponente der Zeichen mit welcher Art von Bildern gekoppelt sind (Bei meiner Condition z.B.: Baum-Radikal = positiv). Ich habe keine Erfahrung mit der chinesischen Sprache, jedoch mit der Japanischen, wo auch die Kanji stark auf den chinesischen Zeichen beruhen. Daher viel es mir recht leicht die Radikale mit den Bildern zu verbinden. Aber somit fiel es mir schwer spontan zu antworten, wenn nach meinem Empfinden gefragt wurde.   
","0","1","0","null","","","<div class = 'row'><div class = 'column'><img src = 'category3/CS8.png' width = '70%;'></div><div class = 'column'><img src = 'usneg/9342.bmp' width = '100%;'></div></div>","null","neg","CS","CS","3","category3/CS8.png","","","","",""
"","survey-html-form","89","396429","0.0-7.0","4dg21jcf26","many_one","0","direct_first","1","CH08RD30","0","23","1","1","1","1","Mir ist bei den Paaren von Bildern und chinesischen Zeichen ziemlich schnell aufgefallen, welche Komponente der Zeichen mit welcher Art von Bildern gekoppelt sind (Bei meiner Condition z.B.: Baum-Radikal = positiv). Ich habe keine Erfahrung mit der chinesischen Sprache, jedoch mit der Japanischen, wo auch die Kanji stark auf den chinesischen Zeichen beruhen. Daher viel es mir recht leicht die Radikale mit den Bildern zu verbinden. Aber somit fiel es mir schwer spontan zu antworten, wenn nach meinem Empfinden gefragt wurde.   
","0","1","0","18456","","{}","","","","","","","","","","","",""
"","image-slider-response","90","406563","0.0-8.0-0.0","4dg21jcf26","many_one","0","direct_first","1","CH08RD30","0","23","1","1","1","1","Mir ist bei den Paaren von Bildern und chinesischen Zeichen ziemlich schnell aufgefallen, welche Komponente der Zeichen mit welcher Art von Bildern gekoppelt sind (Bei meiner Condition z.B.: Baum-Radikal = positiv). Ich habe keine Erfahrung mit der chinesischen Sprache, jedoch mit der Japanischen, wo auch die Kanji stark auf den chinesischen Zeichen beruhen. Daher viel es mir recht leicht die Radikale mit den Bildern zu verbinden. Aber somit fiel es mir schwer spontan zu antworten, wenn nach meinem Empfinden gefragt wurde.   
","0","1","0","8108","","","","","neg","GS","GSold","2","category2/CS5.png","51","targets/13.png","direct","",""
"","image-slider-response","91","413205","0.0-8.0-0.1","4dg21jcf26","many_one","0","direct_first","1","CH08RD30","0","23","1","1","1","1","Mir ist bei den Paaren von Bildern und chinesischen Zeichen ziemlich schnell aufgefallen, welche Komponente der Zeichen mit welcher Art von Bildern gekoppelt sind (Bei meiner Condition z.B.: Baum-Radikal = positiv). Ich habe keine Erfahrung mit der chinesischen Sprache, jedoch mit der Japanischen, wo auch die Kanji stark auf den chinesischen Zeichen beruhen. Daher viel es mir recht leicht die Radikale mit den Bildern zu verbinden. Aber somit fiel es mir schwer spontan zu antworten, wenn nach meinem Empfinden gefragt wurde.   
","0","1","0","6636","","","","","neg","GS","GSold","3","category3/CS10.png","-29","targets/1.png","direct","",""
"","image-slider-response","92","418808","0.0-8.0-0.2","4dg21jcf26","many_one","0","direct_first","1","CH08RD30","0","23","1","1","1","1","Mir ist bei den Paaren von Bildern und chinesischen Zeichen ziemlich schnell aufgefallen, welche Komponente der Zeichen mit welcher Art von Bildern gekoppelt sind (Bei meiner Condition z.B.: Baum-Radikal = positiv). Ich habe keine Erfahrung mit der chinesischen Sprache, jedoch mit der Japanischen, wo auch die Kanji stark auf den chinesischen Zeichen beruhen. Daher viel es mir recht leicht die Radikale mit den Bildern zu verbinden. Aber somit fiel es mir schwer spontan zu antworten, wenn nach meinem Empfinden gefragt wurde.   
","0","1","0","5596","","","","","pos","CS","CS","4","category4/CS3.png","-20","targets/5.png","direct","",""
"","image-slider-response","93","424108","0.0-8.0-0.3","4dg21jcf26","many_one","0","direct_first","1","CH08RD30","0","23","1","1","1","1","Mir ist bei den Paaren von Bildern und chinesischen Zeichen ziemlich schnell aufgefallen, welche Komponente der Zeichen mit welcher Art von Bildern gekoppelt sind (Bei meiner Condition z.B.: Baum-Radikal = positiv). Ich habe keine Erfahrung mit der chinesischen Sprache, jedoch mit der Japanischen, wo auch die Kanji stark auf den chinesischen Zeichen beruhen. Daher viel es mir recht leicht die Radikale mit den Bildern zu verbinden. Aber somit fiel es mir schwer spontan zu antworten, wenn nach meinem Empfinden gefragt wurde.   
","0","1","0","5295","","","","","neg","GS","GSnew","3","category3/GS2.png","29","targets/22.png","direct","",""
"","image-slider-response","94","428660","0.0-8.0-0.4","4dg21jcf26","many_one","0","direct_first","1","CH08RD30","0","23","1","1","1","1","Mir ist bei den Paaren von Bildern und chinesischen Zeichen ziemlich schnell aufgefallen, welche Komponente der Zeichen mit welcher Art von Bildern gekoppelt sind (Bei meiner Condition z.B.: Baum-Radikal = positiv). Ich habe keine Erfahrung mit der chinesischen Sprache, jedoch mit der Japanischen, wo auch die Kanji stark auf den chinesischen Zeichen beruhen. Daher viel es mir recht leicht die Radikale mit den Bildern zu verbinden. Aber somit fiel es mir schwer spontan zu antworten, wenn nach meinem Empfinden gefragt wurde.   
","0","1","0","4545","","","","","neg","CS","CS","3","category3/CS2.png","-23","targets/9.png","direct","",""
"","image-slider-response","95","434147","0.0-8.0-0.5","4dg21jcf26","many_one","0","direct_first","1","CH08RD30","0","23","1","1","1","1","Mir ist bei den Paaren von Bildern und chinesischen Zeichen ziemlich schnell aufgefallen, welche Komponente der Zeichen mit welcher Art von Bildern gekoppelt sind (Bei meiner Condition z.B.: Baum-Radikal = positiv). Ich habe keine Erfahrung mit der chinesischen Sprache, jedoch mit der Japanischen, wo auch die Kanji stark auf den chinesischen Zeichen beruhen. Daher viel es mir recht leicht die Radikale mit den Bildern zu verbinden. Aber somit fiel es mir schwer spontan zu antworten, wenn nach meinem Empfinden gefragt wurde.   
","0","1","0","5482","","","","","neg","GS","GSnew","2","category2/GS2.png","22","targets/36.png","direct","",""
"","image-slider-response","96","441856","0.0-8.0-0.6","4dg21jcf26","many_one","0","direct_first","1","CH08RD30","0","23","1","1","1","1","Mir ist bei den Paaren von Bildern und chinesischen Zeichen ziemlich schnell aufgefallen, welche Komponente der Zeichen mit welcher Art von Bildern gekoppelt sind (Bei meiner Condition z.B.: Baum-Radikal = positiv). Ich habe keine Erfahrung mit der chinesischen Sprache, jedoch mit der Japanischen, wo auch die Kanji stark auf den chinesischen Zeichen beruhen. Daher viel es mir recht leicht die Radikale mit den Bildern zu verbinden. Aber somit fiel es mir schwer spontan zu antworten, wenn nach meinem Empfinden gefragt wurde.   
","0","1","0","7703","","","","","neg","CS","CS","2","category2/CS10.png","21","targets/43.png","direct","",""
"","image-slider-response","97","446738","0.0-8.0-0.7","4dg21jcf26","many_one","0","direct_first","1","CH08RD30","0","23","1","1","1","1","Mir ist bei den Paaren von Bildern und chinesischen Zeichen ziemlich schnell aufgefallen, welche Komponente der Zeichen mit welcher Art von Bildern gekoppelt sind (Bei meiner Condition z.B.: Baum-Radikal = positiv). Ich habe keine Erfahrung mit der chinesischen Sprache, jedoch mit der Japanischen, wo auch die Kanji stark auf den chinesischen Zeichen beruhen. Daher viel es mir recht leicht die Radikale mit den Bildern zu verbinden. Aber somit fiel es mir schwer spontan zu antworten, wenn nach meinem Empfinden gefragt wurde.   
","0","1","0","4874","","","","","pos","GS","GSold","1","category1/CS8.png","28","targets/25.png","direct","",""
"","image-slider-response","98","450864","0.0-8.0-0.8","4dg21jcf26","many_one","0","direct_first","1","CH08RD30","0","23","1","1","1","1","Mir ist bei den Paaren von Bildern und chinesischen Zeichen ziemlich schnell aufgefallen, welche Komponente der Zeichen mit welcher Art von Bildern gekoppelt sind (Bei meiner Condition z.B.: Baum-Radikal = positiv). Ich habe keine Erfahrung mit der chinesischen Sprache, jedoch mit der Japanischen, wo auch die Kanji stark auf den chinesischen Zeichen beruhen. Daher viel es mir recht leicht die Radikale mit den Bildern zu verbinden. Aber somit fiel es mir schwer spontan zu antworten, wenn nach meinem Empfinden gefragt wurde.   
","0","1","0","4120","","","","","neg","CS","CS","2","category2/CS2.png","6","targets/21.png","direct","",""
"","image-slider-response","99","455248","0.0-8.0-0.9","4dg21jcf26","many_one","0","direct_first","1","CH08RD30","0","23","1","1","1","1","Mir ist bei den Paaren von Bildern und chinesischen Zeichen ziemlich schnell aufgefallen, welche Komponente der Zeichen mit welcher Art von Bildern gekoppelt sind (Bei meiner Condition z.B.: Baum-Radikal = positiv). Ich habe keine Erfahrung mit der chinesischen Sprache, jedoch mit der Japanischen, wo auch die Kanji stark auf den chinesischen Zeichen beruhen. Daher viel es mir recht leicht die Radikale mit den Bildern zu verbinden. Aber somit fiel es mir schwer spontan zu antworten, wenn nach meinem Empfinden gefragt wurde.   
","0","1","0","4377","","","","","neg","GS","GSold","2","category2/CS8.png","-18","targets/11.png","direct","",""
"","image-slider-response","100","458902","0.0-8.0-0.10","4dg21jcf26","many_one","0","direct_first","1","CH08RD30","0","23","1","1","1","1","Mir ist bei den Paaren von Bildern und chinesischen Zeichen ziemlich schnell aufgefallen, welche Komponente der Zeichen mit welcher Art von Bildern gekoppelt sind (Bei meiner Condition z.B.: Baum-Radikal = positiv). Ich habe keine Erfahrung mit der chinesischen Sprache, jedoch mit der Japanischen, wo auch die Kanji stark auf den chinesischen Zeichen beruhen. Daher viel es mir recht leicht die Radikale mit den Bildern zu verbinden. Aber somit fiel es mir schwer spontan zu antworten, wenn nach meinem Empfinden gefragt wurde.   
","0","1","0","3648","","","","","pos","GS","GSnew","4","category4/GS1.png","25","targets/38.png","direct","",""
"","image-slider-response","101","463421","0.0-8.0-0.11","4dg21jcf26","many_one","0","direct_first","1","CH08RD30","0","23","1","1","1","1","Mir ist bei den Paaren von Bildern und chinesischen Zeichen ziemlich schnell aufgefallen, welche Komponente der Zeichen mit welcher Art von Bildern gekoppelt sind (Bei meiner Condition z.B.: Baum-Radikal = positiv). Ich habe keine Erfahrung mit der chinesischen Sprache, jedoch mit der Japanischen, wo auch die Kanji stark auf den chinesischen Zeichen beruhen. Daher viel es mir recht leicht die Radikale mit den Bildern zu verbinden. Aber somit fiel es mir schwer spontan zu antworten, wenn nach meinem Empfinden gefragt wurde.   
","0","1","0","4513","","","","","neg","GS","GSnew","2","category2/GS1.png","-7","targets/16.png","direct","",""
"","image-slider-response","102","467304","0.0-8.0-0.12","4dg21jcf26","many_one","0","direct_first","1","CH08RD30","0","23","1","1","1","1","Mir ist bei den Paaren von Bildern und chinesischen Zeichen ziemlich schnell aufgefallen, welche Komponente der Zeichen mit welcher Art von Bildern gekoppelt sind (Bei meiner Condition z.B.: Baum-Radikal = positiv). Ich habe keine Erfahrung mit der chinesischen Sprache, jedoch mit der Japanischen, wo auch die Kanji stark auf den chinesischen Zeichen beruhen. Daher viel es mir recht leicht die Radikale mit den Bildern zu verbinden. Aber somit fiel es mir schwer spontan zu antworten, wenn nach meinem Empfinden gefragt wurde.   
","0","1","0","3875","","","","","pos","GS","abstract","4","category4/lin.png","-16","targets/31.png","direct","",""
"","image-slider-response","103","471240","0.0-8.0-0.13","4dg21jcf26","many_one","0","direct_first","1","CH08RD30","0","23","1","1","1","1","Mir ist bei den Paaren von Bildern und chinesischen Zeichen ziemlich schnell aufgefallen, welche Komponente der Zeichen mit welcher Art von Bildern gekoppelt sind (Bei meiner Condition z.B.: Baum-Radikal = positiv). Ich habe keine Erfahrung mit der chinesischen Sprache, jedoch mit der Japanischen, wo auch die Kanji stark auf den chinesischen Zeichen beruhen. Daher viel es mir recht leicht die Radikale mit den Bildern zu verbinden. Aber somit fiel es mir schwer spontan zu antworten, wenn nach meinem Empfinden gefragt wurde.   
","0","1","0","3931","","","","","neg","CS","CS","2","category2/CS6.png","18","targets/39.png","direct","",""
"","image-slider-response","104","476980","0.0-8.0-0.14","4dg21jcf26","many_one","0","direct_first","1","CH08RD30","0","23","1","1","1","1","Mir ist bei den Paaren von Bildern und chinesischen Zeichen ziemlich schnell aufgefallen, welche Komponente der Zeichen mit welcher Art von Bildern gekoppelt sind (Bei meiner Condition z.B.: Baum-Radikal = positiv). Ich habe keine Erfahrung mit der chinesischen Sprache, jedoch mit der Japanischen, wo auch die Kanji stark auf den chinesischen Zeichen beruhen. Daher viel es mir recht leicht die Radikale mit den Bildern zu verbinden. Aber somit fiel es mir schwer spontan zu antworten, wenn nach meinem Empfinden gefragt wurde.   
","0","1","0","5734","","","","","neg","GS","abstract","3","category3/wang.png","-27","targets/18.png","direct","",""
"","image-slider-response","105","481177","0.0-8.0-0.15","4dg21jcf26","many_one","0","direct_first","1","CH08RD30","0","23","1","1","1","1","Mir ist bei den Paaren von Bildern und chinesischen Zeichen ziemlich schnell aufgefallen, welche Komponente der Zeichen mit welcher Art von Bildern gekoppelt sind (Bei meiner Condition z.B.: Baum-Radikal = positiv). Ich habe keine Erfahrung mit der chinesischen Sprache, jedoch mit der Japanischen, wo auch die Kanji stark auf den chinesischen Zeichen beruhen. Daher viel es mir recht leicht die Radikale mit den Bildern zu verbinden. Aber somit fiel es mir schwer spontan zu antworten, wenn nach meinem Empfinden gefragt wurde.   
","0","1","0","4190","","","","","pos","GS","GSold","4","category4/CS9.png","16","targets/44.png","direct","",""
"","image-slider-response","106","488638","0.0-8.0-0.16","4dg21jcf26","many_one","0","direct_first","1","CH08RD30","0","23","1","1","1","1","Mir ist bei den Paaren von Bildern und chinesischen Zeichen ziemlich schnell aufgefallen, welche Komponente der Zeichen mit welcher Art von Bildern gekoppelt sind (Bei meiner Condition z.B.: Baum-Radikal = positiv). Ich habe keine Erfahrung mit der chinesischen Sprache, jedoch mit der Japanischen, wo auch die Kanji stark auf den chinesischen Zeichen beruhen. Daher viel es mir recht leicht die Radikale mit den Bildern zu verbinden. Aber somit fiel es mir schwer spontan zu antworten, wenn nach meinem Empfinden gefragt wurde.   
","0","1","0","7454","","","","","neg","CS","CS","3","category3/CS8.png","-17","targets/40.png","direct","",""
"","image-slider-response","107","491437","0.0-8.0-0.17","4dg21jcf26","many_one","0","direct_first","1","CH08RD30","0","23","1","1","1","1","Mir ist bei den Paaren von Bildern und chinesischen Zeichen ziemlich schnell aufgefallen, welche Komponente der Zeichen mit welcher Art von Bildern gekoppelt sind (Bei meiner Condition z.B.: Baum-Radikal = positiv). Ich habe keine Erfahrung mit der chinesischen Sprache, jedoch mit der Japanischen, wo auch die Kanji stark auf den chinesischen Zeichen beruhen. Daher viel es mir recht leicht die Radikale mit den Bildern zu verbinden. Aber somit fiel es mir schwer spontan zu antworten, wenn nach meinem Empfinden gefragt wurde.   
","0","1","0","2792","","","","","pos","GS","GSnew","1","category1/GS2.png","11","targets/17.png","direct","",""
"","image-slider-response","108","495016","0.0-8.0-0.18","4dg21jcf26","many_one","0","direct_first","1","CH08RD30","0","23","1","1","1","1","Mir ist bei den Paaren von Bildern und chinesischen Zeichen ziemlich schnell aufgefallen, welche Komponente der Zeichen mit welcher Art von Bildern gekoppelt sind (Bei meiner Condition z.B.: Baum-Radikal = positiv). Ich habe keine Erfahrung mit der chinesischen Sprache, jedoch mit der Japanischen, wo auch die Kanji stark auf den chinesischen Zeichen beruhen. Daher viel es mir recht leicht die Radikale mit den Bildern zu verbinden. Aber somit fiel es mir schwer spontan zu antworten, wenn nach meinem Empfinden gefragt wurde.   
","0","1","0","3575","","","","","pos","CS","CS","1","category1/CS6.png","-23","targets/45.png","direct","",""
"","image-slider-response","109","498218","0.0-8.0-0.19","4dg21jcf26","many_one","0","direct_first","1","CH08RD30","0","23","1","1","1","1","Mir ist bei den Paaren von Bildern und chinesischen Zeichen ziemlich schnell aufgefallen, welche Komponente der Zeichen mit welcher Art von Bildern gekoppelt sind (Bei meiner Condition z.B.: Baum-Radikal = positiv). Ich habe keine Erfahrung mit der chinesischen Sprache, jedoch mit der Japanischen, wo auch die Kanji stark auf den chinesischen Zeichen beruhen. Daher viel es mir recht leicht die Radikale mit den Bildern zu verbinden. Aber somit fiel es mir schwer spontan zu antworten, wenn nach meinem Empfinden gefragt wurde.   
","0","1","0","3196","","","","","pos","GS","GSnew","4","category4/GS3.png","13","targets/24.png","direct","",""
"","image-slider-response","110","502681","0.0-8.0-0.20","4dg21jcf26","many_one","0","direct_first","1","CH08RD30","0","23","1","1","1","1","Mir ist bei den Paaren von Bildern und chinesischen Zeichen ziemlich schnell aufgefallen, welche Komponente der Zeichen mit welcher Art von Bildern gekoppelt sind (Bei meiner Condition z.B.: Baum-Radikal = positiv). Ich habe keine Erfahrung mit der chinesischen Sprache, jedoch mit der Japanischen, wo auch die Kanji stark auf den chinesischen Zeichen beruhen. Daher viel es mir recht leicht die Radikale mit den Bildern zu verbinden. Aber somit fiel es mir schwer spontan zu antworten, wenn nach meinem Empfinden gefragt wurde.   
","0","1","0","4459","","","","","pos","CS","CS","4","category4/CS7.png","10","targets/7.png","direct","",""
