"success","trial_type","trial_index","time_elapsed","internal_node_id","subject","condition","condition_code","measure","measure_code","codeword","gender","age","education","chinese","fach","handedness","comment","hinschauen","ablenkung","gewissenhaft","rt","url","responses","stimulus","key_press","val","type","type_specific","category","cs_selected","response","target","task","indirect","nr_pres"
"true","fullscreen","0","3751","0.0-0.0","ujy5ptmgzz","many_one","0","direct_first","1","elnery02","1","26","1","1","3","1","","0","0","0","","","","","","","","","","","","","","",""
"","external-html","1","7105","0.0-1.0","ujy5ptmgzz","many_one","0","direct_first","1","elnery02","1","26","1","1","3","1","","0","0","0","3238","text/information.html","","","","","","","","","","","","",""
"","external-html","2","19417","0.0-2.0","ujy5ptmgzz","many_one","0","direct_first","1","elnery02","1","26","1","1","3","1","","0","0","0","12159","text/consent.html","","","","","","","","","","","","",""
"","survey-html-form","3","78132","0.0-3.0","ujy5ptmgzz","many_one","0","direct_first","1","elnery02","1","26","1","1","3","1","","0","0","0","58707","","{""codeword_enter"":""elnery02""}","","","","","","","","","","","",""
"","survey-html-form","4","102785","0.0-4.0","ujy5ptmgzz","many_one","0","direct_first","1","elnery02","1","26","1","1","3","1","","0","0","0","24616","","{""age"":""26"",""education"":""1"",""subject"":""3"",""gender"":""1"",""handedness"":""1"",""chinese"":""1""}","","","","","","","","","","","",""
"","survey-html-form","5","104650","0.0-5.0","ujy5ptmgzz","many_one","0","direct_first","1","elnery02","1","26","1","1","3","1","","0","0","0","1851","","{}","","","","","","","","","","","",""
"","html-keyboard-response","6","108656","0.0-6.0-0.0-0.0","ujy5ptmgzz","many_one","0","direct_first","1","elnery02","1","26","1","1","3","1","","0","0","0","null","","","<div class = 'row'><div class = 'column'><img src = 'category4/CS1.png' width = '70%;'></div><div class = 'column'><img src = 'usneg/9182.bmp' width = '100%;'></div></div>","null","neg","CS","CS","4","category4/CS1.png","","","","",""
"","html-keyboard-response","7","111161","0.0-6.0-0.0-0.1","ujy5ptmgzz","many_one","0","direct_first","1","elnery02","1","26","1","1","3","1","","0","0","0","null","","","<div class = 'row'><div class = 'column'><img src = 'usneg/9290.bmp' width = '100%;'></div><div class = 'column'><img src = 'category1/CS9.png' width = '70%;'></div></div>","null","neg","CS","CS","1","category1/CS9.png","","","","",""
"","html-keyboard-response","8","113670","0.0-6.0-0.0-0.2","ujy5ptmgzz","many_one","0","direct_first","1","elnery02","1","26","1","1","3","1","","0","0","0","null","","","<div class = 'row'><div class = 'column'><img src = 'usneg/2750.bmp' width = '100%;'></div><div class = 'column'><img src = 'category4/CS9.png' width = '70%;'></div></div>","null","neg","CS","CS","4","category4/CS9.png","","","","",""
"","html-keyboard-response","9","116173","0.0-6.0-0.0-0.3","ujy5ptmgzz","many_one","0","direct_first","1","elnery02","1","26","1","1","3","1","","0","0","0","null","","","<div class = 'row'><div class = 'column'><img src = 'usneg/9561.bmp' width = '100%;'></div><div class = 'column'><img src = 'category4/CS5.png' width = '70%;'></div></div>","null","neg","CS","CS","4","category4/CS5.png","","","","",""
"","html-keyboard-response","10","118680","0.0-6.0-0.0-0.4","ujy5ptmgzz","many_one","0","direct_first","1","elnery02","1","26","1","1","3","1","","0","0","0","null","","","<div class = 'row'><div class = 'column'><img src = 'usneg/9560.bmp' width = '100%;'></div><div class = 'column'><img src = 'category1/CS5.png' width = '70%;'></div></div>","null","neg","CS","CS","1","category1/CS5.png","","","","",""
"","html-keyboard-response","11","121184","0.0-6.0-0.0-0.5","ujy5ptmgzz","many_one","0","direct_first","1","elnery02","1","26","1","1","3","1","","0","0","0","null","","","<div class = 'row'><div class = 'column'><img src = 'category1/CS4.png' width = '70%;'></div><div class = 'column'><img src = 'usneg/9342.bmp' width = '100%;'></div></div>","null","neg","CS","CS","1","category1/CS4.png","","","","",""
"","html-keyboard-response","12","123689","0.0-6.0-0.0-0.6","ujy5ptmgzz","many_one","0","direct_first","1","elnery02","1","26","1","1","3","1","","0","0","0","null","","","<div class = 'row'><div class = 'column'><img src = 'category1/CS3.png' width = '70%;'></div><div class = 'column'><img src = 'usneg/9181.bmp' width = '100%;'></div></div>","null","neg","CS","CS","1","category1/CS3.png","","","","",""
"","html-keyboard-response","13","126192","0.0-6.0-0.0-0.7","ujy5ptmgzz","many_one","0","direct_first","1","elnery02","1","26","1","1","3","1","","0","0","0","null","","","<div class = 'row'><div class = 'column'><img src = 'category3/CS8.png' width = '70%;'></div><div class = 'column'><img src = 'uspos/5700.bmp' width = '100%;'></div></div>","null","pos","CS","CS","3","category3/CS8.png","","","","",""
"","html-keyboard-response","14","128701","0.0-6.0-0.0-0.8","ujy5ptmgzz","many_one","0","direct_first","1","elnery02","1","26","1","1","3","1","","0","0","0","null","","","<div class = 'row'><div class = 'column'><img src = 'uspos/5629.bmp' width = '100%;'></div><div class = 'column'><img src = 'category2/CS2.png' width = '70%;'></div></div>","null","pos","CS","CS","2","category2/CS2.png","","","","",""
"","html-keyboard-response","15","131205","0.0-6.0-0.0-0.9","ujy5ptmgzz","many_one","0","direct_first","1","elnery02","1","26","1","1","3","1","","0","0","0","null","","","<div class = 'row'><div class = 'column'><img src = 'category2/CS3.png' width = '70%;'></div><div class = 'column'><img src = 'uspos/2165.bmp' width = '100%;'></div></div>","null","pos","CS","CS","2","category2/CS3.png","","","","",""
"","html-keyboard-response","16","133710","0.0-6.0-0.0-0.10","ujy5ptmgzz","many_one","0","direct_first","1","elnery02","1","26","1","1","3","1","","0","0","0","null","","","<div class = 'row'><div class = 'column'><img src = 'category2/CS5.png' width = '70%;'></div><div class = 'column'><img src = 'uspos/4599.bmp' width = '100%;'></div></div>","null","pos","CS","CS","2","category2/CS5.png","","","","",""
"","html-keyboard-response","17","136216","0.0-6.0-0.0-0.11","ujy5ptmgzz","many_one","0","direct_first","1","elnery02","1","26","1","1","3","1","","0","0","0","null","","","<div class = 'row'><div class = 'column'><img src = 'uspos/2550.bmp' width = '100%;'></div><div class = 'column'><img src = 'category3/CS4.png' width = '70%;'></div></div>","null","pos","CS","CS","3","category3/CS4.png","","","","",""
"","html-keyboard-response","18","138719","0.0-6.0-0.0-0.12","ujy5ptmgzz","many_one","0","direct_first","1","elnery02","1","26","1","1","3","1","","0","0","0","null","","","<div class = 'row'><div class = 'column'><img src = 'category2/CS1.png' width = '70%;'></div><div class = 'column'><img src = 'uspos/2030.bmp' width = '100%;'></div></div>","null","pos","CS","CS","2","category2/CS1.png","","","","",""
"","html-keyboard-response","19","141222","0.0-6.0-0.0-0.13","ujy5ptmgzz","many_one","0","direct_first","1","elnery02","1","26","1","1","3","1","","0","0","0","null","","","<div class = 'row'><div class = 'column'><img src = 'usneg/9415.bmp' width = '100%;'></div><div class = 'column'><img src = 'category1/CS1.png' width = '70%;'></div></div>","null","neg","CS","CS","1","category1/CS1.png","","","","",""
"","html-keyboard-response","20","143725","0.0-6.0-0.0-0.14","ujy5ptmgzz","many_one","0","direct_first","1","elnery02","1","26","1","1","3","1","","0","0","0","null","","","<div class = 'row'><div class = 'column'><img src = 'uspos/2340.bmp' width = '100%;'></div><div class = 'column'><img src = 'category3/CS7.png' width = '70%;'></div></div>","null","pos","CS","CS","3","category3/CS7.png","","","","",""
"","html-keyboard-response","21","146230","0.0-6.0-0.0-0.15","ujy5ptmgzz","many_one","0","direct_first","1","elnery02","1","26","1","1","3","1","","0","0","0","null","","","<div class = 'row'><div class = 'column'><img src = 'category4/CS8.png' width = '70%;'></div><div class = 'column'><img src = 'usneg/3300.bmp' width = '100%;'></div></div>","null","neg","CS","CS","4","category4/CS8.png","","","","",""
"","html-keyboard-response","22","148735","0.0-6.0-0.0-0.16","ujy5ptmgzz","many_one","0","direct_first","1","elnery02","1","26","1","1","3","1","","0","0","0","null","","","<div class = 'row'><div class = 'column'><img src = 'uspos/8350.bmp' width = '100%;'></div><div class = 'column'><img src = 'category2/CS6.png' width = '70%;'></div></div>","null","pos","CS","CS","2","category2/CS6.png","","","","",""
"","html-keyboard-response","23","151238","0.0-6.0-0.0-0.17","ujy5ptmgzz","many_one","0","direct_first","1","elnery02","1","26","1","1","3","1","","0","0","0","null","","","<div class = 'row'><div class = 'column'><img src = 'category4/CS3.png' width = '70%;'></div><div class = 'column'><img src = 'usneg/6838.bmp' width = '100%;'></div></div>","null","neg","CS","CS","4","category4/CS3.png","","","","",""
"","html-keyboard-response","24","153742","0.0-6.0-0.0-0.18","ujy5ptmgzz","many_one","0","direct_first","1","elnery02","1","26","1","1","3","1","","0","0","0","null","","","<div class = 'row'><div class = 'column'><img src = 'category3/CS2.png' width = '70%;'></div><div class = 'column'><img src = 'uspos/5830.bmp' width = '100%;'></div></div>","null","pos","CS","CS","3","category3/CS2.png","","","","",""
"","html-keyboard-response","25","156246","0.0-6.0-0.0-0.19","ujy5ptmgzz","many_one","0","direct_first","1","elnery02","1","26","1","1","3","1","","0","0","0","null","","","<div class = 'row'><div class = 'column'><img src = 'uspos/1440.bmp' width = '100%;'></div><div class = 'column'><img src = 'category3/CS1.png' width = '70%;'></div></div>","null","pos","CS","CS","3","category3/CS1.png","","","","",""
"","survey-html-form","26","160295","0.0-6.0-1.0","ujy5ptmgzz","many_one","0","direct_first","1","elnery02","1","26","1","1","3","1","","0","0","0","3539","","{}","","","","","","","","","","","",""
"","html-keyboard-response","27","164306","0.0-6.0-2.0-0.0","ujy5ptmgzz","many_one","0","direct_first","1","elnery02","1","26","1","1","3","1","","0","0","0","null","","","<div class = 'row'><div class = 'column'><img src = 'usneg/3300.bmp' width = '100%;'></div><div class = 'column'><img src = 'category4/CS8.png' width = '70%;'></div></div>","null","neg","CS","CS","4","category4/CS8.png","","","","",""
"","html-keyboard-response","28","166809","0.0-6.0-2.0-0.1","ujy5ptmgzz","many_one","0","direct_first","1","elnery02","1","26","1","1","3","1","","0","0","0","null","","","<div class = 'row'><div class = 'column'><img src = 'uspos/5700.bmp' width = '100%;'></div><div class = 'column'><img src = 'category3/CS8.png' width = '70%;'></div></div>","null","pos","CS","CS","3","category3/CS8.png","","","","",""
"","html-keyboard-response","29","169313","0.0-6.0-2.0-0.2","ujy5ptmgzz","many_one","0","direct_first","1","elnery02","1","26","1","1","3","1","","0","0","0","null","","","<div class = 'row'><div class = 'column'><img src = 'uspos/2550.bmp' width = '100%;'></div><div class = 'column'><img src = 'category3/CS4.png' width = '70%;'></div></div>","null","pos","CS","CS","3","category3/CS4.png","","","","",""
"","html-keyboard-response","30","171818","0.0-6.0-2.0-0.3","ujy5ptmgzz","many_one","0","direct_first","1","elnery02","1","26","1","1","3","1","","0","0","0","null","","","<div class = 'row'><div class = 'column'><img src = 'usneg/9415.bmp' width = '100%;'></div><div class = 'column'><img src = 'category1/CS1.png' width = '70%;'></div></div>","null","neg","CS","CS","1","category1/CS1.png","","","","",""
"","html-keyboard-response","31","174320","0.0-6.0-2.0-0.4","ujy5ptmgzz","many_one","0","direct_first","1","elnery02","1","26","1","1","3","1","","0","0","0","null","","","<div class = 'row'><div class = 'column'><img src = 'category1/CS4.png' width = '70%;'></div><div class = 'column'><img src = 'usneg/9342.bmp' width = '100%;'></div></div>","null","neg","CS","CS","1","category1/CS4.png","","","","",""
"","html-keyboard-response","32","176824","0.0-6.0-2.0-0.5","ujy5ptmgzz","many_one","0","direct_first","1","elnery02","1","26","1","1","3","1","","0","0","0","null","","","<div class = 'row'><div class = 'column'><img src = 'category2/CS3.png' width = '70%;'></div><div class = 'column'><img src = 'uspos/2165.bmp' width = '100%;'></div></div>","null","pos","CS","CS","2","category2/CS3.png","","","","",""
"","html-keyboard-response","33","179328","0.0-6.0-2.0-0.6","ujy5ptmgzz","many_one","0","direct_first","1","elnery02","1","26","1","1","3","1","","0","0","0","null","","","<div class = 'row'><div class = 'column'><img src = 'usneg/6838.bmp' width = '100%;'></div><div class = 'column'><img src = 'category4/CS3.png' width = '70%;'></div></div>","null","neg","CS","CS","4","category4/CS3.png","","","","",""
"","html-keyboard-response","34","181832","0.0-6.0-2.0-0.7","ujy5ptmgzz","many_one","0","direct_first","1","elnery02","1","26","1","1","3","1","","0","0","0","null","","","<div class = 'row'><div class = 'column'><img src = 'category3/CS2.png' width = '70%;'></div><div class = 'column'><img src = 'uspos/5830.bmp' width = '100%;'></div></div>","null","pos","CS","CS","3","category3/CS2.png","","","","",""
"","html-keyboard-response","35","184336","0.0-6.0-2.0-0.8","ujy5ptmgzz","many_one","0","direct_first","1","elnery02","1","26","1","1","3","1","","0","0","0","null","","","<div class = 'row'><div class = 'column'><img src = 'uspos/5629.bmp' width = '100%;'></div><div class = 'column'><img src = 'category2/CS2.png' width = '70%;'></div></div>","null","pos","CS","CS","2","category2/CS2.png","","","","",""
"","html-keyboard-response","36","186840","0.0-6.0-2.0-0.9","ujy5ptmgzz","many_one","0","direct_first","1","elnery02","1","26","1","1","3","1","","0","0","0","null","","","<div class = 'row'><div class = 'column'><img src = 'uspos/1440.bmp' width = '100%;'></div><div class = 'column'><img src = 'category3/CS1.png' width = '70%;'></div></div>","null","pos","CS","CS","3","category3/CS1.png","","","","",""
"","html-keyboard-response","37","189344","0.0-6.0-2.0-0.10","ujy5ptmgzz","many_one","0","direct_first","1","elnery02","1","26","1","1","3","1","","0","0","0","null","","","<div class = 'row'><div class = 'column'><img src = 'category2/CS6.png' width = '70%;'></div><div class = 'column'><img src = 'uspos/8350.bmp' width = '100%;'></div></div>","null","pos","CS","CS","2","category2/CS6.png","","","","",""
"","html-keyboard-response","38","191847","0.0-6.0-2.0-0.11","ujy5ptmgzz","many_one","0","direct_first","1","elnery02","1","26","1","1","3","1","","0","0","0","null","","","<div class = 'row'><div class = 'column'><img src = 'category1/CS9.png' width = '70%;'></div><div class = 'column'><img src = 'usneg/9290.bmp' width = '100%;'></div></div>","null","neg","CS","CS","1","category1/CS9.png","","","","",""
"","html-keyboard-response","39","194351","0.0-6.0-2.0-0.12","ujy5ptmgzz","many_one","0","direct_first","1","elnery02","1","26","1","1","3","1","","0","0","0","null","","","<div class = 'row'><div class = 'column'><img src = 'category4/CS9.png' width = '70%;'></div><div class = 'column'><img src = 'usneg/2750.bmp' width = '100%;'></div></div>","null","neg","CS","CS","4","category4/CS9.png","","","","",""
"","html-keyboard-response","40","196855","0.0-6.0-2.0-0.13","ujy5ptmgzz","many_one","0","direct_first","1","elnery02","1","26","1","1","3","1","","0","0","0","null","","","<div class = 'row'><div class = 'column'><img src = 'usneg/9560.bmp' width = '100%;'></div><div class = 'column'><img src = 'category1/CS5.png' width = '70%;'></div></div>","null","neg","CS","CS","1","category1/CS5.png","","","","",""
"","html-keyboard-response","41","199358","0.0-6.0-2.0-0.14","ujy5ptmgzz","many_one","0","direct_first","1","elnery02","1","26","1","1","3","1","","0","0","0","null","","","<div class = 'row'><div class = 'column'><img src = 'usneg/9181.bmp' width = '100%;'></div><div class = 'column'><img src = 'category1/CS3.png' width = '70%;'></div></div>","null","neg","CS","CS","1","category1/CS3.png","","","","",""
"","html-keyboard-response","42","201862","0.0-6.0-2.0-0.15","ujy5ptmgzz","many_one","0","direct_first","1","elnery02","1","26","1","1","3","1","","0","0","0","null","","","<div class = 'row'><div class = 'column'><img src = 'uspos/2030.bmp' width = '100%;'></div><div class = 'column'><img src = 'category2/CS1.png' width = '70%;'></div></div>","null","pos","CS","CS","2","category2/CS1.png","","","","",""
"","html-keyboard-response","43","204367","0.0-6.0-2.0-0.16","ujy5ptmgzz","many_one","0","direct_first","1","elnery02","1","26","1","1","3","1","","0","0","0","null","","","<div class = 'row'><div class = 'column'><img src = 'category4/CS5.png' width = '70%;'></div><div class = 'column'><img src = 'usneg/9561.bmp' width = '100%;'></div></div>","null","neg","CS","CS","4","category4/CS5.png","","","","",""
"","html-keyboard-response","44","206872","0.0-6.0-2.0-0.17","ujy5ptmgzz","many_one","0","direct_first","1","elnery02","1","26","1","1","3","1","","0","0","0","null","","","<div class = 'row'><div class = 'column'><img src = 'category2/CS5.png' width = '70%;'></div><div class = 'column'><img src = 'uspos/4599.bmp' width = '100%;'></div></div>","null","pos","CS","CS","2","category2/CS5.png","","","","",""
"","html-keyboard-response","45","209377","0.0-6.0-2.0-0.18","ujy5ptmgzz","many_one","0","direct_first","1","elnery02","1","26","1","1","3","1","","0","0","0","null","","","<div class = 'row'><div class = 'column'><img src = 'uspos/2340.bmp' width = '100%;'></div><div class = 'column'><img src = 'category3/CS7.png' width = '70%;'></div></div>","null","pos","CS","CS","3","category3/CS7.png","","","","",""
"","html-keyboard-response","46","211879","0.0-6.0-2.0-0.19","ujy5ptmgzz","many_one","0","direct_first","1","elnery02","1","26","1","1","3","1","","0","0","0","null","","","<div class = 'row'><div class = 'column'><img src = 'usneg/9182.bmp' width = '100%;'></div><div class = 'column'><img src = 'category4/CS1.png' width = '70%;'></div></div>","null","neg","CS","CS","4","category4/CS1.png","","","","",""
"","survey-html-form","47","214176","0.0-6.0-3.0","ujy5ptmgzz","many_one","0","direct_first","1","elnery02","1","26","1","1","3","1","","0","0","0","1796","","{}","","","","","","","","","","","",""
"","html-keyboard-response","48","218182","0.0-6.0-4.0-0.0","ujy5ptmgzz","many_one","0","direct_first","1","elnery02","1","26","1","1","3","1","","0","0","0","null","","","<div class = 'row'><div class = 'column'><img src = 'uspos/5700.bmp' width = '100%;'></div><div class = 'column'><img src = 'category3/CS8.png' width = '70%;'></div></div>","null","pos","CS","CS","3","category3/CS8.png","","","","",""
"","html-keyboard-response","49","220685","0.0-6.0-4.0-0.1","ujy5ptmgzz","many_one","0","direct_first","1","elnery02","1","26","1","1","3","1","","0","0","0","null","","","<div class = 'row'><div class = 'column'><img src = 'uspos/5830.bmp' width = '100%;'></div><div class = 'column'><img src = 'category3/CS2.png' width = '70%;'></div></div>","null","pos","CS","CS","3","category3/CS2.png","","","","",""
"","html-keyboard-response","50","223190","0.0-6.0-4.0-0.2","ujy5ptmgzz","many_one","0","direct_first","1","elnery02","1","26","1","1","3","1","","0","0","0","null","","","<div class = 'row'><div class = 'column'><img src = 'uspos/2550.bmp' width = '100%;'></div><div class = 'column'><img src = 'category3/CS4.png' width = '70%;'></div></div>","null","pos","CS","CS","3","category3/CS4.png","","","","",""
"","html-keyboard-response","51","225694","0.0-6.0-4.0-0.3","ujy5ptmgzz","many_one","0","direct_first","1","elnery02","1","26","1","1","3","1","","0","0","0","null","","","<div class = 'row'><div class = 'column'><img src = 'usneg/3300.bmp' width = '100%;'></div><div class = 'column'><img src = 'category4/CS8.png' width = '70%;'></div></div>","null","neg","CS","CS","4","category4/CS8.png","","","","",""
"","html-keyboard-response","52","228198","0.0-6.0-4.0-0.4","ujy5ptmgzz","many_one","0","direct_first","1","elnery02","1","26","1","1","3","1","","0","0","0","null","","","<div class = 'row'><div class = 'column'><img src = 'category2/CS3.png' width = '70%;'></div><div class = 'column'><img src = 'uspos/2165.bmp' width = '100%;'></div></div>","null","pos","CS","CS","2","category2/CS3.png","","","","",""
"","html-keyboard-response","53","230704","0.0-6.0-4.0-0.5","ujy5ptmgzz","many_one","0","direct_first","1","elnery02","1","26","1","1","3","1","","0","0","0","null","","","<div class = 'row'><div class = 'column'><img src = 'category4/CS3.png' width = '70%;'></div><div class = 'column'><img src = 'usneg/6838.bmp' width = '100%;'></div></div>","null","neg","CS","CS","4","category4/CS3.png","","","","",""
"","html-keyboard-response","54","233207","0.0-6.0-4.0-0.6","ujy5ptmgzz","many_one","0","direct_first","1","elnery02","1","26","1","1","3","1","","0","0","0","null","","","<div class = 'row'><div class = 'column'><img src = 'uspos/8350.bmp' width = '100%;'></div><div class = 'column'><img src = 'category2/CS6.png' width = '70%;'></div></div>","null","pos","CS","CS","2","category2/CS6.png","","","","",""
"","html-keyboard-response","55","235712","0.0-6.0-4.0-0.7","ujy5ptmgzz","many_one","0","direct_first","1","elnery02","1","26","1","1","3","1","","0","0","0","null","","","<div class = 'row'><div class = 'column'><img src = 'usneg/9560.bmp' width = '100%;'></div><div class = 'column'><img src = 'category1/CS5.png' width = '70%;'></div></div>","null","neg","CS","CS","1","category1/CS5.png","","","","",""
"","html-keyboard-response","56","238213","0.0-6.0-4.0-0.8","ujy5ptmgzz","many_one","0","direct_first","1","elnery02","1","26","1","1","3","1","","0","0","0","null","","","<div class = 'row'><div class = 'column'><img src = 'category1/CS9.png' width = '70%;'></div><div class = 'column'><img src = 'usneg/9290.bmp' width = '100%;'></div></div>","null","neg","CS","CS","1","category1/CS9.png","","","","",""
"","html-keyboard-response","57","240719","0.0-6.0-4.0-0.9","ujy5ptmgzz","many_one","0","direct_first","1","elnery02","1","26","1","1","3","1","","0","0","0","null","","","<div class = 'row'><div class = 'column'><img src = 'uspos/2340.bmp' width = '100%;'></div><div class = 'column'><img src = 'category3/CS7.png' width = '70%;'></div></div>","null","pos","CS","CS","3","category3/CS7.png","","","","",""
"","html-keyboard-response","58","243222","0.0-6.0-4.0-0.10","ujy5ptmgzz","many_one","0","direct_first","1","elnery02","1","26","1","1","3","1","","0","0","0","null","","","<div class = 'row'><div class = 'column'><img src = 'category4/CS9.png' width = '70%;'></div><div class = 'column'><img src = 'usneg/2750.bmp' width = '100%;'></div></div>","null","neg","CS","CS","4","category4/CS9.png","","","","",""
"","html-keyboard-response","59","245727","0.0-6.0-4.0-0.11","ujy5ptmgzz","many_one","0","direct_first","1","elnery02","1","26","1","1","3","1","","0","0","0","null","","","<div class = 'row'><div class = 'column'><img src = 'uspos/2030.bmp' width = '100%;'></div><div class = 'column'><img src = 'category2/CS1.png' width = '70%;'></div></div>","null","pos","CS","CS","2","category2/CS1.png","","","","",""
"","html-keyboard-response","60","248239","0.0-6.0-4.0-0.12","ujy5ptmgzz","many_one","0","direct_first","1","elnery02","1","26","1","1","3","1","","0","0","0","null","","","<div class = 'row'><div class = 'column'><img src = 'category4/CS1.png' width = '70%;'></div><div class = 'column'><img src = 'usneg/9182.bmp' width = '100%;'></div></div>","null","neg","CS","CS","4","category4/CS1.png","","","","",""
"","html-keyboard-response","61","250743","0.0-6.0-4.0-0.13","ujy5ptmgzz","many_one","0","direct_first","1","elnery02","1","26","1","1","3","1","","0","0","0","null","","","<div class = 'row'><div class = 'column'><img src = 'category3/CS1.png' width = '70%;'></div><div class = 'column'><img src = 'uspos/1440.bmp' width = '100%;'></div></div>","null","pos","CS","CS","3","category3/CS1.png","","","","",""
"","html-keyboard-response","62","253247","0.0-6.0-4.0-0.14","ujy5ptmgzz","many_one","0","direct_first","1","elnery02","1","26","1","1","3","1","","0","0","0","null","","","<div class = 'row'><div class = 'column'><img src = 'usneg/9415.bmp' width = '100%;'></div><div class = 'column'><img src = 'category1/CS1.png' width = '70%;'></div></div>","null","neg","CS","CS","1","category1/CS1.png","","","","",""
"","html-keyboard-response","63","255751","0.0-6.0-4.0-0.15","ujy5ptmgzz","many_one","0","direct_first","1","elnery02","1","26","1","1","3","1","","0","0","0","null","","","<div class = 'row'><div class = 'column'><img src = 'uspos/4599.bmp' width = '100%;'></div><div class = 'column'><img src = 'category2/CS5.png' width = '70%;'></div></div>","null","pos","CS","CS","2","category2/CS5.png","","","","",""
"","html-keyboard-response","64","258255","0.0-6.0-4.0-0.16","ujy5ptmgzz","many_one","0","direct_first","1","elnery02","1","26","1","1","3","1","","0","0","0","null","","","<div class = 'row'><div class = 'column'><img src = 'usneg/9181.bmp' width = '100%;'></div><div class = 'column'><img src = 'category1/CS3.png' width = '70%;'></div></div>","null","neg","CS","CS","1","category1/CS3.png","","","","",""
"","html-keyboard-response","65","260762","0.0-6.0-4.0-0.17","ujy5ptmgzz","many_one","0","direct_first","1","elnery02","1","26","1","1","3","1","","0","0","0","null","","","<div class = 'row'><div class = 'column'><img src = 'uspos/5629.bmp' width = '100%;'></div><div class = 'column'><img src = 'category2/CS2.png' width = '70%;'></div></div>","null","pos","CS","CS","2","category2/CS2.png","","","","",""
"","html-keyboard-response","66","263266","0.0-6.0-4.0-0.18","ujy5ptmgzz","many_one","0","direct_first","1","elnery02","1","26","1","1","3","1","","0","0","0","null","","","<div class = 'row'><div class = 'column'><img src = 'category1/CS4.png' width = '70%;'></div><div class = 'column'><img src = 'usneg/9342.bmp' width = '100%;'></div></div>","null","neg","CS","CS","1","category1/CS4.png","","","","",""
"","html-keyboard-response","67","265771","0.0-6.0-4.0-0.19","ujy5ptmgzz","many_one","0","direct_first","1","elnery02","1","26","1","1","3","1","","0","0","0","null","","","<div class = 'row'><div class = 'column'><img src = 'usneg/9561.bmp' width = '100%;'></div><div class = 'column'><img src = 'category4/CS5.png' width = '70%;'></div></div>","null","neg","CS","CS","4","category4/CS5.png","","","","",""
"","survey-html-form","68","273791","0.0-6.0-5.0","ujy5ptmgzz","many_one","0","direct_first","1","elnery02","1","26","1","1","3","1","","0","0","0","7518","","{}","","","","","","","","","","","",""
"","html-keyboard-response","69","277798","0.0-6.0-6.0-0.0","ujy5ptmgzz","many_one","0","direct_first","1","elnery02","1","26","1","1","3","1","","0","0","0","null","","","<div class = 'row'><div class = 'column'><img src = 'usneg/2750.bmp' width = '100%;'></div><div class = 'column'><img src = 'category4/CS9.png' width = '70%;'></div></div>","null","neg","CS","CS","4","category4/CS9.png","","","","",""
"","html-keyboard-response","70","280301","0.0-6.0-6.0-0.1","ujy5ptmgzz","many_one","0","direct_first","1","elnery02","1","26","1","1","3","1","","0","0","0","null","","","<div class = 'row'><div class = 'column'><img src = 'uspos/5629.bmp' width = '100%;'></div><div class = 'column'><img src = 'category2/CS2.png' width = '70%;'></div></div>","null","pos","CS","CS","2","category2/CS2.png","","","","",""
"","html-keyboard-response","71","282806","0.0-6.0-6.0-0.2","ujy5ptmgzz","many_one","0","direct_first","1","elnery02","1","26","1","1","3","1","","0","0","0","null","","","<div class = 'row'><div class = 'column'><img src = 'category2/CS6.png' width = '70%;'></div><div class = 'column'><img src = 'uspos/8350.bmp' width = '100%;'></div></div>","null","pos","CS","CS","2","category2/CS6.png","","","","",""
"","html-keyboard-response","72","285311","0.0-6.0-6.0-0.3","ujy5ptmgzz","many_one","0","direct_first","1","elnery02","1","26","1","1","3","1","","0","0","0","null","","","<div class = 'row'><div class = 'column'><img src = 'category3/CS4.png' width = '70%;'></div><div class = 'column'><img src = 'uspos/2550.bmp' width = '100%;'></div></div>","null","pos","CS","CS","3","category3/CS4.png","","","","",""
"","html-keyboard-response","73","287816","0.0-6.0-6.0-0.4","ujy5ptmgzz","many_one","0","direct_first","1","elnery02","1","26","1","1","3","1","","0","0","0","null","","","<div class = 'row'><div class = 'column'><img src = 'uspos/2030.bmp' width = '100%;'></div><div class = 'column'><img src = 'category2/CS1.png' width = '70%;'></div></div>","null","pos","CS","CS","2","category2/CS1.png","","","","",""
"","html-keyboard-response","74","290324","0.0-6.0-6.0-0.5","ujy5ptmgzz","many_one","0","direct_first","1","elnery02","1","26","1","1","3","1","","0","0","0","null","","","<div class = 'row'><div class = 'column'><img src = 'usneg/9182.bmp' width = '100%;'></div><div class = 'column'><img src = 'category4/CS1.png' width = '70%;'></div></div>","null","neg","CS","CS","4","category4/CS1.png","","","","",""
"","html-keyboard-response","75","292827","0.0-6.0-6.0-0.6","ujy5ptmgzz","many_one","0","direct_first","1","elnery02","1","26","1","1","3","1","","0","0","0","null","","","<div class = 'row'><div class = 'column'><img src = 'category3/CS1.png' width = '70%;'></div><div class = 'column'><img src = 'uspos/1440.bmp' width = '100%;'></div></div>","null","pos","CS","CS","3","category3/CS1.png","","","","",""
"","html-keyboard-response","76","295330","0.0-6.0-6.0-0.7","ujy5ptmgzz","many_one","0","direct_first","1","elnery02","1","26","1","1","3","1","","0","0","0","null","","","<div class = 'row'><div class = 'column'><img src = 'category2/CS5.png' width = '70%;'></div><div class = 'column'><img src = 'uspos/4599.bmp' width = '100%;'></div></div>","null","pos","CS","CS","2","category2/CS5.png","","","","",""
"","html-keyboard-response","77","297835","0.0-6.0-6.0-0.8","ujy5ptmgzz","many_one","0","direct_first","1","elnery02","1","26","1","1","3","1","","0","0","0","null","","","<div class = 'row'><div class = 'column'><img src = 'category3/CS2.png' width = '70%;'></div><div class = 'column'><img src = 'uspos/5830.bmp' width = '100%;'></div></div>","null","pos","CS","CS","3","category3/CS2.png","","","","",""
"","html-keyboard-response","78","300339","0.0-6.0-6.0-0.9","ujy5ptmgzz","many_one","0","direct_first","1","elnery02","1","26","1","1","3","1","","0","0","0","null","","","<div class = 'row'><div class = 'column'><img src = 'category3/CS8.png' width = '70%;'></div><div class = 'column'><img src = 'uspos/5700.bmp' width = '100%;'></div></div>","null","pos","CS","CS","3","category3/CS8.png","","","","",""
"","html-keyboard-response","79","302842","0.0-6.0-6.0-0.10","ujy5ptmgzz","many_one","0","direct_first","1","elnery02","1","26","1","1","3","1","","0","0","0","null","","","<div class = 'row'><div class = 'column'><img src = 'usneg/3300.bmp' width = '100%;'></div><div class = 'column'><img src = 'category4/CS8.png' width = '70%;'></div></div>","null","neg","CS","CS","4","category4/CS8.png","","","","",""
"","html-keyboard-response","80","305345","0.0-6.0-6.0-0.11","ujy5ptmgzz","many_one","0","direct_first","1","elnery02","1","26","1","1","3","1","","0","0","0","null","","","<div class = 'row'><div class = 'column'><img src = 'category1/CS3.png' width = '70%;'></div><div class = 'column'><img src = 'usneg/9181.bmp' width = '100%;'></div></div>","null","neg","CS","CS","1","category1/CS3.png","","","","",""
"","html-keyboard-response","81","307848","0.0-6.0-6.0-0.12","ujy5ptmgzz","many_one","0","direct_first","1","elnery02","1","26","1","1","3","1","","0","0","0","null","","","<div class = 'row'><div class = 'column'><img src = 'category1/CS9.png' width = '70%;'></div><div class = 'column'><img src = 'usneg/9290.bmp' width = '100%;'></div></div>","null","neg","CS","CS","1","category1/CS9.png","","","","",""
"","html-keyboard-response","82","310353","0.0-6.0-6.0-0.13","ujy5ptmgzz","many_one","0","direct_first","1","elnery02","1","26","1","1","3","1","","0","0","0","null","","","<div class = 'row'><div class = 'column'><img src = 'category4/CS5.png' width = '70%;'></div><div class = 'column'><img src = 'usneg/9561.bmp' width = '100%;'></div></div>","null","neg","CS","CS","4","category4/CS5.png","","","","",""
"","html-keyboard-response","83","312859","0.0-6.0-6.0-0.14","ujy5ptmgzz","many_one","0","direct_first","1","elnery02","1","26","1","1","3","1","","0","0","0","null","","","<div class = 'row'><div class = 'column'><img src = 'category1/CS5.png' width = '70%;'></div><div class = 'column'><img src = 'usneg/9560.bmp' width = '100%;'></div></div>","null","neg","CS","CS","1","category1/CS5.png","","","","",""
"","html-keyboard-response","84","315362","0.0-6.0-6.0-0.15","ujy5ptmgzz","many_one","0","direct_first","1","elnery02","1","26","1","1","3","1","","0","0","0","null","","","<div class = 'row'><div class = 'column'><img src = 'category4/CS3.png' width = '70%;'></div><div class = 'column'><img src = 'usneg/6838.bmp' width = '100%;'></div></div>","null","neg","CS","CS","4","category4/CS3.png","","","","",""
"","html-keyboard-response","85","317866","0.0-6.0-6.0-0.16","ujy5ptmgzz","many_one","0","direct_first","1","elnery02","1","26","1","1","3","1","","0","0","0","null","","","<div class = 'row'><div class = 'column'><img src = 'usneg/9342.bmp' width = '100%;'></div><div class = 'column'><img src = 'category1/CS4.png' width = '70%;'></div></div>","null","neg","CS","CS","1","category1/CS4.png","","","","",""
"","html-keyboard-response","86","320369","0.0-6.0-6.0-0.17","ujy5ptmgzz","many_one","0","direct_first","1","elnery02","1","26","1","1","3","1","","0","0","0","null","","","<div class = 'row'><div class = 'column'><img src = 'category1/CS1.png' width = '70%;'></div><div class = 'column'><img src = 'usneg/9415.bmp' width = '100%;'></div></div>","null","neg","CS","CS","1","category1/CS1.png","","","","",""
"","html-keyboard-response","87","322873","0.0-6.0-6.0-0.18","ujy5ptmgzz","many_one","0","direct_first","1","elnery02","1","26","1","1","3","1","","0","0","0","null","","","<div class = 'row'><div class = 'column'><img src = 'category2/CS3.png' width = '70%;'></div><div class = 'column'><img src = 'uspos/2165.bmp' width = '100%;'></div></div>","null","pos","CS","CS","2","category2/CS3.png","","","","",""
"","html-keyboard-response","88","325378","0.0-6.0-6.0-0.19","ujy5ptmgzz","many_one","0","direct_first","1","elnery02","1","26","1","1","3","1","","0","0","0","null","","","<div class = 'row'><div class = 'column'><img src = 'uspos/2340.bmp' width = '100%;'></div><div class = 'column'><img src = 'category3/CS7.png' width = '70%;'></div></div>","null","pos","CS","CS","3","category3/CS7.png","","","","",""
"","survey-html-form","89","337657","0.0-7.0","ujy5ptmgzz","many_one","0","direct_first","1","elnery02","1","26","1","1","3","1","","0","0","0","11775","","{}","","","","","","","","","","","",""
"","image-slider-response","90","344124","0.0-8.0-0.0","ujy5ptmgzz","many_one","0","direct_first","1","elnery02","1","26","1","1","3","1","","0","0","0","4448","","","","","pos","CS","CS","2","category2/CS3.png","-38","targets/27.png","direct","",""
"","image-slider-response","91","346113","0.0-8.0-0.1","ujy5ptmgzz","many_one","0","direct_first","1","elnery02","1","26","1","1","3","1","","0","0","0","1980","","","","","neg","CS","CS","4","category4/CS8.png","28","targets/40.png","direct","",""
"","image-slider-response","92","348025","0.0-8.0-0.2","ujy5ptmgzz","many_one","0","direct_first","1","elnery02","1","26","1","1","3","1","","0","0","0","1894","","","","","neg","CS","CS","1","category1/CS1.png","-10","targets/28.png","direct","",""
"","image-slider-response","93","350192","0.0-8.0-0.3","ujy5ptmgzz","many_one","0","direct_first","1","elnery02","1","26","1","1","3","1","","0","0","0","2155","","","","","pos","GS","GSold","3","category3/CS9.png","-64","targets/4.png","direct","",""
"","image-slider-response","94","352507","0.0-8.0-0.4","ujy5ptmgzz","many_one","0","direct_first","1","elnery02","1","26","1","1","3","1","","0","0","0","2306","","","","","neg","CS","CS","1","category1/CS4.png","-36","targets/20.png","direct","",""
"","image-slider-response","95","354662","0.0-8.0-0.5","ujy5ptmgzz","many_one","0","direct_first","1","elnery02","1","26","1","1","3","1","","0","0","0","2142","","","","","pos","CS","CS","2","category2/CS6.png","31","targets/33.png","direct","",""
"","image-slider-response","96","356513","0.0-8.0-0.6","ujy5ptmgzz","many_one","0","direct_first","1","elnery02","1","26","1","1","3","1","","0","0","0","1844","","","","","pos","CS","CS","3","category3/CS8.png","-50","targets/18.png","direct","",""
"","image-slider-response","97","358538","0.0-8.0-0.7","ujy5ptmgzz","many_one","0","direct_first","1","elnery02","1","26","1","1","3","1","","0","0","0","1998","","","","","neg","GS","GSold","1","category1/CS8.png","45","targets/35.png","direct","",""
"","image-slider-response","98","360263","0.0-8.0-0.8","ujy5ptmgzz","many_one","0","direct_first","1","elnery02","1","26","1","1","3","1","","0","0","0","1710","","","","","neg","GS","GSnew","4","category4/GS1.png","-15","targets/22.png","direct","",""
"","image-slider-response","99","362251","0.0-8.0-0.9","ujy5ptmgzz","many_one","0","direct_first","1","elnery02","1","26","1","1","3","1","","0","0","0","1975","","","","","pos","CS","CS","2","category2/CS1.png","-43","targets/11.png","direct","",""
"","image-slider-response","100","364247","0.0-8.0-0.10","ujy5ptmgzz","many_one","0","direct_first","1","elnery02","1","26","1","1","3","1","","0","0","0","1985","","","","","pos","GS","GSold","3","category3/CS10.png","17","targets/46.png","direct","",""
"","image-slider-response","101","366009","0.0-8.0-0.11","ujy5ptmgzz","many_one","0","direct_first","1","elnery02","1","26","1","1","3","1","","0","0","0","1755","","","","","pos","CS","CS","2","category2/CS5.png","-19","targets/42.png","direct","",""
"","image-slider-response","102","367940","0.0-8.0-0.12","ujy5ptmgzz","many_one","0","direct_first","1","elnery02","1","26","1","1","3","1","","0","0","0","1923","","","","","neg","GS","GSnew","4","category4/GS2.png","45","targets/5.png","direct","",""
"","image-slider-response","103","369818","0.0-8.0-0.13","ujy5ptmgzz","many_one","0","direct_first","1","elnery02","1","26","1","1","3","1","","0","0","0","1862","","","","","pos","GS","GSold","2","category2/CS7.png","-16","targets/47.png","direct","",""
"","image-slider-response","104","371450","0.0-8.0-0.14","ujy5ptmgzz","many_one","0","direct_first","1","elnery02","1","26","1","1","3","1","","0","0","0","1621","","","","","neg","CS","CS","4","category4/CS1.png","25","targets/6.png","direct","",""
"","image-slider-response","105","372836","0.0-8.0-0.15","ujy5ptmgzz","many_one","0","direct_first","1","elnery02","1","26","1","1","3","1","","0","0","0","1381","","","","","neg","CS","CS","4","category4/CS5.png","-14","targets/7.png","direct","",""
"","image-slider-response","106","374337","0.0-8.0-0.16","ujy5ptmgzz","many_one","0","direct_first","1","elnery02","1","26","1","1","3","1","","0","0","0","1487","","","","","pos","GS","GSnew","3","category3/GS2.png","-7","targets/25.png","direct","",""
"","image-slider-response","107","376387","0.0-8.0-0.17","ujy5ptmgzz","many_one","0","direct_first","1","elnery02","1","26","1","1","3","1","","0","0","0","2032","","","","","pos","CS","CS","3","category3/CS1.png","-48","targets/30.png","direct","",""
"","image-slider-response","108","377963","0.0-8.0-0.18","ujy5ptmgzz","many_one","0","direct_first","1","elnery02","1","26","1","1","3","1","","0","0","0","1570","","","","","pos","GS","GSold","2","category2/CS10.png","31","targets/38.png","direct","",""
"","image-slider-response","109","379554","0.0-8.0-0.19","ujy5ptmgzz","many_one","0","direct_first","1","elnery02","1","26","1","1","3","1","","0","0","0","1581","","","","","neg","GS","GSold","1","category1/CS10.png","-15","targets/32.png","direct","",""
"","image-slider-response","110","381890","0.0-8.0-0.20","ujy5ptmgzz","many_one","0","direct_first","1","elnery02","1","26","1","1","3","1","","0","0","0","2319","","","","","neg","GS","GSnew","1","category1/GS1.png","-17","targets/39.png","direct","",""
"","image-slider-response","111","384202","0.0-8.0-0.21","ujy5ptmgzz","many_one","0","direct_first","1","elnery02","1","26","1","1","3","1","","0","0","0","2299","","","","","neg","GS","GSnew","4","category4/GS3.png","-28","targets/21.png","direct","",""
"","image-slider-response","112","385972","0.0-8.0-0.22","ujy5ptmgzz","many_one","0","direct_first","1","elnery02","1","26","1","1","3","1","","0","0","0","1754","","","","","neg","GS","GSnew","1","category1/GS2.png","31","targets/26.png","direct","",""
"","image-slider-response","113","387997","0.0-8.0-0.23","ujy5ptmgzz","many_one","0","direct_first","1","elnery02","1","26","1","1","3","1","","0","0","0","2016","","","","","pos","GS","abstract","3","category3/wang.png","-27","targets/15.png","direct","",""
"","image-slider-response","114","390606","0.0-8.0-0.24","ujy5ptmgzz","many_one","0","direct_first","1","elnery02","1","26","1","1","3","1","","0","0","0","2590","","","","","neg","CS","CS","4","category4/CS3.png","-54","targets/2.png","direct","",""
"","image-slider-response","115","392345","0.0-8.0-0.25","ujy5ptmgzz","many_one","0","direct_first","1","elnery02","1","26","1","1","3","1","","0","0","0","1710","","","","","pos","CS","CS","2","category2/CS2.png","-18","targets/44.png","direct","",""
"","image-slider-response","116","393715","0.0-8.0-0.26","ujy5ptmgzz","many_one","0","direct_first","1","elnery02","1","26","1","1","3","1","","0","0","0","1348","","","","","neg","GS","abstract","4","category4/lin.png","36","targets/41.png","direct","",""
"","image-slider-response","117","395296","0.0-8.0-0.27","ujy5ptmgzz","many_one","0","direct_first","1","elnery02","1","26","1","1","3","1","","0","0","0","1576","","","","","neg","CS","CS","1","category1/CS9.png","20","targets/8.png","direct","",""
"","image-slider-response","118","396769","0.0-8.0-0.28","ujy5ptmgzz","many_one","0","direct_first","1","elnery02","1","26","1","1","3","1","","0","0","0","1469","","","","","neg","CS","CS","1","category1/CS5.png","8","targets/34.png","direct","",""
"","image-slider-response","119","398384","0.0-8.0-0.29","ujy5ptmgzz","many_one","0","direct_first","1","elnery02","1","26","1","1","3","1","","0","0","0","1609","","","","","pos","GS","GSold","3","category3/CS5.png","-15","targets/9.png","direct","",""
"","image-slider-response","120","399577","0.0-8.0-0.30","ujy5ptmgzz","many_one","0","direct_first","1","elnery02","1","26","1","1","3","1","","0","0","0","1184","","","","","pos","CS","CS","3","category3/CS4.png","11","targets/3.png","direct","",""
"","image-slider-response","121","400765","0.0-8.0-0.31","ujy5ptmgzz","many_one","0","direct_first","1","elnery02","1","26","1","1","3","1","","0","0","0","1181","","","","","pos","CS","CS","3","category3/CS7.png","-28","targets/29.png","direct","",""
"","image-slider-response","122","402489","0.0-8.0-0.32","ujy5ptmgzz","many_one","0","direct_first","1","elnery02","1","26","1","1","3","1","","0","0","0","1718","","","","","pos","GS","GSold","2","category2/CS9.png","33","targets/1.png","direct","",""
"","image-slider-response","123","404079","0.0-8.0-0.33","ujy5ptmgzz","many_one","0","direct_first","1","elnery02","1","26","1","1","3","1","","0","0","0","1574","","","","","pos","GS","GSnew","3","category3/GS3.png","-24","targets/14.png","direct","",""
"","image-slider-response","124","405463","0.0-8.0-0.34","ujy5ptmgzz","many_one","0","direct_first","1","elnery02","1","26","1","1","3","1","","0","0","0","1380","","","","","neg","GS","GSold","4","category4/CS2.png","23","targets/45.png","direct","",""
"","image-slider-response","125","406895","0.0-8.0-0.35","ujy5ptmgzz","many_one","0","direct_first","1","elnery02","1","26","1","1","3","1","","0","0","0","1424","","","","","neg","GS","GSold","4","category4/CS10.png","-25","targets/43.png","direct","",""
"","image-slider-response","126","408539","0.0-8.0-0.36","ujy5ptmgzz","many_one","0","direct_first","1","elnery02","1","26","1","1","3","1","","0","0","0","1639","","","","","pos","GS","GSnew","2","category2/GS2.png","23","targets/12.png","direct","",""
"","image-slider-response","127","409804","0.0-8.0-0.37","ujy5ptmgzz","many_one","0","direct_first","1","elnery02","1","26","1","1","3","1","","0","0","0","1258","","","","","neg","GS","GSold","1","category1/CS7.png","-8","targets/36.png","direct","",""
"","image-slider-response","128","410924","0.0-8.0-0.38","ujy5ptmgzz","many_one","0","direct_first","1","elnery02","1","26","1","1","3","1","","0","0","0","1102","","","","","pos","GS","GSnew","2","category2/GS1.png","8","targets/31.png","direct","",""
"","image-slider-response","129","412057","0.0-8.0-0.39","ujy5ptmgzz","many_one","0","direct_first","1","elnery02","1","26","1","1","3","1","","0","0","0","1114","","","","","pos","CS","CS","3","category3/CS2.png","17","targets/24.png","direct","",""
"","image-slider-response","130","413290","0.0-8.0-0.40","ujy5ptmgzz","many_one","0","direct_first","1","elnery02","1","26","1","1","3","1","","0","0","0","1231","","","","","pos","GS","GSnew","2","category2/GS3.png","15","targets/19.png","direct","",""
"","image-slider-response","131","414670","0.0-8.0-0.41","ujy5ptmgzz","many_one","0","direct_first","1","elnery02","1","26","1","1","3","1","","0","0","0","1374","","","","","neg","GS","GSold","4","category4/CS6.png","20","targets/17.png","direct","",""
"","image-slider-response","132","416171","0.0-8.0-0.42","ujy5ptmgzz","many_one","0","direct_first","1","elnery02","1","26","1","1","3","1","","0","0","0","1485","","","","","neg","CS","CS","4","category4/CS9.png","27","targets/16.png","direct","",""
"","image-slider-response","133","417463","0.0-8.0-0.43","ujy5ptmgzz","many_one","0","direct_first","1","elnery02","1","26","1","1","3","1","","0","0","0","1278","","","","","neg","GS","abstract","1","category1/ma.png","22","targets/37.png","direct","",""
"","image-slider-response","134","418771","0.0-8.0-0.44","ujy5ptmgzz","many_one","0","direct_first","1","elnery02","1","26","1","1","3","1","","0","0","0","1293","","","","","pos","GS","GSnew","3","category3/GS1.png","29","targets/13.png","direct","",""
"","image-slider-response","135","419986","0.0-8.0-0.45","ujy5ptmgzz","many_one","0","direct_first","1","elnery02","1","26","1","1","3","1","","0","0","0","1206","","","","","neg","GS","GSnew","1","category1/GS3.png","24","targets/23.png","direct","",""
"","image-slider-response","136","421431","0.0-8.0-0.46","ujy5ptmgzz","many_one","0","direct_first","1","elnery02","1","26","1","1","3","1","","0","0","0","1431","","","","","neg","CS","CS","1","category1/CS3.png","10","targets/10.png","direct","",""
"","image-slider-response","137","423090","0.0-8.0-0.47","ujy5ptmgzz","many_one","0","direct_first","1","elnery02","1","26","1","1","3","1","","0","0","0","1645","","","","","pos","GS","abstract","2","category2/men.png","-21","targets/48.png","direct","",""
"","html-keyboard-response","138","436291","0.0-9.0","ujy5ptmgzz","many_one","0","direct_first","1","elnery02","1","26","1","1","3","1","","0","0","0","13189","","","<p>Sie sehen nun die chinesischen Zeichen nur ganz kurz. Danach sehen Sie die jeweilige Aussprache der Zeichen als Silbe auf dem Bildschrim. Ihre Aufgabe ist es, für jede Silbe anzugeben, ob diese etwas angenehmes, oder unangenehmes bedeuten könnte. Verlassen Sie sich hier vor allem auf Ihre Intuition.<br><br>Die Zeichen werden nur zur Orientierung dargestellt, beachten Sie sie deshalb nicht. Konzentrieren Sie sich vor allem auf die Silben. <br>Reagieren Sie mit folgenden zwei Tasten: <br><br><b>'D' </b> wenn die Silbe etwas <b>unangenehmes</b> bedeuten könnte. <br><b>'K'</b> wenn die Silbe etwas <b>angenehmes</b> bedeuten könnte. <br><br>Bitte legen Sie nun den Zeigefinger der linken Hand auf die Taste 'D' und den Zeigefinger der rechten Hand auf die Taste 'K'. <br>Reagieren Sie auf jede Silbe so schnell wie möglich. Uns interessiert Ihre spontane Reaktion. <br> <br> <br>Drücken Sie 'D' oder 'K', um die nächste Aufgabe zu starten. </p>","68","","","","","","","","","",""
"","html-keyboard-response","139","439295","0.0-10.0-0.0","ujy5ptmgzz","many_one","0","direct_first","1","elnery02","1","26","1","1","3","1","","0","0","0","null","","","<div style=""font-size:60px;"">+</div>","null","","","","","","","","","",""
"","html-keyboard-response","140","439389","0.0-10.0-1.0","ujy5ptmgzz","many_one","0","direct_first","1","elnery02","1","26","1","1","3","1","","0","0","0","null","","","<img src = 'category3/CS8.png' width = '100%;'>","null","","","","","","","","","",""
"","html-keyboard-response","141","439642","0.0-10.0-2.0","ujy5ptmgzz","many_one","0","direct_first","1","elnery02","1","26","1","1","3","1","","0","0","0","null","","","<img src = 'targets/18.png' width = '100%;'>","null","","","","","","","","","",""
"","html-keyboard-response","142","442073","0.0-10.0-3.0","ujy5ptmgzz","many_one","0","direct_first","1","elnery02","1","26","1","1","3","1","","0","0","0","2426","","","<img src = 'targets/mask.png' width = '100%;'>","68","pos","CS","CS","3","category3/CS8.png","","targets/18.png","indirect","0","0"
"","html-keyboard-response","143","443579","0.0-10.0-0.1","ujy5ptmgzz","many_one","0","direct_first","1","elnery02","1","26","1","1","3","1","","0","0","0","null","","","<div style=""font-size:60px;"">+</div>","null","","","","","","","","","",""
"","html-keyboard-response","144","443671","0.0-10.0-1.1","ujy5ptmgzz","many_one","0","direct_first","1","elnery02","1","26","1","1","3","1","","0","0","0","null","","","<img src = 'category2/CS3.png' width = '100%;'>","null","","","","","","","","","",""
"","html-keyboard-response","145","443923","0.0-10.0-2.1","ujy5ptmgzz","many_one","0","direct_first","1","elnery02","1","26","1","1","3","1","","0","0","0","null","","","<img src = 'targets/27.png' width = '100%;'>","null","","","","","","","","","",""
"","html-keyboard-response","146","444346","0.0-10.0-3.1","ujy5ptmgzz","many_one","0","direct_first","1","elnery02","1","26","1","1","3","1","","0","0","0","419","","","<img src = 'targets/mask.png' width = '100%;'>","68","pos","CS","CS","2","category2/CS3.png","","targets/27.png","indirect","0","1"
"","html-keyboard-response","147","445849","0.0-10.0-0.2","ujy5ptmgzz","many_one","0","direct_first","1","elnery02","1","26","1","1","3","1","","0","0","0","null","","","<div style=""font-size:60px;"">+</div>","null","","","","","","","","","",""
"","html-keyboard-response","148","445942","0.0-10.0-1.2","ujy5ptmgzz","many_one","0","direct_first","1","elnery02","1","26","1","1","3","1","","0","0","0","null","","","<img src = 'category4/CS9.png' width = '100%;'>","null","","","","","","","","","",""
"","html-keyboard-response","149","446195","0.0-10.0-2.2","ujy5ptmgzz","many_one","0","direct_first","1","elnery02","1","26","1","1","3","1","","0","0","0","null","","","<img src = 'targets/16.png' width = '100%;'>","null","","","","","","","","","",""
"","html-keyboard-response","150","446731","0.0-10.0-3.2","ujy5ptmgzz","many_one","0","direct_first","1","elnery02","1","26","1","1","3","1","","0","0","0","533","","","<img src = 'targets/mask.png' width = '100%;'>","75","neg","CS","CS","4","category4/CS9.png","","targets/16.png","indirect","1","2"
"","html-keyboard-response","151","448234","0.0-10.0-0.3","ujy5ptmgzz","many_one","0","direct_first","1","elnery02","1","26","1","1","3","1","","0","0","0","null","","","<div style=""font-size:60px;"">+</div>","null","","","","","","","","","",""
"","html-keyboard-response","152","448326","0.0-10.0-1.3","ujy5ptmgzz","many_one","0","direct_first","1","elnery02","1","26","1","1","3","1","","0","0","0","null","","","<img src = 'category2/CS2.png' width = '100%;'>","null","","","","","","","","","",""
"","html-keyboard-response","153","448580","0.0-10.0-2.3","ujy5ptmgzz","many_one","0","direct_first","1","elnery02","1","26","1","1","3","1","","0","0","0","null","","","<img src = 'targets/44.png' width = '100%;'>","null","","","","","","","","","",""
"","html-keyboard-response","154","448634","0.0-10.0-3.3","ujy5ptmgzz","many_one","0","direct_first","1","elnery02","1","26","1","1","3","1","","0","0","0","51","","","<img src = 'targets/mask.png' width = '100%;'>","68","pos","CS","CS","2","category2/CS2.png","","targets/44.png","indirect","0","3"
"","html-keyboard-response","155","450137","0.0-10.0-0.4","ujy5ptmgzz","many_one","0","direct_first","1","elnery02","1","26","1","1","3","1","","0","0","0","null","","","<div style=""font-size:60px;"">+</div>","null","","","","","","","","","",""
"","html-keyboard-response","156","450235","0.0-10.0-1.4","ujy5ptmgzz","many_one","0","direct_first","1","elnery02","1","26","1","1","3","1","","0","0","0","null","","","<img src = 'category1/CS1.png' width = '100%;'>","null","","","","","","","","","",""
"","html-keyboard-response","157","450487","0.0-10.0-2.4","ujy5ptmgzz","many_one","0","direct_first","1","elnery02","1","26","1","1","3","1","","0","0","0","null","","","<img src = 'targets/28.png' width = '100%;'>","null","","","","","","","","","",""
"","html-keyboard-response","158","450555","0.0-10.0-3.4","ujy5ptmgzz","many_one","0","direct_first","1","elnery02","1","26","1","1","3","1","","0","0","0","63","","","<img src = 'targets/mask.png' width = '100%;'>","68","neg","CS","CS","1","category1/CS1.png","","targets/28.png","indirect","0","4"
"","html-keyboard-response","159","452059","0.0-10.0-0.5","ujy5ptmgzz","many_one","0","direct_first","1","elnery02","1","26","1","1","3","1","","0","0","0","null","","","<div style=""font-size:60px;"">+</div>","null","","","","","","","","","",""
"","html-keyboard-response","160","452152","0.0-10.0-1.5","ujy5ptmgzz","many_one","0","direct_first","1","elnery02","1","26","1","1","3","1","","0","0","0","null","","","<img src = 'category3/CS4.png' width = '100%;'>","null","","","","","","","","","",""
"","html-keyboard-response","161","452404","0.0-10.0-2.5","ujy5ptmgzz","many_one","0","direct_first","1","elnery02","1","26","1","1","3","1","","0","0","0","null","","","<img src = 'targets/3.png' width = '100%;'>","null","","","","","","","","","",""
"","html-keyboard-response","162","453697","0.0-10.0-3.5","ujy5ptmgzz","many_one","0","direct_first","1","elnery02","1","26","1","1","3","1","","0","0","0","1290","","","<img src = 'targets/mask.png' width = '100%;'>","75","pos","CS","CS","3","category3/CS4.png","","targets/3.png","indirect","1","5"
"","html-keyboard-response","163","455201","0.0-10.0-0.6","ujy5ptmgzz","many_one","0","direct_first","1","elnery02","1","26","1","1","3","1","","0","0","0","null","","","<div style=""font-size:60px;"">+</div>","null","","","","","","","","","",""
"","html-keyboard-response","164","455292","0.0-10.0-1.6","ujy5ptmgzz","many_one","0","direct_first","1","elnery02","1","26","1","1","3","1","","0","0","0","null","","","<img src = 'category3/CS1.png' width = '100%;'>","null","","","","","","","","","",""
"","html-keyboard-response","165","455544","0.0-10.0-2.6","ujy5ptmgzz","many_one","0","direct_first","1","elnery02","1","26","1","1","3","1","","0","0","0","null","","","<img src = 'targets/30.png' width = '100%;'>","null","","","","","","","","","",""
"","html-keyboard-response","166","456434","0.0-10.0-3.6","ujy5ptmgzz","many_one","0","direct_first","1","elnery02","1","26","1","1","3","1","","0","0","0","886","","","<img src = 'targets/mask.png' width = '100%;'>","68","pos","CS","CS","3","category3/CS1.png","","targets/30.png","indirect","0","6"
"","html-keyboard-response","167","457936","0.0-10.0-0.7","ujy5ptmgzz","many_one","0","direct_first","1","elnery02","1","26","1","1","3","1","","0","0","0","null","","","<div style=""font-size:60px;"">+</div>","null","","","","","","","","","",""
"","html-keyboard-response","168","458028","0.0-10.0-1.7","ujy5ptmgzz","many_one","0","direct_first","1","elnery02","1","26","1","1","3","1","","0","0","0","null","","","<img src = 'category2/CS6.png' width = '100%;'>","null","","","","","","","","","",""
"","html-keyboard-response","169","458281","0.0-10.0-2.7","ujy5ptmgzz","many_one","0","direct_first","1","elnery02","1","26","1","1","3","1","","0","0","0","null","","","<img src = 'targets/33.png' width = '100%;'>","null","","","","","","","","","",""
"","html-keyboard-response","170","458641","0.0-10.0-3.7","ujy5ptmgzz","many_one","0","direct_first","1","elnery02","1","26","1","1","3","1","","0","0","0","357","","","<img src = 'targets/mask.png' width = '100%;'>","68","pos","CS","CS","2","category2/CS6.png","","targets/33.png","indirect","0","7"
"","html-keyboard-response","171","460144","0.0-10.0-0.8","ujy5ptmgzz","many_one","0","direct_first","1","elnery02","1","26","1","1","3","1","","0","0","0","null","","","<div style=""font-size:60px;"">+</div>","null","","","","","","","","","",""
"","html-keyboard-response","172","460237","0.0-10.0-1.8","ujy5ptmgzz","many_one","0","direct_first","1","elnery02","1","26","1","1","3","1","","0","0","0","null","","","<img src = 'category4/CS8.png' width = '100%;'>","null","","","","","","","","","",""
"","html-keyboard-response","173","460492","0.0-10.0-2.8","ujy5ptmgzz","many_one","0","direct_first","1","elnery02","1","26","1","1","3","1","","0","0","0","null","","","<img src = 'targets/40.png' width = '100%;'>","null","","","","","","","","","",""
"","html-keyboard-response","174","460574","0.0-10.0-3.8","ujy5ptmgzz","many_one","0","direct_first","1","elnery02","1","26","1","1","3","1","","0","0","0","79","","","<img src = 'targets/mask.png' width = '100%;'>","75","neg","CS","CS","4","category4/CS8.png","","targets/40.png","indirect","1","8"
"","html-keyboard-response","175","462078","0.0-10.0-0.9","ujy5ptmgzz","many_one","0","direct_first","1","elnery02","1","26","1","1","3","1","","0","0","0","null","","","<div style=""font-size:60px;"">+</div>","null","","","","","","","","","",""
"","html-keyboard-response","176","462171","0.0-10.0-1.9","ujy5ptmgzz","many_one","0","direct_first","1","elnery02","1","26","1","1","3","1","","0","0","0","null","","","<img src = 'category4/CS10.png' width = '100%;'>","null","","","","","","","","","",""
"","html-keyboard-response","177","462425","0.0-10.0-2.9","ujy5ptmgzz","many_one","0","direct_first","1","elnery02","1","26","1","1","3","1","","0","0","0","null","","","<img src = 'targets/43.png' width = '100%;'>","null","","","","","","","","","",""
"","html-keyboard-response","178","462516","0.0-10.0-3.9","ujy5ptmgzz","many_one","0","direct_first","1","elnery02","1","26","1","1","3","1","","0","0","0","86","","","<img src = 'targets/mask.png' width = '100%;'>","75","neg","GS","GSold","4","category4/CS10.png","","targets/43.png","indirect","1","9"
"","html-keyboard-response","179","464019","0.0-10.0-0.10","ujy5ptmgzz","many_one","0","direct_first","1","elnery02","1","26","1","1","3","1","","0","0","0","null","","","<div style=""font-size:60px;"">+</div>","null","","","","","","","","","",""
"","html-keyboard-response","180","464110","0.0-10.0-1.10","ujy5ptmgzz","many_one","0","direct_first","1","elnery02","1","26","1","1","3","1","","0","0","0","null","","","<img src = 'category2/CS5.png' width = '100%;'>","null","","","","","","","","","",""
"","html-keyboard-response","181","464364","0.0-10.0-2.10","ujy5ptmgzz","many_one","0","direct_first","1","elnery02","1","26","1","1","3","1","","0","0","0","null","","","<img src = 'targets/42.png' width = '100%;'>","null","","","","","","","","","",""
"","html-keyboard-response","182","464371","0.0-10.0-3.10","ujy5ptmgzz","many_one","0","direct_first","1","elnery02","1","26","1","1","3","1","","0","0","0","4","","","<img src = 'targets/mask.png' width = '100%;'>","75","pos","CS","CS","2","category2/CS5.png","","targets/42.png","indirect","1","10"
"","html-keyboard-response","183","465875","0.0-10.0-0.11","ujy5ptmgzz","many_one","0","direct_first","1","elnery02","1","26","1","1","3","1","","0","0","0","null","","","<div style=""font-size:60px;"">+</div>","null","","","","","","","","","",""
"","html-keyboard-response","184","465967","0.0-10.0-1.11","ujy5ptmgzz","many_one","0","direct_first","1","elnery02","1","26","1","1","3","1","","0","0","0","null","","","<img src = 'category4/CS6.png' width = '100%;'>","null","","","","","","","","","",""
"","html-keyboard-response","185","466218","0.0-10.0-2.11","ujy5ptmgzz","many_one","0","direct_first","1","elnery02","1","26","1","1","3","1","","0","0","0","null","","","<img src = 'targets/17.png' width = '100%;'>","null","","","","","","","","","",""
"","html-keyboard-response","186","466432","0.0-10.0-3.11","ujy5ptmgzz","many_one","0","direct_first","1","elnery02","1","26","1","1","3","1","","0","0","0","212","","","<img src = 'targets/mask.png' width = '100%;'>","75","neg","GS","GSold","4","category4/CS6.png","","targets/17.png","indirect","1","11"
"","html-keyboard-response","187","467935","0.0-10.0-0.12","ujy5ptmgzz","many_one","0","direct_first","1","elnery02","1","26","1","1","3","1","","0","0","0","null","","","<div style=""font-size:60px;"">+</div>","null","","","","","","","","","",""
"","html-keyboard-response","188","468033","0.0-10.0-1.12","ujy5ptmgzz","many_one","0","direct_first","1","elnery02","1","26","1","1","3","1","","0","0","0","null","","","<img src = 'category1/CS9.png' width = '100%;'>","null","","","","","","","","","",""
"","html-keyboard-response","189","468291","0.0-10.0-2.12","ujy5ptmgzz","many_one","0","direct_first","1","elnery02","1","26","1","1","3","1","","0","0","0","null","","","<img src = 'targets/8.png' width = '100%;'>","null","","","","","","","","","",""
"","html-keyboard-response","190","468370","0.0-10.0-3.12","ujy5ptmgzz","many_one","0","direct_first","1","elnery02","1","26","1","1","3","1","","0","0","0","75","","","<img src = 'targets/mask.png' width = '100%;'>","75","neg","CS","CS","1","category1/CS9.png","","targets/8.png","indirect","1","12"
"","html-keyboard-response","191","469874","0.0-10.0-0.13","ujy5ptmgzz","many_one","0","direct_first","1","elnery02","1","26","1","1","3","1","","0","0","0","null","","","<div style=""font-size:60px;"">+</div>","null","","","","","","","","","",""
"","html-keyboard-response","192","469966","0.0-10.0-1.13","ujy5ptmgzz","many_one","0","direct_first","1","elnery02","1","26","1","1","3","1","","0","0","0","null","","","<img src = 'category3/CS7.png' width = '100%;'>","null","","","","","","","","","",""
"","html-keyboard-response","193","470219","0.0-10.0-2.13","ujy5ptmgzz","many_one","0","direct_first","1","elnery02","1","26","1","1","3","1","","0","0","0","null","","","<img src = 'targets/29.png' width = '100%;'>","null","","","","","","","","","",""
"","html-keyboard-response","194","470329","0.0-10.0-3.13","ujy5ptmgzz","many_one","0","direct_first","1","elnery02","1","26","1","1","3","1","","0","0","0","106","","","<img src = 'targets/mask.png' width = '100%;'>","68","pos","CS","CS","3","category3/CS7.png","","targets/29.png","indirect","0","13"
"","html-keyboard-response","195","471834","0.0-10.0-0.14","ujy5ptmgzz","many_one","0","direct_first","1","elnery02","1","26","1","1","3","1","","0","0","0","null","","","<div style=""font-size:60px;"">+</div>","null","","","","","","","","","",""
"","html-keyboard-response","196","471925","0.0-10.0-1.14","ujy5ptmgzz","many_one","0","direct_first","1","elnery02","1","26","1","1","3","1","","0","0","0","null","","","<img src = 'category2/CS1.png' width = '100%;'>","null","","","","","","","","","",""
"","html-keyboard-response","197","472179","0.0-10.0-2.14","ujy5ptmgzz","many_one","0","direct_first","1","elnery02","1","26","1","1","3","1","","0","0","0","null","","","<img src = 'targets/11.png' width = '100%;'>","null","","","","","","","","","",""
"","html-keyboard-response","198","472300","0.0-10.0-3.14","ujy5ptmgzz","many_one","0","direct_first","1","elnery02","1","26","1","1","3","1","","0","0","0","120","","","<img src = 'targets/mask.png' width = '100%;'>","75","pos","CS","CS","2","category2/CS1.png","","targets/11.png","indirect","1","14"
"","html-keyboard-response","199","473802","0.0-10.0-0.15","ujy5ptmgzz","many_one","0","direct_first","1","elnery02","1","26","1","1","3","1","","0","0","0","null","","","<div style=""font-size:60px;"">+</div>","null","","","","","","","","","",""
"","html-keyboard-response","200","473895","0.0-10.0-1.15","ujy5ptmgzz","many_one","0","direct_first","1","elnery02","1","26","1","1","3","1","","0","0","0","null","","","<img src = 'category3/CS2.png' width = '100%;'>","null","","","","","","","","","",""
"","html-keyboard-response","201","474148","0.0-10.0-2.15","ujy5ptmgzz","many_one","0","direct_first","1","elnery02","1","26","1","1","3","1","","0","0","0","null","","","<img src = 'targets/24.png' width = '100%;'>","null","","","","","","","","","",""
"","html-keyboard-response","202","474321","0.0-10.0-3.15","ujy5ptmgzz","many_one","0","direct_first","1","elnery02","1","26","1","1","3","1","","0","0","0","170","","","<img src = 'targets/mask.png' width = '100%;'>","68","pos","CS","CS","3","category3/CS2.png","","targets/24.png","indirect","0","15"
"","html-keyboard-response","203","475824","0.0-10.0-0.16","ujy5ptmgzz","many_one","0","direct_first","1","elnery02","1","26","1","1","3","1","","0","0","0","null","","","<div style=""font-size:60px;"">+</div>","null","","","","","","","","","",""
"","html-keyboard-response","204","475917","0.0-10.0-1.16","ujy5ptmgzz","many_one","0","direct_first","1","elnery02","1","26","1","1","3","1","","0","0","0","null","","","<img src = 'category3/CS10.png' width = '100%;'>","null","","","","","","","","","",""
"","html-keyboard-response","205","476170","0.0-10.0-2.16","ujy5ptmgzz","many_one","0","direct_first","1","elnery02","1","26","1","1","3","1","","0","0","0","null","","","<img src = 'targets/46.png' width = '100%;'>","null","","","","","","","","","",""
"","html-keyboard-response","206","476337","0.0-10.0-3.16","ujy5ptmgzz","many_one","0","direct_first","1","elnery02","1","26","1","1","3","1","","0","0","0","164","","","<img src = 'targets/mask.png' width = '100%;'>","75","pos","GS","GSold","3","category3/CS10.png","","targets/46.png","indirect","1","16"
"","html-keyboard-response","207","477840","0.0-10.0-0.17","ujy5ptmgzz","many_one","0","direct_first","1","elnery02","1","26","1","1","3","1","","0","0","0","null","","","<div style=""font-size:60px;"">+</div>","null","","","","","","","","","",""
"","html-keyboard-response","208","477936","0.0-10.0-1.17","ujy5ptmgzz","many_one","0","direct_first","1","elnery02","1","26","1","1","3","1","","0","0","0","null","","","<img src = 'category4/CS2.png' width = '100%;'>","null","","","","","","","","","",""
"","html-keyboard-response","209","478189","0.0-10.0-2.17","ujy5ptmgzz","many_one","0","direct_first","1","elnery02","1","26","1","1","3","1","","0","0","0","null","","","<img src = 'targets/45.png' width = '100%;'>","null","","","","","","","","","",""
"","html-keyboard-response","210","478284","0.0-10.0-3.17","ujy5ptmgzz","many_one","0","direct_first","1","elnery02","1","26","1","1","3","1","","0","0","0","92","","","<img src = 'targets/mask.png' width = '100%;'>","68","neg","GS","GSold","4","category4/CS2.png","","targets/45.png","indirect","0","17"
"","html-keyboard-response","211","479786","0.0-10.0-0.18","ujy5ptmgzz","many_one","0","direct_first","1","elnery02","1","26","1","1","3","1","","0","0","0","null","","","<div style=""font-size:60px;"">+</div>","null","","","","","","","","","",""
"","html-keyboard-response","212","479879","0.0-10.0-1.18","ujy5ptmgzz","many_one","0","direct_first","1","elnery02","1","26","1","1","3","1","","0","0","0","null","","","<img src = 'category1/CS3.png' width = '100%;'>","null","","","","","","","","","",""
"","html-keyboard-response","213","480133","0.0-10.0-2.18","ujy5ptmgzz","many_one","0","direct_first","1","elnery02","1","26","1","1","3","1","","0","0","0","null","","","<img src = 'targets/10.png' width = '100%;'>","null","","","","","","","","","",""
"","html-keyboard-response","214","480189","0.0-10.0-3.18","ujy5ptmgzz","many_one","0","direct_first","1","elnery02","1","26","1","1","3","1","","0","0","0","50","","","<img src = 'targets/mask.png' width = '100%;'>","75","neg","CS","CS","1","category1/CS3.png","","targets/10.png","indirect","1","18"
"","html-keyboard-response","215","481692","0.0-10.0-0.19","ujy5ptmgzz","many_one","0","direct_first","1","elnery02","1","26","1","1","3","1","","0","0","0","null","","","<div style=""font-size:60px;"">+</div>","null","","","","","","","","","",""
"","html-keyboard-response","216","481784","0.0-10.0-1.19","ujy5ptmgzz","many_one","0","direct_first","1","elnery02","1","26","1","1","3","1","","0","0","0","null","","","<img src = 'category1/CS4.png' width = '100%;'>","null","","","","","","","","","",""
"","html-keyboard-response","217","482037","0.0-10.0-2.19","ujy5ptmgzz","many_one","0","direct_first","1","elnery02","1","26","1","1","3","1","","0","0","0","null","","","<img src = 'targets/20.png' width = '100%;'>","null","","","","","","","","","",""
"","html-keyboard-response","218","482058","0.0-10.0-3.19","ujy5ptmgzz","many_one","0","direct_first","1","elnery02","1","26","1","1","3","1","","0","0","0","18","","","<img src = 'targets/mask.png' width = '100%;'>","75","neg","CS","CS","1","category1/CS4.png","","targets/20.png","indirect","1","19"
"","html-keyboard-response","219","483562","0.0-10.0-0.20","ujy5ptmgzz","many_one","0","direct_first","1","elnery02","1","26","1","1","3","1","","0","0","0","null","","","<div style=""font-size:60px;"">+</div>","null","","","","","","","","","",""
"","html-keyboard-response","220","483655","0.0-10.0-1.20","ujy5ptmgzz","many_one","0","direct_first","1","elnery02","1","26","1","1","3","1","","0","0","0","null","","","<img src = 'category4/CS5.png' width = '100%;'>","null","","","","","","","","","",""
"","html-keyboard-response","221","483912","0.0-10.0-2.20","ujy5ptmgzz","many_one","0","direct_first","1","elnery02","1","26","1","1","3","1","","0","0","0","null","","","<img src = 'targets/7.png' width = '100%;'>","null","","","","","","","","","",""
"","html-keyboard-response","222","484075","0.0-10.0-3.20","ujy5ptmgzz","many_one","0","direct_first","1","elnery02","1","26","1","1","3","1","","0","0","0","159","","","<img src = 'targets/mask.png' width = '100%;'>","75","neg","CS","CS","4","category4/CS5.png","","targets/7.png","indirect","1","20"
"","html-keyboard-response","223","485577","0.0-10.0-0.21","ujy5ptmgzz","many_one","0","direct_first","1","elnery02","1","26","1","1","3","1","","0","0","0","null","","","<div style=""font-size:60px;"">+</div>","null","","","","","","","","","",""
"","html-keyboard-response","224","485670","0.0-10.0-1.21","ujy5ptmgzz","many_one","0","direct_first","1","elnery02","1","26","1","1","3","1","","0","0","0","null","","","<img src = 'category4/CS3.png' width = '100%;'>","null","","","","","","","","","",""
"","html-keyboard-response","225","485922","0.0-10.0-2.21","ujy5ptmgzz","many_one","0","direct_first","1","elnery02","1","26","1","1","3","1","","0","0","0","null","","","<img src = 'targets/2.png' width = '100%;'>","null","","","","","","","","","",""
"","html-keyboard-response","226","486113","0.0-10.0-3.21","ujy5ptmgzz","many_one","0","direct_first","1","elnery02","1","26","1","1","3","1","","0","0","0","189","","","<img src = 'targets/mask.png' width = '100%;'>","68","neg","CS","CS","4","category4/CS3.png","","targets/2.png","indirect","0","21"
"","html-keyboard-response","227","487616","0.0-10.0-0.22","ujy5ptmgzz","many_one","0","direct_first","1","elnery02","1","26","1","1","3","1","","0","0","0","null","","","<div style=""font-size:60px;"">+</div>","null","","","","","","","","","",""
"","html-keyboard-response","228","487708","0.0-10.0-1.22","ujy5ptmgzz","many_one","0","direct_first","1","elnery02","1","26","1","1","3","1","","0","0","0","null","","","<img src = 'category4/CS1.png' width = '100%;'>","null","","","","","","","","","",""
"","html-keyboard-response","229","487961","0.0-10.0-2.22","ujy5ptmgzz","many_one","0","direct_first","1","elnery02","1","26","1","1","3","1","","0","0","0","null","","","<img src = 'targets/6.png' width = '100%;'>","null","","","","","","","","","",""
"","html-keyboard-response","230","487985","0.0-10.0-3.22","ujy5ptmgzz","many_one","0","direct_first","1","elnery02","1","26","1","1","3","1","","0","0","0","22","","","<img src = 'targets/mask.png' width = '100%;'>","75","neg","CS","CS","4","category4/CS1.png","","targets/6.png","indirect","1","22"
"","html-keyboard-response","231","489491","0.0-10.0-0.23","ujy5ptmgzz","many_one","0","direct_first","1","elnery02","1","26","1","1","3","1","","0","0","0","null","","","<div style=""font-size:60px;"">+</div>","null","","","","","","","","","",""
"","html-keyboard-response","232","489584","0.0-10.0-1.23","ujy5ptmgzz","many_one","0","direct_first","1","elnery02","1","26","1","1","3","1","","0","0","0","null","","","<img src = 'category1/CS5.png' width = '100%;'>","null","","","","","","","","","",""
"","html-keyboard-response","233","489838","0.0-10.0-2.23","ujy5ptmgzz","many_one","0","direct_first","1","elnery02","1","26","1","1","3","1","","0","0","0","null","","","<img src = 'targets/34.png' width = '100%;'>","null","","","","","","","","","",""
"","html-keyboard-response","234","490035","0.0-10.0-3.23","ujy5ptmgzz","many_one","0","direct_first","1","elnery02","1","26","1","1","3","1","","0","0","0","193","","","<img src = 'targets/mask.png' width = '100%;'>","75","neg","CS","CS","1","category1/CS5.png","","targets/34.png","indirect","1","23"
"","survey-html-form","235","494383","0.0-11.0","ujy5ptmgzz","many_one","0","direct_first","1","elnery02","1","26","1","1","3","1","","0","0","0","3844","","{}","","","","","","","","","","","",""
"","html-keyboard-response","236","497388","0.0-12.0-0.0","ujy5ptmgzz","many_one","0","direct_first","1","elnery02","1","26","1","1","3","1","","0","0","0","null","","","<div style=""font-size:60px;"">+</div>","null","","","","","","","","","",""
"","html-keyboard-response","237","497479","0.0-12.0-1.0","ujy5ptmgzz","many_one","0","direct_first","1","elnery02","1","26","1","1","3","1","","0","0","0","null","","","<img src = 'category2/CS10.png' width = '100%;'>","null","","","","","","","","","",""
"","html-keyboard-response","238","497730","0.0-12.0-2.0","ujy5ptmgzz","many_one","0","direct_first","1","elnery02","1","26","1","1","3","1","","0","0","0","null","","","<img src = 'targets/38.png' width = '100%;'>","null","","","","","","","","","",""
"","html-keyboard-response","239","499164","0.0-12.0-3.0","ujy5ptmgzz","many_one","0","direct_first","1","elnery02","1","26","1","1","3","1","","0","0","0","1433","","","<img src = 'targets/mask.png' width = '100%;'>","68","pos","GS","GSold","2","category2/CS10.png","","targets/38.png","indirect","0","24"
"","html-keyboard-response","240","500667","0.0-12.0-0.1","ujy5ptmgzz","many_one","0","direct_first","1","elnery02","1","26","1","1","3","1","","0","0","0","null","","","<div style=""font-size:60px;"">+</div>","null","","","","","","","","","",""
"","html-keyboard-response","241","500760","0.0-12.0-1.1","ujy5ptmgzz","many_one","0","direct_first","1","elnery02","1","26","1","1","3","1","","0","0","0","null","","","<img src = 'category2/GS3.png' width = '100%;'>","null","","","","","","","","","",""
"","html-keyboard-response","242","501012","0.0-12.0-2.1","ujy5ptmgzz","many_one","0","direct_first","1","elnery02","1","26","1","1","3","1","","0","0","0","null","","","<img src = 'targets/19.png' width = '100%;'>","null","","","","","","","","","",""
"","html-keyboard-response","243","501056","0.0-12.0-3.1","ujy5ptmgzz","many_one","0","direct_first","1","elnery02","1","26","1","1","3","1","","0","0","0","44","","","<img src = 'targets/mask.png' width = '100%;'>","68","pos","GS","GSnew","2","category2/GS3.png","","targets/19.png","indirect","0","25"
"","html-keyboard-response","244","502558","0.0-12.0-0.2","ujy5ptmgzz","many_one","0","direct_first","1","elnery02","1","26","1","1","3","1","","0","0","0","null","","","<div style=""font-size:60px;"">+</div>","null","","","","","","","","","",""
"","html-keyboard-response","245","502651","0.0-12.0-1.2","ujy5ptmgzz","many_one","0","direct_first","1","elnery02","1","26","1","1","3","1","","0","0","0","null","","","<img src = 'category4/GS1.png' width = '100%;'>","null","","","","","","","","","",""
"","html-keyboard-response","246","502903","0.0-12.0-2.2","ujy5ptmgzz","many_one","0","direct_first","1","elnery02","1","26","1","1","3","1","","0","0","0","null","","","<img src = 'targets/22.png' width = '100%;'>","null","","","","","","","","","",""
"","html-keyboard-response","247","549666","0.0-12.0-3.2","ujy5ptmgzz","many_one","0","direct_first","1","elnery02","1","26","1","1","3","1","","0","0","0","46761","","","<img src = 'targets/mask.png' width = '100%;'>","68","neg","GS","GSnew","4","category4/GS1.png","","targets/22.png","indirect","0","26"
"","html-keyboard-response","248","551174","0.0-12.0-0.3","ujy5ptmgzz","many_one","0","direct_first","1","elnery02","1","26","1","1","3","1","","0","0","0","null","","","<div style=""font-size:60px;"">+</div>","null","","","","","","","","","",""
"","html-keyboard-response","249","551271","0.0-12.0-1.3","ujy5ptmgzz","many_one","0","direct_first","1","elnery02","1","26","1","1","3","1","","0","0","0","null","","","<img src = 'category3/wang.png' width = '100%;'>","null","","","","","","","","","",""
"","html-keyboard-response","250","551526","0.0-12.0-2.3","ujy5ptmgzz","many_one","0","direct_first","1","elnery02","1","26","1","1","3","1","","0","0","0","null","","","<img src = 'targets/15.png' width = '100%;'>","null","","","","","","","","","",""
"","html-keyboard-response","251","551650","0.0-12.0-3.3","ujy5ptmgzz","many_one","0","direct_first","1","elnery02","1","26","1","1","3","1","","0","0","0","116","","","<img src = 'targets/mask.png' width = '100%;'>","75","pos","GS","abstract","3","category3/wang.png","","targets/15.png","indirect","1","27"
"","html-keyboard-response","252","553154","0.0-12.0-0.4","ujy5ptmgzz","many_one","0","direct_first","1","elnery02","1","26","1","1","3","1","","0","0","0","null","","","<div style=""font-size:60px;"">+</div>","null","","","","","","","","","",""
"","html-keyboard-response","253","553249","0.0-12.0-1.4","ujy5ptmgzz","many_one","0","direct_first","1","elnery02","1","26","1","1","3","1","","0","0","0","null","","","<img src = 'category1/GS1.png' width = '100%;'>","null","","","","","","","","","",""
"","html-keyboard-response","254","553504","0.0-12.0-2.4","ujy5ptmgzz","many_one","0","direct_first","1","elnery02","1","26","1","1","3","1","","0","0","0","null","","","<img src = 'targets/39.png' width = '100%;'>","null","","","","","","","","","",""
"","html-keyboard-response","255","553544","0.0-12.0-3.4","ujy5ptmgzz","many_one","0","direct_first","1","elnery02","1","26","1","1","3","1","","0","0","0","35","","","<img src = 'targets/mask.png' width = '100%;'>","68","neg","GS","GSnew","1","category1/GS1.png","","targets/39.png","indirect","0","28"
"","html-keyboard-response","256","555048","0.0-12.0-0.5","ujy5ptmgzz","many_one","0","direct_first","1","elnery02","1","26","1","1","3","1","","0","0","0","null","","","<div style=""font-size:60px;"">+</div>","null","","","","","","","","","",""
"","html-keyboard-response","257","555140","0.0-12.0-1.5","ujy5ptmgzz","many_one","0","direct_first","1","elnery02","1","26","1","1","3","1","","0","0","0","null","","","<img src = 'category3/GS3.png' width = '100%;'>","null","","","","","","","","","",""
"","html-keyboard-response","258","555394","0.0-12.0-2.5","ujy5ptmgzz","many_one","0","direct_first","1","elnery02","1","26","1","1","3","1","","0","0","0","null","","","<img src = 'targets/14.png' width = '100%;'>","null","","","","","","","","","",""
"","html-keyboard-response","259","556115","0.0-12.0-3.5","ujy5ptmgzz","many_one","0","direct_first","1","elnery02","1","26","1","1","3","1","","0","0","0","715","","","<img src = 'targets/mask.png' width = '100%;'>","75","pos","GS","GSnew","3","category3/GS3.png","","targets/14.png","indirect","1","29"
"","html-keyboard-response","260","557618","0.0-12.0-0.6","ujy5ptmgzz","many_one","0","direct_first","1","elnery02","1","26","1","1","3","1","","0","0","0","null","","","<div style=""font-size:60px;"">+</div>","null","","","","","","","","","",""
"","html-keyboard-response","261","557713","0.0-12.0-1.6","ujy5ptmgzz","many_one","0","direct_first","1","elnery02","1","26","1","1","3","1","","0","0","0","null","","","<img src = 'category1/GS3.png' width = '100%;'>","null","","","","","","","","","",""
"","html-keyboard-response","262","557966","0.0-12.0-2.6","ujy5ptmgzz","many_one","0","direct_first","1","elnery02","1","26","1","1","3","1","","0","0","0","null","","","<img src = 'targets/23.png' width = '100%;'>","null","","","","","","","","","",""
"","html-keyboard-response","263","558380","0.0-12.0-3.6","ujy5ptmgzz","many_one","0","direct_first","1","elnery02","1","26","1","1","3","1","","0","0","0","409","","","<img src = 'targets/mask.png' width = '100%;'>","75","neg","GS","GSnew","1","category1/GS3.png","","targets/23.png","indirect","1","30"
"","html-keyboard-response","264","559883","0.0-12.0-0.7","ujy5ptmgzz","many_one","0","direct_first","1","elnery02","1","26","1","1","3","1","","0","0","0","null","","","<div style=""font-size:60px;"">+</div>","null","","","","","","","","","",""
"","html-keyboard-response","265","559976","0.0-12.0-1.7","ujy5ptmgzz","many_one","0","direct_first","1","elnery02","1","26","1","1","3","1","","0","0","0","null","","","<img src = 'category4/GS3.png' width = '100%;'>","null","","","","","","","","","",""
"","html-keyboard-response","266","560227","0.0-12.0-2.7","ujy5ptmgzz","many_one","0","direct_first","1","elnery02","1","26","1","1","3","1","","0","0","0","null","","","<img src = 'targets/21.png' width = '100%;'>","null","","","","","","","","","",""
"","html-keyboard-response","267","560286","0.0-12.0-3.7","ujy5ptmgzz","many_one","0","direct_first","1","elnery02","1","26","1","1","3","1","","0","0","0","52","","","<img src = 'targets/mask.png' width = '100%;'>","75","neg","GS","GSnew","4","category4/GS3.png","","targets/21.png","indirect","1","31"
"","html-keyboard-response","268","561791","0.0-12.0-0.8","ujy5ptmgzz","many_one","0","direct_first","1","elnery02","1","26","1","1","3","1","","0","0","0","null","","","<div style=""font-size:60px;"">+</div>","null","","","","","","","","","",""
"","html-keyboard-response","269","561884","0.0-12.0-1.8","ujy5ptmgzz","many_one","0","direct_first","1","elnery02","1","26","1","1","3","1","","0","0","0","null","","","<img src = 'category2/CS9.png' width = '100%;'>","null","","","","","","","","","",""
"","html-keyboard-response","270","562137","0.0-12.0-2.8","ujy5ptmgzz","many_one","0","direct_first","1","elnery02","1","26","1","1","3","1","","0","0","0","null","","","<img src = 'targets/1.png' width = '100%;'>","null","","","","","","","","","",""
"","html-keyboard-response","271","562145","0.0-12.0-3.8","ujy5ptmgzz","many_one","0","direct_first","1","elnery02","1","26","1","1","3","1","","0","0","0","5","","","<img src = 'targets/mask.png' width = '100%;'>","75","pos","GS","GSold","2","category2/CS9.png","","targets/1.png","indirect","1","32"
"","html-keyboard-response","272","563647","0.0-12.0-0.9","ujy5ptmgzz","many_one","0","direct_first","1","elnery02","1","26","1","1","3","1","","0","0","0","null","","","<div style=""font-size:60px;"">+</div>","null","","","","","","","","","",""
"","html-keyboard-response","273","563739","0.0-12.0-1.9","ujy5ptmgzz","many_one","0","direct_first","1","elnery02","1","26","1","1","3","1","","0","0","0","null","","","<img src = 'category3/CS9.png' width = '100%;'>","null","","","","","","","","","",""
"","html-keyboard-response","274","563992","0.0-12.0-2.9","ujy5ptmgzz","many_one","0","direct_first","1","elnery02","1","26","1","1","3","1","","0","0","0","null","","","<img src = 'targets/4.png' width = '100%;'>","null","","","","","","","","","",""
"","html-keyboard-response","275","564106","0.0-12.0-3.9","ujy5ptmgzz","many_one","0","direct_first","1","elnery02","1","26","1","1","3","1","","0","0","0","112","","","<img src = 'targets/mask.png' width = '100%;'>","75","pos","GS","GSold","3","category3/CS9.png","","targets/4.png","indirect","1","33"
"","html-keyboard-response","276","565609","0.0-12.0-0.10","ujy5ptmgzz","many_one","0","direct_first","1","elnery02","1","26","1","1","3","1","","0","0","0","null","","","<div style=""font-size:60px;"">+</div>","null","","","","","","","","","",""
"","html-keyboard-response","277","565701","0.0-12.0-1.10","ujy5ptmgzz","many_one","0","direct_first","1","elnery02","1","26","1","1","3","1","","0","0","0","null","","","<img src = 'category2/GS2.png' width = '100%;'>","null","","","","","","","","","",""
"","html-keyboard-response","278","565955","0.0-12.0-2.10","ujy5ptmgzz","many_one","0","direct_first","1","elnery02","1","26","1","1","3","1","","0","0","0","null","","","<img src = 'targets/12.png' width = '100%;'>","null","","","","","","","","","",""
"","html-keyboard-response","279","566131","0.0-12.0-3.10","ujy5ptmgzz","many_one","0","direct_first","1","elnery02","1","26","1","1","3","1","","0","0","0","174","","","<img src = 'targets/mask.png' width = '100%;'>","68","pos","GS","GSnew","2","category2/GS2.png","","targets/12.png","indirect","0","34"
"","html-keyboard-response","280","567634","0.0-12.0-0.11","ujy5ptmgzz","many_one","0","direct_first","1","elnery02","1","26","1","1","3","1","","0","0","0","null","","","<div style=""font-size:60px;"">+</div>","null","","","","","","","","","",""
"","html-keyboard-response","281","567727","0.0-12.0-1.11","ujy5ptmgzz","many_one","0","direct_first","1","elnery02","1","26","1","1","3","1","","0","0","0","null","","","<img src = 'category1/CS8.png' width = '100%;'>","null","","","","","","","","","",""
"","html-keyboard-response","282","567981","0.0-12.0-2.11","ujy5ptmgzz","many_one","0","direct_first","1","elnery02","1","26","1","1","3","1","","0","0","0","null","","","<img src = 'targets/35.png' width = '100%;'>","null","","","","","","","","","",""
"","html-keyboard-response","283","567995","0.0-12.0-3.11","ujy5ptmgzz","many_one","0","direct_first","1","elnery02","1","26","1","1","3","1","","0","0","0","12","","","<img src = 'targets/mask.png' width = '100%;'>","68","neg","GS","GSold","1","category1/CS8.png","","targets/35.png","indirect","0","35"
"","html-keyboard-response","284","569500","0.0-12.0-0.12","ujy5ptmgzz","many_one","0","direct_first","1","elnery02","1","26","1","1","3","1","","0","0","0","null","","","<div style=""font-size:60px;"">+</div>","null","","","","","","","","","",""
"","html-keyboard-response","285","569593","0.0-12.0-1.12","ujy5ptmgzz","many_one","0","direct_first","1","elnery02","1","26","1","1","3","1","","0","0","0","null","","","<img src = 'category2/GS1.png' width = '100%;'>","null","","","","","","","","","",""
"","html-keyboard-response","286","569845","0.0-12.0-2.12","ujy5ptmgzz","many_one","0","direct_first","1","elnery02","1","26","1","1","3","1","","0","0","0","null","","","<img src = 'targets/31.png' width = '100%;'>","null","","","","","","","","","",""
"","html-keyboard-response","287","569903","0.0-12.0-3.12","ujy5ptmgzz","many_one","0","direct_first","1","elnery02","1","26","1","1","3","1","","0","0","0","54","","","<img src = 'targets/mask.png' width = '100%;'>","68","pos","GS","GSnew","2","category2/GS1.png","","targets/31.png","indirect","0","36"
"","html-keyboard-response","288","571407","0.0-12.0-0.13","ujy5ptmgzz","many_one","0","direct_first","1","elnery02","1","26","1","1","3","1","","0","0","0","null","","","<div style=""font-size:60px;"">+</div>","null","","","","","","","","","",""
"","html-keyboard-response","289","571500","0.0-12.0-1.13","ujy5ptmgzz","many_one","0","direct_first","1","elnery02","1","26","1","1","3","1","","0","0","0","null","","","<img src = 'category1/CS7.png' width = '100%;'>","null","","","","","","","","","",""
"","html-keyboard-response","290","571755","0.0-12.0-2.13","ujy5ptmgzz","many_one","0","direct_first","1","elnery02","1","26","1","1","3","1","","0","0","0","null","","","<img src = 'targets/36.png' width = '100%;'>","null","","","","","","","","","",""
"","html-keyboard-response","291","571931","0.0-12.0-3.13","ujy5ptmgzz","many_one","0","direct_first","1","elnery02","1","26","1","1","3","1","","0","0","0","173","","","<img src = 'targets/mask.png' width = '100%;'>","68","neg","GS","GSold","1","category1/CS7.png","","targets/36.png","indirect","0","37"
"","html-keyboard-response","292","573434","0.0-12.0-0.14","ujy5ptmgzz","many_one","0","direct_first","1","elnery02","1","26","1","1","3","1","","0","0","0","null","","","<div style=""font-size:60px;"">+</div>","null","","","","","","","","","",""
"","html-keyboard-response","293","573528","0.0-12.0-1.14","ujy5ptmgzz","many_one","0","direct_first","1","elnery02","1","26","1","1","3","1","","0","0","0","null","","","<img src = 'category1/ma.png' width = '100%;'>","null","","","","","","","","","",""
"","html-keyboard-response","294","573781","0.0-12.0-2.14","ujy5ptmgzz","many_one","0","direct_first","1","elnery02","1","26","1","1","3","1","","0","0","0","null","","","<img src = 'targets/37.png' width = '100%;'>","null","","","","","","","","","",""
"","html-keyboard-response","295","573989","0.0-12.0-3.14","ujy5ptmgzz","many_one","0","direct_first","1","elnery02","1","26","1","1","3","1","","0","0","0","206","","","<img src = 'targets/mask.png' width = '100%;'>","68","neg","GS","abstract","1","category1/ma.png","","targets/37.png","indirect","0","38"
"","html-keyboard-response","296","575493","0.0-12.0-0.15","ujy5ptmgzz","many_one","0","direct_first","1","elnery02","1","26","1","1","3","1","","0","0","0","null","","","<div style=""font-size:60px;"">+</div>","null","","","","","","","","","",""
"","html-keyboard-response","297","575585","0.0-12.0-1.15","ujy5ptmgzz","many_one","0","direct_first","1","elnery02","1","26","1","1","3","1","","0","0","0","null","","","<img src = 'category3/GS2.png' width = '100%;'>","null","","","","","","","","","",""
"","html-keyboard-response","298","575838","0.0-12.0-2.15","ujy5ptmgzz","many_one","0","direct_first","1","elnery02","1","26","1","1","3","1","","0","0","0","null","","","<img src = 'targets/25.png' width = '100%;'>","null","","","","","","","","","",""
"","html-keyboard-response","299","575941","0.0-12.0-3.15","ujy5ptmgzz","many_one","0","direct_first","1","elnery02","1","26","1","1","3","1","","0","0","0","100","","","<img src = 'targets/mask.png' width = '100%;'>","75","pos","GS","GSnew","3","category3/GS2.png","","targets/25.png","indirect","1","39"
"","html-keyboard-response","300","577447","0.0-12.0-0.16","ujy5ptmgzz","many_one","0","direct_first","1","elnery02","1","26","1","1","3","1","","0","0","0","null","","","<div style=""font-size:60px;"">+</div>","null","","","","","","","","","",""
"","html-keyboard-response","301","577539","0.0-12.0-1.16","ujy5ptmgzz","many_one","0","direct_first","1","elnery02","1","26","1","1","3","1","","0","0","0","null","","","<img src = 'category3/GS1.png' width = '100%;'>","null","","","","","","","","","",""
"","html-keyboard-response","302","577793","0.0-12.0-2.16","ujy5ptmgzz","many_one","0","direct_first","1","elnery02","1","26","1","1","3","1","","0","0","0","null","","","<img src = 'targets/13.png' width = '100%;'>","null","","","","","","","","","",""
"","html-keyboard-response","303","577899","0.0-12.0-3.16","ujy5ptmgzz","many_one","0","direct_first","1","elnery02","1","26","1","1","3","1","","0","0","0","103","","","<img src = 'targets/mask.png' width = '100%;'>","75","pos","GS","GSnew","3","category3/GS1.png","","targets/13.png","indirect","1","40"
"","html-keyboard-response","304","579405","0.0-12.0-0.17","ujy5ptmgzz","many_one","0","direct_first","1","elnery02","1","26","1","1","3","1","","0","0","0","null","","","<div style=""font-size:60px;"">+</div>","null","","","","","","","","","",""
"","html-keyboard-response","305","579497","0.0-12.0-1.17","ujy5ptmgzz","many_one","0","direct_first","1","elnery02","1","26","1","1","3","1","","0","0","0","null","","","<img src = 'category3/CS5.png' width = '100%;'>","null","","","","","","","","","",""
"","html-keyboard-response","306","579750","0.0-12.0-2.17","ujy5ptmgzz","many_one","0","direct_first","1","elnery02","1","26","1","1","3","1","","0","0","0","null","","","<img src = 'targets/9.png' width = '100%;'>","null","","","","","","","","","",""
"","html-keyboard-response","307","579817","0.0-12.0-3.17","ujy5ptmgzz","many_one","0","direct_first","1","elnery02","1","26","1","1","3","1","","0","0","0","63","","","<img src = 'targets/mask.png' width = '100%;'>","75","pos","GS","GSold","3","category3/CS5.png","","targets/9.png","indirect","1","41"
"","html-keyboard-response","308","581319","0.0-12.0-0.18","ujy5ptmgzz","many_one","0","direct_first","1","elnery02","1","26","1","1","3","1","","0","0","0","null","","","<div style=""font-size:60px;"">+</div>","null","","","","","","","","","",""
"","html-keyboard-response","309","581413","0.0-12.0-1.18","ujy5ptmgzz","many_one","0","direct_first","1","elnery02","1","26","1","1","3","1","","0","0","0","null","","","<img src = 'category4/GS2.png' width = '100%;'>","null","","","","","","","","","",""
"","html-keyboard-response","310","581668","0.0-12.0-2.18","ujy5ptmgzz","many_one","0","direct_first","1","elnery02","1","26","1","1","3","1","","0","0","0","null","","","<img src = 'targets/5.png' width = '100%;'>","null","","","","","","","","","",""
"","html-keyboard-response","311","581733","0.0-12.0-3.18","ujy5ptmgzz","many_one","0","direct_first","1","elnery02","1","26","1","1","3","1","","0","0","0","62","","","<img src = 'targets/mask.png' width = '100%;'>","75","neg","GS","GSnew","4","category4/GS2.png","","targets/5.png","indirect","1","42"
"","html-keyboard-response","312","583236","0.0-12.0-0.19","ujy5ptmgzz","many_one","0","direct_first","1","elnery02","1","26","1","1","3","1","","0","0","0","null","","","<div style=""font-size:60px;"">+</div>","null","","","","","","","","","",""
"","html-keyboard-response","313","583331","0.0-12.0-1.19","ujy5ptmgzz","many_one","0","direct_first","1","elnery02","1","26","1","1","3","1","","0","0","0","null","","","<img src = 'category2/men.png' width = '100%;'>","null","","","","","","","","","",""
"","html-keyboard-response","314","583586","0.0-12.0-2.19","ujy5ptmgzz","many_one","0","direct_first","1","elnery02","1","26","1","1","3","1","","0","0","0","null","","","<img src = 'targets/48.png' width = '100%;'>","null","","","","","","","","","",""
"","html-keyboard-response","315","583629","0.0-12.0-3.19","ujy5ptmgzz","many_one","0","direct_first","1","elnery02","1","26","1","1","3","1","","0","0","0","40","","","<img src = 'targets/mask.png' width = '100%;'>","75","pos","GS","abstract","2","category2/men.png","","targets/48.png","indirect","1","43"
"","html-keyboard-response","316","585133","0.0-12.0-0.20","ujy5ptmgzz","many_one","0","direct_first","1","elnery02","1","26","1","1","3","1","","0","0","0","null","","","<div style=""font-size:60px;"">+</div>","null","","","","","","","","","",""
"","html-keyboard-response","317","585226","0.0-12.0-1.20","ujy5ptmgzz","many_one","0","direct_first","1","elnery02","1","26","1","1","3","1","","0","0","0","null","","","<img src = 'category1/CS10.png' width = '100%;'>","null","","","","","","","","","",""
"","html-keyboard-response","318","585479","0.0-12.0-2.20","ujy5ptmgzz","many_one","0","direct_first","1","elnery02","1","26","1","1","3","1","","0","0","0","null","","","<img src = 'targets/32.png' width = '100%;'>","null","","","","","","","","","",""
"","html-keyboard-response","319","585579","0.0-12.0-3.20","ujy5ptmgzz","many_one","0","direct_first","1","elnery02","1","26","1","1","3","1","","0","0","0","97","","","<img src = 'targets/mask.png' width = '100%;'>","68","neg","GS","GSold","1","category1/CS10.png","","targets/32.png","indirect","0","44"
"","html-keyboard-response","320","587084","0.0-12.0-0.21","ujy5ptmgzz","many_one","0","direct_first","1","elnery02","1","26","1","1","3","1","","0","0","0","null","","","<div style=""font-size:60px;"">+</div>","null","","","","","","","","","",""
"","html-keyboard-response","321","587179","0.0-12.0-1.21","ujy5ptmgzz","many_one","0","direct_first","1","elnery02","1","26","1","1","3","1","","0","0","0","null","","","<img src = 'category4/lin.png' width = '100%;'>","null","","","","","","","","","",""
"","html-keyboard-response","322","587431","0.0-12.0-2.21","ujy5ptmgzz","many_one","0","direct_first","1","elnery02","1","26","1","1","3","1","","0","0","0","null","","","<img src = 'targets/41.png' width = '100%;'>","null","","","","","","","","","",""
"","html-keyboard-response","323","587595","0.0-12.0-3.21","ujy5ptmgzz","many_one","0","direct_first","1","elnery02","1","26","1","1","3","1","","0","0","0","160","","","<img src = 'targets/mask.png' width = '100%;'>","68","neg","GS","abstract","4","category4/lin.png","","targets/41.png","indirect","0","45"
"","html-keyboard-response","324","589097","0.0-12.0-0.22","ujy5ptmgzz","many_one","0","direct_first","1","elnery02","1","26","1","1","3","1","","0","0","0","null","","","<div style=""font-size:60px;"">+</div>","null","","","","","","","","","",""
"","html-keyboard-response","325","589189","0.0-12.0-1.22","ujy5ptmgzz","many_one","0","direct_first","1","elnery02","1","26","1","1","3","1","","0","0","0","null","","","<img src = 'category2/CS7.png' width = '100%;'>","null","","","","","","","","","",""
"","html-keyboard-response","326","589445","0.0-12.0-2.22","ujy5ptmgzz","many_one","0","direct_first","1","elnery02","1","26","1","1","3","1","","0","0","0","null","","","<img src = 'targets/47.png' width = '100%;'>","null","","","","","","","","","",""
"","html-keyboard-response","327","589467","0.0-12.0-3.22","ujy5ptmgzz","many_one","0","direct_first","1","elnery02","1","26","1","1","3","1","","0","0","0","18","","","<img src = 'targets/mask.png' width = '100%;'>","68","pos","GS","GSold","2","category2/CS7.png","","targets/47.png","indirect","0","46"
"","html-keyboard-response","328","590971","0.0-12.0-0.23","ujy5ptmgzz","many_one","0","direct_first","1","elnery02","1","26","1","1","3","1","","0","0","0","null","","","<div style=""font-size:60px;"">+</div>","null","","","","","","","","","",""
"","html-keyboard-response","329","591062","0.0-12.0-1.23","ujy5ptmgzz","many_one","0","direct_first","1","elnery02","1","26","1","1","3","1","","0","0","0","null","","","<img src = 'category1/GS2.png' width = '100%;'>","null","","","","","","","","","",""
"","html-keyboard-response","330","591315","0.0-12.0-2.23","ujy5ptmgzz","many_one","0","direct_first","1","elnery02","1","26","1","1","3","1","","0","0","0","null","","","<img src = 'targets/26.png' width = '100%;'>","null","","","","","","","","","",""
"","html-keyboard-response","331","591399","0.0-12.0-3.23","ujy5ptmgzz","many_one","0","direct_first","1","elnery02","1","26","1","1","3","1","","0","0","0","82","","","<img src = 'targets/mask.png' width = '100%;'>","68","neg","GS","GSnew","1","category1/GS2.png","","targets/26.png","indirect","0","47"
"","survey-html-form","332","597949","0.0-13.0","ujy5ptmgzz","many_one","0","direct_first","1","elnery02","1","26","1","1","3","1","","0","0","0","6046","","{}","","","","","","","","","","","",""
"","image-slider-response","333","601299","0.0-14.0-0.0","ujy5ptmgzz","many_one","0","direct_first","1","elnery02","1","26","1","1","3","1","","0","0","0","2335","","","","","neg","All","all","4","category4/lin_all.png","13","","all","",""
