"success","trial_type","trial_index","time_elapsed","internal_node_id","subject","condition","condition_code","measure","measure_code","codeword","gender","age","education","chinese","fach","handedness","comment","hinschauen","ablenkung","gewissenhaft","rt","url","responses","stimulus","key_press","val","type","type_specific","category","cs_selected","response","target","task","indirect","nr_pres"
"true","fullscreen","0","5916","0.0-0.0","wc7uzqkrsp","one_one","1","direct_first","1","IN08UT27","0","19","1","1","3","1","","0","1","0","","","","","","","","","","","","","","",""
"","external-html","1","15722","0.0-1.0","wc7uzqkrsp","one_one","1","direct_first","1","IN08UT27","0","19","1","1","3","1","","0","1","0","9791.900000011083","text/information.html","","","","","","","","","","","","",""
"","external-html","2","25613","0.0-2.0","wc7uzqkrsp","one_one","1","direct_first","1","IN08UT27","0","19","1","1","3","1","","0","1","0","9803.82999998983","text/consent.html","","","","","","","","","","","","",""
"","survey-html-form","3","39870","0.0-3.0","wc7uzqkrsp","one_one","1","direct_first","1","IN08UT27","0","19","1","1","3","1","","0","1","0","14251.584999961779","","{""codeword_enter"":""IN08UT27""}","","","","","","","","","","","",""
"","survey-html-form","4","62831","0.0-4.0","wc7uzqkrsp","one_one","1","direct_first","1","IN08UT27","0","19","1","1","3","1","","0","1","0","22955.51499997964","","{""age"":""19"",""education"":""1"",""subject"":""3"",""gender"":""0"",""handedness"":""1"",""chinese"":""1""}","","","","","","","","","","","",""
"","survey-html-form","5","74582","0.0-5.0","wc7uzqkrsp","one_one","1","direct_first","1","IN08UT27","0","19","1","1","3","1","","0","1","0","11747.354999999516","","{}","","","","","","","","","","","",""
"","html-keyboard-response","6","78611","0.0-6.0-0.0-0.0","wc7uzqkrsp","one_one","1","direct_first","1","IN08UT27","0","19","1","1","3","1","","0","1","0","null","","","<div class = 'row'><div class = 'column'><img src = 'uspos/2208.bmp' width = '100%;'></div><div class = 'column'><img src = 'category4/CS6.png' width = '70%;'></div></div>","null","pos","CS","CS","4","category4/CS6.png","","","","",""
"","html-keyboard-response","7","81129","0.0-6.0-0.0-0.1","wc7uzqkrsp","one_one","1","direct_first","1","IN08UT27","0","19","1","1","3","1","","0","1","0","null","","","<div class = 'row'><div class = 'column'><img src = 'category3/CS10.png' width = '70%;'></div><div class = 'column'><img src = 'uspos/5831.bmp' width = '100%;'></div></div>","null","pos","CS","CS","3","category3/CS10.png","","","","",""
"","html-keyboard-response","8","83650","0.0-6.0-0.0-0.2","wc7uzqkrsp","one_one","1","direct_first","1","IN08UT27","0","19","1","1","3","1","","0","1","0","null","","","<div class = 'row'><div class = 'column'><img src = 'usneg/2900.bmp' width = '100%;'></div><div class = 'column'><img src = 'category1/CS7.png' width = '70%;'></div></div>","null","neg","CS","CS","1","category1/CS7.png","","","","",""
"","html-keyboard-response","9","86169","0.0-6.0-0.0-0.3","wc7uzqkrsp","one_one","1","direct_first","1","IN08UT27","0","19","1","1","3","1","","0","1","0","null","","","<div class = 'row'><div class = 'column'><img src = 'usneg/2205.bmp' width = '100%;'></div><div class = 'column'><img src = 'category2/CS8.png' width = '70%;'></div></div>","null","neg","CS","CS","2","category2/CS8.png","","","","",""
"","html-keyboard-response","10","88688","0.0-6.0-0.0-0.4","wc7uzqkrsp","one_one","1","direct_first","1","IN08UT27","0","19","1","1","3","1","","0","1","0","null","","","<div class = 'row'><div class = 'column'><img src = 'category4/CS6.png' width = '70%;'></div><div class = 'column'><img src = 'uspos/2208.bmp' width = '100%;'></div></div>","null","pos","CS","CS","4","category4/CS6.png","","","","",""
"","html-keyboard-response","11","91204","0.0-6.0-0.0-0.5","wc7uzqkrsp","one_one","1","direct_first","1","IN08UT27","0","19","1","1","3","1","","0","1","0","null","","","<div class = 'row'><div class = 'column'><img src = 'category2/CS8.png' width = '70%;'></div><div class = 'column'><img src = 'usneg/2205.bmp' width = '100%;'></div></div>","null","neg","CS","CS","2","category2/CS8.png","","","","",""
"","html-keyboard-response","12","93719","0.0-6.0-0.0-0.6","wc7uzqkrsp","one_one","1","direct_first","1","IN08UT27","0","19","1","1","3","1","","0","1","0","null","","","<div class = 'row'><div class = 'column'><img src = 'uspos/5831.bmp' width = '100%;'></div><div class = 'column'><img src = 'category3/CS10.png' width = '70%;'></div></div>","null","pos","CS","CS","3","category3/CS10.png","","","","",""
"","html-keyboard-response","13","96246","0.0-6.0-0.0-0.7","wc7uzqkrsp","one_one","1","direct_first","1","IN08UT27","0","19","1","1","3","1","","0","1","0","null","","","<div class = 'row'><div class = 'column'><img src = 'category1/CS7.png' width = '70%;'></div><div class = 'column'><img src = 'usneg/2900.bmp' width = '100%;'></div></div>","null","neg","CS","CS","1","category1/CS7.png","","","","",""
"","html-keyboard-response","14","98776","0.0-6.0-0.0-0.8","wc7uzqkrsp","one_one","1","direct_first","1","IN08UT27","0","19","1","1","3","1","","0","1","0","null","","","<div class = 'row'><div class = 'column'><img src = 'category3/CS10.png' width = '70%;'></div><div class = 'column'><img src = 'uspos/5831.bmp' width = '100%;'></div></div>","null","pos","CS","CS","3","category3/CS10.png","","","","",""
"","html-keyboard-response","15","101293","0.0-6.0-0.0-0.9","wc7uzqkrsp","one_one","1","direct_first","1","IN08UT27","0","19","1","1","3","1","","0","1","0","null","","","<div class = 'row'><div class = 'column'><img src = 'uspos/2208.bmp' width = '100%;'></div><div class = 'column'><img src = 'category4/CS6.png' width = '70%;'></div></div>","null","pos","CS","CS","4","category4/CS6.png","","","","",""
"","html-keyboard-response","16","103814","0.0-6.0-0.0-0.10","wc7uzqkrsp","one_one","1","direct_first","1","IN08UT27","0","19","1","1","3","1","","0","1","0","null","","","<div class = 'row'><div class = 'column'><img src = 'usneg/2900.bmp' width = '100%;'></div><div class = 'column'><img src = 'category1/CS7.png' width = '70%;'></div></div>","null","neg","CS","CS","1","category1/CS7.png","","","","",""
"","html-keyboard-response","17","106338","0.0-6.0-0.0-0.11","wc7uzqkrsp","one_one","1","direct_first","1","IN08UT27","0","19","1","1","3","1","","0","1","0","null","","","<div class = 'row'><div class = 'column'><img src = 'category4/CS6.png' width = '70%;'></div><div class = 'column'><img src = 'uspos/2208.bmp' width = '100%;'></div></div>","null","pos","CS","CS","4","category4/CS6.png","","","","",""
"","html-keyboard-response","18","108861","0.0-6.0-0.0-0.12","wc7uzqkrsp","one_one","1","direct_first","1","IN08UT27","0","19","1","1","3","1","","0","1","0","null","","","<div class = 'row'><div class = 'column'><img src = 'category2/CS8.png' width = '70%;'></div><div class = 'column'><img src = 'usneg/2205.bmp' width = '100%;'></div></div>","null","neg","CS","CS","2","category2/CS8.png","","","","",""
"","html-keyboard-response","19","111376","0.0-6.0-0.0-0.13","wc7uzqkrsp","one_one","1","direct_first","1","IN08UT27","0","19","1","1","3","1","","0","1","0","null","","","<div class = 'row'><div class = 'column'><img src = 'usneg/2900.bmp' width = '100%;'></div><div class = 'column'><img src = 'category1/CS7.png' width = '70%;'></div></div>","null","neg","CS","CS","1","category1/CS7.png","","","","",""
"","html-keyboard-response","20","113888","0.0-6.0-0.0-0.14","wc7uzqkrsp","one_one","1","direct_first","1","IN08UT27","0","19","1","1","3","1","","0","1","0","null","","","<div class = 'row'><div class = 'column'><img src = 'uspos/5831.bmp' width = '100%;'></div><div class = 'column'><img src = 'category3/CS10.png' width = '70%;'></div></div>","null","pos","CS","CS","3","category3/CS10.png","","","","",""
"","html-keyboard-response","21","116412","0.0-6.0-0.0-0.15","wc7uzqkrsp","one_one","1","direct_first","1","IN08UT27","0","19","1","1","3","1","","0","1","0","null","","","<div class = 'row'><div class = 'column'><img src = 'uspos/2208.bmp' width = '100%;'></div><div class = 'column'><img src = 'category4/CS6.png' width = '70%;'></div></div>","null","pos","CS","CS","4","category4/CS6.png","","","","",""
"","html-keyboard-response","22","118934","0.0-6.0-0.0-0.16","wc7uzqkrsp","one_one","1","direct_first","1","IN08UT27","0","19","1","1","3","1","","0","1","0","null","","","<div class = 'row'><div class = 'column'><img src = 'usneg/2205.bmp' width = '100%;'></div><div class = 'column'><img src = 'category2/CS8.png' width = '70%;'></div></div>","null","neg","CS","CS","2","category2/CS8.png","","","","",""
"","html-keyboard-response","23","121462","0.0-6.0-0.0-0.17","wc7uzqkrsp","one_one","1","direct_first","1","IN08UT27","0","19","1","1","3","1","","0","1","0","null","","","<div class = 'row'><div class = 'column'><img src = 'category1/CS7.png' width = '70%;'></div><div class = 'column'><img src = 'usneg/2900.bmp' width = '100%;'></div></div>","null","neg","CS","CS","1","category1/CS7.png","","","","",""
"","html-keyboard-response","24","123986","0.0-6.0-0.0-0.18","wc7uzqkrsp","one_one","1","direct_first","1","IN08UT27","0","19","1","1","3","1","","0","1","0","null","","","<div class = 'row'><div class = 'column'><img src = 'usneg/2205.bmp' width = '100%;'></div><div class = 'column'><img src = 'category2/CS8.png' width = '70%;'></div></div>","null","neg","CS","CS","2","category2/CS8.png","","","","",""
"","html-keyboard-response","25","126518","0.0-6.0-0.0-0.19","wc7uzqkrsp","one_one","1","direct_first","1","IN08UT27","0","19","1","1","3","1","","0","1","0","null","","","<div class = 'row'><div class = 'column'><img src = 'category3/CS10.png' width = '70%;'></div><div class = 'column'><img src = 'uspos/5831.bmp' width = '100%;'></div></div>","null","pos","CS","CS","3","category3/CS10.png","","","","",""
"","survey-html-form","26","131265","0.0-6.0-1.0","wc7uzqkrsp","one_one","1","direct_first","1","IN08UT27","0","19","1","1","3","1","","0","1","0","4240.005000028759","","{}","","","","","","","","","","","",""
"","html-keyboard-response","27","135299","0.0-6.0-2.0-0.0","wc7uzqkrsp","one_one","1","direct_first","1","IN08UT27","0","19","1","1","3","1","","0","1","0","null","","","<div class = 'row'><div class = 'column'><img src = 'category4/CS6.png' width = '70%;'></div><div class = 'column'><img src = 'uspos/2208.bmp' width = '100%;'></div></div>","null","pos","CS","CS","4","category4/CS6.png","","","","",""
"","html-keyboard-response","28","137820","0.0-6.0-2.0-0.1","wc7uzqkrsp","one_one","1","direct_first","1","IN08UT27","0","19","1","1","3","1","","0","1","0","null","","","<div class = 'row'><div class = 'column'><img src = 'category3/CS10.png' width = '70%;'></div><div class = 'column'><img src = 'uspos/5831.bmp' width = '100%;'></div></div>","null","pos","CS","CS","3","category3/CS10.png","","","","",""
"","html-keyboard-response","29","140335","0.0-6.0-2.0-0.2","wc7uzqkrsp","one_one","1","direct_first","1","IN08UT27","0","19","1","1","3","1","","0","1","0","null","","","<div class = 'row'><div class = 'column'><img src = 'category4/CS6.png' width = '70%;'></div><div class = 'column'><img src = 'uspos/2208.bmp' width = '100%;'></div></div>","null","pos","CS","CS","4","category4/CS6.png","","","","",""
"","html-keyboard-response","30","142851","0.0-6.0-2.0-0.3","wc7uzqkrsp","one_one","1","direct_first","1","IN08UT27","0","19","1","1","3","1","","0","1","0","null","","","<div class = 'row'><div class = 'column'><img src = 'uspos/5831.bmp' width = '100%;'></div><div class = 'column'><img src = 'category3/CS10.png' width = '70%;'></div></div>","null","pos","CS","CS","3","category3/CS10.png","","","","",""
"","html-keyboard-response","31","145370","0.0-6.0-2.0-0.4","wc7uzqkrsp","one_one","1","direct_first","1","IN08UT27","0","19","1","1","3","1","","0","1","0","null","","","<div class = 'row'><div class = 'column'><img src = 'usneg/2900.bmp' width = '100%;'></div><div class = 'column'><img src = 'category1/CS7.png' width = '70%;'></div></div>","null","neg","CS","CS","1","category1/CS7.png","","","","",""
"","html-keyboard-response","32","147879","0.0-6.0-2.0-0.5","wc7uzqkrsp","one_one","1","direct_first","1","IN08UT27","0","19","1","1","3","1","","0","1","0","null","","","<div class = 'row'><div class = 'column'><img src = 'uspos/5831.bmp' width = '100%;'></div><div class = 'column'><img src = 'category3/CS10.png' width = '70%;'></div></div>","null","pos","CS","CS","3","category3/CS10.png","","","","",""
"","html-keyboard-response","33","150407","0.0-6.0-2.0-0.6","wc7uzqkrsp","one_one","1","direct_first","1","IN08UT27","0","19","1","1","3","1","","0","1","0","null","","","<div class = 'row'><div class = 'column'><img src = 'uspos/2208.bmp' width = '100%;'></div><div class = 'column'><img src = 'category4/CS6.png' width = '70%;'></div></div>","null","pos","CS","CS","4","category4/CS6.png","","","","",""
"","html-keyboard-response","34","152921","0.0-6.0-2.0-0.7","wc7uzqkrsp","one_one","1","direct_first","1","IN08UT27","0","19","1","1","3","1","","0","1","0","null","","","<div class = 'row'><div class = 'column'><img src = 'usneg/2205.bmp' width = '100%;'></div><div class = 'column'><img src = 'category2/CS8.png' width = '70%;'></div></div>","null","neg","CS","CS","2","category2/CS8.png","","","","",""
"","html-keyboard-response","35","155452","0.0-6.0-2.0-0.8","wc7uzqkrsp","one_one","1","direct_first","1","IN08UT27","0","19","1","1","3","1","","0","1","0","null","","","<div class = 'row'><div class = 'column'><img src = 'category3/CS10.png' width = '70%;'></div><div class = 'column'><img src = 'uspos/5831.bmp' width = '100%;'></div></div>","null","pos","CS","CS","3","category3/CS10.png","","","","",""
"","html-keyboard-response","36","157961","0.0-6.0-2.0-0.9","wc7uzqkrsp","one_one","1","direct_first","1","IN08UT27","0","19","1","1","3","1","","0","1","0","null","","","<div class = 'row'><div class = 'column'><img src = 'category2/CS8.png' width = '70%;'></div><div class = 'column'><img src = 'usneg/2205.bmp' width = '100%;'></div></div>","null","neg","CS","CS","2","category2/CS8.png","","","","",""
"","html-keyboard-response","37","160483","0.0-6.0-2.0-0.10","wc7uzqkrsp","one_one","1","direct_first","1","IN08UT27","0","19","1","1","3","1","","0","1","0","null","","","<div class = 'row'><div class = 'column'><img src = 'category1/CS7.png' width = '70%;'></div><div class = 'column'><img src = 'usneg/2900.bmp' width = '100%;'></div></div>","null","neg","CS","CS","1","category1/CS7.png","","","","",""
"","html-keyboard-response","38","163004","0.0-6.0-2.0-0.11","wc7uzqkrsp","one_one","1","direct_first","1","IN08UT27","0","19","1","1","3","1","","0","1","0","null","","","<div class = 'row'><div class = 'column'><img src = 'usneg/2205.bmp' width = '100%;'></div><div class = 'column'><img src = 'category2/CS8.png' width = '70%;'></div></div>","null","neg","CS","CS","2","category2/CS8.png","","","","",""
"","html-keyboard-response","39","165534","0.0-6.0-2.0-0.12","wc7uzqkrsp","one_one","1","direct_first","1","IN08UT27","0","19","1","1","3","1","","0","1","0","null","","","<div class = 'row'><div class = 'column'><img src = 'uspos/5831.bmp' width = '100%;'></div><div class = 'column'><img src = 'category3/CS10.png' width = '70%;'></div></div>","null","pos","CS","CS","3","category3/CS10.png","","","","",""
"","html-keyboard-response","40","168048","0.0-6.0-2.0-0.13","wc7uzqkrsp","one_one","1","direct_first","1","IN08UT27","0","19","1","1","3","1","","0","1","0","null","","","<div class = 'row'><div class = 'column'><img src = 'usneg/2900.bmp' width = '100%;'></div><div class = 'column'><img src = 'category1/CS7.png' width = '70%;'></div></div>","null","neg","CS","CS","1","category1/CS7.png","","","","",""
"","html-keyboard-response","41","170563","0.0-6.0-2.0-0.14","wc7uzqkrsp","one_one","1","direct_first","1","IN08UT27","0","19","1","1","3","1","","0","1","0","null","","","<div class = 'row'><div class = 'column'><img src = 'category4/CS6.png' width = '70%;'></div><div class = 'column'><img src = 'uspos/2208.bmp' width = '100%;'></div></div>","null","pos","CS","CS","4","category4/CS6.png","","","","",""
"","html-keyboard-response","42","173083","0.0-6.0-2.0-0.15","wc7uzqkrsp","one_one","1","direct_first","1","IN08UT27","0","19","1","1","3","1","","0","1","0","null","","","<div class = 'row'><div class = 'column'><img src = 'category1/CS7.png' width = '70%;'></div><div class = 'column'><img src = 'usneg/2900.bmp' width = '100%;'></div></div>","null","neg","CS","CS","1","category1/CS7.png","","","","",""
"","html-keyboard-response","43","175609","0.0-6.0-2.0-0.16","wc7uzqkrsp","one_one","1","direct_first","1","IN08UT27","0","19","1","1","3","1","","0","1","0","null","","","<div class = 'row'><div class = 'column'><img src = 'category2/CS8.png' width = '70%;'></div><div class = 'column'><img src = 'usneg/2205.bmp' width = '100%;'></div></div>","null","neg","CS","CS","2","category2/CS8.png","","","","",""
"","html-keyboard-response","44","178119","0.0-6.0-2.0-0.17","wc7uzqkrsp","one_one","1","direct_first","1","IN08UT27","0","19","1","1","3","1","","0","1","0","null","","","<div class = 'row'><div class = 'column'><img src = 'category1/CS7.png' width = '70%;'></div><div class = 'column'><img src = 'usneg/2900.bmp' width = '100%;'></div></div>","null","neg","CS","CS","1","category1/CS7.png","","","","",""
"","html-keyboard-response","45","180633","0.0-6.0-2.0-0.18","wc7uzqkrsp","one_one","1","direct_first","1","IN08UT27","0","19","1","1","3","1","","0","1","0","null","","","<div class = 'row'><div class = 'column'><img src = 'category2/CS8.png' width = '70%;'></div><div class = 'column'><img src = 'usneg/2205.bmp' width = '100%;'></div></div>","null","neg","CS","CS","2","category2/CS8.png","","","","",""
"","html-keyboard-response","46","183153","0.0-6.0-2.0-0.19","wc7uzqkrsp","one_one","1","direct_first","1","IN08UT27","0","19","1","1","3","1","","0","1","0","null","","","<div class = 'row'><div class = 'column'><img src = 'uspos/2208.bmp' width = '100%;'></div><div class = 'column'><img src = 'category4/CS6.png' width = '70%;'></div></div>","null","pos","CS","CS","4","category4/CS6.png","","","","",""
"","survey-html-form","47","194912","0.0-6.0-3.0","wc7uzqkrsp","one_one","1","direct_first","1","IN08UT27","0","19","1","1","3","1","","0","1","0","11252.814999956172","","{}","","","","","","","","","","","",""
"","html-keyboard-response","48","198940","0.0-6.0-4.0-0.0","wc7uzqkrsp","one_one","1","direct_first","1","IN08UT27","0","19","1","1","3","1","","0","1","0","null","","","<div class = 'row'><div class = 'column'><img src = 'usneg/2900.bmp' width = '100%;'></div><div class = 'column'><img src = 'category1/CS7.png' width = '70%;'></div></div>","null","neg","CS","CS","1","category1/CS7.png","","","","",""
"","html-keyboard-response","49","201455","0.0-6.0-4.0-0.1","wc7uzqkrsp","one_one","1","direct_first","1","IN08UT27","0","19","1","1","3","1","","0","1","0","null","","","<div class = 'row'><div class = 'column'><img src = 'usneg/2205.bmp' width = '100%;'></div><div class = 'column'><img src = 'category2/CS8.png' width = '70%;'></div></div>","null","neg","CS","CS","2","category2/CS8.png","","","","",""
"","html-keyboard-response","50","203981","0.0-6.0-4.0-0.2","wc7uzqkrsp","one_one","1","direct_first","1","IN08UT27","0","19","1","1","3","1","","0","1","0","null","","","<div class = 'row'><div class = 'column'><img src = 'usneg/2900.bmp' width = '100%;'></div><div class = 'column'><img src = 'category1/CS7.png' width = '70%;'></div></div>","null","neg","CS","CS","1","category1/CS7.png","","","","",""
"","html-keyboard-response","51","206519","0.0-6.0-4.0-0.3","wc7uzqkrsp","one_one","1","direct_first","1","IN08UT27","0","19","1","1","3","1","","0","1","0","null","","","<div class = 'row'><div class = 'column'><img src = 'category4/CS6.png' width = '70%;'></div><div class = 'column'><img src = 'uspos/2208.bmp' width = '100%;'></div></div>","null","pos","CS","CS","4","category4/CS6.png","","","","",""
"","html-keyboard-response","52","209037","0.0-6.0-4.0-0.4","wc7uzqkrsp","one_one","1","direct_first","1","IN08UT27","0","19","1","1","3","1","","0","1","0","null","","","<div class = 'row'><div class = 'column'><img src = 'category3/CS10.png' width = '70%;'></div><div class = 'column'><img src = 'uspos/5831.bmp' width = '100%;'></div></div>","null","pos","CS","CS","3","category3/CS10.png","","","","",""
"","html-keyboard-response","53","211555","0.0-6.0-4.0-0.5","wc7uzqkrsp","one_one","1","direct_first","1","IN08UT27","0","19","1","1","3","1","","0","1","0","null","","","<div class = 'row'><div class = 'column'><img src = 'category2/CS8.png' width = '70%;'></div><div class = 'column'><img src = 'usneg/2205.bmp' width = '100%;'></div></div>","null","neg","CS","CS","2","category2/CS8.png","","","","",""
"","html-keyboard-response","54","214079","0.0-6.0-4.0-0.6","wc7uzqkrsp","one_one","1","direct_first","1","IN08UT27","0","19","1","1","3","1","","0","1","0","null","","","<div class = 'row'><div class = 'column'><img src = 'category3/CS10.png' width = '70%;'></div><div class = 'column'><img src = 'uspos/5831.bmp' width = '100%;'></div></div>","null","pos","CS","CS","3","category3/CS10.png","","","","",""
"","html-keyboard-response","55","216608","0.0-6.0-4.0-0.7","wc7uzqkrsp","one_one","1","direct_first","1","IN08UT27","0","19","1","1","3","1","","0","1","0","null","","","<div class = 'row'><div class = 'column'><img src = 'uspos/2208.bmp' width = '100%;'></div><div class = 'column'><img src = 'category4/CS6.png' width = '70%;'></div></div>","null","pos","CS","CS","4","category4/CS6.png","","","","",""
"","html-keyboard-response","56","219124","0.0-6.0-4.0-0.8","wc7uzqkrsp","one_one","1","direct_first","1","IN08UT27","0","19","1","1","3","1","","0","1","0","null","","","<div class = 'row'><div class = 'column'><img src = 'usneg/2900.bmp' width = '100%;'></div><div class = 'column'><img src = 'category1/CS7.png' width = '70%;'></div></div>","null","neg","CS","CS","1","category1/CS7.png","","","","",""
"","html-keyboard-response","57","221628","0.0-6.0-4.0-0.9","wc7uzqkrsp","one_one","1","direct_first","1","IN08UT27","0","19","1","1","3","1","","0","1","0","null","","","<div class = 'row'><div class = 'column'><img src = 'usneg/2205.bmp' width = '100%;'></div><div class = 'column'><img src = 'category2/CS8.png' width = '70%;'></div></div>","null","neg","CS","CS","2","category2/CS8.png","","","","",""
"","html-keyboard-response","58","224145","0.0-6.0-4.0-0.10","wc7uzqkrsp","one_one","1","direct_first","1","IN08UT27","0","19","1","1","3","1","","0","1","0","null","","","<div class = 'row'><div class = 'column'><img src = 'uspos/5831.bmp' width = '100%;'></div><div class = 'column'><img src = 'category3/CS10.png' width = '70%;'></div></div>","null","pos","CS","CS","3","category3/CS10.png","","","","",""
"","html-keyboard-response","59","226667","0.0-6.0-4.0-0.11","wc7uzqkrsp","one_one","1","direct_first","1","IN08UT27","0","19","1","1","3","1","","0","1","0","null","","","<div class = 'row'><div class = 'column'><img src = 'uspos/2208.bmp' width = '100%;'></div><div class = 'column'><img src = 'category4/CS6.png' width = '70%;'></div></div>","null","pos","CS","CS","4","category4/CS6.png","","","","",""
"","html-keyboard-response","60","229184","0.0-6.0-4.0-0.12","wc7uzqkrsp","one_one","1","direct_first","1","IN08UT27","0","19","1","1","3","1","","0","1","0","null","","","<div class = 'row'><div class = 'column'><img src = 'category2/CS8.png' width = '70%;'></div><div class = 'column'><img src = 'usneg/2205.bmp' width = '100%;'></div></div>","null","neg","CS","CS","2","category2/CS8.png","","","","",""
"","html-keyboard-response","61","231705","0.0-6.0-4.0-0.13","wc7uzqkrsp","one_one","1","direct_first","1","IN08UT27","0","19","1","1","3","1","","0","1","0","null","","","<div class = 'row'><div class = 'column'><img src = 'uspos/2208.bmp' width = '100%;'></div><div class = 'column'><img src = 'category4/CS6.png' width = '70%;'></div></div>","null","pos","CS","CS","4","category4/CS6.png","","","","",""
"","html-keyboard-response","62","234220","0.0-6.0-4.0-0.14","wc7uzqkrsp","one_one","1","direct_first","1","IN08UT27","0","19","1","1","3","1","","0","1","0","null","","","<div class = 'row'><div class = 'column'><img src = 'usneg/2900.bmp' width = '100%;'></div><div class = 'column'><img src = 'category1/CS7.png' width = '70%;'></div></div>","null","neg","CS","CS","1","category1/CS7.png","","","","",""
"","html-keyboard-response","63","236734","0.0-6.0-4.0-0.15","wc7uzqkrsp","one_one","1","direct_first","1","IN08UT27","0","19","1","1","3","1","","0","1","0","null","","","<div class = 'row'><div class = 'column'><img src = 'uspos/5831.bmp' width = '100%;'></div><div class = 'column'><img src = 'category3/CS10.png' width = '70%;'></div></div>","null","pos","CS","CS","3","category3/CS10.png","","","","",""
"","html-keyboard-response","64","239259","0.0-6.0-4.0-0.16","wc7uzqkrsp","one_one","1","direct_first","1","IN08UT27","0","19","1","1","3","1","","0","1","0","null","","","<div class = 'row'><div class = 'column'><img src = 'category2/CS8.png' width = '70%;'></div><div class = 'column'><img src = 'usneg/2205.bmp' width = '100%;'></div></div>","null","neg","CS","CS","2","category2/CS8.png","","","","",""
"","html-keyboard-response","65","241785","0.0-6.0-4.0-0.17","wc7uzqkrsp","one_one","1","direct_first","1","IN08UT27","0","19","1","1","3","1","","0","1","0","null","","","<div class = 'row'><div class = 'column'><img src = 'category3/CS10.png' width = '70%;'></div><div class = 'column'><img src = 'uspos/5831.bmp' width = '100%;'></div></div>","null","pos","CS","CS","3","category3/CS10.png","","","","",""
"","html-keyboard-response","66","244308","0.0-6.0-4.0-0.18","wc7uzqkrsp","one_one","1","direct_first","1","IN08UT27","0","19","1","1","3","1","","0","1","0","null","","","<div class = 'row'><div class = 'column'><img src = 'category1/CS7.png' width = '70%;'></div><div class = 'column'><img src = 'usneg/2900.bmp' width = '100%;'></div></div>","null","neg","CS","CS","1","category1/CS7.png","","","","",""
"","html-keyboard-response","67","246831","0.0-6.0-4.0-0.19","wc7uzqkrsp","one_one","1","direct_first","1","IN08UT27","0","19","1","1","3","1","","0","1","0","null","","","<div class = 'row'><div class = 'column'><img src = 'uspos/2208.bmp' width = '100%;'></div><div class = 'column'><img src = 'category4/CS6.png' width = '70%;'></div></div>","null","pos","CS","CS","4","category4/CS6.png","","","","",""
"","survey-html-form","68","261374","0.0-6.0-5.0","wc7uzqkrsp","one_one","1","direct_first","1","IN08UT27","0","19","1","1","3","1","","0","1","0","14032.110000029206","","{}","","","","","","","","","","","",""
"","html-keyboard-response","69","265384","0.0-6.0-6.0-0.0","wc7uzqkrsp","one_one","1","direct_first","1","IN08UT27","0","19","1","1","3","1","","0","1","0","null","","","<div class = 'row'><div class = 'column'><img src = 'category3/CS10.png' width = '70%;'></div><div class = 'column'><img src = 'uspos/5831.bmp' width = '100%;'></div></div>","null","pos","CS","CS","3","category3/CS10.png","","","","",""
"","html-keyboard-response","70","267908","0.0-6.0-6.0-0.1","wc7uzqkrsp","one_one","1","direct_first","1","IN08UT27","0","19","1","1","3","1","","0","1","0","null","","","<div class = 'row'><div class = 'column'><img src = 'uspos/2208.bmp' width = '100%;'></div><div class = 'column'><img src = 'category4/CS6.png' width = '70%;'></div></div>","null","pos","CS","CS","4","category4/CS6.png","","","","",""
"","html-keyboard-response","71","270423","0.0-6.0-6.0-0.2","wc7uzqkrsp","one_one","1","direct_first","1","IN08UT27","0","19","1","1","3","1","","0","1","0","null","","","<div class = 'row'><div class = 'column'><img src = 'category3/CS10.png' width = '70%;'></div><div class = 'column'><img src = 'uspos/5831.bmp' width = '100%;'></div></div>","null","pos","CS","CS","3","category3/CS10.png","","","","",""
"","html-keyboard-response","72","272942","0.0-6.0-6.0-0.3","wc7uzqkrsp","one_one","1","direct_first","1","IN08UT27","0","19","1","1","3","1","","0","1","0","null","","","<div class = 'row'><div class = 'column'><img src = 'category2/CS8.png' width = '70%;'></div><div class = 'column'><img src = 'usneg/2205.bmp' width = '100%;'></div></div>","null","neg","CS","CS","2","category2/CS8.png","","","","",""
"","html-keyboard-response","73","275471","0.0-6.0-6.0-0.4","wc7uzqkrsp","one_one","1","direct_first","1","IN08UT27","0","19","1","1","3","1","","0","1","0","null","","","<div class = 'row'><div class = 'column'><img src = 'category4/CS6.png' width = '70%;'></div><div class = 'column'><img src = 'uspos/2208.bmp' width = '100%;'></div></div>","null","pos","CS","CS","4","category4/CS6.png","","","","",""
"","html-keyboard-response","74","277980","0.0-6.0-6.0-0.5","wc7uzqkrsp","one_one","1","direct_first","1","IN08UT27","0","19","1","1","3","1","","0","1","0","null","","","<div class = 'row'><div class = 'column'><img src = 'usneg/2900.bmp' width = '100%;'></div><div class = 'column'><img src = 'category1/CS7.png' width = '70%;'></div></div>","null","neg","CS","CS","1","category1/CS7.png","","","","",""
"","html-keyboard-response","75","280496","0.0-6.0-6.0-0.6","wc7uzqkrsp","one_one","1","direct_first","1","IN08UT27","0","19","1","1","3","1","","0","1","0","null","","","<div class = 'row'><div class = 'column'><img src = 'category3/CS10.png' width = '70%;'></div><div class = 'column'><img src = 'uspos/5831.bmp' width = '100%;'></div></div>","null","pos","CS","CS","3","category3/CS10.png","","","","",""
"","html-keyboard-response","76","283021","0.0-6.0-6.0-0.7","wc7uzqkrsp","one_one","1","direct_first","1","IN08UT27","0","19","1","1","3","1","","0","1","0","null","","","<div class = 'row'><div class = 'column'><img src = 'category2/CS8.png' width = '70%;'></div><div class = 'column'><img src = 'usneg/2205.bmp' width = '100%;'></div></div>","null","neg","CS","CS","2","category2/CS8.png","","","","",""
"","html-keyboard-response","77","285542","0.0-6.0-6.0-0.8","wc7uzqkrsp","one_one","1","direct_first","1","IN08UT27","0","19","1","1","3","1","","0","1","0","null","","","<div class = 'row'><div class = 'column'><img src = 'usneg/2900.bmp' width = '100%;'></div><div class = 'column'><img src = 'category1/CS7.png' width = '70%;'></div></div>","null","neg","CS","CS","1","category1/CS7.png","","","","",""
"","html-keyboard-response","78","288048","0.0-6.0-6.0-0.9","wc7uzqkrsp","one_one","1","direct_first","1","IN08UT27","0","19","1","1","3","1","","0","1","0","null","","","<div class = 'row'><div class = 'column'><img src = 'category2/CS8.png' width = '70%;'></div><div class = 'column'><img src = 'usneg/2205.bmp' width = '100%;'></div></div>","null","neg","CS","CS","2","category2/CS8.png","","","","",""
"","html-keyboard-response","79","290563","0.0-6.0-6.0-0.10","wc7uzqkrsp","one_one","1","direct_first","1","IN08UT27","0","19","1","1","3","1","","0","1","0","null","","","<div class = 'row'><div class = 'column'><img src = 'uspos/2208.bmp' width = '100%;'></div><div class = 'column'><img src = 'category4/CS6.png' width = '70%;'></div></div>","null","pos","CS","CS","4","category4/CS6.png","","","","",""
"","html-keyboard-response","80","293092","0.0-6.0-6.0-0.11","wc7uzqkrsp","one_one","1","direct_first","1","IN08UT27","0","19","1","1","3","1","","0","1","0","null","","","<div class = 'row'><div class = 'column'><img src = 'usneg/2205.bmp' width = '100%;'></div><div class = 'column'><img src = 'category2/CS8.png' width = '70%;'></div></div>","null","neg","CS","CS","2","category2/CS8.png","","","","",""
"","html-keyboard-response","81","295611","0.0-6.0-6.0-0.12","wc7uzqkrsp","one_one","1","direct_first","1","IN08UT27","0","19","1","1","3","1","","0","1","0","null","","","<div class = 'row'><div class = 'column'><img src = 'uspos/2208.bmp' width = '100%;'></div><div class = 'column'><img src = 'category4/CS6.png' width = '70%;'></div></div>","null","pos","CS","CS","4","category4/CS6.png","","","","",""
"","html-keyboard-response","82","298130","0.0-6.0-6.0-0.13","wc7uzqkrsp","one_one","1","direct_first","1","IN08UT27","0","19","1","1","3","1","","0","1","0","null","","","<div class = 'row'><div class = 'column'><img src = 'usneg/2900.bmp' width = '100%;'></div><div class = 'column'><img src = 'category1/CS7.png' width = '70%;'></div></div>","null","neg","CS","CS","1","category1/CS7.png","","","","",""
"","html-keyboard-response","83","300657","0.0-6.0-6.0-0.14","wc7uzqkrsp","one_one","1","direct_first","1","IN08UT27","0","19","1","1","3","1","","0","1","0","null","","","<div class = 'row'><div class = 'column'><img src = 'category2/CS8.png' width = '70%;'></div><div class = 'column'><img src = 'usneg/2205.bmp' width = '100%;'></div></div>","null","neg","CS","CS","2","category2/CS8.png","","","","",""
"","html-keyboard-response","84","303176","0.0-6.0-6.0-0.15","wc7uzqkrsp","one_one","1","direct_first","1","IN08UT27","0","19","1","1","3","1","","0","1","0","null","","","<div class = 'row'><div class = 'column'><img src = 'category3/CS10.png' width = '70%;'></div><div class = 'column'><img src = 'uspos/5831.bmp' width = '100%;'></div></div>","null","pos","CS","CS","3","category3/CS10.png","","","","",""
"","html-keyboard-response","85","305705","0.0-6.0-6.0-0.16","wc7uzqkrsp","one_one","1","direct_first","1","IN08UT27","0","19","1","1","3","1","","0","1","0","null","","","<div class = 'row'><div class = 'column'><img src = 'usneg/2900.bmp' width = '100%;'></div><div class = 'column'><img src = 'category1/CS7.png' width = '70%;'></div></div>","null","neg","CS","CS","1","category1/CS7.png","","","","",""
"","html-keyboard-response","86","308221","0.0-6.0-6.0-0.17","wc7uzqkrsp","one_one","1","direct_first","1","IN08UT27","0","19","1","1","3","1","","0","1","0","null","","","<div class = 'row'><div class = 'column'><img src = 'category4/CS6.png' width = '70%;'></div><div class = 'column'><img src = 'uspos/2208.bmp' width = '100%;'></div></div>","null","pos","CS","CS","4","category4/CS6.png","","","","",""
"","html-keyboard-response","87","310738","0.0-6.0-6.0-0.18","wc7uzqkrsp","one_one","1","direct_first","1","IN08UT27","0","19","1","1","3","1","","0","1","0","null","","","<div class = 'row'><div class = 'column'><img src = 'category3/CS10.png' width = '70%;'></div><div class = 'column'><img src = 'uspos/5831.bmp' width = '100%;'></div></div>","null","pos","CS","CS","3","category3/CS10.png","","","","",""
"","html-keyboard-response","88","313261","0.0-6.0-6.0-0.19","wc7uzqkrsp","one_one","1","direct_first","1","IN08UT27","0","19","1","1","3","1","","0","1","0","null","","","<div class = 'row'><div class = 'column'><img src = 'category1/CS7.png' width = '70%;'></div><div class = 'column'><img src = 'usneg/2900.bmp' width = '100%;'></div></div>","null","neg","CS","CS","1","category1/CS7.png","","","","",""
"","survey-html-form","89","320133","0.0-7.0","wc7uzqkrsp","one_one","1","direct_first","1","IN08UT27","0","19","1","1","3","1","","0","1","0","6364.550000056624","","{}","","","","","","","","","","","",""
"","image-slider-response","90","330462","0.0-8.0-0.0","wc7uzqkrsp","one_one","1","direct_first","1","IN08UT27","0","19","1","1","3","1","","0","1","0","8317.535000038333","","","","","pos","GS","GSold","3","category3/CS8.png","29","targets/48.png","direct","",""
"","image-slider-response","91","337967","0.0-8.0-0.1","wc7uzqkrsp","one_one","1","direct_first","1","IN08UT27","0","19","1","1","3","1","","0","1","0","7500.830000033602","","","","","pos","GS","GSnew","4","category4/GS1.png","4","targets/37.png","direct","",""
"","image-slider-response","92","342498","0.0-8.0-0.2","wc7uzqkrsp","one_one","1","direct_first","1","IN08UT27","0","19","1","1","3","1","","0","1","0","4527.345000009518","","","","","neg","GS","GSold","2","category2/CS9.png","-2","targets/4.png","direct","",""
"","image-slider-response","93","346264","0.0-8.0-0.3","wc7uzqkrsp","one_one","1","direct_first","1","IN08UT27","0","19","1","1","3","1","","0","1","0","3763.3199999690987","","","","","neg","GS","GSnew","2","category2/GS1.png","3","targets/3.png","direct","",""
"","image-slider-response","94","350017","0.0-8.0-0.4","wc7uzqkrsp","one_one","1","direct_first","1","IN08UT27","0","19","1","1","3","1","","0","1","0","3749.2700000293553","","","","","pos","GS","GSnew","4","category4/GS2.png","-13","targets/2.png","direct","",""
"","image-slider-response","95","353380","0.0-8.0-0.5","wc7uzqkrsp","one_one","1","direct_first","1","IN08UT27","0","19","1","1","3","1","","0","1","0","3360.304999980144","","","","","pos","GS","GSold","4","category4/CS1.png","35","targets/23.png","direct","",""
"","image-slider-response","96","356378","0.0-8.0-0.6","wc7uzqkrsp","one_one","1","direct_first","1","IN08UT27","0","19","1","1","3","1","","0","1","0","2994.379999989178","","","","","pos","GS","GSold","3","category3/CS1.png","32","targets/13.png","direct","",""
"","image-slider-response","97","360162","0.0-8.0-0.7","wc7uzqkrsp","one_one","1","direct_first","1","IN08UT27","0","19","1","1","3","1","","0","1","0","3780.540000007022","","","","","neg","GS","GSold","2","category2/CS10.png","-5","targets/9.png","direct","",""
"","image-slider-response","98","363515","0.0-8.0-0.8","wc7uzqkrsp","one_one","1","direct_first","1","IN08UT27","0","19","1","1","3","1","","0","1","0","3350.860000005923","","","","","neg","CS","CS","2","category2/CS8.png","-29","targets/35.png","direct","",""
"","image-slider-response","99","367315","0.0-8.0-0.9","wc7uzqkrsp","one_one","1","direct_first","1","IN08UT27","0","19","1","1","3","1","","0","1","0","3796.204999962356","","","","","pos","GS","GSnew","3","category3/GS1.png","29","targets/24.png","direct","",""
"","image-slider-response","100","371287","0.0-8.0-0.10","wc7uzqkrsp","one_one","1","direct_first","1","IN08UT27","0","19","1","1","3","1","","0","1","0","3968.6499999952503","","","","","pos","GS","GSold","4","category4/CS5.png","23","targets/38.png","direct","",""
"","image-slider-response","101","375655","0.0-8.0-0.11","wc7uzqkrsp","one_one","1","direct_first","1","IN08UT27","0","19","1","1","3","1","","0","1","0","4364.265000040177","","","","","neg","GS","abstract","1","category1/ma.png","1","targets/26.png","direct","",""
"","image-slider-response","102","377745","0.0-8.0-0.12","wc7uzqkrsp","one_one","1","direct_first","1","IN08UT27","0","19","1","1","3","1","","0","1","0","2085.2799999993294","","","","","pos","CS","CS","4","category4/CS6.png","15","targets/27.png","direct","",""
"","image-slider-response","103","379919","0.0-8.0-0.13","wc7uzqkrsp","one_one","1","direct_first","1","IN08UT27","0","19","1","1","3","1","","0","1","0","2171.169999986887","","","","","neg","GS","GSold","1","category1/CS10.png","8","targets/25.png","direct","",""
"","image-slider-response","104","382073","0.0-8.0-0.14","wc7uzqkrsp","one_one","1","direct_first","1","IN08UT27","0","19","1","1","3","1","","0","1","0","2151.064999983646","","","","","pos","CS","CS","3","category3/CS10.png","26","targets/42.png","direct","",""
"","image-slider-response","105","386070","0.0-8.0-0.15","wc7uzqkrsp","one_one","1","direct_first","1","IN08UT27","0","19","1","1","3","1","","0","1","0","3994.4950000499375","","","","","neg","GS","GSnew","2","category2/GS3.png","3","targets/46.png","direct","",""
"","image-slider-response","106","388303","0.0-8.0-0.16","wc7uzqkrsp","one_one","1","direct_first","1","IN08UT27","0","19","1","1","3","1","","0","1","0","2228.754999989178","","","","","pos","GS","abstract","4","category4/lin.png","17","targets/18.png","direct","",""
"","image-slider-response","107","390258","0.0-8.0-0.17","wc7uzqkrsp","one_one","1","direct_first","1","IN08UT27","0","19","1","1","3","1","","0","1","0","1952.7750000124797","","","","","pos","GS","GSold","3","category3/CS7.png","35","targets/30.png","direct","",""
"","image-slider-response","108","392811","0.0-8.0-0.18","wc7uzqkrsp","one_one","1","direct_first","1","IN08UT27","0","19","1","1","3","1","","0","1","0","2550.1050000311807","","","","","pos","GS","abstract","3","category3/wang.png","25","targets/21.png","direct","",""
"","image-slider-response","109","396106","0.0-8.0-0.19","wc7uzqkrsp","one_one","1","direct_first","1","IN08UT27","0","19","1","1","3","1","","0","1","0","3291.7250000173226","","","","","pos","GS","GSold","4","category4/CS4.png","-10","targets/8.png","direct","",""
"","image-slider-response","110","398082","0.0-8.0-0.20","wc7uzqkrsp","one_one","1","direct_first","1","IN08UT27","0","19","1","1","3","1","","0","1","0","1973.3799999812618","","","","","pos","GS","GSnew","4","category4/GS3.png","-37","targets/33.png","direct","",""
"","image-slider-response","111","401485","0.0-8.0-0.21","wc7uzqkrsp","one_one","1","direct_first","1","IN08UT27","0","19","1","1","3","1","","0","1","0","3399.3699999991804","","","","","neg","GS","GSold","2","category2/CS5.png","8","targets/1.png","direct","",""
"","image-slider-response","112","403463","0.0-8.0-0.22","wc7uzqkrsp","one_one","1","direct_first","1","IN08UT27","0","19","1","1","3","1","","0","1","0","1974.3750000488944","","","","","neg","GS","GSnew","2","category2/GS2.png","-15","targets/15.png","direct","",""
"","image-slider-response","113","408370","0.0-8.0-0.23","wc7uzqkrsp","one_one","1","direct_first","1","IN08UT27","0","19","1","1","3","1","","0","1","0","4905.019999947399","","","","","neg","GS","GSold","1","category1/CS9.png","18","targets/32.png","direct","",""
"","image-slider-response","114","410559","0.0-8.0-0.24","wc7uzqkrsp","one_one","1","direct_first","1","IN08UT27","0","19","1","1","3","1","","0","1","0","2184.6499999519438","","","","","neg","GS","abstract","2","category2/men.png","12","targets/17.png","direct","",""
"","image-slider-response","115","413925","0.0-8.0-0.25","wc7uzqkrsp","one_one","1","direct_first","1","IN08UT27","0","19","1","1","3","1","","0","1","0","3363.245000015013","","","","","neg","GS","GSnew","1","category1/GS3.png","-22","targets/45.png","direct","",""
"","image-slider-response","116","415875","0.0-8.0-0.26","wc7uzqkrsp","one_one","1","direct_first","1","IN08UT27","0","19","1","1","3","1","","0","1","0","1947.1649999613874","","","","","neg","GS","GSnew","1","category1/GS1.png","-13","targets/20.png","direct","",""
"","image-slider-response","117","417809","0.0-8.0-0.27","wc7uzqkrsp","one_one","1","direct_first","1","IN08UT27","0","19","1","1","3","1","","0","1","0","1930.7949999929406","","","","","neg","GS","GSnew","1","category1/GS2.png","-21","targets/22.png","direct","",""
"","image-slider-response","118","420192","0.0-8.0-0.28","wc7uzqkrsp","one_one","1","direct_first","1","IN08UT27","0","19","1","1","3","1","","0","1","0","2380.4349999991246","","","","","pos","GS","GSnew","3","category3/GS2.png","-6","targets/36.png","direct","",""
"","image-slider-response","119","422758","0.0-8.0-0.29","wc7uzqkrsp","one_one","1","direct_first","1","IN08UT27","0","19","1","1","3","1","","0","1","0","2563.5749999783","","","","","neg","GS","GSold","1","category1/CS4.png","-7","targets/16.png","direct","",""
"","image-slider-response","120","424818","0.0-8.0-0.30","wc7uzqkrsp","one_one","1","direct_first","1","IN08UT27","0","19","1","1","3","1","","0","1","0","2056.154999998398","","","","","neg","CS","CS","1","category1/CS7.png","-13","targets/14.png","direct","",""
"","image-slider-response","121","427427","0.0-8.0-0.31","wc7uzqkrsp","one_one","1","direct_first","1","IN08UT27","0","19","1","1","3","1","","0","1","0","2605.4650000296533","","","","","pos","GS","GSnew","3","category3/GS3.png","41","targets/44.png","direct","",""
"","html-keyboard-response","122","462835","0.0-9.0","wc7uzqkrsp","one_one","1","direct_first","1","IN08UT27","0","19","1","1","3","1","","0","1","0","35406.29999997327","","","<p>Sie sehen nun die chinesischen Zeichen nur ganz kurz. Danach sehen Sie die jeweilige Aussprache der Zeichen als Silbe auf dem Bildschrim. Ihre Aufgabe ist es, für jede Silbe anzugeben, ob diese etwas angenehmes, oder unangenehmes bedeuten könnte. Verlassen Sie sich hier vor allem auf Ihre Intuition.<br><br>Die Zeichen werden nur zur Orientierung dargestellt, beachten Sie sie deshalb nicht. Konzentrieren Sie sich vor allem auf die Silben. <br>Reagieren Sie mit folgenden zwei Tasten: <br><br><b>'D' </b> wenn die Silbe etwas <b>unangenehmes</b> bedeuten könnte. <br><b>'K'</b> wenn die Silbe etwas <b>angenehmes</b> bedeuten könnte. <br><br>Bitte legen Sie nun den Zeigefinger der linken Hand auf die Taste 'D' und den Zeigefinger der rechten Hand auf die Taste 'K'. <br>Reagieren Sie auf jede Silbe so schnell wie möglich. Uns interessiert Ihre spontane Reaktion. <br> <br> <br>Drücken Sie 'D' oder 'K', um die nächste Aufgabe zu starten. </p>","68","","","","","","","","","",""
"","html-keyboard-response","123","465846","0.0-10.0-0.0","wc7uzqkrsp","one_one","1","direct_first","1","IN08UT27","0","19","1","1","3","1","","0","1","0","null","","","<div style=""font-size:60px;"">+</div>","null","","","","","","","","","",""
"","html-keyboard-response","124","465952","0.0-10.0-1.0","wc7uzqkrsp","one_one","1","direct_first","1","IN08UT27","0","19","1","1","3","1","","0","1","0","null","","","<img src = 'category2/CS5.png' width = '100%;'>","null","","","","","","","","","",""
"","html-keyboard-response","125","466219","0.0-10.0-2.0","wc7uzqkrsp","one_one","1","direct_first","1","IN08UT27","0","19","1","1","3","1","","0","1","0","null","","","<img src = 'targets/1.png' width = '100%;'>","null","","","","","","","","","",""
"","html-keyboard-response","126","468482","0.0-10.0-3.0","wc7uzqkrsp","one_one","1","direct_first","1","IN08UT27","0","19","1","1","3","1","","0","1","0","2261.5249999798834","","","<img src = 'targets/mask.png' width = '100%;'>","68","neg","GS","GSold","2","category2/CS5.png","","targets/1.png","indirect","0","0"
"","html-keyboard-response","127","469986","0.0-10.0-0.1","wc7uzqkrsp","one_one","1","direct_first","1","IN08UT27","0","19","1","1","3","1","","0","1","0","null","","","<div style=""font-size:60px;"">+</div>","null","","","","","","","","","",""
"","html-keyboard-response","128","470087","0.0-10.0-1.1","wc7uzqkrsp","one_one","1","direct_first","1","IN08UT27","0","19","1","1","3","1","","0","1","0","null","","","<img src = 'category4/CS4.png' width = '100%;'>","null","","","","","","","","","",""
"","html-keyboard-response","129","470353","0.0-10.0-2.1","wc7uzqkrsp","one_one","1","direct_first","1","IN08UT27","0","19","1","1","3","1","","0","1","0","null","","","<img src = 'targets/8.png' width = '100%;'>","null","","","","","","","","","",""
"","html-keyboard-response","130","475726","0.0-10.0-3.1","wc7uzqkrsp","one_one","1","direct_first","1","IN08UT27","0","19","1","1","3","1","","0","1","0","5371.905000007246","","","<img src = 'targets/mask.png' width = '100%;'>","75","pos","GS","GSold","4","category4/CS4.png","","targets/8.png","indirect","1","1"
"","html-keyboard-response","131","477249","0.0-10.0-0.2","wc7uzqkrsp","one_one","1","direct_first","1","IN08UT27","0","19","1","1","3","1","","0","1","0","null","","","<div style=""font-size:60px;"">+</div>","null","","","","","","","","","",""
"","html-keyboard-response","132","477343","0.0-10.0-1.2","wc7uzqkrsp","one_one","1","direct_first","1","IN08UT27","0","19","1","1","3","1","","0","1","0","null","","","<img src = 'category1/CS9.png' width = '100%;'>","null","","","","","","","","","",""
"","html-keyboard-response","133","477624","0.0-10.0-2.2","wc7uzqkrsp","one_one","1","direct_first","1","IN08UT27","0","19","1","1","3","1","","0","1","0","null","","","<img src = 'targets/32.png' width = '100%;'>","null","","","","","","","","","",""
"","html-keyboard-response","134","480024","0.0-10.0-3.2","wc7uzqkrsp","one_one","1","direct_first","1","IN08UT27","0","19","1","1","3","1","","0","1","0","2398.025000002235","","","<img src = 'targets/mask.png' width = '100%;'>","75","neg","GS","GSold","1","category1/CS9.png","","targets/32.png","indirect","1","2"
"","html-keyboard-response","135","481542","0.0-10.0-0.3","wc7uzqkrsp","one_one","1","direct_first","1","IN08UT27","0","19","1","1","3","1","","0","1","0","null","","","<div style=""font-size:60px;"">+</div>","null","","","","","","","","","",""
"","html-keyboard-response","136","481633","0.0-10.0-1.3","wc7uzqkrsp","one_one","1","direct_first","1","IN08UT27","0","19","1","1","3","1","","0","1","0","null","","","<img src = 'category3/CS7.png' width = '100%;'>","null","","","","","","","","","",""
"","html-keyboard-response","137","481902","0.0-10.0-2.3","wc7uzqkrsp","one_one","1","direct_first","1","IN08UT27","0","19","1","1","3","1","","0","1","0","null","","","<img src = 'targets/30.png' width = '100%;'>","null","","","","","","","","","",""
"","html-keyboard-response","138","483830","0.0-10.0-3.3","wc7uzqkrsp","one_one","1","direct_first","1","IN08UT27","0","19","1","1","3","1","","0","1","0","1937.9550000303425","","","<img src = 'targets/mask.png' width = '100%;'>","75","pos","GS","GSold","3","category3/CS7.png","","targets/30.png","indirect","1","3"
"","html-keyboard-response","139","485342","0.0-10.0-0.4","wc7uzqkrsp","one_one","1","direct_first","1","IN08UT27","0","19","1","1","3","1","","0","1","0","null","","","<div style=""font-size:60px;"">+</div>","null","","","","","","","","","",""
"","html-keyboard-response","140","485434","0.0-10.0-1.4","wc7uzqkrsp","one_one","1","direct_first","1","IN08UT27","0","19","1","1","3","1","","0","1","0","null","","","<img src = 'category3/CS10.png' width = '100%;'>","null","","","","","","","","","",""
"","html-keyboard-response","141","485714","0.0-10.0-2.4","wc7uzqkrsp","one_one","1","direct_first","1","IN08UT27","0","19","1","1","3","1","","0","1","0","null","","","<img src = 'targets/42.png' width = '100%;'>","null","","","","","","","","","",""
"","html-keyboard-response","142","487426","0.0-10.0-3.4","wc7uzqkrsp","one_one","1","direct_first","1","IN08UT27","0","19","1","1","3","1","","0","1","0","1710.9150000032969","","","<img src = 'targets/mask.png' width = '100%;'>","68","pos","CS","CS","3","category3/CS10.png","","targets/42.png","indirect","0","4"
"","html-keyboard-response","143","488930","0.0-10.0-0.5","wc7uzqkrsp","one_one","1","direct_first","1","IN08UT27","0","19","1","1","3","1","","0","1","0","null","","","<div style=""font-size:60px;"">+</div>","null","","","","","","","","","",""
"","html-keyboard-response","144","489026","0.0-10.0-1.5","wc7uzqkrsp","one_one","1","direct_first","1","IN08UT27","0","19","1","1","3","1","","0","1","0","null","","","<img src = 'category2/CS8.png' width = '100%;'>","null","","","","","","","","","",""
"","html-keyboard-response","145","489291","0.0-10.0-2.5","wc7uzqkrsp","one_one","1","direct_first","1","IN08UT27","0","19","1","1","3","1","","0","1","0","null","","","<img src = 'targets/35.png' width = '100%;'>","null","","","","","","","","","",""
"","html-keyboard-response","146","490084","0.0-10.0-3.5","wc7uzqkrsp","one_one","1","direct_first","1","IN08UT27","0","19","1","1","3","1","","0","1","0","790.7800000393763","","","<img src = 'targets/mask.png' width = '100%;'>","68","neg","CS","CS","2","category2/CS8.png","","targets/35.png","indirect","0","5"
"","html-keyboard-response","147","491612","0.0-10.0-0.6","wc7uzqkrsp","one_one","1","direct_first","1","IN08UT27","0","19","1","1","3","1","","0","1","0","null","","","<div style=""font-size:60px;"">+</div>","null","","","","","","","","","",""
"","html-keyboard-response","148","491706","0.0-10.0-1.6","wc7uzqkrsp","one_one","1","direct_first","1","IN08UT27","0","19","1","1","3","1","","0","1","0","null","","","<img src = 'category1/CS4.png' width = '100%;'>","null","","","","","","","","","",""
"","html-keyboard-response","149","491986","0.0-10.0-2.6","wc7uzqkrsp","one_one","1","direct_first","1","IN08UT27","0","19","1","1","3","1","","0","1","0","null","","","<img src = 'targets/16.png' width = '100%;'>","null","","","","","","","","","",""
"","html-keyboard-response","150","492507","0.0-10.0-3.6","wc7uzqkrsp","one_one","1","direct_first","1","IN08UT27","0","19","1","1","3","1","","0","1","0","518.8699999707751","","","<img src = 'targets/mask.png' width = '100%;'>","68","neg","GS","GSold","1","category1/CS4.png","","targets/16.png","indirect","0","6"
"","html-keyboard-response","151","494017","0.0-10.0-0.7","wc7uzqkrsp","one_one","1","direct_first","1","IN08UT27","0","19","1","1","3","1","","0","1","0","null","","","<div style=""font-size:60px;"">+</div>","null","","","","","","","","","",""
"","html-keyboard-response","152","494110","0.0-10.0-1.7","wc7uzqkrsp","one_one","1","direct_first","1","IN08UT27","0","19","1","1","3","1","","0","1","0","null","","","<img src = 'category4/CS1.png' width = '100%;'>","null","","","","","","","","","",""
"","html-keyboard-response","153","494374","0.0-10.0-2.7","wc7uzqkrsp","one_one","1","direct_first","1","IN08UT27","0","19","1","1","3","1","","0","1","0","null","","","<img src = 'targets/23.png' width = '100%;'>","null","","","","","","","","","",""
"","html-keyboard-response","154","494939","0.0-10.0-3.7","wc7uzqkrsp","one_one","1","direct_first","1","IN08UT27","0","19","1","1","3","1","","0","1","0","562.9950000438839","","","<img src = 'targets/mask.png' width = '100%;'>","68","pos","GS","GSold","4","category4/CS1.png","","targets/23.png","indirect","0","7"
"","html-keyboard-response","155","496454","0.0-10.0-0.8","wc7uzqkrsp","one_one","1","direct_first","1","IN08UT27","0","19","1","1","3","1","","0","1","0","null","","","<div style=""font-size:60px;"">+</div>","null","","","","","","","","","",""
"","html-keyboard-response","156","496547","0.0-10.0-1.8","wc7uzqkrsp","one_one","1","direct_first","1","IN08UT27","0","19","1","1","3","1","","0","1","0","null","","","<img src = 'category2/CS10.png' width = '100%;'>","null","","","","","","","","","",""
"","html-keyboard-response","157","496828","0.0-10.0-2.8","wc7uzqkrsp","one_one","1","direct_first","1","IN08UT27","0","19","1","1","3","1","","0","1","0","null","","","<img src = 'targets/9.png' width = '100%;'>","null","","","","","","","","","",""
"","html-keyboard-response","158","497343","0.0-10.0-3.8","wc7uzqkrsp","one_one","1","direct_first","1","IN08UT27","0","19","1","1","3","1","","0","1","0","514.1750000184402","","","<img src = 'targets/mask.png' width = '100%;'>","75","neg","GS","GSold","2","category2/CS10.png","","targets/9.png","indirect","1","8"
"","html-keyboard-response","159","498861","0.0-10.0-0.9","wc7uzqkrsp","one_one","1","direct_first","1","IN08UT27","0","19","1","1","3","1","","0","1","0","null","","","<div style=""font-size:60px;"">+</div>","null","","","","","","","","","",""
"","html-keyboard-response","160","498956","0.0-10.0-1.9","wc7uzqkrsp","one_one","1","direct_first","1","IN08UT27","0","19","1","1","3","1","","0","1","0","null","","","<img src = 'category4/CS6.png' width = '100%;'>","null","","","","","","","","","",""
"","html-keyboard-response","161","499222","0.0-10.0-2.9","wc7uzqkrsp","one_one","1","direct_first","1","IN08UT27","0","19","1","1","3","1","","0","1","0","null","","","<img src = 'targets/27.png' width = '100%;'>","null","","","","","","","","","",""
"","html-keyboard-response","162","499803","0.0-10.0-3.9","wc7uzqkrsp","one_one","1","direct_first","1","IN08UT27","0","19","1","1","3","1","","0","1","0","579.7299999976531","","","<img src = 'targets/mask.png' width = '100%;'>","75","pos","CS","CS","4","category4/CS6.png","","targets/27.png","indirect","1","9"
"","html-keyboard-response","163","501323","0.0-10.0-0.10","wc7uzqkrsp","one_one","1","direct_first","1","IN08UT27","0","19","1","1","3","1","","0","1","0","null","","","<div style=""font-size:60px;"">+</div>","null","","","","","","","","","",""
"","html-keyboard-response","164","501416","0.0-10.0-1.10","wc7uzqkrsp","one_one","1","direct_first","1","IN08UT27","0","19","1","1","3","1","","0","1","0","null","","","<img src = 'category2/CS9.png' width = '100%;'>","null","","","","","","","","","",""
"","html-keyboard-response","165","501698","0.0-10.0-2.10","wc7uzqkrsp","one_one","1","direct_first","1","IN08UT27","0","19","1","1","3","1","","0","1","0","null","","","<img src = 'targets/4.png' width = '100%;'>","null","","","","","","","","","",""
"","html-keyboard-response","166","502280","0.0-10.0-3.10","wc7uzqkrsp","one_one","1","direct_first","1","IN08UT27","0","19","1","1","3","1","","0","1","0","580.5500000133179","","","<img src = 'targets/mask.png' width = '100%;'>","68","neg","GS","GSold","2","category2/CS9.png","","targets/4.png","indirect","0","10"
"","html-keyboard-response","167","503787","0.0-10.0-0.11","wc7uzqkrsp","one_one","1","direct_first","1","IN08UT27","0","19","1","1","3","1","","0","1","0","null","","","<div style=""font-size:60px;"">+</div>","null","","","","","","","","","",""
"","html-keyboard-response","168","503892","0.0-10.0-1.11","wc7uzqkrsp","one_one","1","direct_first","1","IN08UT27","0","19","1","1","3","1","","0","1","0","null","","","<img src = 'category3/CS8.png' width = '100%;'>","null","","","","","","","","","",""
"","html-keyboard-response","169","504158","0.0-10.0-2.11","wc7uzqkrsp","one_one","1","direct_first","1","IN08UT27","0","19","1","1","3","1","","0","1","0","null","","","<img src = 'targets/48.png' width = '100%;'>","null","","","","","","","","","",""
"","html-keyboard-response","170","504655","0.0-10.0-3.11","wc7uzqkrsp","one_one","1","direct_first","1","IN08UT27","0","19","1","1","3","1","","0","1","0","495.8500000066124","","","<img src = 'targets/mask.png' width = '100%;'>","75","pos","GS","GSold","3","category3/CS8.png","","targets/48.png","indirect","1","11"
"","html-keyboard-response","171","506178","0.0-10.0-0.12","wc7uzqkrsp","one_one","1","direct_first","1","IN08UT27","0","19","1","1","3","1","","0","1","0","null","","","<div style=""font-size:60px;"">+</div>","null","","","","","","","","","",""
"","html-keyboard-response","172","506277","0.0-10.0-1.12","wc7uzqkrsp","one_one","1","direct_first","1","IN08UT27","0","19","1","1","3","1","","0","1","0","null","","","<img src = 'category3/CS1.png' width = '100%;'>","null","","","","","","","","","",""
"","html-keyboard-response","173","506535","0.0-10.0-2.12","wc7uzqkrsp","one_one","1","direct_first","1","IN08UT27","0","19","1","1","3","1","","0","1","0","null","","","<img src = 'targets/13.png' width = '100%;'>","null","","","","","","","","","",""
"","html-keyboard-response","174","507169","0.0-10.0-3.12","wc7uzqkrsp","one_one","1","direct_first","1","IN08UT27","0","19","1","1","3","1","","0","1","0","632.2750000399537","","","<img src = 'targets/mask.png' width = '100%;'>","68","pos","GS","GSold","3","category3/CS1.png","","targets/13.png","indirect","0","12"
"","html-keyboard-response","175","508682","0.0-10.0-0.13","wc7uzqkrsp","one_one","1","direct_first","1","IN08UT27","0","19","1","1","3","1","","0","1","0","null","","","<div style=""font-size:60px;"">+</div>","null","","","","","","","","","",""
"","html-keyboard-response","176","508775","0.0-10.0-1.13","wc7uzqkrsp","one_one","1","direct_first","1","IN08UT27","0","19","1","1","3","1","","0","1","0","null","","","<img src = 'category4/CS5.png' width = '100%;'>","null","","","","","","","","","",""
"","html-keyboard-response","177","509056","0.0-10.0-2.13","wc7uzqkrsp","one_one","1","direct_first","1","IN08UT27","0","19","1","1","3","1","","0","1","0","null","","","<img src = 'targets/38.png' width = '100%;'>","null","","","","","","","","","",""
"","html-keyboard-response","178","509453","0.0-10.0-3.13","wc7uzqkrsp","one_one","1","direct_first","1","IN08UT27","0","19","1","1","3","1","","0","1","0","395.33500000834465","","","<img src = 'targets/mask.png' width = '100%;'>","75","pos","GS","GSold","4","category4/CS5.png","","targets/38.png","indirect","1","13"
"","html-keyboard-response","179","510977","0.0-10.0-0.14","wc7uzqkrsp","one_one","1","direct_first","1","IN08UT27","0","19","1","1","3","1","","0","1","0","null","","","<div style=""font-size:60px;"">+</div>","null","","","","","","","","","",""
"","html-keyboard-response","180","511070","0.0-10.0-1.14","wc7uzqkrsp","one_one","1","direct_first","1","IN08UT27","0","19","1","1","3","1","","0","1","0","null","","","<img src = 'category1/CS10.png' width = '100%;'>","null","","","","","","","","","",""
"","html-keyboard-response","181","511335","0.0-10.0-2.14","wc7uzqkrsp","one_one","1","direct_first","1","IN08UT27","0","19","1","1","3","1","","0","1","0","null","","","<img src = 'targets/25.png' width = '100%;'>","null","","","","","","","","","",""
"","html-keyboard-response","182","511997","0.0-10.0-3.14","wc7uzqkrsp","one_one","1","direct_first","1","IN08UT27","0","19","1","1","3","1","","0","1","0","660.6749999918975","","","<img src = 'targets/mask.png' width = '100%;'>","75","neg","GS","GSold","1","category1/CS10.png","","targets/25.png","indirect","1","14"
"","html-keyboard-response","183","513506","0.0-10.0-0.15","wc7uzqkrsp","one_one","1","direct_first","1","IN08UT27","0","19","1","1","3","1","","0","1","0","null","","","<div style=""font-size:60px;"">+</div>","null","","","","","","","","","",""
"","html-keyboard-response","184","513608","0.0-10.0-1.15","wc7uzqkrsp","one_one","1","direct_first","1","IN08UT27","0","19","1","1","3","1","","0","1","0","null","","","<img src = 'category1/CS7.png' width = '100%;'>","null","","","","","","","","","",""
"","html-keyboard-response","185","513873","0.0-10.0-2.15","wc7uzqkrsp","one_one","1","direct_first","1","IN08UT27","0","19","1","1","3","1","","0","1","0","null","","","<img src = 'targets/14.png' width = '100%;'>","null","","","","","","","","","",""
"","html-keyboard-response","186","514327","0.0-10.0-3.15","wc7uzqkrsp","one_one","1","direct_first","1","IN08UT27","0","19","1","1","3","1","","0","1","0","452.11999997263774","","","<img src = 'targets/mask.png' width = '100%;'>","75","neg","CS","CS","1","category1/CS7.png","","targets/14.png","indirect","1","15"
"","survey-html-form","187","516888","0.0-11.0","wc7uzqkrsp","one_one","1","direct_first","1","IN08UT27","0","19","1","1","3","1","","0","1","0","2056.6849999595433","","{}","","","","","","","","","","","",""
"","html-keyboard-response","188","519918","0.0-12.0-0.0","wc7uzqkrsp","one_one","1","direct_first","1","IN08UT27","0","19","1","1","3","1","","0","1","0","null","","","<div style=""font-size:60px;"">+</div>","null","","","","","","","","","",""
"","html-keyboard-response","189","520024","0.0-12.0-1.0","wc7uzqkrsp","one_one","1","direct_first","1","IN08UT27","0","19","1","1","3","1","","0","1","0","null","","","<img src = 'category4/GS3.png' width = '100%;'>","null","","","","","","","","","",""
"","html-keyboard-response","190","520291","0.0-12.0-2.0","wc7uzqkrsp","one_one","1","direct_first","1","IN08UT27","0","19","1","1","3","1","","0","1","0","null","","","<img src = 'targets/33.png' width = '100%;'>","null","","","","","","","","","",""
"","html-keyboard-response","191","520880","0.0-12.0-3.0","wc7uzqkrsp","one_one","1","direct_first","1","IN08UT27","0","19","1","1","3","1","","0","1","0","586.5849999827333","","","<img src = 'targets/mask.png' width = '100%;'>","68","pos","GS","GSnew","4","category4/GS3.png","","targets/33.png","indirect","0","16"
"","html-keyboard-response","192","522397","0.0-12.0-0.1","wc7uzqkrsp","one_one","1","direct_first","1","IN08UT27","0","19","1","1","3","1","","0","1","0","null","","","<div style=""font-size:60px;"">+</div>","null","","","","","","","","","",""
"","html-keyboard-response","193","522492","0.0-12.0-1.1","wc7uzqkrsp","one_one","1","direct_first","1","IN08UT27","0","19","1","1","3","1","","0","1","0","null","","","<img src = 'category3/GS2.png' width = '100%;'>","null","","","","","","","","","",""
"","html-keyboard-response","194","522760","0.0-12.0-2.1","wc7uzqkrsp","one_one","1","direct_first","1","IN08UT27","0","19","1","1","3","1","","0","1","0","null","","","<img src = 'targets/36.png' width = '100%;'>","null","","","","","","","","","",""
"","html-keyboard-response","195","523289","0.0-12.0-3.1","wc7uzqkrsp","one_one","1","direct_first","1","IN08UT27","0","19","1","1","3","1","","0","1","0","528.0899999779649","","","<img src = 'targets/mask.png' width = '100%;'>","68","pos","GS","GSnew","3","category3/GS2.png","","targets/36.png","indirect","0","17"
"","html-keyboard-response","196","524812","0.0-12.0-0.2","wc7uzqkrsp","one_one","1","direct_first","1","IN08UT27","0","19","1","1","3","1","","0","1","0","null","","","<div style=""font-size:60px;"">+</div>","null","","","","","","","","","",""
"","html-keyboard-response","197","524904","0.0-12.0-1.2","wc7uzqkrsp","one_one","1","direct_first","1","IN08UT27","0","19","1","1","3","1","","0","1","0","null","","","<img src = 'category2/men.png' width = '100%;'>","null","","","","","","","","","",""
"","html-keyboard-response","198","525157","0.0-12.0-2.2","wc7uzqkrsp","one_one","1","direct_first","1","IN08UT27","0","19","1","1","3","1","","0","1","0","null","","","<img src = 'targets/17.png' width = '100%;'>","null","","","","","","","","","",""
"","html-keyboard-response","199","525543","0.0-12.0-3.2","wc7uzqkrsp","one_one","1","direct_first","1","IN08UT27","0","19","1","1","3","1","","0","1","0","384.4200000166893","","","<img src = 'targets/mask.png' width = '100%;'>","68","neg","GS","abstract","2","category2/men.png","","targets/17.png","indirect","0","18"
"","html-keyboard-response","200","527061","0.0-12.0-0.3","wc7uzqkrsp","one_one","1","direct_first","1","IN08UT27","0","19","1","1","3","1","","0","1","0","null","","","<div style=""font-size:60px;"">+</div>","null","","","","","","","","","",""
"","html-keyboard-response","201","527169","0.0-12.0-1.3","wc7uzqkrsp","one_one","1","direct_first","1","IN08UT27","0","19","1","1","3","1","","0","1","0","null","","","<img src = 'category1/GS3.png' width = '100%;'>","null","","","","","","","","","",""
"","html-keyboard-response","202","527434","0.0-12.0-2.3","wc7uzqkrsp","one_one","1","direct_first","1","IN08UT27","0","19","1","1","3","1","","0","1","0","null","","","<img src = 'targets/45.png' width = '100%;'>","null","","","","","","","","","",""
"","html-keyboard-response","203","527777","0.0-12.0-3.3","wc7uzqkrsp","one_one","1","direct_first","1","IN08UT27","0","19","1","1","3","1","","0","1","0","341.6950000100769","","","<img src = 'targets/mask.png' width = '100%;'>","75","neg","GS","GSnew","1","category1/GS3.png","","targets/45.png","indirect","1","19"
"","html-keyboard-response","204","529294","0.0-12.0-0.4","wc7uzqkrsp","one_one","1","direct_first","1","IN08UT27","0","19","1","1","3","1","","0","1","0","null","","","<div style=""font-size:60px;"">+</div>","null","","","","","","","","","",""
"","html-keyboard-response","205","529387","0.0-12.0-1.4","wc7uzqkrsp","one_one","1","direct_first","1","IN08UT27","0","19","1","1","3","1","","0","1","0","null","","","<img src = 'category2/GS3.png' width = '100%;'>","null","","","","","","","","","",""
"","html-keyboard-response","206","529656","0.0-12.0-2.4","wc7uzqkrsp","one_one","1","direct_first","1","IN08UT27","0","19","1","1","3","1","","0","1","0","null","","","<img src = 'targets/46.png' width = '100%;'>","null","","","","","","","","","",""
"","html-keyboard-response","207","530015","0.0-12.0-3.4","wc7uzqkrsp","one_one","1","direct_first","1","IN08UT27","0","19","1","1","3","1","","0","1","0","357.7449999866076","","","<img src = 'targets/mask.png' width = '100%;'>","75","neg","GS","GSnew","2","category2/GS3.png","","targets/46.png","indirect","1","20"
"","html-keyboard-response","208","531538","0.0-12.0-0.5","wc7uzqkrsp","one_one","1","direct_first","1","IN08UT27","0","19","1","1","3","1","","0","1","0","null","","","<div style=""font-size:60px;"">+</div>","null","","","","","","","","","",""
"","html-keyboard-response","209","531642","0.0-12.0-1.5","wc7uzqkrsp","one_one","1","direct_first","1","IN08UT27","0","19","1","1","3","1","","0","1","0","null","","","<img src = 'category1/GS2.png' width = '100%;'>","null","","","","","","","","","",""
"","html-keyboard-response","210","531906","0.0-12.0-2.5","wc7uzqkrsp","one_one","1","direct_first","1","IN08UT27","0","19","1","1","3","1","","0","1","0","null","","","<img src = 'targets/22.png' width = '100%;'>","null","","","","","","","","","",""
"","html-keyboard-response","211","532347","0.0-12.0-3.5","wc7uzqkrsp","one_one","1","direct_first","1","IN08UT27","0","19","1","1","3","1","","0","1","0","439.43000002764165","","","<img src = 'targets/mask.png' width = '100%;'>","75","neg","GS","GSnew","1","category1/GS2.png","","targets/22.png","indirect","1","21"
"","html-keyboard-response","212","533850","0.0-12.0-0.6","wc7uzqkrsp","one_one","1","direct_first","1","IN08UT27","0","19","1","1","3","1","","0","1","0","null","","","<div style=""font-size:60px;"">+</div>","null","","","","","","","","","",""
"","html-keyboard-response","213","533943","0.0-12.0-1.6","wc7uzqkrsp","one_one","1","direct_first","1","IN08UT27","0","19","1","1","3","1","","0","1","0","null","","","<img src = 'category4/GS1.png' width = '100%;'>","null","","","","","","","","","",""
"","html-keyboard-response","214","534209","0.0-12.0-2.6","wc7uzqkrsp","one_one","1","direct_first","1","IN08UT27","0","19","1","1","3","1","","0","1","0","null","","","<img src = 'targets/37.png' width = '100%;'>","null","","","","","","","","","",""
"","html-keyboard-response","215","534673","0.0-12.0-3.6","wc7uzqkrsp","one_one","1","direct_first","1","IN08UT27","0","19","1","1","3","1","","0","1","0","462.72499999031425","","","<img src = 'targets/mask.png' width = '100%;'>","75","pos","GS","GSnew","4","category4/GS1.png","","targets/37.png","indirect","1","22"
"","html-keyboard-response","216","536193","0.0-12.0-0.7","wc7uzqkrsp","one_one","1","direct_first","1","IN08UT27","0","19","1","1","3","1","","0","1","0","null","","","<div style=""font-size:60px;"">+</div>","null","","","","","","","","","",""
"","html-keyboard-response","217","536293","0.0-12.0-1.7","wc7uzqkrsp","one_one","1","direct_first","1","IN08UT27","0","19","1","1","3","1","","0","1","0","null","","","<img src = 'category2/GS1.png' width = '100%;'>","null","","","","","","","","","",""
"","html-keyboard-response","218","536558","0.0-12.0-2.7","wc7uzqkrsp","one_one","1","direct_first","1","IN08UT27","0","19","1","1","3","1","","0","1","0","null","","","<img src = 'targets/3.png' width = '100%;'>","null","","","","","","","","","",""
"","html-keyboard-response","219","536777","0.0-12.0-3.7","wc7uzqkrsp","one_one","1","direct_first","1","IN08UT27","0","19","1","1","3","1","","0","1","0","217.85999997518957","","","<img src = 'targets/mask.png' width = '100%;'>","68","neg","GS","GSnew","2","category2/GS1.png","","targets/3.png","indirect","0","23"
"","html-keyboard-response","220","538295","0.0-12.0-0.8","wc7uzqkrsp","one_one","1","direct_first","1","IN08UT27","0","19","1","1","3","1","","0","1","0","null","","","<div style=""font-size:60px;"">+</div>","null","","","","","","","","","",""
"","html-keyboard-response","221","538387","0.0-12.0-1.8","wc7uzqkrsp","one_one","1","direct_first","1","IN08UT27","0","19","1","1","3","1","","0","1","0","null","","","<img src = 'category1/ma.png' width = '100%;'>","null","","","","","","","","","",""
"","html-keyboard-response","222","538668","0.0-12.0-2.8","wc7uzqkrsp","one_one","1","direct_first","1","IN08UT27","0","19","1","1","3","1","","0","1","0","null","","","<img src = 'targets/26.png' width = '100%;'>","null","","","","","","","","","",""
"","html-keyboard-response","223","539171","0.0-12.0-3.8","wc7uzqkrsp","one_one","1","direct_first","1","IN08UT27","0","19","1","1","3","1","","0","1","0","501.34499999694526","","","<img src = 'targets/mask.png' width = '100%;'>","68","neg","GS","abstract","1","category1/ma.png","","targets/26.png","indirect","0","24"
"","html-keyboard-response","224","540686","0.0-12.0-0.9","wc7uzqkrsp","one_one","1","direct_first","1","IN08UT27","0","19","1","1","3","1","","0","1","0","null","","","<div style=""font-size:60px;"">+</div>","null","","","","","","","","","",""
"","html-keyboard-response","225","540777","0.0-12.0-1.9","wc7uzqkrsp","one_one","1","direct_first","1","IN08UT27","0","19","1","1","3","1","","0","1","0","null","","","<img src = 'category1/GS1.png' width = '100%;'>","null","","","","","","","","","",""
"","html-keyboard-response","226","541056","0.0-12.0-2.9","wc7uzqkrsp","one_one","1","direct_first","1","IN08UT27","0","19","1","1","3","1","","0","1","0","null","","","<img src = 'targets/20.png' width = '100%;'>","null","","","","","","","","","",""
"","html-keyboard-response","227","541646","0.0-12.0-3.9","wc7uzqkrsp","one_one","1","direct_first","1","IN08UT27","0","19","1","1","3","1","","0","1","0","587.6449999632314","","","<img src = 'targets/mask.png' width = '100%;'>","68","neg","GS","GSnew","1","category1/GS1.png","","targets/20.png","indirect","0","25"
"","html-keyboard-response","228","543175","0.0-12.0-0.10","wc7uzqkrsp","one_one","1","direct_first","1","IN08UT27","0","19","1","1","3","1","","0","1","0","null","","","<div style=""font-size:60px;"">+</div>","null","","","","","","","","","",""
"","html-keyboard-response","229","543268","0.0-12.0-1.10","wc7uzqkrsp","one_one","1","direct_first","1","IN08UT27","0","19","1","1","3","1","","0","1","0","null","","","<img src = 'category3/wang.png' width = '100%;'>","null","","","","","","","","","",""
"","html-keyboard-response","230","543537","0.0-12.0-2.10","wc7uzqkrsp","one_one","1","direct_first","1","IN08UT27","0","19","1","1","3","1","","0","1","0","null","","","<img src = 'targets/21.png' width = '100%;'>","null","","","","","","","","","",""
"","html-keyboard-response","231","544466","0.0-12.0-3.10","wc7uzqkrsp","one_one","1","direct_first","1","IN08UT27","0","19","1","1","3","1","","0","1","0","928.4699999843724","","","<img src = 'targets/mask.png' width = '100%;'>","75","pos","GS","abstract","3","category3/wang.png","","targets/21.png","indirect","1","26"
"","html-keyboard-response","232","545988","0.0-12.0-0.11","wc7uzqkrsp","one_one","1","direct_first","1","IN08UT27","0","19","1","1","3","1","","0","1","0","null","","","<div style=""font-size:60px;"">+</div>","null","","","","","","","","","",""
"","html-keyboard-response","233","546089","0.0-12.0-1.11","wc7uzqkrsp","one_one","1","direct_first","1","IN08UT27","0","19","1","1","3","1","","0","1","0","null","","","<img src = 'category2/GS2.png' width = '100%;'>","null","","","","","","","","","",""
"","html-keyboard-response","234","546355","0.0-12.0-2.11","wc7uzqkrsp","one_one","1","direct_first","1","IN08UT27","0","19","1","1","3","1","","0","1","0","null","","","<img src = 'targets/15.png' width = '100%;'>","null","","","","","","","","","",""
"","html-keyboard-response","235","546738","0.0-12.0-3.11","wc7uzqkrsp","one_one","1","direct_first","1","IN08UT27","0","19","1","1","3","1","","0","1","0","382.370000006631","","","<img src = 'targets/mask.png' width = '100%;'>","68","neg","GS","GSnew","2","category2/GS2.png","","targets/15.png","indirect","0","27"
"","html-keyboard-response","236","548254","0.0-12.0-0.12","wc7uzqkrsp","one_one","1","direct_first","1","IN08UT27","0","19","1","1","3","1","","0","1","0","null","","","<div style=""font-size:60px;"">+</div>","null","","","","","","","","","",""
"","html-keyboard-response","237","548357","0.0-12.0-1.12","wc7uzqkrsp","one_one","1","direct_first","1","IN08UT27","0","19","1","1","3","1","","0","1","0","null","","","<img src = 'category3/GS1.png' width = '100%;'>","null","","","","","","","","","",""
"","html-keyboard-response","238","548614","0.0-12.0-2.12","wc7uzqkrsp","one_one","1","direct_first","1","IN08UT27","0","19","1","1","3","1","","0","1","0","null","","","<img src = 'targets/24.png' width = '100%;'>","null","","","","","","","","","",""
"","html-keyboard-response","239","549023","0.0-12.0-3.12","wc7uzqkrsp","one_one","1","direct_first","1","IN08UT27","0","19","1","1","3","1","","0","1","0","406.9349999772385","","","<img src = 'targets/mask.png' width = '100%;'>","68","pos","GS","GSnew","3","category3/GS1.png","","targets/24.png","indirect","0","28"
"","html-keyboard-response","240","550535","0.0-12.0-0.13","wc7uzqkrsp","one_one","1","direct_first","1","IN08UT27","0","19","1","1","3","1","","0","1","0","null","","","<div style=""font-size:60px;"">+</div>","null","","","","","","","","","",""
"","html-keyboard-response","241","550640","0.0-12.0-1.13","wc7uzqkrsp","one_one","1","direct_first","1","IN08UT27","0","19","1","1","3","1","","0","1","0","null","","","<img src = 'category4/GS2.png' width = '100%;'>","null","","","","","","","","","",""
"","html-keyboard-response","242","550905","0.0-12.0-2.13","wc7uzqkrsp","one_one","1","direct_first","1","IN08UT27","0","19","1","1","3","1","","0","1","0","null","","","<img src = 'targets/2.png' width = '100%;'>","null","","","","","","","","","",""
"","html-keyboard-response","243","551456","0.0-12.0-3.13","wc7uzqkrsp","one_one","1","direct_first","1","IN08UT27","0","19","1","1","3","1","","0","1","0","549.4300000136718","","","<img src = 'targets/mask.png' width = '100%;'>","75","pos","GS","GSnew","4","category4/GS2.png","","targets/2.png","indirect","1","29"
"","html-keyboard-response","244","552972","0.0-12.0-0.14","wc7uzqkrsp","one_one","1","direct_first","1","IN08UT27","0","19","1","1","3","1","","0","1","0","null","","","<div style=""font-size:60px;"">+</div>","null","","","","","","","","","",""
"","html-keyboard-response","245","553074","0.0-12.0-1.14","wc7uzqkrsp","one_one","1","direct_first","1","IN08UT27","0","19","1","1","3","1","","0","1","0","null","","","<img src = 'category3/GS3.png' width = '100%;'>","null","","","","","","","","","",""
"","html-keyboard-response","246","553339","0.0-12.0-2.14","wc7uzqkrsp","one_one","1","direct_first","1","IN08UT27","0","19","1","1","3","1","","0","1","0","null","","","<img src = 'targets/44.png' width = '100%;'>","null","","","","","","","","","",""
"","html-keyboard-response","247","554067","0.0-12.0-3.14","wc7uzqkrsp","one_one","1","direct_first","1","IN08UT27","0","19","1","1","3","1","","0","1","0","725.8750000037253","","","<img src = 'targets/mask.png' width = '100%;'>","75","pos","GS","GSnew","3","category3/GS3.png","","targets/44.png","indirect","1","30"
"","html-keyboard-response","248","555596","0.0-12.0-0.15","wc7uzqkrsp","one_one","1","direct_first","1","IN08UT27","0","19","1","1","3","1","","0","1","0","null","","","<div style=""font-size:60px;"">+</div>","null","","","","","","","","","",""
"","html-keyboard-response","249","555689","0.0-12.0-1.15","wc7uzqkrsp","one_one","1","direct_first","1","IN08UT27","0","19","1","1","3","1","","0","1","0","null","","","<img src = 'category4/lin.png' width = '100%;'>","null","","","","","","","","","",""
"","html-keyboard-response","250","555955","0.0-12.0-2.15","wc7uzqkrsp","one_one","1","direct_first","1","IN08UT27","0","19","1","1","3","1","","0","1","0","null","","","<img src = 'targets/18.png' width = '100%;'>","null","","","","","","","","","",""
"","html-keyboard-response","251","556295","0.0-12.0-3.15","wc7uzqkrsp","one_one","1","direct_first","1","IN08UT27","0","19","1","1","3","1","","0","1","0","338.6949999839999","","","<img src = 'targets/mask.png' width = '100%;'>","68","pos","GS","abstract","4","category4/lin.png","","targets/18.png","indirect","0","31"
"","survey-html-form","252","561452","0.0-13.0","wc7uzqkrsp","one_one","1","direct_first","1","IN08UT27","0","19","1","1","3","1","","0","1","0","4644.144999969285","","{}","","","","","","","","","","","",""
"","image-slider-response","253","565950","0.0-14.0-0.0","wc7uzqkrsp","one_one","1","direct_first","1","IN08UT27","0","19","1","1","3","1","","0","1","0","3483.524999988731","","","","","pos","All","all","3","category3/wang_all.png","-45","","all","",""
"","image-slider-response","254","568692","0.0-14.0-0.1","wc7uzqkrsp","one_one","1","direct_first","1","IN08UT27","0","19","1","1","3","1","","0","1","0","2739.270000020042","","","","","neg","All","all","2","category2/men_all.png","-31","","all","",""
"","image-slider-response","255","572318","0.0-14.0-0.2","wc7uzqkrsp","one_one","1","direct_first","1","IN08UT27","0","19","1","1","3","1","","0","1","0","3623.0150000192225","","","","","pos","All","all","4","category4/lin_all.png","28","","all","",""
"","image-slider-response","256","575592","0.0-14.0-0.3","wc7uzqkrsp","one_one","1","direct_first","1","IN08UT27","0","19","1","1","3","1","","0","1","0","3269.8899999959394","","","","","neg","All","all","1","category1/ma_all.png","-22","","all","",""
"","survey-text","257","578652","0.0-15.0","wc7uzqkrsp","one_one","1","direct_first","1","IN08UT27","0","19","1","1","3","1","","0","1","0","3039.974999963306","","{""comment"":""""}","","","","","","","","","","","",""
"","survey-html-form","258","589280","0.0-16.0","wc7uzqkrsp","one_one","1","direct_first","1","IN08UT27","0","19","1","1","3","1","","0","1","0","10623.680000018794","","{""hinschauen"":""0"",""ablenkung"":""1"",""gewissenhaft"":""0""}","","","","","","","","","","","",""
