"success","trial_type","trial_index","time_elapsed","internal_node_id","subject","condition","condition_code","measure","measure_code","codeword","gender","age","education","chinese","fach","handedness","comment","hinschauen","ablenkung","gewissenhaft","rt","url","responses","stimulus","key_press","val","type","type_specific","category","cs_selected","response","target","task","indirect","nr_pres"
"true","fullscreen","0","10258","0.0-0.0","o90va6hemg","one_one","1","direct_first","1","rt08an17","0","22","1","1","3","1","","0","1","0","","","","","","","","","","","","","","",""
"","external-html","1","87231","0.0-1.0","o90va6hemg","one_one","1","direct_first","1","rt08an17","0","22","1","1","3","1","","0","1","0","76825.3800002858","text/information.html","","","","","","","","","","","","",""
"","external-html","2","106495","0.0-2.0","o90va6hemg","one_one","1","direct_first","1","rt08an17","0","22","1","1","3","1","","0","1","0","18837.619999889284","text/consent.html","","","","","","","","","","","","",""
"","survey-html-form","3","195554","0.0-3.0","o90va6hemg","one_one","1","direct_first","1","rt08an17","0","22","1","1","3","1","","0","1","0","88991.26000003889","","{""codeword_enter"":""rt08an17""}","","","","","","","","","","","",""
"","survey-html-form","4","222757","0.0-4.0","o90va6hemg","one_one","1","direct_first","1","rt08an17","0","22","1","1","3","1","","0","1","0","27183.949999976903","","{""age"":""22"",""education"":""1"",""subject"":""3"",""gender"":""0"",""handedness"":""1"",""chinese"":""1""}","","","","","","","","","","","",""
"","survey-html-form","5","230548","0.0-5.0","o90va6hemg","one_one","1","direct_first","1","rt08an17","0","22","1","1","3","1","","0","1","0","7784.865000285208","","{}","","","","","","","","","","","",""
"","html-keyboard-response","6","234560","0.0-6.0-0.0-0.0","o90va6hemg","one_one","1","direct_first","1","rt08an17","0","22","1","1","3","1","","0","1","0","null","","","<div class = 'row'><div class = 'column'><img src = 'category2/CS3.png' width = '70%;'></div><div class = 'column'><img src = 'usneg/9421.bmp' width = '100%;'></div></div>","null","neg","CS","CS","2","category2/CS3.png","","","","",""
"","html-keyboard-response","7","237068","0.0-6.0-0.0-0.1","o90va6hemg","one_one","1","direct_first","1","rt08an17","0","22","1","1","3","1","","0","1","0","null","","","<div class = 'row'><div class = 'column'><img src = 'category3/CS3.png' width = '70%;'></div><div class = 'column'><img src = 'uspos/2360.bmp' width = '100%;'></div></div>","null","pos","CS","CS","3","category3/CS3.png","","","","",""
"","html-keyboard-response","8","239576","0.0-6.0-0.0-0.2","o90va6hemg","one_one","1","direct_first","1","rt08an17","0","22","1","1","3","1","","0","1","0","null","","","<div class = 'row'><div class = 'column'><img src = 'category4/CS5.png' width = '70%;'></div><div class = 'column'><img src = 'usneg/9635.2.bmp' width = '100%;'></div></div>","null","neg","CS","CS","4","category4/CS5.png","","","","",""
"","html-keyboard-response","9","242087","0.0-6.0-0.0-0.3","o90va6hemg","one_one","1","direct_first","1","rt08an17","0","22","1","1","3","1","","0","1","0","null","","","<div class = 'row'><div class = 'column'><img src = 'category2/CS3.png' width = '70%;'></div><div class = 'column'><img src = 'usneg/9421.bmp' width = '100%;'></div></div>","null","neg","CS","CS","2","category2/CS3.png","","","","",""
"","html-keyboard-response","10","244595","0.0-6.0-0.0-0.4","o90va6hemg","one_one","1","direct_first","1","rt08an17","0","22","1","1","3","1","","0","1","0","null","","","<div class = 'row'><div class = 'column'><img src = 'uspos/2165.bmp' width = '100%;'></div><div class = 'column'><img src = 'category1/CS8.png' width = '70%;'></div></div>","null","pos","CS","CS","1","category1/CS8.png","","","","",""
"","html-keyboard-response","11","247105","0.0-6.0-0.0-0.5","o90va6hemg","one_one","1","direct_first","1","rt08an17","0","22","1","1","3","1","","0","1","0","null","","","<div class = 'row'><div class = 'column'><img src = 'usneg/9421.bmp' width = '100%;'></div><div class = 'column'><img src = 'category2/CS3.png' width = '70%;'></div></div>","null","neg","CS","CS","2","category2/CS3.png","","","","",""
"","html-keyboard-response","12","249614","0.0-6.0-0.0-0.6","o90va6hemg","one_one","1","direct_first","1","rt08an17","0","22","1","1","3","1","","0","1","0","null","","","<div class = 'row'><div class = 'column'><img src = 'uspos/2165.bmp' width = '100%;'></div><div class = 'column'><img src = 'category1/CS8.png' width = '70%;'></div></div>","null","pos","CS","CS","1","category1/CS8.png","","","","",""
"","html-keyboard-response","13","252121","0.0-6.0-0.0-0.7","o90va6hemg","one_one","1","direct_first","1","rt08an17","0","22","1","1","3","1","","0","1","0","null","","","<div class = 'row'><div class = 'column'><img src = 'usneg/9421.bmp' width = '100%;'></div><div class = 'column'><img src = 'category2/CS3.png' width = '70%;'></div></div>","null","neg","CS","CS","2","category2/CS3.png","","","","",""
"","html-keyboard-response","14","254629","0.0-6.0-0.0-0.8","o90va6hemg","one_one","1","direct_first","1","rt08an17","0","22","1","1","3","1","","0","1","0","null","","","<div class = 'row'><div class = 'column'><img src = 'category3/CS3.png' width = '70%;'></div><div class = 'column'><img src = 'uspos/2360.bmp' width = '100%;'></div></div>","null","pos","CS","CS","3","category3/CS3.png","","","","",""
"","html-keyboard-response","15","257135","0.0-6.0-0.0-0.9","o90va6hemg","one_one","1","direct_first","1","rt08an17","0","22","1","1","3","1","","0","1","0","null","","","<div class = 'row'><div class = 'column'><img src = 'category4/CS5.png' width = '70%;'></div><div class = 'column'><img src = 'usneg/9635.2.bmp' width = '100%;'></div></div>","null","neg","CS","CS","4","category4/CS5.png","","","","",""
"","html-keyboard-response","16","259644","0.0-6.0-0.0-0.10","o90va6hemg","one_one","1","direct_first","1","rt08an17","0","22","1","1","3","1","","0","1","0","null","","","<div class = 'row'><div class = 'column'><img src = 'category1/CS8.png' width = '70%;'></div><div class = 'column'><img src = 'uspos/2165.bmp' width = '100%;'></div></div>","null","pos","CS","CS","1","category1/CS8.png","","","","",""
"","html-keyboard-response","17","262150","0.0-6.0-0.0-0.11","o90va6hemg","one_one","1","direct_first","1","rt08an17","0","22","1","1","3","1","","0","1","0","null","","","<div class = 'row'><div class = 'column'><img src = 'usneg/9635.2.bmp' width = '100%;'></div><div class = 'column'><img src = 'category4/CS5.png' width = '70%;'></div></div>","null","neg","CS","CS","4","category4/CS5.png","","","","",""
"","html-keyboard-response","18","264662","0.0-6.0-0.0-0.12","o90va6hemg","one_one","1","direct_first","1","rt08an17","0","22","1","1","3","1","","0","1","0","null","","","<div class = 'row'><div class = 'column'><img src = 'category3/CS3.png' width = '70%;'></div><div class = 'column'><img src = 'uspos/2360.bmp' width = '100%;'></div></div>","null","pos","CS","CS","3","category3/CS3.png","","","","",""
"","html-keyboard-response","19","267169","0.0-6.0-0.0-0.13","o90va6hemg","one_one","1","direct_first","1","rt08an17","0","22","1","1","3","1","","0","1","0","null","","","<div class = 'row'><div class = 'column'><img src = 'category4/CS5.png' width = '70%;'></div><div class = 'column'><img src = 'usneg/9635.2.bmp' width = '100%;'></div></div>","null","neg","CS","CS","4","category4/CS5.png","","","","",""
"","html-keyboard-response","20","269679","0.0-6.0-0.0-0.14","o90va6hemg","one_one","1","direct_first","1","rt08an17","0","22","1","1","3","1","","0","1","0","null","","","<div class = 'row'><div class = 'column'><img src = 'category1/CS8.png' width = '70%;'></div><div class = 'column'><img src = 'uspos/2165.bmp' width = '100%;'></div></div>","null","pos","CS","CS","1","category1/CS8.png","","","","",""
"","html-keyboard-response","21","272184","0.0-6.0-0.0-0.15","o90va6hemg","one_one","1","direct_first","1","rt08an17","0","22","1","1","3","1","","0","1","0","null","","","<div class = 'row'><div class = 'column'><img src = 'category2/CS3.png' width = '70%;'></div><div class = 'column'><img src = 'usneg/9421.bmp' width = '100%;'></div></div>","null","neg","CS","CS","2","category2/CS3.png","","","","",""
"","html-keyboard-response","22","274692","0.0-6.0-0.0-0.16","o90va6hemg","one_one","1","direct_first","1","rt08an17","0","22","1","1","3","1","","0","1","0","null","","","<div class = 'row'><div class = 'column'><img src = 'category3/CS3.png' width = '70%;'></div><div class = 'column'><img src = 'uspos/2360.bmp' width = '100%;'></div></div>","null","pos","CS","CS","3","category3/CS3.png","","","","",""
"","html-keyboard-response","23","277199","0.0-6.0-0.0-0.17","o90va6hemg","one_one","1","direct_first","1","rt08an17","0","22","1","1","3","1","","0","1","0","null","","","<div class = 'row'><div class = 'column'><img src = 'usneg/9635.2.bmp' width = '100%;'></div><div class = 'column'><img src = 'category4/CS5.png' width = '70%;'></div></div>","null","neg","CS","CS","4","category4/CS5.png","","","","",""
"","html-keyboard-response","24","279708","0.0-6.0-0.0-0.18","o90va6hemg","one_one","1","direct_first","1","rt08an17","0","22","1","1","3","1","","0","1","0","null","","","<div class = 'row'><div class = 'column'><img src = 'category1/CS8.png' width = '70%;'></div><div class = 'column'><img src = 'uspos/2165.bmp' width = '100%;'></div></div>","null","pos","CS","CS","1","category1/CS8.png","","","","",""
"","html-keyboard-response","25","282214","0.0-6.0-0.0-0.19","o90va6hemg","one_one","1","direct_first","1","rt08an17","0","22","1","1","3","1","","0","1","0","null","","","<div class = 'row'><div class = 'column'><img src = 'category3/CS3.png' width = '70%;'></div><div class = 'column'><img src = 'uspos/2360.bmp' width = '100%;'></div></div>","null","pos","CS","CS","3","category3/CS3.png","","","","",""
"","survey-html-form","26","285716","0.0-6.0-1.0","o90va6hemg","one_one","1","direct_first","1","rt08an17","0","22","1","1","3","1","","0","1","0","2997.4250001832843","","{}","","","","","","","","","","","",""
"","html-keyboard-response","27","289726","0.0-6.0-2.0-0.0","o90va6hemg","one_one","1","direct_first","1","rt08an17","0","22","1","1","3","1","","0","1","0","null","","","<div class = 'row'><div class = 'column'><img src = 'usneg/9421.bmp' width = '100%;'></div><div class = 'column'><img src = 'category2/CS3.png' width = '70%;'></div></div>","null","neg","CS","CS","2","category2/CS3.png","","","","",""
"","html-keyboard-response","28","292234","0.0-6.0-2.0-0.1","o90va6hemg","one_one","1","direct_first","1","rt08an17","0","22","1","1","3","1","","0","1","0","null","","","<div class = 'row'><div class = 'column'><img src = 'category1/CS8.png' width = '70%;'></div><div class = 'column'><img src = 'uspos/2165.bmp' width = '100%;'></div></div>","null","pos","CS","CS","1","category1/CS8.png","","","","",""
"","html-keyboard-response","29","294738","0.0-6.0-2.0-0.2","o90va6hemg","one_one","1","direct_first","1","rt08an17","0","22","1","1","3","1","","0","1","0","null","","","<div class = 'row'><div class = 'column'><img src = 'uspos/2360.bmp' width = '100%;'></div><div class = 'column'><img src = 'category3/CS3.png' width = '70%;'></div></div>","null","pos","CS","CS","3","category3/CS3.png","","","","",""
"","html-keyboard-response","30","297248","0.0-6.0-2.0-0.3","o90va6hemg","one_one","1","direct_first","1","rt08an17","0","22","1","1","3","1","","0","1","0","null","","","<div class = 'row'><div class = 'column'><img src = 'uspos/2165.bmp' width = '100%;'></div><div class = 'column'><img src = 'category1/CS8.png' width = '70%;'></div></div>","null","pos","CS","CS","1","category1/CS8.png","","","","",""
"","html-keyboard-response","31","299754","0.0-6.0-2.0-0.4","o90va6hemg","one_one","1","direct_first","1","rt08an17","0","22","1","1","3","1","","0","1","0","null","","","<div class = 'row'><div class = 'column'><img src = 'category4/CS5.png' width = '70%;'></div><div class = 'column'><img src = 'usneg/9635.2.bmp' width = '100%;'></div></div>","null","neg","CS","CS","4","category4/CS5.png","","","","",""
"","html-keyboard-response","32","302262","0.0-6.0-2.0-0.5","o90va6hemg","one_one","1","direct_first","1","rt08an17","0","22","1","1","3","1","","0","1","0","null","","","<div class = 'row'><div class = 'column'><img src = 'category3/CS3.png' width = '70%;'></div><div class = 'column'><img src = 'uspos/2360.bmp' width = '100%;'></div></div>","null","pos","CS","CS","3","category3/CS3.png","","","","",""
"","html-keyboard-response","33","304769","0.0-6.0-2.0-0.6","o90va6hemg","one_one","1","direct_first","1","rt08an17","0","22","1","1","3","1","","0","1","0","null","","","<div class = 'row'><div class = 'column'><img src = 'usneg/9421.bmp' width = '100%;'></div><div class = 'column'><img src = 'category2/CS3.png' width = '70%;'></div></div>","null","neg","CS","CS","2","category2/CS3.png","","","","",""
"","html-keyboard-response","34","307283","0.0-6.0-2.0-0.7","o90va6hemg","one_one","1","direct_first","1","rt08an17","0","22","1","1","3","1","","0","1","0","null","","","<div class = 'row'><div class = 'column'><img src = 'category4/CS5.png' width = '70%;'></div><div class = 'column'><img src = 'usneg/9635.2.bmp' width = '100%;'></div></div>","null","neg","CS","CS","4","category4/CS5.png","","","","",""
"","html-keyboard-response","35","309789","0.0-6.0-2.0-0.8","o90va6hemg","one_one","1","direct_first","1","rt08an17","0","22","1","1","3","1","","0","1","0","null","","","<div class = 'row'><div class = 'column'><img src = 'category1/CS8.png' width = '70%;'></div><div class = 'column'><img src = 'uspos/2165.bmp' width = '100%;'></div></div>","null","pos","CS","CS","1","category1/CS8.png","","","","",""
"","html-keyboard-response","36","312295","0.0-6.0-2.0-0.9","o90va6hemg","one_one","1","direct_first","1","rt08an17","0","22","1","1","3","1","","0","1","0","null","","","<div class = 'row'><div class = 'column'><img src = 'usneg/9635.2.bmp' width = '100%;'></div><div class = 'column'><img src = 'category4/CS5.png' width = '70%;'></div></div>","null","neg","CS","CS","4","category4/CS5.png","","","","",""
"","html-keyboard-response","37","314805","0.0-6.0-2.0-0.10","o90va6hemg","one_one","1","direct_first","1","rt08an17","0","22","1","1","3","1","","0","1","0","null","","","<div class = 'row'><div class = 'column'><img src = 'uspos/2360.bmp' width = '100%;'></div><div class = 'column'><img src = 'category3/CS3.png' width = '70%;'></div></div>","null","pos","CS","CS","3","category3/CS3.png","","","","",""
"","html-keyboard-response","38","317314","0.0-6.0-2.0-0.11","o90va6hemg","one_one","1","direct_first","1","rt08an17","0","22","1","1","3","1","","0","1","0","null","","","<div class = 'row'><div class = 'column'><img src = 'usneg/9635.2.bmp' width = '100%;'></div><div class = 'column'><img src = 'category4/CS5.png' width = '70%;'></div></div>","null","neg","CS","CS","4","category4/CS5.png","","","","",""
"","html-keyboard-response","39","319823","0.0-6.0-2.0-0.12","o90va6hemg","one_one","1","direct_first","1","rt08an17","0","22","1","1","3","1","","0","1","0","null","","","<div class = 'row'><div class = 'column'><img src = 'category2/CS3.png' width = '70%;'></div><div class = 'column'><img src = 'usneg/9421.bmp' width = '100%;'></div></div>","null","neg","CS","CS","2","category2/CS3.png","","","","",""
"","html-keyboard-response","40","322335","0.0-6.0-2.0-0.13","o90va6hemg","one_one","1","direct_first","1","rt08an17","0","22","1","1","3","1","","0","1","0","null","","","<div class = 'row'><div class = 'column'><img src = 'uspos/2360.bmp' width = '100%;'></div><div class = 'column'><img src = 'category3/CS3.png' width = '70%;'></div></div>","null","pos","CS","CS","3","category3/CS3.png","","","","",""
"","html-keyboard-response","41","324847","0.0-6.0-2.0-0.14","o90va6hemg","one_one","1","direct_first","1","rt08an17","0","22","1","1","3","1","","0","1","0","null","","","<div class = 'row'><div class = 'column'><img src = 'usneg/9421.bmp' width = '100%;'></div><div class = 'column'><img src = 'category2/CS3.png' width = '70%;'></div></div>","null","neg","CS","CS","2","category2/CS3.png","","","","",""
"","html-keyboard-response","42","327352","0.0-6.0-2.0-0.15","o90va6hemg","one_one","1","direct_first","1","rt08an17","0","22","1","1","3","1","","0","1","0","null","","","<div class = 'row'><div class = 'column'><img src = 'category3/CS3.png' width = '70%;'></div><div class = 'column'><img src = 'uspos/2360.bmp' width = '100%;'></div></div>","null","pos","CS","CS","3","category3/CS3.png","","","","",""
"","html-keyboard-response","43","329862","0.0-6.0-2.0-0.16","o90va6hemg","one_one","1","direct_first","1","rt08an17","0","22","1","1","3","1","","0","1","0","null","","","<div class = 'row'><div class = 'column'><img src = 'uspos/2165.bmp' width = '100%;'></div><div class = 'column'><img src = 'category1/CS8.png' width = '70%;'></div></div>","null","pos","CS","CS","1","category1/CS8.png","","","","",""
"","html-keyboard-response","44","332369","0.0-6.0-2.0-0.17","o90va6hemg","one_one","1","direct_first","1","rt08an17","0","22","1","1","3","1","","0","1","0","null","","","<div class = 'row'><div class = 'column'><img src = 'usneg/9421.bmp' width = '100%;'></div><div class = 'column'><img src = 'category2/CS3.png' width = '70%;'></div></div>","null","neg","CS","CS","2","category2/CS3.png","","","","",""
"","html-keyboard-response","45","334880","0.0-6.0-2.0-0.18","o90va6hemg","one_one","1","direct_first","1","rt08an17","0","22","1","1","3","1","","0","1","0","null","","","<div class = 'row'><div class = 'column'><img src = 'category1/CS8.png' width = '70%;'></div><div class = 'column'><img src = 'uspos/2165.bmp' width = '100%;'></div></div>","null","pos","CS","CS","1","category1/CS8.png","","","","",""
"","html-keyboard-response","46","337394","0.0-6.0-2.0-0.19","o90va6hemg","one_one","1","direct_first","1","rt08an17","0","22","1","1","3","1","","0","1","0","null","","","<div class = 'row'><div class = 'column'><img src = 'usneg/9635.2.bmp' width = '100%;'></div><div class = 'column'><img src = 'category4/CS5.png' width = '70%;'></div></div>","null","neg","CS","CS","4","category4/CS5.png","","","","",""
"","survey-html-form","47","341297","0.0-6.0-3.0","o90va6hemg","one_one","1","direct_first","1","rt08an17","0","22","1","1","3","1","","0","1","0","3397.9350002482533","","{}","","","","","","","","","","","",""
"","html-keyboard-response","48","345313","0.0-6.0-4.0-0.0","o90va6hemg","one_one","1","direct_first","1","rt08an17","0","22","1","1","3","1","","0","1","0","null","","","<div class = 'row'><div class = 'column'><img src = 'uspos/2360.bmp' width = '100%;'></div><div class = 'column'><img src = 'category3/CS3.png' width = '70%;'></div></div>","null","pos","CS","CS","3","category3/CS3.png","","","","",""
"","html-keyboard-response","49","347822","0.0-6.0-4.0-0.1","o90va6hemg","one_one","1","direct_first","1","rt08an17","0","22","1","1","3","1","","0","1","0","null","","","<div class = 'row'><div class = 'column'><img src = 'usneg/9635.2.bmp' width = '100%;'></div><div class = 'column'><img src = 'category4/CS5.png' width = '70%;'></div></div>","null","neg","CS","CS","4","category4/CS5.png","","","","",""
"","html-keyboard-response","50","350330","0.0-6.0-4.0-0.2","o90va6hemg","one_one","1","direct_first","1","rt08an17","0","22","1","1","3","1","","0","1","0","null","","","<div class = 'row'><div class = 'column'><img src = 'category3/CS3.png' width = '70%;'></div><div class = 'column'><img src = 'uspos/2360.bmp' width = '100%;'></div></div>","null","pos","CS","CS","3","category3/CS3.png","","","","",""
"","html-keyboard-response","51","352841","0.0-6.0-4.0-0.3","o90va6hemg","one_one","1","direct_first","1","rt08an17","0","22","1","1","3","1","","0","1","0","null","","","<div class = 'row'><div class = 'column'><img src = 'category1/CS8.png' width = '70%;'></div><div class = 'column'><img src = 'uspos/2165.bmp' width = '100%;'></div></div>","null","pos","CS","CS","1","category1/CS8.png","","","","",""
"","html-keyboard-response","52","355354","0.0-6.0-4.0-0.4","o90va6hemg","one_one","1","direct_first","1","rt08an17","0","22","1","1","3","1","","0","1","0","null","","","<div class = 'row'><div class = 'column'><img src = 'usneg/9421.bmp' width = '100%;'></div><div class = 'column'><img src = 'category2/CS3.png' width = '70%;'></div></div>","null","neg","CS","CS","2","category2/CS3.png","","","","",""
"","html-keyboard-response","53","357863","0.0-6.0-4.0-0.5","o90va6hemg","one_one","1","direct_first","1","rt08an17","0","22","1","1","3","1","","0","1","0","null","","","<div class = 'row'><div class = 'column'><img src = 'category4/CS5.png' width = '70%;'></div><div class = 'column'><img src = 'usneg/9635.2.bmp' width = '100%;'></div></div>","null","neg","CS","CS","4","category4/CS5.png","","","","",""
"","html-keyboard-response","54","360371","0.0-6.0-4.0-0.6","o90va6hemg","one_one","1","direct_first","1","rt08an17","0","22","1","1","3","1","","0","1","0","null","","","<div class = 'row'><div class = 'column'><img src = 'category1/CS8.png' width = '70%;'></div><div class = 'column'><img src = 'uspos/2165.bmp' width = '100%;'></div></div>","null","pos","CS","CS","1","category1/CS8.png","","","","",""
"","html-keyboard-response","55","362884","0.0-6.0-4.0-0.7","o90va6hemg","one_one","1","direct_first","1","rt08an17","0","22","1","1","3","1","","0","1","0","null","","","<div class = 'row'><div class = 'column'><img src = 'category4/CS5.png' width = '70%;'></div><div class = 'column'><img src = 'usneg/9635.2.bmp' width = '100%;'></div></div>","null","neg","CS","CS","4","category4/CS5.png","","","","",""
"","html-keyboard-response","56","365389","0.0-6.0-4.0-0.8","o90va6hemg","one_one","1","direct_first","1","rt08an17","0","22","1","1","3","1","","0","1","0","null","","","<div class = 'row'><div class = 'column'><img src = 'category1/CS8.png' width = '70%;'></div><div class = 'column'><img src = 'uspos/2165.bmp' width = '100%;'></div></div>","null","pos","CS","CS","1","category1/CS8.png","","","","",""
"","html-keyboard-response","57","367898","0.0-6.0-4.0-0.9","o90va6hemg","one_one","1","direct_first","1","rt08an17","0","22","1","1","3","1","","0","1","0","null","","","<div class = 'row'><div class = 'column'><img src = 'uspos/2360.bmp' width = '100%;'></div><div class = 'column'><img src = 'category3/CS3.png' width = '70%;'></div></div>","null","pos","CS","CS","3","category3/CS3.png","","","","",""
"","html-keyboard-response","58","370404","0.0-6.0-4.0-0.10","o90va6hemg","one_one","1","direct_first","1","rt08an17","0","22","1","1","3","1","","0","1","0","null","","","<div class = 'row'><div class = 'column'><img src = 'category4/CS5.png' width = '70%;'></div><div class = 'column'><img src = 'usneg/9635.2.bmp' width = '100%;'></div></div>","null","neg","CS","CS","4","category4/CS5.png","","","","",""
"","html-keyboard-response","59","372909","0.0-6.0-4.0-0.11","o90va6hemg","one_one","1","direct_first","1","rt08an17","0","22","1","1","3","1","","0","1","0","null","","","<div class = 'row'><div class = 'column'><img src = 'category2/CS3.png' width = '70%;'></div><div class = 'column'><img src = 'usneg/9421.bmp' width = '100%;'></div></div>","null","neg","CS","CS","2","category2/CS3.png","","","","",""
"","html-keyboard-response","60","375419","0.0-6.0-4.0-0.12","o90va6hemg","one_one","1","direct_first","1","rt08an17","0","22","1","1","3","1","","0","1","0","null","","","<div class = 'row'><div class = 'column'><img src = 'category3/CS3.png' width = '70%;'></div><div class = 'column'><img src = 'uspos/2360.bmp' width = '100%;'></div></div>","null","pos","CS","CS","3","category3/CS3.png","","","","",""
"","html-keyboard-response","61","377924","0.0-6.0-4.0-0.13","o90va6hemg","one_one","1","direct_first","1","rt08an17","0","22","1","1","3","1","","0","1","0","null","","","<div class = 'row'><div class = 'column'><img src = 'category1/CS8.png' width = '70%;'></div><div class = 'column'><img src = 'uspos/2165.bmp' width = '100%;'></div></div>","null","pos","CS","CS","1","category1/CS8.png","","","","",""
"","html-keyboard-response","62","380436","0.0-6.0-4.0-0.14","o90va6hemg","one_one","1","direct_first","1","rt08an17","0","22","1","1","3","1","","0","1","0","null","","","<div class = 'row'><div class = 'column'><img src = 'usneg/9421.bmp' width = '100%;'></div><div class = 'column'><img src = 'category2/CS3.png' width = '70%;'></div></div>","null","neg","CS","CS","2","category2/CS3.png","","","","",""
"","html-keyboard-response","63","382945","0.0-6.0-4.0-0.15","o90va6hemg","one_one","1","direct_first","1","rt08an17","0","22","1","1","3","1","","0","1","0","null","","","<div class = 'row'><div class = 'column'><img src = 'category1/CS8.png' width = '70%;'></div><div class = 'column'><img src = 'uspos/2165.bmp' width = '100%;'></div></div>","null","pos","CS","CS","1","category1/CS8.png","","","","",""
"","html-keyboard-response","64","385454","0.0-6.0-4.0-0.16","o90va6hemg","one_one","1","direct_first","1","rt08an17","0","22","1","1","3","1","","0","1","0","null","","","<div class = 'row'><div class = 'column'><img src = 'category2/CS3.png' width = '70%;'></div><div class = 'column'><img src = 'usneg/9421.bmp' width = '100%;'></div></div>","null","neg","CS","CS","2","category2/CS3.png","","","","",""
"","html-keyboard-response","65","387962","0.0-6.0-4.0-0.17","o90va6hemg","one_one","1","direct_first","1","rt08an17","0","22","1","1","3","1","","0","1","0","null","","","<div class = 'row'><div class = 'column'><img src = 'uspos/2360.bmp' width = '100%;'></div><div class = 'column'><img src = 'category3/CS3.png' width = '70%;'></div></div>","null","pos","CS","CS","3","category3/CS3.png","","","","",""
"","html-keyboard-response","66","390469","0.0-6.0-4.0-0.18","o90va6hemg","one_one","1","direct_first","1","rt08an17","0","22","1","1","3","1","","0","1","0","null","","","<div class = 'row'><div class = 'column'><img src = 'usneg/9635.2.bmp' width = '100%;'></div><div class = 'column'><img src = 'category4/CS5.png' width = '70%;'></div></div>","null","neg","CS","CS","4","category4/CS5.png","","","","",""
"","html-keyboard-response","67","392982","0.0-6.0-4.0-0.19","o90va6hemg","one_one","1","direct_first","1","rt08an17","0","22","1","1","3","1","","0","1","0","null","","","<div class = 'row'><div class = 'column'><img src = 'category2/CS3.png' width = '70%;'></div><div class = 'column'><img src = 'usneg/9421.bmp' width = '100%;'></div></div>","null","neg","CS","CS","2","category2/CS3.png","","","","",""
"","survey-html-form","68","395965","0.0-6.0-5.0","o90va6hemg","one_one","1","direct_first","1","rt08an17","0","22","1","1","3","1","","0","1","0","2478.624999988824","","{}","","","","","","","","","","","",""
"","html-keyboard-response","69","399990","0.0-6.0-6.0-0.0","o90va6hemg","one_one","1","direct_first","1","rt08an17","0","22","1","1","3","1","","0","1","0","null","","","<div class = 'row'><div class = 'column'><img src = 'usneg/9635.2.bmp' width = '100%;'></div><div class = 'column'><img src = 'category4/CS5.png' width = '70%;'></div></div>","null","neg","CS","CS","4","category4/CS5.png","","","","",""
"","html-keyboard-response","70","402498","0.0-6.0-6.0-0.1","o90va6hemg","one_one","1","direct_first","1","rt08an17","0","22","1","1","3","1","","0","1","0","null","","","<div class = 'row'><div class = 'column'><img src = 'uspos/2360.bmp' width = '100%;'></div><div class = 'column'><img src = 'category3/CS3.png' width = '70%;'></div></div>","null","pos","CS","CS","3","category3/CS3.png","","","","",""
"","html-keyboard-response","71","405006","0.0-6.0-6.0-0.2","o90va6hemg","one_one","1","direct_first","1","rt08an17","0","22","1","1","3","1","","0","1","0","null","","","<div class = 'row'><div class = 'column'><img src = 'category1/CS8.png' width = '70%;'></div><div class = 'column'><img src = 'uspos/2165.bmp' width = '100%;'></div></div>","null","pos","CS","CS","1","category1/CS8.png","","","","",""
"","html-keyboard-response","72","407514","0.0-6.0-6.0-0.3","o90va6hemg","one_one","1","direct_first","1","rt08an17","0","22","1","1","3","1","","0","1","0","null","","","<div class = 'row'><div class = 'column'><img src = 'uspos/2360.bmp' width = '100%;'></div><div class = 'column'><img src = 'category3/CS3.png' width = '70%;'></div></div>","null","pos","CS","CS","3","category3/CS3.png","","","","",""
"","html-keyboard-response","73","410024","0.0-6.0-6.0-0.4","o90va6hemg","one_one","1","direct_first","1","rt08an17","0","22","1","1","3","1","","0","1","0","null","","","<div class = 'row'><div class = 'column'><img src = 'category4/CS5.png' width = '70%;'></div><div class = 'column'><img src = 'usneg/9635.2.bmp' width = '100%;'></div></div>","null","neg","CS","CS","4","category4/CS5.png","","","","",""
"","html-keyboard-response","74","412533","0.0-6.0-6.0-0.5","o90va6hemg","one_one","1","direct_first","1","rt08an17","0","22","1","1","3","1","","0","1","0","null","","","<div class = 'row'><div class = 'column'><img src = 'usneg/9421.bmp' width = '100%;'></div><div class = 'column'><img src = 'category2/CS3.png' width = '70%;'></div></div>","null","neg","CS","CS","2","category2/CS3.png","","","","",""
"","html-keyboard-response","75","415041","0.0-6.0-6.0-0.6","o90va6hemg","one_one","1","direct_first","1","rt08an17","0","22","1","1","3","1","","0","1","0","null","","","<div class = 'row'><div class = 'column'><img src = 'usneg/9635.2.bmp' width = '100%;'></div><div class = 'column'><img src = 'category4/CS5.png' width = '70%;'></div></div>","null","neg","CS","CS","4","category4/CS5.png","","","","",""
"","html-keyboard-response","76","417549","0.0-6.0-6.0-0.7","o90va6hemg","one_one","1","direct_first","1","rt08an17","0","22","1","1","3","1","","0","1","0","null","","","<div class = 'row'><div class = 'column'><img src = 'uspos/2165.bmp' width = '100%;'></div><div class = 'column'><img src = 'category1/CS8.png' width = '70%;'></div></div>","null","pos","CS","CS","1","category1/CS8.png","","","","",""
"","html-keyboard-response","77","420057","0.0-6.0-6.0-0.8","o90va6hemg","one_one","1","direct_first","1","rt08an17","0","22","1","1","3","1","","0","1","0","null","","","<div class = 'row'><div class = 'column'><img src = 'category4/CS5.png' width = '70%;'></div><div class = 'column'><img src = 'usneg/9635.2.bmp' width = '100%;'></div></div>","null","neg","CS","CS","4","category4/CS5.png","","","","",""
"","html-keyboard-response","78","422566","0.0-6.0-6.0-0.9","o90va6hemg","one_one","1","direct_first","1","rt08an17","0","22","1","1","3","1","","0","1","0","null","","","<div class = 'row'><div class = 'column'><img src = 'category3/CS3.png' width = '70%;'></div><div class = 'column'><img src = 'uspos/2360.bmp' width = '100%;'></div></div>","null","pos","CS","CS","3","category3/CS3.png","","","","",""
"","html-keyboard-response","79","425073","0.0-6.0-6.0-0.10","o90va6hemg","one_one","1","direct_first","1","rt08an17","0","22","1","1","3","1","","0","1","0","null","","","<div class = 'row'><div class = 'column'><img src = 'usneg/9421.bmp' width = '100%;'></div><div class = 'column'><img src = 'category2/CS3.png' width = '70%;'></div></div>","null","neg","CS","CS","2","category2/CS3.png","","","","",""
"","html-keyboard-response","80","427583","0.0-6.0-6.0-0.11","o90va6hemg","one_one","1","direct_first","1","rt08an17","0","22","1","1","3","1","","0","1","0","null","","","<div class = 'row'><div class = 'column'><img src = 'uspos/2165.bmp' width = '100%;'></div><div class = 'column'><img src = 'category1/CS8.png' width = '70%;'></div></div>","null","pos","CS","CS","1","category1/CS8.png","","","","",""
"","html-keyboard-response","81","430092","0.0-6.0-6.0-0.12","o90va6hemg","one_one","1","direct_first","1","rt08an17","0","22","1","1","3","1","","0","1","0","null","","","<div class = 'row'><div class = 'column'><img src = 'usneg/9421.bmp' width = '100%;'></div><div class = 'column'><img src = 'category2/CS3.png' width = '70%;'></div></div>","null","neg","CS","CS","2","category2/CS3.png","","","","",""
"","html-keyboard-response","82","432602","0.0-6.0-6.0-0.13","o90va6hemg","one_one","1","direct_first","1","rt08an17","0","22","1","1","3","1","","0","1","0","null","","","<div class = 'row'><div class = 'column'><img src = 'usneg/9635.2.bmp' width = '100%;'></div><div class = 'column'><img src = 'category4/CS5.png' width = '70%;'></div></div>","null","neg","CS","CS","4","category4/CS5.png","","","","",""
"","html-keyboard-response","83","435107","0.0-6.0-6.0-0.14","o90va6hemg","one_one","1","direct_first","1","rt08an17","0","22","1","1","3","1","","0","1","0","null","","","<div class = 'row'><div class = 'column'><img src = 'usneg/9421.bmp' width = '100%;'></div><div class = 'column'><img src = 'category2/CS3.png' width = '70%;'></div></div>","null","neg","CS","CS","2","category2/CS3.png","","","","",""
"","html-keyboard-response","84","437610","0.0-6.0-6.0-0.15","o90va6hemg","one_one","1","direct_first","1","rt08an17","0","22","1","1","3","1","","0","1","0","null","","","<div class = 'row'><div class = 'column'><img src = 'category3/CS3.png' width = '70%;'></div><div class = 'column'><img src = 'uspos/2360.bmp' width = '100%;'></div></div>","null","pos","CS","CS","3","category3/CS3.png","","","","",""
"","html-keyboard-response","85","440115","0.0-6.0-6.0-0.16","o90va6hemg","one_one","1","direct_first","1","rt08an17","0","22","1","1","3","1","","0","1","0","null","","","<div class = 'row'><div class = 'column'><img src = 'category1/CS8.png' width = '70%;'></div><div class = 'column'><img src = 'uspos/2165.bmp' width = '100%;'></div></div>","null","pos","CS","CS","1","category1/CS8.png","","","","",""
"","html-keyboard-response","86","442619","0.0-6.0-6.0-0.17","o90va6hemg","one_one","1","direct_first","1","rt08an17","0","22","1","1","3","1","","0","1","0","null","","","<div class = 'row'><div class = 'column'><img src = 'uspos/2360.bmp' width = '100%;'></div><div class = 'column'><img src = 'category3/CS3.png' width = '70%;'></div></div>","null","pos","CS","CS","3","category3/CS3.png","","","","",""
"","html-keyboard-response","87","445124","0.0-6.0-6.0-0.18","o90va6hemg","one_one","1","direct_first","1","rt08an17","0","22","1","1","3","1","","0","1","0","null","","","<div class = 'row'><div class = 'column'><img src = 'uspos/2165.bmp' width = '100%;'></div><div class = 'column'><img src = 'category1/CS8.png' width = '70%;'></div></div>","null","pos","CS","CS","1","category1/CS8.png","","","","",""
"","html-keyboard-response","88","447633","0.0-6.0-6.0-0.19","o90va6hemg","one_one","1","direct_first","1","rt08an17","0","22","1","1","3","1","","0","1","0","null","","","<div class = 'row'><div class = 'column'><img src = 'category2/CS3.png' width = '70%;'></div><div class = 'column'><img src = 'usneg/9421.bmp' width = '100%;'></div></div>","null","neg","CS","CS","2","category2/CS3.png","","","","",""
"","survey-html-form","89","458355","0.0-7.0","o90va6hemg","one_one","1","direct_first","1","rt08an17","0","22","1","1","3","1","","0","1","0","10219.389999751002","","{}","","","","","","","","","","","",""
"","image-slider-response","90","467242","0.0-8.0-0.0","o90va6hemg","one_one","1","direct_first","1","rt08an17","0","22","1","1","3","1","","0","1","0","6881.200000178069","","","","","pos","GS","GSold","3","category3/CS8.png","-35","targets/46.png","direct","",""
"","image-slider-response","91","473288","0.0-8.0-0.1","o90va6hemg","one_one","1","direct_first","1","rt08an17","0","22","1","1","3","1","","0","1","0","6043.434999883175","","","","","neg","GS","GSnew","2","category2/GS3.png","-25","targets/9.png","direct","",""
"","image-slider-response","92","478368","0.0-8.0-0.2","o90va6hemg","one_one","1","direct_first","1","rt08an17","0","22","1","1","3","1","","0","1","0","5077.820000238717","","","","","neg","GS","abstract","2","category2/men.png","-64","targets/33.png","direct","",""
"","image-slider-response","93","483185","0.0-8.0-0.3","o90va6hemg","one_one","1","direct_first","1","rt08an17","0","22","1","1","3","1","","0","1","0","4814.8500001989305","","","","","neg","GS","GSnew","2","category2/GS2.png","-65","targets/13.png","direct","",""
"","image-slider-response","94","486760","0.0-8.0-0.4","o90va6hemg","one_one","1","direct_first","1","rt08an17","0","22","1","1","3","1","","0","1","0","3572.5500001572073","","","","","neg","GS","GSold","2","category2/CS6.png","-65","targets/18.png","direct","",""
"","image-slider-response","95","490920","0.0-8.0-0.5","o90va6hemg","one_one","1","direct_first","1","rt08an17","0","22","1","1","3","1","","0","1","0","4156.964999623597","","","","","neg","GS","GSold","2","category2/CS10.png","19","targets/12.png","direct","",""
"","image-slider-response","96","494383","0.0-8.0-0.6","o90va6hemg","one_one","1","direct_first","1","rt08an17","0","22","1","1","3","1","","0","1","0","3460.650000255555","","","","","pos","GS","GSold","3","category3/CS7.png","31","targets/22.png","direct","",""
"","image-slider-response","97","497815","0.0-8.0-0.7","o90va6hemg","one_one","1","direct_first","1","rt08an17","0","22","1","1","3","1","","0","1","0","3429.999999701977","","","","","neg","GS","GSold","2","category2/CS8.png","51","targets/40.png","direct","",""
"","image-slider-response","98","502232","0.0-8.0-0.8","o90va6hemg","one_one","1","direct_first","1","rt08an17","0","22","1","1","3","1","","0","1","0","4414.665000047535","","","","","neg","GS","GSold","4","category4/CS2.png","5","targets/37.png","direct","",""
"","image-slider-response","99","506070","0.0-8.0-0.9","o90va6hemg","one_one","1","direct_first","1","rt08an17","0","22","1","1","3","1","","0","1","0","3835.7950001955032","","","","","neg","CS","CS","2","category2/CS3.png","12","targets/15.png","direct","",""
"","image-slider-response","100","509765","0.0-8.0-0.10","o90va6hemg","one_one","1","direct_first","1","rt08an17","0","22","1","1","3","1","","0","1","0","3690.340000204742","","","","","neg","GS","GSold","4","category4/CS7.png","-11","targets/17.png","direct","",""
"","image-slider-response","101","514843","0.0-8.0-0.11","o90va6hemg","one_one","1","direct_first","1","rt08an17","0","22","1","1","3","1","","0","1","0","5075.654999818653","","","","","pos","GS","GSnew","3","category3/GS1.png","29","targets/43.png","direct","",""
"","image-slider-response","102","525311","0.0-8.0-0.12","o90va6hemg","one_one","1","direct_first","1","rt08an17","0","22","1","1","3","1","","0","1","0","10465.654999949038","","","","","pos","GS","GSold","1","category1/CS1.png","-38","targets/6.png","direct","",""
"","image-slider-response","103","530133","0.0-8.0-0.13","o90va6hemg","one_one","1","direct_first","1","rt08an17","0","22","1","1","3","1","","0","1","0","4819.035000167787","","","","","pos","GS","GSnew","1","category1/GS3.png","59","targets/44.png","direct","",""
"","image-slider-response","104","534004","0.0-8.0-0.14","o90va6hemg","one_one","1","direct_first","1","rt08an17","0","22","1","1","3","1","","0","1","0","3868.5800000093877","","","","","pos","GS","GSnew","3","category3/GS2.png","-12","targets/19.png","direct","",""
"","image-slider-response","105","536875","0.0-8.0-0.15","o90va6hemg","one_one","1","direct_first","1","rt08an17","0","22","1","1","3","1","","0","1","0","2868.5200000181794","","","","","neg","GS","GSnew","4","category4/GS2.png","35","targets/42.png","direct","",""
"","image-slider-response","106","542495","0.0-8.0-0.16","o90va6hemg","one_one","1","direct_first","1","rt08an17","0","22","1","1","3","1","","0","1","0","5618.604999966919","","","","","pos","GS","GSold","1","category1/CS3.png","1","targets/1.png","direct","",""
"","image-slider-response","107","545794","0.0-8.0-0.17","o90va6hemg","one_one","1","direct_first","1","rt08an17","0","22","1","1","3","1","","0","1","0","3296.275000087917","","","","","pos","GS","GSnew","3","category3/GS3.png","65","targets/10.png","direct","",""
"","image-slider-response","108","550556","0.0-8.0-0.18","o90va6hemg","one_one","1","direct_first","1","rt08an17","0","22","1","1","3","1","","0","1","0","4759.984999895096","","","","","neg","CS","CS","4","category4/CS5.png","-46","targets/34.png","direct","",""
"","image-slider-response","109","553712","0.0-8.0-0.19","o90va6hemg","one_one","1","direct_first","1","rt08an17","0","22","1","1","3","1","","0","1","0","3153.4349997527897","","","","","pos","GS","abstract","1","category1/ma.png","-16","targets/4.png","direct","",""
"","image-slider-response","110","557101","0.0-8.0-0.20","o90va6hemg","one_one","1","direct_first","1","rt08an17","0","22","1","1","3","1","","0","1","0","3386.9750001467764","","","","","pos","GS","abstract","3","category3/wang.png","66","targets/36.png","direct","",""
"","image-slider-response","111","560574","0.0-8.0-0.21","o90va6hemg","one_one","1","direct_first","1","rt08an17","0","22","1","1","3","1","","0","1","0","3471.2849999777973","","","","","neg","GS","abstract","4","category4/lin.png","71","targets/24.png","direct","",""
"","image-slider-response","112","563446","0.0-8.0-0.22","o90va6hemg","one_one","1","direct_first","1","rt08an17","0","22","1","1","3","1","","0","1","0","2869.3699999712408","","","","","neg","GS","GSnew","4","category4/GS1.png","37","targets/39.png","direct","",""
"","image-slider-response","113","566308","0.0-8.0-0.23","o90va6hemg","one_one","1","direct_first","1","rt08an17","0","22","1","1","3","1","","0","1","0","2859.940000344068","","","","","pos","CS","CS","1","category1/CS8.png","-13","targets/32.png","direct","",""
"","image-slider-response","114","570925","0.0-8.0-0.24","o90va6hemg","one_one","1","direct_first","1","rt08an17","0","22","1","1","3","1","","0","1","0","4614.790000021458","","","","","pos","GS","GSnew","1","category1/GS2.png","-23","targets/48.png","direct","",""
"","image-slider-response","115","573691","0.0-8.0-0.25","o90va6hemg","one_one","1","direct_first","1","rt08an17","0","22","1","1","3","1","","0","1","0","2763.2200000807643","","","","","pos","GS","GSnew","1","category1/GS1.png","-18","targets/41.png","direct","",""
"","image-slider-response","116","576718","0.0-8.0-0.26","o90va6hemg","one_one","1","direct_first","1","rt08an17","0","22","1","1","3","1","","0","1","0","3024.3250001221895","","","","","pos","GS","GSold","1","category1/CS4.png","-12","targets/5.png","direct","",""
"","image-slider-response","117","579964","0.0-8.0-0.27","o90va6hemg","one_one","1","direct_first","1","rt08an17","0","22","1","1","3","1","","0","1","0","3244.979999959469","","","","","neg","GS","GSold","4","category4/CS8.png","15","targets/2.png","direct","",""
"","image-slider-response","118","585412","0.0-8.0-0.28","o90va6hemg","one_one","1","direct_first","1","rt08an17","0","22","1","1","3","1","","0","1","0","5445.300000254065","","","","","neg","GS","GSnew","4","category4/GS3.png","48","targets/27.png","direct","",""
"","image-slider-response","119","588921","0.0-8.0-0.29","o90va6hemg","one_one","1","direct_first","1","rt08an17","0","22","1","1","3","1","","0","1","0","3506.8299998529255","","","","","pos","GS","GSold","3","category3/CS1.png","28","targets/16.png","direct","",""
"","image-slider-response","120","592287","0.0-8.0-0.30","o90va6hemg","one_one","1","direct_first","1","rt08an17","0","22","1","1","3","1","","0","1","0","3363.86499973014","","","","","neg","GS","GSnew","2","category2/GS1.png","-25","targets/21.png","direct","",""
"","image-slider-response","121","596384","0.0-8.0-0.31","o90va6hemg","one_one","1","direct_first","1","rt08an17","0","22","1","1","3","1","","0","1","0","4093.66500005126","","","","","pos","CS","CS","3","category3/CS3.png","70","targets/30.png","direct","",""
"","html-keyboard-response","122","623044","0.0-9.0","o90va6hemg","one_one","1","direct_first","1","rt08an17","0","22","1","1","3","1","","0","1","0","26655.220000073314","","","<p>Sie sehen nun die chinesischen Zeichen nur ganz kurz. Danach sehen Sie die jeweilige Aussprache der Zeichen als Silbe auf dem Bildschrim. Ihre Aufgabe ist es, für jede Silbe anzugeben, ob diese etwas angenehmes, oder unangenehmes bedeuten könnte. Verlassen Sie sich hier vor allem auf Ihre Intuition.<br><br>Die Zeichen werden nur zur Orientierung dargestellt, beachten Sie sie deshalb nicht. Konzentrieren Sie sich vor allem auf die Silben. <br>Reagieren Sie mit folgenden zwei Tasten: <br><br><b>'D' </b> wenn die Silbe etwas <b>unangenehmes</b> bedeuten könnte. <br><b>'K'</b> wenn die Silbe etwas <b>angenehmes</b> bedeuten könnte. <br><br>Bitte legen Sie nun den Zeigefinger der linken Hand auf die Taste 'D' und den Zeigefinger der rechten Hand auf die Taste 'K'. <br>Reagieren Sie auf jede Silbe so schnell wie möglich. Uns interessiert Ihre spontane Reaktion. <br> <br> <br>Drücken Sie 'D' oder 'K', um die nächste Aufgabe zu starten. </p>","68","","","","","","","","","",""
"","html-keyboard-response","123","626050","0.0-10.0-0.0","o90va6hemg","one_one","1","direct_first","1","rt08an17","0","22","1","1","3","1","","0","1","0","null","","","<div style=""font-size:60px;"">+</div>","null","","","","","","","","","",""
"","html-keyboard-response","124","626145","0.0-10.0-1.0","o90va6hemg","one_one","1","direct_first","1","rt08an17","0","22","1","1","3","1","","0","1","0","null","","","<img src = 'category4/CS8.png' width = '100%;'>","null","","","","","","","","","",""
"","html-keyboard-response","125","626405","0.0-10.0-2.0","o90va6hemg","one_one","1","direct_first","1","rt08an17","0","22","1","1","3","1","","0","1","0","null","","","<img src = 'targets/2.png' width = '100%;'>","null","","","","","","","","","",""
"","html-keyboard-response","126","630979","0.0-10.0-3.0","o90va6hemg","one_one","1","direct_first","1","rt08an17","0","22","1","1","3","1","","0","1","0","4572.374999988824","","","<img src = 'targets/mask.png' width = '100%;'>","68","neg","GS","GSold","4","category4/CS8.png","","targets/2.png","indirect","0","0"
"","html-keyboard-response","127","632489","0.0-10.0-0.1","o90va6hemg","one_one","1","direct_first","1","rt08an17","0","22","1","1","3","1","","0","1","0","null","","","<div style=""font-size:60px;"">+</div>","null","","","","","","","","","",""
"","html-keyboard-response","128","632582","0.0-10.0-1.1","o90va6hemg","one_one","1","direct_first","1","rt08an17","0","22","1","1","3","1","","0","1","0","null","","","<img src = 'category4/CS2.png' width = '100%;'>","null","","","","","","","","","",""
"","html-keyboard-response","129","632838","0.0-10.0-2.1","o90va6hemg","one_one","1","direct_first","1","rt08an17","0","22","1","1","3","1","","0","1","0","null","","","<img src = 'targets/37.png' width = '100%;'>","null","","","","","","","","","",""
"","html-keyboard-response","130","634640","0.0-10.0-3.1","o90va6hemg","one_one","1","direct_first","1","rt08an17","0","22","1","1","3","1","","0","1","0","1798.990000039339","","","<img src = 'targets/mask.png' width = '100%;'>","75","neg","GS","GSold","4","category4/CS2.png","","targets/37.png","indirect","1","1"
"","html-keyboard-response","131","636150","0.0-10.0-0.2","o90va6hemg","one_one","1","direct_first","1","rt08an17","0","22","1","1","3","1","","0","1","0","null","","","<div style=""font-size:60px;"">+</div>","null","","","","","","","","","",""
"","html-keyboard-response","132","636243","0.0-10.0-1.2","o90va6hemg","one_one","1","direct_first","1","rt08an17","0","22","1","1","3","1","","0","1","0","null","","","<img src = 'category2/CS8.png' width = '100%;'>","null","","","","","","","","","",""
"","html-keyboard-response","133","636496","0.0-10.0-2.2","o90va6hemg","one_one","1","direct_first","1","rt08an17","0","22","1","1","3","1","","0","1","0","null","","","<img src = 'targets/40.png' width = '100%;'>","null","","","","","","","","","",""
"","html-keyboard-response","134","637708","0.0-10.0-3.2","o90va6hemg","one_one","1","direct_first","1","rt08an17","0","22","1","1","3","1","","0","1","0","1210.359999909997","","","<img src = 'targets/mask.png' width = '100%;'>","68","neg","GS","GSold","2","category2/CS8.png","","targets/40.png","indirect","0","2"
"","html-keyboard-response","135","639214","0.0-10.0-0.3","o90va6hemg","one_one","1","direct_first","1","rt08an17","0","22","1","1","3","1","","0","1","0","null","","","<div style=""font-size:60px;"">+</div>","null","","","","","","","","","",""
"","html-keyboard-response","136","639309","0.0-10.0-1.3","o90va6hemg","one_one","1","direct_first","1","rt08an17","0","22","1","1","3","1","","0","1","0","null","","","<img src = 'category3/CS8.png' width = '100%;'>","null","","","","","","","","","",""
"","html-keyboard-response","137","639565","0.0-10.0-2.3","o90va6hemg","one_one","1","direct_first","1","rt08an17","0","22","1","1","3","1","","0","1","0","null","","","<img src = 'targets/46.png' width = '100%;'>","null","","","","","","","","","",""
"","html-keyboard-response","138","640215","0.0-10.0-3.3","o90va6hemg","one_one","1","direct_first","1","rt08an17","0","22","1","1","3","1","","0","1","0","646.4900001883507","","","<img src = 'targets/mask.png' width = '100%;'>","75","pos","GS","GSold","3","category3/CS8.png","","targets/46.png","indirect","1","3"
"","html-keyboard-response","139","641723","0.0-10.0-0.4","o90va6hemg","one_one","1","direct_first","1","rt08an17","0","22","1","1","3","1","","0","1","0","null","","","<div style=""font-size:60px;"">+</div>","null","","","","","","","","","",""
"","html-keyboard-response","140","641815","0.0-10.0-1.4","o90va6hemg","one_one","1","direct_first","1","rt08an17","0","22","1","1","3","1","","0","1","0","null","","","<img src = 'category2/CS10.png' width = '100%;'>","null","","","","","","","","","",""
"","html-keyboard-response","141","642074","0.0-10.0-2.4","o90va6hemg","one_one","1","direct_first","1","rt08an17","0","22","1","1","3","1","","0","1","0","null","","","<img src = 'targets/12.png' width = '100%;'>","null","","","","","","","","","",""
"","html-keyboard-response","142","642701","0.0-10.0-3.4","o90va6hemg","one_one","1","direct_first","1","rt08an17","0","22","1","1","3","1","","0","1","0","624.4149999693036","","","<img src = 'targets/mask.png' width = '100%;'>","75","neg","GS","GSold","2","category2/CS10.png","","targets/12.png","indirect","1","4"
"","html-keyboard-response","143","644209","0.0-10.0-0.5","o90va6hemg","one_one","1","direct_first","1","rt08an17","0","22","1","1","3","1","","0","1","0","null","","","<div style=""font-size:60px;"">+</div>","null","","","","","","","","","",""
"","html-keyboard-response","144","644303","0.0-10.0-1.5","o90va6hemg","one_one","1","direct_first","1","rt08an17","0","22","1","1","3","1","","0","1","0","null","","","<img src = 'category2/CS6.png' width = '100%;'>","null","","","","","","","","","",""
"","html-keyboard-response","145","644558","0.0-10.0-2.5","o90va6hemg","one_one","1","direct_first","1","rt08an17","0","22","1","1","3","1","","0","1","0","null","","","<img src = 'targets/18.png' width = '100%;'>","null","","","","","","","","","",""
"","html-keyboard-response","146","645476","0.0-10.0-3.5","o90va6hemg","one_one","1","direct_first","1","rt08an17","0","22","1","1","3","1","","0","1","0","916.5150001645088","","","<img src = 'targets/mask.png' width = '100%;'>","68","neg","GS","GSold","2","category2/CS6.png","","targets/18.png","indirect","0","5"
"","html-keyboard-response","147","646984","0.0-10.0-0.6","o90va6hemg","one_one","1","direct_first","1","rt08an17","0","22","1","1","3","1","","0","1","0","null","","","<div style=""font-size:60px;"">+</div>","null","","","","","","","","","",""
"","html-keyboard-response","148","647078","0.0-10.0-1.6","o90va6hemg","one_one","1","direct_first","1","rt08an17","0","22","1","1","3","1","","0","1","0","null","","","<img src = 'category3/CS3.png' width = '100%;'>","null","","","","","","","","","",""
"","html-keyboard-response","149","647334","0.0-10.0-2.6","o90va6hemg","one_one","1","direct_first","1","rt08an17","0","22","1","1","3","1","","0","1","0","null","","","<img src = 'targets/30.png' width = '100%;'>","null","","","","","","","","","",""
"","html-keyboard-response","150","648217","0.0-10.0-3.6","o90va6hemg","one_one","1","direct_first","1","rt08an17","0","22","1","1","3","1","","0","1","0","879.0199998766184","","","<img src = 'targets/mask.png' width = '100%;'>","75","pos","CS","CS","3","category3/CS3.png","","targets/30.png","indirect","1","6"
"","html-keyboard-response","151","649723","0.0-10.0-0.7","o90va6hemg","one_one","1","direct_first","1","rt08an17","0","22","1","1","3","1","","0","1","0","null","","","<div style=""font-size:60px;"">+</div>","null","","","","","","","","","",""
"","html-keyboard-response","152","649819","0.0-10.0-1.7","o90va6hemg","one_one","1","direct_first","1","rt08an17","0","22","1","1","3","1","","0","1","0","null","","","<img src = 'category4/CS7.png' width = '100%;'>","null","","","","","","","","","",""
"","html-keyboard-response","153","650074","0.0-10.0-2.7","o90va6hemg","one_one","1","direct_first","1","rt08an17","0","22","1","1","3","1","","0","1","0","null","","","<img src = 'targets/17.png' width = '100%;'>","null","","","","","","","","","",""
"","html-keyboard-response","154","650750","0.0-10.0-3.7","o90va6hemg","one_one","1","direct_first","1","rt08an17","0","22","1","1","3","1","","0","1","0","672.8100003674626","","","<img src = 'targets/mask.png' width = '100%;'>","68","neg","GS","GSold","4","category4/CS7.png","","targets/17.png","indirect","0","7"
"","html-keyboard-response","155","652254","0.0-10.0-0.8","o90va6hemg","one_one","1","direct_first","1","rt08an17","0","22","1","1","3","1","","0","1","0","null","","","<div style=""font-size:60px;"">+</div>","null","","","","","","","","","",""
"","html-keyboard-response","156","652349","0.0-10.0-1.8","o90va6hemg","one_one","1","direct_first","1","rt08an17","0","22","1","1","3","1","","0","1","0","null","","","<img src = 'category1/CS4.png' width = '100%;'>","null","","","","","","","","","",""
"","html-keyboard-response","157","652602","0.0-10.0-2.8","o90va6hemg","one_one","1","direct_first","1","rt08an17","0","22","1","1","3","1","","0","1","0","null","","","<img src = 'targets/5.png' width = '100%;'>","null","","","","","","","","","",""
"","html-keyboard-response","158","653835","0.0-10.0-3.8","o90va6hemg","one_one","1","direct_first","1","rt08an17","0","22","1","1","3","1","","0","1","0","1230.1049996167421","","","<img src = 'targets/mask.png' width = '100%;'>","68","pos","GS","GSold","1","category1/CS4.png","","targets/5.png","indirect","0","8"
"","html-keyboard-response","159","655342","0.0-10.0-0.9","o90va6hemg","one_one","1","direct_first","1","rt08an17","0","22","1","1","3","1","","0","1","0","null","","","<div style=""font-size:60px;"">+</div>","null","","","","","","","","","",""
"","html-keyboard-response","160","655436","0.0-10.0-1.9","o90va6hemg","one_one","1","direct_first","1","rt08an17","0","22","1","1","3","1","","0","1","0","null","","","<img src = 'category2/CS3.png' width = '100%;'>","null","","","","","","","","","",""
"","html-keyboard-response","161","655690","0.0-10.0-2.9","o90va6hemg","one_one","1","direct_first","1","rt08an17","0","22","1","1","3","1","","0","1","0","null","","","<img src = 'targets/15.png' width = '100%;'>","null","","","","","","","","","",""
"","html-keyboard-response","162","657476","0.0-10.0-3.9","o90va6hemg","one_one","1","direct_first","1","rt08an17","0","22","1","1","3","1","","0","1","0","1783.7499999441206","","","<img src = 'targets/mask.png' width = '100%;'>","75","neg","CS","CS","2","category2/CS3.png","","targets/15.png","indirect","1","9"
"","html-keyboard-response","163","658982","0.0-10.0-0.10","o90va6hemg","one_one","1","direct_first","1","rt08an17","0","22","1","1","3","1","","0","1","0","null","","","<div style=""font-size:60px;"">+</div>","null","","","","","","","","","",""
"","html-keyboard-response","164","659076","0.0-10.0-1.10","o90va6hemg","one_one","1","direct_first","1","rt08an17","0","22","1","1","3","1","","0","1","0","null","","","<img src = 'category1/CS3.png' width = '100%;'>","null","","","","","","","","","",""
"","html-keyboard-response","165","659335","0.0-10.0-2.10","o90va6hemg","one_one","1","direct_first","1","rt08an17","0","22","1","1","3","1","","0","1","0","null","","","<img src = 'targets/1.png' width = '100%;'>","null","","","","","","","","","",""
"","html-keyboard-response","166","661273","0.0-10.0-3.10","o90va6hemg","one_one","1","direct_first","1","rt08an17","0","22","1","1","3","1","","0","1","0","1934.569999575615","","","<img src = 'targets/mask.png' width = '100%;'>","75","pos","GS","GSold","1","category1/CS3.png","","targets/1.png","indirect","1","10"
"","html-keyboard-response","167","662782","0.0-10.0-0.11","o90va6hemg","one_one","1","direct_first","1","rt08an17","0","22","1","1","3","1","","0","1","0","null","","","<div style=""font-size:60px;"">+</div>","null","","","","","","","","","",""
"","html-keyboard-response","168","662876","0.0-10.0-1.11","o90va6hemg","one_one","1","direct_first","1","rt08an17","0","22","1","1","3","1","","0","1","0","null","","","<img src = 'category3/CS7.png' width = '100%;'>","null","","","","","","","","","",""
"","html-keyboard-response","169","663132","0.0-10.0-2.11","o90va6hemg","one_one","1","direct_first","1","rt08an17","0","22","1","1","3","1","","0","1","0","null","","","<img src = 'targets/22.png' width = '100%;'>","null","","","","","","","","","",""
"","html-keyboard-response","170","663720","0.0-10.0-3.11","o90va6hemg","one_one","1","direct_first","1","rt08an17","0","22","1","1","3","1","","0","1","0","585.4799998924136","","","<img src = 'targets/mask.png' width = '100%;'>","75","pos","GS","GSold","3","category3/CS7.png","","targets/22.png","indirect","1","11"
"","html-keyboard-response","171","665224","0.0-10.0-0.12","o90va6hemg","one_one","1","direct_first","1","rt08an17","0","22","1","1","3","1","","0","1","0","null","","","<div style=""font-size:60px;"">+</div>","null","","","","","","","","","",""
"","html-keyboard-response","172","665318","0.0-10.0-1.12","o90va6hemg","one_one","1","direct_first","1","rt08an17","0","22","1","1","3","1","","0","1","0","null","","","<img src = 'category3/CS1.png' width = '100%;'>","null","","","","","","","","","",""
"","html-keyboard-response","173","665574","0.0-10.0-2.12","o90va6hemg","one_one","1","direct_first","1","rt08an17","0","22","1","1","3","1","","0","1","0","null","","","<img src = 'targets/16.png' width = '100%;'>","null","","","","","","","","","",""
"","html-keyboard-response","174","666355","0.0-10.0-3.12","o90va6hemg","one_one","1","direct_first","1","rt08an17","0","22","1","1","3","1","","0","1","0","779.7300000675023","","","<img src = 'targets/mask.png' width = '100%;'>","68","pos","GS","GSold","3","category3/CS1.png","","targets/16.png","indirect","0","12"
"","html-keyboard-response","175","667862","0.0-10.0-0.13","o90va6hemg","one_one","1","direct_first","1","rt08an17","0","22","1","1","3","1","","0","1","0","null","","","<div style=""font-size:60px;"">+</div>","null","","","","","","","","","",""
"","html-keyboard-response","176","667956","0.0-10.0-1.13","o90va6hemg","one_one","1","direct_first","1","rt08an17","0","22","1","1","3","1","","0","1","0","null","","","<img src = 'category1/CS1.png' width = '100%;'>","null","","","","","","","","","",""
"","html-keyboard-response","177","668224","0.0-10.0-2.13","o90va6hemg","one_one","1","direct_first","1","rt08an17","0","22","1","1","3","1","","0","1","0","null","","","<img src = 'targets/6.png' width = '100%;'>","null","","","","","","","","","",""
"","html-keyboard-response","178","669321","0.0-10.0-3.13","o90va6hemg","one_one","1","direct_first","1","rt08an17","0","22","1","1","3","1","","0","1","0","1095.4499999061227","","","<img src = 'targets/mask.png' width = '100%;'>","68","pos","GS","GSold","1","category1/CS1.png","","targets/6.png","indirect","0","13"
"","html-keyboard-response","179","670826","0.0-10.0-0.14","o90va6hemg","one_one","1","direct_first","1","rt08an17","0","22","1","1","3","1","","0","1","0","null","","","<div style=""font-size:60px;"">+</div>","null","","","","","","","","","",""
"","html-keyboard-response","180","670923","0.0-10.0-1.14","o90va6hemg","one_one","1","direct_first","1","rt08an17","0","22","1","1","3","1","","0","1","0","null","","","<img src = 'category4/CS5.png' width = '100%;'>","null","","","","","","","","","",""
"","html-keyboard-response","181","671183","0.0-10.0-2.14","o90va6hemg","one_one","1","direct_first","1","rt08an17","0","22","1","1","3","1","","0","1","0","null","","","<img src = 'targets/34.png' width = '100%;'>","null","","","","","","","","","",""
"","html-keyboard-response","182","671594","0.0-10.0-3.14","o90va6hemg","one_one","1","direct_first","1","rt08an17","0","22","1","1","3","1","","0","1","0","408.01999997347593","","","<img src = 'targets/mask.png' width = '100%;'>","75","neg","CS","CS","4","category4/CS5.png","","targets/34.png","indirect","1","14"
"","html-keyboard-response","183","673098","0.0-10.0-0.15","o90va6hemg","one_one","1","direct_first","1","rt08an17","0","22","1","1","3","1","","0","1","0","null","","","<div style=""font-size:60px;"">+</div>","null","","","","","","","","","",""
"","html-keyboard-response","184","673194","0.0-10.0-1.15","o90va6hemg","one_one","1","direct_first","1","rt08an17","0","22","1","1","3","1","","0","1","0","null","","","<img src = 'category1/CS8.png' width = '100%;'>","null","","","","","","","","","",""
"","html-keyboard-response","185","673451","0.0-10.0-2.15","o90va6hemg","one_one","1","direct_first","1","rt08an17","0","22","1","1","3","1","","0","1","0","null","","","<img src = 'targets/32.png' width = '100%;'>","null","","","","","","","","","",""
"","html-keyboard-response","186","674505","0.0-10.0-3.15","o90va6hemg","one_one","1","direct_first","1","rt08an17","0","22","1","1","3","1","","0","1","0","1052.3850000463426","","","<img src = 'targets/mask.png' width = '100%;'>","68","pos","CS","CS","1","category1/CS8.png","","targets/32.png","indirect","0","15"
"","survey-html-form","187","676933","0.0-11.0","o90va6hemg","one_one","1","direct_first","1","rt08an17","0","22","1","1","3","1","","0","1","0","1923.1600002385676","","{}","","","","","","","","","","","",""
"","html-keyboard-response","188","679938","0.0-12.0-0.0","o90va6hemg","one_one","1","direct_first","1","rt08an17","0","22","1","1","3","1","","0","1","0","null","","","<div style=""font-size:60px;"">+</div>","null","","","","","","","","","",""
"","html-keyboard-response","189","680034","0.0-12.0-1.0","o90va6hemg","one_one","1","direct_first","1","rt08an17","0","22","1","1","3","1","","0","1","0","null","","","<img src = 'category4/lin.png' width = '100%;'>","null","","","","","","","","","",""
"","html-keyboard-response","190","680291","0.0-12.0-2.0","o90va6hemg","one_one","1","direct_first","1","rt08an17","0","22","1","1","3","1","","0","1","0","null","","","<img src = 'targets/24.png' width = '100%;'>","null","","","","","","","","","",""
"","html-keyboard-response","191","681229","0.0-12.0-3.0","o90va6hemg","one_one","1","direct_first","1","rt08an17","0","22","1","1","3","1","","0","1","0","933.784999884665","","","<img src = 'targets/mask.png' width = '100%;'>","68","neg","GS","abstract","4","category4/lin.png","","targets/24.png","indirect","0","16"
"","html-keyboard-response","192","682734","0.0-12.0-0.1","o90va6hemg","one_one","1","direct_first","1","rt08an17","0","22","1","1","3","1","","0","1","0","null","","","<div style=""font-size:60px;"">+</div>","null","","","","","","","","","",""
"","html-keyboard-response","193","682831","0.0-12.0-1.1","o90va6hemg","one_one","1","direct_first","1","rt08an17","0","22","1","1","3","1","","0","1","0","null","","","<img src = 'category3/GS1.png' width = '100%;'>","null","","","","","","","","","",""
"","html-keyboard-response","194","683084","0.0-12.0-2.1","o90va6hemg","one_one","1","direct_first","1","rt08an17","0","22","1","1","3","1","","0","1","0","null","","","<img src = 'targets/43.png' width = '100%;'>","null","","","","","","","","","",""
"","html-keyboard-response","195","683917","0.0-12.0-3.1","o90va6hemg","one_one","1","direct_first","1","rt08an17","0","22","1","1","3","1","","0","1","0","831.014999654144","","","<img src = 'targets/mask.png' width = '100%;'>","68","pos","GS","GSnew","3","category3/GS1.png","","targets/43.png","indirect","0","17"
"","html-keyboard-response","196","685423","0.0-12.0-0.2","o90va6hemg","one_one","1","direct_first","1","rt08an17","0","22","1","1","3","1","","0","1","0","null","","","<div style=""font-size:60px;"">+</div>","null","","","","","","","","","",""
"","html-keyboard-response","197","685515","0.0-12.0-1.2","o90va6hemg","one_one","1","direct_first","1","rt08an17","0","22","1","1","3","1","","0","1","0","null","","","<img src = 'category3/wang.png' width = '100%;'>","null","","","","","","","","","",""
"","html-keyboard-response","198","685771","0.0-12.0-2.2","o90va6hemg","one_one","1","direct_first","1","rt08an17","0","22","1","1","3","1","","0","1","0","null","","","<img src = 'targets/36.png' width = '100%;'>","null","","","","","","","","","",""
"","html-keyboard-response","199","686539","0.0-12.0-3.2","o90va6hemg","one_one","1","direct_first","1","rt08an17","0","22","1","1","3","1","","0","1","0","766.2100000306964","","","<img src = 'targets/mask.png' width = '100%;'>","75","pos","GS","abstract","3","category3/wang.png","","targets/36.png","indirect","1","18"
"","html-keyboard-response","200","688047","0.0-12.0-0.3","o90va6hemg","one_one","1","direct_first","1","rt08an17","0","22","1","1","3","1","","0","1","0","null","","","<div style=""font-size:60px;"">+</div>","null","","","","","","","","","",""
"","html-keyboard-response","201","688143","0.0-12.0-1.3","o90va6hemg","one_one","1","direct_first","1","rt08an17","0","22","1","1","3","1","","0","1","0","null","","","<img src = 'category1/GS2.png' width = '100%;'>","null","","","","","","","","","",""
"","html-keyboard-response","202","688400","0.0-12.0-2.3","o90va6hemg","one_one","1","direct_first","1","rt08an17","0","22","1","1","3","1","","0","1","0","null","","","<img src = 'targets/48.png' width = '100%;'>","null","","","","","","","","","",""
"","html-keyboard-response","203","689721","0.0-12.0-3.3","o90va6hemg","one_one","1","direct_first","1","rt08an17","0","22","1","1","3","1","","0","1","0","1319.2199999466538","","","<img src = 'targets/mask.png' width = '100%;'>","68","pos","GS","GSnew","1","category1/GS2.png","","targets/48.png","indirect","0","19"
"","html-keyboard-response","204","691230","0.0-12.0-0.4","o90va6hemg","one_one","1","direct_first","1","rt08an17","0","22","1","1","3","1","","0","1","0","null","","","<div style=""font-size:60px;"">+</div>","null","","","","","","","","","",""
"","html-keyboard-response","205","691322","0.0-12.0-1.4","o90va6hemg","one_one","1","direct_first","1","rt08an17","0","22","1","1","3","1","","0","1","0","null","","","<img src = 'category2/GS1.png' width = '100%;'>","null","","","","","","","","","",""
"","html-keyboard-response","206","691578","0.0-12.0-2.4","o90va6hemg","one_one","1","direct_first","1","rt08an17","0","22","1","1","3","1","","0","1","0","null","","","<img src = 'targets/21.png' width = '100%;'>","null","","","","","","","","","",""
"","html-keyboard-response","207","692386","0.0-12.0-3.4","o90va6hemg","one_one","1","direct_first","1","rt08an17","0","22","1","1","3","1","","0","1","0","804.0000000037253","","","<img src = 'targets/mask.png' width = '100%;'>","68","neg","GS","GSnew","2","category2/GS1.png","","targets/21.png","indirect","0","20"
"","html-keyboard-response","208","693890","0.0-12.0-0.5","o90va6hemg","one_one","1","direct_first","1","rt08an17","0","22","1","1","3","1","","0","1","0","null","","","<div style=""font-size:60px;"">+</div>","null","","","","","","","","","",""
"","html-keyboard-response","209","693986","0.0-12.0-1.5","o90va6hemg","one_one","1","direct_first","1","rt08an17","0","22","1","1","3","1","","0","1","0","null","","","<img src = 'category1/GS3.png' width = '100%;'>","null","","","","","","","","","",""
"","html-keyboard-response","210","694242","0.0-12.0-2.5","o90va6hemg","one_one","1","direct_first","1","rt08an17","0","22","1","1","3","1","","0","1","0","null","","","<img src = 'targets/44.png' width = '100%;'>","null","","","","","","","","","",""
"","html-keyboard-response","211","694812","0.0-12.0-3.5","o90va6hemg","one_one","1","direct_first","1","rt08an17","0","22","1","1","3","1","","0","1","0","567.6899999380112","","","<img src = 'targets/mask.png' width = '100%;'>","75","pos","GS","GSnew","1","category1/GS3.png","","targets/44.png","indirect","1","21"
"","html-keyboard-response","212","696319","0.0-12.0-0.6","o90va6hemg","one_one","1","direct_first","1","rt08an17","0","22","1","1","3","1","","0","1","0","null","","","<div style=""font-size:60px;"">+</div>","null","","","","","","","","","",""
"","html-keyboard-response","213","696414","0.0-12.0-1.6","o90va6hemg","one_one","1","direct_first","1","rt08an17","0","22","1","1","3","1","","0","1","0","null","","","<img src = 'category4/GS3.png' width = '100%;'>","null","","","","","","","","","",""
"","html-keyboard-response","214","696674","0.0-12.0-2.6","o90va6hemg","one_one","1","direct_first","1","rt08an17","0","22","1","1","3","1","","0","1","0","null","","","<img src = 'targets/27.png' width = '100%;'>","null","","","","","","","","","",""
"","html-keyboard-response","215","697359","0.0-12.0-3.6","o90va6hemg","one_one","1","direct_first","1","rt08an17","0","22","1","1","3","1","","0","1","0","683.249999769032","","","<img src = 'targets/mask.png' width = '100%;'>","75","neg","GS","GSnew","4","category4/GS3.png","","targets/27.png","indirect","1","22"
"","html-keyboard-response","216","698864","0.0-12.0-0.7","o90va6hemg","one_one","1","direct_first","1","rt08an17","0","22","1","1","3","1","","0","1","0","null","","","<div style=""font-size:60px;"">+</div>","null","","","","","","","","","",""
"","html-keyboard-response","217","698958","0.0-12.0-1.7","o90va6hemg","one_one","1","direct_first","1","rt08an17","0","22","1","1","3","1","","0","1","0","null","","","<img src = 'category4/GS1.png' width = '100%;'>","null","","","","","","","","","",""
"","html-keyboard-response","218","699215","0.0-12.0-2.7","o90va6hemg","one_one","1","direct_first","1","rt08an17","0","22","1","1","3","1","","0","1","0","null","","","<img src = 'targets/39.png' width = '100%;'>","null","","","","","","","","","",""
"","html-keyboard-response","219","700003","0.0-12.0-3.7","o90va6hemg","one_one","1","direct_first","1","rt08an17","0","22","1","1","3","1","","0","1","0","785.6350000947714","","","<img src = 'targets/mask.png' width = '100%;'>","68","neg","GS","GSnew","4","category4/GS1.png","","targets/39.png","indirect","0","23"
"","html-keyboard-response","220","701507","0.0-12.0-0.8","o90va6hemg","one_one","1","direct_first","1","rt08an17","0","22","1","1","3","1","","0","1","0","null","","","<div style=""font-size:60px;"">+</div>","null","","","","","","","","","",""
"","html-keyboard-response","221","701599","0.0-12.0-1.8","o90va6hemg","one_one","1","direct_first","1","rt08an17","0","22","1","1","3","1","","0","1","0","null","","","<img src = 'category2/GS3.png' width = '100%;'>","null","","","","","","","","","",""
"","html-keyboard-response","222","701854","0.0-12.0-2.8","o90va6hemg","one_one","1","direct_first","1","rt08an17","0","22","1","1","3","1","","0","1","0","null","","","<img src = 'targets/9.png' width = '100%;'>","null","","","","","","","","","",""
"","html-keyboard-response","223","702516","0.0-12.0-3.8","o90va6hemg","one_one","1","direct_first","1","rt08an17","0","22","1","1","3","1","","0","1","0","659.3800000846386","","","<img src = 'targets/mask.png' width = '100%;'>","75","neg","GS","GSnew","2","category2/GS3.png","","targets/9.png","indirect","1","24"
"","html-keyboard-response","224","704019","0.0-12.0-0.9","o90va6hemg","one_one","1","direct_first","1","rt08an17","0","22","1","1","3","1","","0","1","0","null","","","<div style=""font-size:60px;"">+</div>","null","","","","","","","","","",""
"","html-keyboard-response","225","704115","0.0-12.0-1.9","o90va6hemg","one_one","1","direct_first","1","rt08an17","0","22","1","1","3","1","","0","1","0","null","","","<img src = 'category1/GS1.png' width = '100%;'>","null","","","","","","","","","",""
"","html-keyboard-response","226","704374","0.0-12.0-2.9","o90va6hemg","one_one","1","direct_first","1","rt08an17","0","22","1","1","3","1","","0","1","0","null","","","<img src = 'targets/41.png' width = '100%;'>","null","","","","","","","","","",""
"","html-keyboard-response","227","705449","0.0-12.0-3.9","o90va6hemg","one_one","1","direct_first","1","rt08an17","0","22","1","1","3","1","","0","1","0","1072.6299998350441","","","<img src = 'targets/mask.png' width = '100%;'>","68","pos","GS","GSnew","1","category1/GS1.png","","targets/41.png","indirect","0","25"
"","html-keyboard-response","228","706954","0.0-12.0-0.10","o90va6hemg","one_one","1","direct_first","1","rt08an17","0","22","1","1","3","1","","0","1","0","null","","","<div style=""font-size:60px;"">+</div>","null","","","","","","","","","",""
"","html-keyboard-response","229","707048","0.0-12.0-1.10","o90va6hemg","one_one","1","direct_first","1","rt08an17","0","22","1","1","3","1","","0","1","0","null","","","<img src = 'category2/men.png' width = '100%;'>","null","","","","","","","","","",""
"","html-keyboard-response","230","707309","0.0-12.0-2.10","o90va6hemg","one_one","1","direct_first","1","rt08an17","0","22","1","1","3","1","","0","1","0","null","","","<img src = 'targets/33.png' width = '100%;'>","null","","","","","","","","","",""
"","html-keyboard-response","231","707889","0.0-12.0-3.10","o90va6hemg","one_one","1","direct_first","1","rt08an17","0","22","1","1","3","1","","0","1","0","578.2550000585616","","","<img src = 'targets/mask.png' width = '100%;'>","75","neg","GS","abstract","2","category2/men.png","","targets/33.png","indirect","1","26"
"","html-keyboard-response","232","709397","0.0-12.0-0.11","o90va6hemg","one_one","1","direct_first","1","rt08an17","0","22","1","1","3","1","","0","1","0","null","","","<div style=""font-size:60px;"">+</div>","null","","","","","","","","","",""
"","html-keyboard-response","233","709491","0.0-12.0-1.11","o90va6hemg","one_one","1","direct_first","1","rt08an17","0","22","1","1","3","1","","0","1","0","null","","","<img src = 'category4/GS2.png' width = '100%;'>","null","","","","","","","","","",""
"","html-keyboard-response","234","709747","0.0-12.0-2.11","o90va6hemg","one_one","1","direct_first","1","rt08an17","0","22","1","1","3","1","","0","1","0","null","","","<img src = 'targets/42.png' width = '100%;'>","null","","","","","","","","","",""
"","html-keyboard-response","235","710256","0.0-12.0-3.11","o90va6hemg","one_one","1","direct_first","1","rt08an17","0","22","1","1","3","1","","0","1","0","507.6049999333918","","","<img src = 'targets/mask.png' width = '100%;'>","75","neg","GS","GSnew","4","category4/GS2.png","","targets/42.png","indirect","1","27"
"","html-keyboard-response","236","711761","0.0-12.0-0.12","o90va6hemg","one_one","1","direct_first","1","rt08an17","0","22","1","1","3","1","","0","1","0","null","","","<div style=""font-size:60px;"">+</div>","null","","","","","","","","","",""
"","html-keyboard-response","237","711855","0.0-12.0-1.12","o90va6hemg","one_one","1","direct_first","1","rt08an17","0","22","1","1","3","1","","0","1","0","null","","","<img src = 'category3/GS3.png' width = '100%;'>","null","","","","","","","","","",""
"","html-keyboard-response","238","712114","0.0-12.0-2.12","o90va6hemg","one_one","1","direct_first","1","rt08an17","0","22","1","1","3","1","","0","1","0","null","","","<img src = 'targets/10.png' width = '100%;'>","null","","","","","","","","","",""
"","html-keyboard-response","239","712965","0.0-12.0-3.12","o90va6hemg","one_one","1","direct_first","1","rt08an17","0","22","1","1","3","1","","0","1","0","848.6299999058247","","","<img src = 'targets/mask.png' width = '100%;'>","68","pos","GS","GSnew","3","category3/GS3.png","","targets/10.png","indirect","0","28"
"","html-keyboard-response","240","714470","0.0-12.0-0.13","o90va6hemg","one_one","1","direct_first","1","rt08an17","0","22","1","1","3","1","","0","1","0","null","","","<div style=""font-size:60px;"">+</div>","null","","","","","","","","","",""
"","html-keyboard-response","241","714561","0.0-12.0-1.13","o90va6hemg","one_one","1","direct_first","1","rt08an17","0","22","1","1","3","1","","0","1","0","null","","","<img src = 'category2/GS2.png' width = '100%;'>","null","","","","","","","","","",""
"","html-keyboard-response","242","714818","0.0-12.0-2.13","o90va6hemg","one_one","1","direct_first","1","rt08an17","0","22","1","1","3","1","","0","1","0","null","","","<img src = 'targets/13.png' width = '100%;'>","null","","","","","","","","","",""
"","html-keyboard-response","243","715274","0.0-12.0-3.13","o90va6hemg","one_one","1","direct_first","1","rt08an17","0","22","1","1","3","1","","0","1","0","453.86500004678965","","","<img src = 'targets/mask.png' width = '100%;'>","75","neg","GS","GSnew","2","category2/GS2.png","","targets/13.png","indirect","1","29"
"","html-keyboard-response","244","716780","0.0-12.0-0.14","o90va6hemg","one_one","1","direct_first","1","rt08an17","0","22","1","1","3","1","","0","1","0","null","","","<div style=""font-size:60px;"">+</div>","null","","","","","","","","","",""
"","html-keyboard-response","245","716874","0.0-12.0-1.14","o90va6hemg","one_one","1","direct_first","1","rt08an17","0","22","1","1","3","1","","0","1","0","null","","","<img src = 'category1/ma.png' width = '100%;'>","null","","","","","","","","","",""
"","html-keyboard-response","246","717132","0.0-12.0-2.14","o90va6hemg","one_one","1","direct_first","1","rt08an17","0","22","1","1","3","1","","0","1","0","null","","","<img src = 'targets/4.png' width = '100%;'>","null","","","","","","","","","",""
"","html-keyboard-response","247","717708","0.0-12.0-3.14","o90va6hemg","one_one","1","direct_first","1","rt08an17","0","22","1","1","3","1","","0","1","0","573.8300001248717","","","<img src = 'targets/mask.png' width = '100%;'>","68","pos","GS","abstract","1","category1/ma.png","","targets/4.png","indirect","0","30"
"","html-keyboard-response","248","719212","0.0-12.0-0.15","o90va6hemg","one_one","1","direct_first","1","rt08an17","0","22","1","1","3","1","","0","1","0","null","","","<div style=""font-size:60px;"">+</div>","null","","","","","","","","","",""
"","html-keyboard-response","249","719308","0.0-12.0-1.15","o90va6hemg","one_one","1","direct_first","1","rt08an17","0","22","1","1","3","1","","0","1","0","null","","","<img src = 'category3/GS2.png' width = '100%;'>","null","","","","","","","","","",""
"","html-keyboard-response","250","719562","0.0-12.0-2.15","o90va6hemg","one_one","1","direct_first","1","rt08an17","0","22","1","1","3","1","","0","1","0","null","","","<img src = 'targets/19.png' width = '100%;'>","null","","","","","","","","","",""
"","html-keyboard-response","251","720160","0.0-12.0-3.15","o90va6hemg","one_one","1","direct_first","1","rt08an17","0","22","1","1","3","1","","0","1","0","594.5350001566112","","","<img src = 'targets/mask.png' width = '100%;'>","75","pos","GS","GSnew","3","category3/GS2.png","","targets/19.png","indirect","1","31"
"","survey-html-form","252","726171","0.0-13.0","o90va6hemg","one_one","1","direct_first","1","rt08an17","0","22","1","1","3","1","","0","1","0","5505.755000282079","","{}","","","","","","","","","","","",""
"","image-slider-response","253","733346","0.0-14.0-0.0","o90va6hemg","one_one","1","direct_first","1","rt08an17","0","22","1","1","3","1","","0","1","0","6167.485000099987","","","","","neg","All","all","2","category2/men_all.png","-19","","all","",""
"","image-slider-response","254","737637","0.0-14.0-0.1","o90va6hemg","one_one","1","direct_first","1","rt08an17","0","22","1","1","3","1","","0","1","0","4284.524999558926","","","","","pos","All","all","1","category1/ma_all.png","-16","","all","",""
"","image-slider-response","255","741681","0.0-14.0-0.2","o90va6hemg","one_one","1","direct_first","1","rt08an17","0","22","1","1","3","1","","0","1","0","4039.1199998557568","","","","","neg","All","all","4","category4/lin_all.png","33","","all","",""
"","image-slider-response","256","744977","0.0-14.0-0.3","o90va6hemg","one_one","1","direct_first","1","rt08an17","0","22","1","1","3","1","","0","1","0","3290.9349999390543","","","","","pos","All","all","3","category3/wang_all.png","56","","all","",""
"","survey-text","257","748770","0.0-15.0","o90va6hemg","one_one","1","direct_first","1","rt08an17","0","22","1","1","3","1","","0","1","0","3730.2850000560284","","{""comment"":""""}","","","","","","","","","","","",""
"","survey-html-form","258","776269","0.0-16.0","o90va6hemg","one_one","1","direct_first","1","rt08an17","0","22","1","1","3","1","","0","1","0","27492.684999946505","","{""hinschauen"":""0"",""ablenkung"":""1"",""gewissenhaft"":""0""}","","","","","","","","","","","",""
