"success","trial_type","trial_index","time_elapsed","internal_node_id","subject","condition","condition_code","measure","measure_code","codeword","gender","age","education","chinese","fach","handedness","comment","hinschauen","ablenkung","gewissenhaft","rt","url","responses","stimulus","key_press","val","type","type_specific","category","cs_selected","response","target","task","indirect","nr_pres"
"true","fullscreen","0","40392","0.0-0.0","nfytngbctm","one_one","1","direct_first","1","du05en02","0","20","1","1","3","2","","0","NA","0","","","","","","","","","","","","","","",""
"","external-html","1","44499","0.0-1.0","nfytngbctm","one_one","1","direct_first","1","du05en02","0","20","1","1","3","2","","0","NA","0","4057.259999681264","text/information.html","","","","","","","","","","","","",""
"","external-html","2","49589","0.0-2.0","nfytngbctm","one_one","1","direct_first","1","du05en02","0","20","1","1","3","2","","0","NA","0","5061.209999956191","text/consent.html","","","","","","","","","","","","",""
"","survey-html-form","3","90810","0.0-3.0","nfytngbctm","one_one","1","direct_first","1","du05en02","0","20","1","1","3","2","","0","NA","0","41219.02999980375","","{""codeword_enter"":""du05en02""}","","","","","","","","","","","",""
"","survey-html-form","4","108208","0.0-4.0","nfytngbctm","one_one","1","direct_first","1","du05en02","0","20","1","1","3","2","","0","NA","0","17395.190000068396","","{""age"":""20"",""education"":""1"",""subject"":""3"",""gender"":""0"",""handedness"":""2"",""chinese"":""1""}","","","","","","","","","","","",""
"","survey-html-form","5","113258","0.0-5.0","nfytngbctm","one_one","1","direct_first","1","du05en02","0","20","1","1","3","2","","0","NA","0","5048.479999881238","","{}","","","","","","","","","","","",""
"","html-keyboard-response","6","117268","0.0-6.0-0.0-0.0","nfytngbctm","one_one","1","direct_first","1","du05en02","0","20","1","1","3","2","","0","NA","0","null","","","<div class = 'row'><div class = 'column'><img src = 'category4/CS8.png' width = '70%;'></div><div class = 'column'><img src = 'usneg/9561.bmp' width = '100%;'></div></div>","null","neg","CS","CS","4","category4/CS8.png","","","","",""
"","html-keyboard-response","7","119774","0.0-6.0-0.0-0.1","nfytngbctm","one_one","1","direct_first","1","du05en02","0","20","1","1","3","2","","0","NA","0","null","","","<div class = 'row'><div class = 'column'><img src = 'category2/CS3.png' width = '70%;'></div><div class = 'column'><img src = 'uspos/5629.bmp' width = '100%;'></div></div>","null","pos","CS","CS","2","category2/CS3.png","","","","",""
"","html-keyboard-response","8","122279","0.0-6.0-0.0-0.2","nfytngbctm","one_one","1","direct_first","1","du05en02","0","20","1","1","3","2","","0","NA","0","null","","","<div class = 'row'><div class = 'column'><img src = 'uspos/2530.bmp' width = '100%;'></div><div class = 'column'><img src = 'category3/CS3.png' width = '70%;'></div></div>","null","pos","CS","CS","3","category3/CS3.png","","","","",""
"","html-keyboard-response","9","124784","0.0-6.0-0.0-0.3","nfytngbctm","one_one","1","direct_first","1","du05en02","0","20","1","1","3","2","","0","NA","0","null","","","<div class = 'row'><div class = 'column'><img src = 'category4/CS8.png' width = '70%;'></div><div class = 'column'><img src = 'usneg/9561.bmp' width = '100%;'></div></div>","null","neg","CS","CS","4","category4/CS8.png","","","","",""
"","html-keyboard-response","10","127290","0.0-6.0-0.0-0.4","nfytngbctm","one_one","1","direct_first","1","du05en02","0","20","1","1","3","2","","0","NA","0","null","","","<div class = 'row'><div class = 'column'><img src = 'usneg/9180.bmp' width = '100%;'></div><div class = 'column'><img src = 'category1/CS9.png' width = '70%;'></div></div>","null","neg","CS","CS","1","category1/CS9.png","","","","",""
"","html-keyboard-response","11","129797","0.0-6.0-0.0-0.5","nfytngbctm","one_one","1","direct_first","1","du05en02","0","20","1","1","3","2","","0","NA","0","null","","","<div class = 'row'><div class = 'column'><img src = 'usneg/9561.bmp' width = '100%;'></div><div class = 'column'><img src = 'category4/CS8.png' width = '70%;'></div></div>","null","neg","CS","CS","4","category4/CS8.png","","","","",""
"","html-keyboard-response","12","132301","0.0-6.0-0.0-0.6","nfytngbctm","one_one","1","direct_first","1","du05en02","0","20","1","1","3","2","","0","NA","0","null","","","<div class = 'row'><div class = 'column'><img src = 'usneg/9180.bmp' width = '100%;'></div><div class = 'column'><img src = 'category1/CS9.png' width = '70%;'></div></div>","null","neg","CS","CS","1","category1/CS9.png","","","","",""
"","html-keyboard-response","13","134806","0.0-6.0-0.0-0.7","nfytngbctm","one_one","1","direct_first","1","du05en02","0","20","1","1","3","2","","0","NA","0","null","","","<div class = 'row'><div class = 'column'><img src = 'uspos/5629.bmp' width = '100%;'></div><div class = 'column'><img src = 'category2/CS3.png' width = '70%;'></div></div>","null","pos","CS","CS","2","category2/CS3.png","","","","",""
"","html-keyboard-response","14","137311","0.0-6.0-0.0-0.8","nfytngbctm","one_one","1","direct_first","1","du05en02","0","20","1","1","3","2","","0","NA","0","null","","","<div class = 'row'><div class = 'column'><img src = 'uspos/2530.bmp' width = '100%;'></div><div class = 'column'><img src = 'category3/CS3.png' width = '70%;'></div></div>","null","pos","CS","CS","3","category3/CS3.png","","","","",""
"","html-keyboard-response","15","139817","0.0-6.0-0.0-0.9","nfytngbctm","one_one","1","direct_first","1","du05en02","0","20","1","1","3","2","","0","NA","0","null","","","<div class = 'row'><div class = 'column'><img src = 'uspos/5629.bmp' width = '100%;'></div><div class = 'column'><img src = 'category2/CS3.png' width = '70%;'></div></div>","null","pos","CS","CS","2","category2/CS3.png","","","","",""
"","html-keyboard-response","16","142322","0.0-6.0-0.0-0.10","nfytngbctm","one_one","1","direct_first","1","du05en02","0","20","1","1","3","2","","0","NA","0","null","","","<div class = 'row'><div class = 'column'><img src = 'category4/CS8.png' width = '70%;'></div><div class = 'column'><img src = 'usneg/9561.bmp' width = '100%;'></div></div>","null","neg","CS","CS","4","category4/CS8.png","","","","",""
"","html-keyboard-response","17","144829","0.0-6.0-0.0-0.11","nfytngbctm","one_one","1","direct_first","1","du05en02","0","20","1","1","3","2","","0","NA","0","null","","","<div class = 'row'><div class = 'column'><img src = 'category1/CS9.png' width = '70%;'></div><div class = 'column'><img src = 'usneg/9180.bmp' width = '100%;'></div></div>","null","neg","CS","CS","1","category1/CS9.png","","","","",""
"","html-keyboard-response","18","147334","0.0-6.0-0.0-0.12","nfytngbctm","one_one","1","direct_first","1","du05en02","0","20","1","1","3","2","","0","NA","0","null","","","<div class = 'row'><div class = 'column'><img src = 'uspos/5629.bmp' width = '100%;'></div><div class = 'column'><img src = 'category2/CS3.png' width = '70%;'></div></div>","null","pos","CS","CS","2","category2/CS3.png","","","","",""
"","html-keyboard-response","19","149840","0.0-6.0-0.0-0.13","nfytngbctm","one_one","1","direct_first","1","du05en02","0","20","1","1","3","2","","0","NA","0","null","","","<div class = 'row'><div class = 'column'><img src = 'category3/CS3.png' width = '70%;'></div><div class = 'column'><img src = 'uspos/2530.bmp' width = '100%;'></div></div>","null","pos","CS","CS","3","category3/CS3.png","","","","",""
"","html-keyboard-response","20","152348","0.0-6.0-0.0-0.14","nfytngbctm","one_one","1","direct_first","1","du05en02","0","20","1","1","3","2","","0","NA","0","null","","","<div class = 'row'><div class = 'column'><img src = 'usneg/9180.bmp' width = '100%;'></div><div class = 'column'><img src = 'category1/CS9.png' width = '70%;'></div></div>","null","neg","CS","CS","1","category1/CS9.png","","","","",""
"","html-keyboard-response","21","154853","0.0-6.0-0.0-0.15","nfytngbctm","one_one","1","direct_first","1","du05en02","0","20","1","1","3","2","","0","NA","0","null","","","<div class = 'row'><div class = 'column'><img src = 'usneg/9561.bmp' width = '100%;'></div><div class = 'column'><img src = 'category4/CS8.png' width = '70%;'></div></div>","null","neg","CS","CS","4","category4/CS8.png","","","","",""
"","html-keyboard-response","22","157357","0.0-6.0-0.0-0.16","nfytngbctm","one_one","1","direct_first","1","du05en02","0","20","1","1","3","2","","0","NA","0","null","","","<div class = 'row'><div class = 'column'><img src = 'uspos/2530.bmp' width = '100%;'></div><div class = 'column'><img src = 'category3/CS3.png' width = '70%;'></div></div>","null","pos","CS","CS","3","category3/CS3.png","","","","",""
"","html-keyboard-response","23","159861","0.0-6.0-0.0-0.17","nfytngbctm","one_one","1","direct_first","1","du05en02","0","20","1","1","3","2","","0","NA","0","null","","","<div class = 'row'><div class = 'column'><img src = 'category2/CS3.png' width = '70%;'></div><div class = 'column'><img src = 'uspos/5629.bmp' width = '100%;'></div></div>","null","pos","CS","CS","2","category2/CS3.png","","","","",""
"","html-keyboard-response","24","162366","0.0-6.0-0.0-0.18","nfytngbctm","one_one","1","direct_first","1","du05en02","0","20","1","1","3","2","","0","NA","0","null","","","<div class = 'row'><div class = 'column'><img src = 'uspos/2530.bmp' width = '100%;'></div><div class = 'column'><img src = 'category3/CS3.png' width = '70%;'></div></div>","null","pos","CS","CS","3","category3/CS3.png","","","","",""
"","html-keyboard-response","25","164869","0.0-6.0-0.0-0.19","nfytngbctm","one_one","1","direct_first","1","du05en02","0","20","1","1","3","2","","0","NA","0","null","","","<div class = 'row'><div class = 'column'><img src = 'category1/CS9.png' width = '70%;'></div><div class = 'column'><img src = 'usneg/9180.bmp' width = '100%;'></div></div>","null","neg","CS","CS","1","category1/CS9.png","","","","",""
"","survey-html-form","26","167428","0.0-6.0-1.0","nfytngbctm","one_one","1","direct_first","1","du05en02","0","20","1","1","3","2","","0","NA","0","2057.4349998496473","","{}","","","","","","","","","","","",""
"","html-keyboard-response","27","171434","0.0-6.0-2.0-0.0","nfytngbctm","one_one","1","direct_first","1","du05en02","0","20","1","1","3","2","","0","NA","0","null","","","<div class = 'row'><div class = 'column'><img src = 'uspos/5629.bmp' width = '100%;'></div><div class = 'column'><img src = 'category2/CS3.png' width = '70%;'></div></div>","null","pos","CS","CS","2","category2/CS3.png","","","","",""
"","html-keyboard-response","28","173940","0.0-6.0-2.0-0.1","nfytngbctm","one_one","1","direct_first","1","du05en02","0","20","1","1","3","2","","0","NA","0","null","","","<div class = 'row'><div class = 'column'><img src = 'usneg/9561.bmp' width = '100%;'></div><div class = 'column'><img src = 'category4/CS8.png' width = '70%;'></div></div>","null","neg","CS","CS","4","category4/CS8.png","","","","",""
"","html-keyboard-response","29","176446","0.0-6.0-2.0-0.2","nfytngbctm","one_one","1","direct_first","1","du05en02","0","20","1","1","3","2","","0","NA","0","null","","","<div class = 'row'><div class = 'column'><img src = 'category2/CS3.png' width = '70%;'></div><div class = 'column'><img src = 'uspos/5629.bmp' width = '100%;'></div></div>","null","pos","CS","CS","2","category2/CS3.png","","","","",""
"","html-keyboard-response","30","178952","0.0-6.0-2.0-0.3","nfytngbctm","one_one","1","direct_first","1","du05en02","0","20","1","1","3","2","","0","NA","0","null","","","<div class = 'row'><div class = 'column'><img src = 'category1/CS9.png' width = '70%;'></div><div class = 'column'><img src = 'usneg/9180.bmp' width = '100%;'></div></div>","null","neg","CS","CS","1","category1/CS9.png","","","","",""
"","html-keyboard-response","31","181456","0.0-6.0-2.0-0.4","nfytngbctm","one_one","1","direct_first","1","du05en02","0","20","1","1","3","2","","0","NA","0","null","","","<div class = 'row'><div class = 'column'><img src = 'category2/CS3.png' width = '70%;'></div><div class = 'column'><img src = 'uspos/5629.bmp' width = '100%;'></div></div>","null","pos","CS","CS","2","category2/CS3.png","","","","",""
"","html-keyboard-response","32","183961","0.0-6.0-2.0-0.5","nfytngbctm","one_one","1","direct_first","1","du05en02","0","20","1","1","3","2","","0","NA","0","null","","","<div class = 'row'><div class = 'column'><img src = 'category3/CS3.png' width = '70%;'></div><div class = 'column'><img src = 'uspos/2530.bmp' width = '100%;'></div></div>","null","pos","CS","CS","3","category3/CS3.png","","","","",""
"","html-keyboard-response","33","186479","0.0-6.0-2.0-0.6","nfytngbctm","one_one","1","direct_first","1","du05en02","0","20","1","1","3","2","","0","NA","0","null","","","<div class = 'row'><div class = 'column'><img src = 'usneg/9561.bmp' width = '100%;'></div><div class = 'column'><img src = 'category4/CS8.png' width = '70%;'></div></div>","null","neg","CS","CS","4","category4/CS8.png","","","","",""
"","html-keyboard-response","34","188984","0.0-6.0-2.0-0.7","nfytngbctm","one_one","1","direct_first","1","du05en02","0","20","1","1","3","2","","0","NA","0","null","","","<div class = 'row'><div class = 'column'><img src = 'category3/CS3.png' width = '70%;'></div><div class = 'column'><img src = 'uspos/2530.bmp' width = '100%;'></div></div>","null","pos","CS","CS","3","category3/CS3.png","","","","",""
"","html-keyboard-response","35","191490","0.0-6.0-2.0-0.8","nfytngbctm","one_one","1","direct_first","1","du05en02","0","20","1","1","3","2","","0","NA","0","null","","","<div class = 'row'><div class = 'column'><img src = 'usneg/9180.bmp' width = '100%;'></div><div class = 'column'><img src = 'category1/CS9.png' width = '70%;'></div></div>","null","neg","CS","CS","1","category1/CS9.png","","","","",""
"","html-keyboard-response","36","193995","0.0-6.0-2.0-0.9","nfytngbctm","one_one","1","direct_first","1","du05en02","0","20","1","1","3","2","","0","NA","0","null","","","<div class = 'row'><div class = 'column'><img src = 'uspos/5629.bmp' width = '100%;'></div><div class = 'column'><img src = 'category2/CS3.png' width = '70%;'></div></div>","null","pos","CS","CS","2","category2/CS3.png","","","","",""
"","html-keyboard-response","37","196500","0.0-6.0-2.0-0.10","nfytngbctm","one_one","1","direct_first","1","du05en02","0","20","1","1","3","2","","0","NA","0","null","","","<div class = 'row'><div class = 'column'><img src = 'uspos/2530.bmp' width = '100%;'></div><div class = 'column'><img src = 'category3/CS3.png' width = '70%;'></div></div>","null","pos","CS","CS","3","category3/CS3.png","","","","",""
"","html-keyboard-response","38","199005","0.0-6.0-2.0-0.11","nfytngbctm","one_one","1","direct_first","1","du05en02","0","20","1","1","3","2","","0","NA","0","null","","","<div class = 'row'><div class = 'column'><img src = 'usneg/9561.bmp' width = '100%;'></div><div class = 'column'><img src = 'category4/CS8.png' width = '70%;'></div></div>","null","neg","CS","CS","4","category4/CS8.png","","","","",""
"","html-keyboard-response","39","201513","0.0-6.0-2.0-0.12","nfytngbctm","one_one","1","direct_first","1","du05en02","0","20","1","1","3","2","","0","NA","0","null","","","<div class = 'row'><div class = 'column'><img src = 'uspos/5629.bmp' width = '100%;'></div><div class = 'column'><img src = 'category2/CS3.png' width = '70%;'></div></div>","null","pos","CS","CS","2","category2/CS3.png","","","","",""
"","html-keyboard-response","40","204019","0.0-6.0-2.0-0.13","nfytngbctm","one_one","1","direct_first","1","du05en02","0","20","1","1","3","2","","0","NA","0","null","","","<div class = 'row'><div class = 'column'><img src = 'usneg/9180.bmp' width = '100%;'></div><div class = 'column'><img src = 'category1/CS9.png' width = '70%;'></div></div>","null","neg","CS","CS","1","category1/CS9.png","","","","",""
"","html-keyboard-response","41","206523","0.0-6.0-2.0-0.14","nfytngbctm","one_one","1","direct_first","1","du05en02","0","20","1","1","3","2","","0","NA","0","null","","","<div class = 'row'><div class = 'column'><img src = 'category4/CS8.png' width = '70%;'></div><div class = 'column'><img src = 'usneg/9561.bmp' width = '100%;'></div></div>","null","neg","CS","CS","4","category4/CS8.png","","","","",""
"","html-keyboard-response","42","209027","0.0-6.0-2.0-0.15","nfytngbctm","one_one","1","direct_first","1","du05en02","0","20","1","1","3","2","","0","NA","0","null","","","<div class = 'row'><div class = 'column'><img src = 'category3/CS3.png' width = '70%;'></div><div class = 'column'><img src = 'uspos/2530.bmp' width = '100%;'></div></div>","null","pos","CS","CS","3","category3/CS3.png","","","","",""
"","html-keyboard-response","43","211533","0.0-6.0-2.0-0.16","nfytngbctm","one_one","1","direct_first","1","du05en02","0","20","1","1","3","2","","0","NA","0","null","","","<div class = 'row'><div class = 'column'><img src = 'usneg/9180.bmp' width = '100%;'></div><div class = 'column'><img src = 'category1/CS9.png' width = '70%;'></div></div>","null","neg","CS","CS","1","category1/CS9.png","","","","",""
"","html-keyboard-response","44","214037","0.0-6.0-2.0-0.17","nfytngbctm","one_one","1","direct_first","1","du05en02","0","20","1","1","3","2","","0","NA","0","null","","","<div class = 'row'><div class = 'column'><img src = 'usneg/9561.bmp' width = '100%;'></div><div class = 'column'><img src = 'category4/CS8.png' width = '70%;'></div></div>","null","neg","CS","CS","4","category4/CS8.png","","","","",""
"","html-keyboard-response","45","216541","0.0-6.0-2.0-0.18","nfytngbctm","one_one","1","direct_first","1","du05en02","0","20","1","1","3","2","","0","NA","0","null","","","<div class = 'row'><div class = 'column'><img src = 'uspos/2530.bmp' width = '100%;'></div><div class = 'column'><img src = 'category3/CS3.png' width = '70%;'></div></div>","null","pos","CS","CS","3","category3/CS3.png","","","","",""
"","html-keyboard-response","46","219047","0.0-6.0-2.0-0.19","nfytngbctm","one_one","1","direct_first","1","du05en02","0","20","1","1","3","2","","0","NA","0","null","","","<div class = 'row'><div class = 'column'><img src = 'usneg/9180.bmp' width = '100%;'></div><div class = 'column'><img src = 'category1/CS9.png' width = '70%;'></div></div>","null","neg","CS","CS","1","category1/CS9.png","","","","",""
"","survey-html-form","47","220580","0.0-6.0-3.0","nfytngbctm","one_one","1","direct_first","1","du05en02","0","20","1","1","3","2","","0","NA","0","1031.16500005126","","{}","","","","","","","","","","","",""
"","html-keyboard-response","48","224587","0.0-6.0-4.0-0.0","nfytngbctm","one_one","1","direct_first","1","du05en02","0","20","1","1","3","2","","0","NA","0","null","","","<div class = 'row'><div class = 'column'><img src = 'category3/CS3.png' width = '70%;'></div><div class = 'column'><img src = 'uspos/2530.bmp' width = '100%;'></div></div>","null","pos","CS","CS","3","category3/CS3.png","","","","",""
"","html-keyboard-response","49","227093","0.0-6.0-4.0-0.1","nfytngbctm","one_one","1","direct_first","1","du05en02","0","20","1","1","3","2","","0","NA","0","null","","","<div class = 'row'><div class = 'column'><img src = 'uspos/5629.bmp' width = '100%;'></div><div class = 'column'><img src = 'category2/CS3.png' width = '70%;'></div></div>","null","pos","CS","CS","2","category2/CS3.png","","","","",""
"","html-keyboard-response","50","229597","0.0-6.0-4.0-0.2","nfytngbctm","one_one","1","direct_first","1","du05en02","0","20","1","1","3","2","","0","NA","0","null","","","<div class = 'row'><div class = 'column'><img src = 'usneg/9561.bmp' width = '100%;'></div><div class = 'column'><img src = 'category4/CS8.png' width = '70%;'></div></div>","null","neg","CS","CS","4","category4/CS8.png","","","","",""
"","html-keyboard-response","51","232102","0.0-6.0-4.0-0.3","nfytngbctm","one_one","1","direct_first","1","du05en02","0","20","1","1","3","2","","0","NA","0","null","","","<div class = 'row'><div class = 'column'><img src = 'category1/CS9.png' width = '70%;'></div><div class = 'column'><img src = 'usneg/9180.bmp' width = '100%;'></div></div>","null","neg","CS","CS","1","category1/CS9.png","","","","",""
"","html-keyboard-response","52","234606","0.0-6.0-4.0-0.4","nfytngbctm","one_one","1","direct_first","1","du05en02","0","20","1","1","3","2","","0","NA","0","null","","","<div class = 'row'><div class = 'column'><img src = 'category4/CS8.png' width = '70%;'></div><div class = 'column'><img src = 'usneg/9561.bmp' width = '100%;'></div></div>","null","neg","CS","CS","4","category4/CS8.png","","","","",""
"","html-keyboard-response","53","237111","0.0-6.0-4.0-0.5","nfytngbctm","one_one","1","direct_first","1","du05en02","0","20","1","1","3","2","","0","NA","0","null","","","<div class = 'row'><div class = 'column'><img src = 'category3/CS3.png' width = '70%;'></div><div class = 'column'><img src = 'uspos/2530.bmp' width = '100%;'></div></div>","null","pos","CS","CS","3","category3/CS3.png","","","","",""
"","html-keyboard-response","54","239615","0.0-6.0-4.0-0.6","nfytngbctm","one_one","1","direct_first","1","du05en02","0","20","1","1","3","2","","0","NA","0","null","","","<div class = 'row'><div class = 'column'><img src = 'category2/CS3.png' width = '70%;'></div><div class = 'column'><img src = 'uspos/5629.bmp' width = '100%;'></div></div>","null","pos","CS","CS","2","category2/CS3.png","","","","",""
"","html-keyboard-response","55","242121","0.0-6.0-4.0-0.7","nfytngbctm","one_one","1","direct_first","1","du05en02","0","20","1","1","3","2","","0","NA","0","null","","","<div class = 'row'><div class = 'column'><img src = 'category1/CS9.png' width = '70%;'></div><div class = 'column'><img src = 'usneg/9180.bmp' width = '100%;'></div></div>","null","neg","CS","CS","1","category1/CS9.png","","","","",""
"","html-keyboard-response","56","244628","0.0-6.0-4.0-0.8","nfytngbctm","one_one","1","direct_first","1","du05en02","0","20","1","1","3","2","","0","NA","0","null","","","<div class = 'row'><div class = 'column'><img src = 'uspos/5629.bmp' width = '100%;'></div><div class = 'column'><img src = 'category2/CS3.png' width = '70%;'></div></div>","null","pos","CS","CS","2","category2/CS3.png","","","","",""
"","html-keyboard-response","57","247132","0.0-6.0-4.0-0.9","nfytngbctm","one_one","1","direct_first","1","du05en02","0","20","1","1","3","2","","0","NA","0","null","","","<div class = 'row'><div class = 'column'><img src = 'usneg/9180.bmp' width = '100%;'></div><div class = 'column'><img src = 'category1/CS9.png' width = '70%;'></div></div>","null","neg","CS","CS","1","category1/CS9.png","","","","",""
"","html-keyboard-response","58","249638","0.0-6.0-4.0-0.10","nfytngbctm","one_one","1","direct_first","1","du05en02","0","20","1","1","3","2","","0","NA","0","null","","","<div class = 'row'><div class = 'column'><img src = 'category2/CS3.png' width = '70%;'></div><div class = 'column'><img src = 'uspos/5629.bmp' width = '100%;'></div></div>","null","pos","CS","CS","2","category2/CS3.png","","","","",""
"","html-keyboard-response","59","252143","0.0-6.0-4.0-0.11","nfytngbctm","one_one","1","direct_first","1","du05en02","0","20","1","1","3","2","","0","NA","0","null","","","<div class = 'row'><div class = 'column'><img src = 'category3/CS3.png' width = '70%;'></div><div class = 'column'><img src = 'uspos/2530.bmp' width = '100%;'></div></div>","null","pos","CS","CS","3","category3/CS3.png","","","","",""
"","html-keyboard-response","60","254648","0.0-6.0-4.0-0.12","nfytngbctm","one_one","1","direct_first","1","du05en02","0","20","1","1","3","2","","0","NA","0","null","","","<div class = 'row'><div class = 'column'><img src = 'usneg/9561.bmp' width = '100%;'></div><div class = 'column'><img src = 'category4/CS8.png' width = '70%;'></div></div>","null","neg","CS","CS","4","category4/CS8.png","","","","",""
"","html-keyboard-response","61","257153","0.0-6.0-4.0-0.13","nfytngbctm","one_one","1","direct_first","1","du05en02","0","20","1","1","3","2","","0","NA","0","null","","","<div class = 'row'><div class = 'column'><img src = 'category1/CS9.png' width = '70%;'></div><div class = 'column'><img src = 'usneg/9180.bmp' width = '100%;'></div></div>","null","neg","CS","CS","1","category1/CS9.png","","","","",""
"","html-keyboard-response","62","259657","0.0-6.0-4.0-0.14","nfytngbctm","one_one","1","direct_first","1","du05en02","0","20","1","1","3","2","","0","NA","0","null","","","<div class = 'row'><div class = 'column'><img src = 'usneg/9561.bmp' width = '100%;'></div><div class = 'column'><img src = 'category4/CS8.png' width = '70%;'></div></div>","null","neg","CS","CS","4","category4/CS8.png","","","","",""
"","html-keyboard-response","63","262164","0.0-6.0-4.0-0.15","nfytngbctm","one_one","1","direct_first","1","du05en02","0","20","1","1","3","2","","0","NA","0","null","","","<div class = 'row'><div class = 'column'><img src = 'uspos/2530.bmp' width = '100%;'></div><div class = 'column'><img src = 'category3/CS3.png' width = '70%;'></div></div>","null","pos","CS","CS","3","category3/CS3.png","","","","",""
"","html-keyboard-response","64","264668","0.0-6.0-4.0-0.16","nfytngbctm","one_one","1","direct_first","1","du05en02","0","20","1","1","3","2","","0","NA","0","null","","","<div class = 'row'><div class = 'column'><img src = 'category2/CS3.png' width = '70%;'></div><div class = 'column'><img src = 'uspos/5629.bmp' width = '100%;'></div></div>","null","pos","CS","CS","2","category2/CS3.png","","","","",""
"","html-keyboard-response","65","267173","0.0-6.0-4.0-0.17","nfytngbctm","one_one","1","direct_first","1","du05en02","0","20","1","1","3","2","","0","NA","0","null","","","<div class = 'row'><div class = 'column'><img src = 'category1/CS9.png' width = '70%;'></div><div class = 'column'><img src = 'usneg/9180.bmp' width = '100%;'></div></div>","null","neg","CS","CS","1","category1/CS9.png","","","","",""
"","html-keyboard-response","66","269692","0.0-6.0-4.0-0.18","nfytngbctm","one_one","1","direct_first","1","du05en02","0","20","1","1","3","2","","0","NA","0","null","","","<div class = 'row'><div class = 'column'><img src = 'usneg/9561.bmp' width = '100%;'></div><div class = 'column'><img src = 'category4/CS8.png' width = '70%;'></div></div>","null","neg","CS","CS","4","category4/CS8.png","","","","",""
"","html-keyboard-response","67","272198","0.0-6.0-4.0-0.19","nfytngbctm","one_one","1","direct_first","1","du05en02","0","20","1","1","3","2","","0","NA","0","null","","","<div class = 'row'><div class = 'column'><img src = 'category3/CS3.png' width = '70%;'></div><div class = 'column'><img src = 'uspos/2530.bmp' width = '100%;'></div></div>","null","pos","CS","CS","3","category3/CS3.png","","","","",""
"","survey-html-form","68","273977","0.0-6.0-5.0","nfytngbctm","one_one","1","direct_first","1","du05en02","0","20","1","1","3","2","","0","NA","0","1277.3249996826053","","{}","","","","","","","","","","","",""
"","html-keyboard-response","69","277987","0.0-6.0-6.0-0.0","nfytngbctm","one_one","1","direct_first","1","du05en02","0","20","1","1","3","2","","0","NA","0","null","","","<div class = 'row'><div class = 'column'><img src = 'category2/CS3.png' width = '70%;'></div><div class = 'column'><img src = 'uspos/5629.bmp' width = '100%;'></div></div>","null","pos","CS","CS","2","category2/CS3.png","","","","",""
"","html-keyboard-response","70","280491","0.0-6.0-6.0-0.1","nfytngbctm","one_one","1","direct_first","1","du05en02","0","20","1","1","3","2","","0","NA","0","null","","","<div class = 'row'><div class = 'column'><img src = 'uspos/2530.bmp' width = '100%;'></div><div class = 'column'><img src = 'category3/CS3.png' width = '70%;'></div></div>","null","pos","CS","CS","3","category3/CS3.png","","","","",""
"","html-keyboard-response","71","282994","0.0-6.0-6.0-0.2","nfytngbctm","one_one","1","direct_first","1","du05en02","0","20","1","1","3","2","","0","NA","0","null","","","<div class = 'row'><div class = 'column'><img src = 'category4/CS8.png' width = '70%;'></div><div class = 'column'><img src = 'usneg/9561.bmp' width = '100%;'></div></div>","null","neg","CS","CS","4","category4/CS8.png","","","","",""
"","html-keyboard-response","72","285497","0.0-6.0-6.0-0.3","nfytngbctm","one_one","1","direct_first","1","du05en02","0","20","1","1","3","2","","0","NA","0","null","","","<div class = 'row'><div class = 'column'><img src = 'usneg/9180.bmp' width = '100%;'></div><div class = 'column'><img src = 'category1/CS9.png' width = '70%;'></div></div>","null","neg","CS","CS","1","category1/CS9.png","","","","",""
"","html-keyboard-response","73","288004","0.0-6.0-6.0-0.4","nfytngbctm","one_one","1","direct_first","1","du05en02","0","20","1","1","3","2","","0","NA","0","null","","","<div class = 'row'><div class = 'column'><img src = 'uspos/5629.bmp' width = '100%;'></div><div class = 'column'><img src = 'category2/CS3.png' width = '70%;'></div></div>","null","pos","CS","CS","2","category2/CS3.png","","","","",""
"","html-keyboard-response","74","290507","0.0-6.0-6.0-0.5","nfytngbctm","one_one","1","direct_first","1","du05en02","0","20","1","1","3","2","","0","NA","0","null","","","<div class = 'row'><div class = 'column'><img src = 'category3/CS3.png' width = '70%;'></div><div class = 'column'><img src = 'uspos/2530.bmp' width = '100%;'></div></div>","null","pos","CS","CS","3","category3/CS3.png","","","","",""
"","html-keyboard-response","75","293011","0.0-6.0-6.0-0.6","nfytngbctm","one_one","1","direct_first","1","du05en02","0","20","1","1","3","2","","0","NA","0","null","","","<div class = 'row'><div class = 'column'><img src = 'uspos/5629.bmp' width = '100%;'></div><div class = 'column'><img src = 'category2/CS3.png' width = '70%;'></div></div>","null","pos","CS","CS","2","category2/CS3.png","","","","",""
"","html-keyboard-response","76","295515","0.0-6.0-6.0-0.7","nfytngbctm","one_one","1","direct_first","1","du05en02","0","20","1","1","3","2","","0","NA","0","null","","","<div class = 'row'><div class = 'column'><img src = 'uspos/2530.bmp' width = '100%;'></div><div class = 'column'><img src = 'category3/CS3.png' width = '70%;'></div></div>","null","pos","CS","CS","3","category3/CS3.png","","","","",""
"","html-keyboard-response","77","298019","0.0-6.0-6.0-0.8","nfytngbctm","one_one","1","direct_first","1","du05en02","0","20","1","1","3","2","","0","NA","0","null","","","<div class = 'row'><div class = 'column'><img src = 'usneg/9180.bmp' width = '100%;'></div><div class = 'column'><img src = 'category1/CS9.png' width = '70%;'></div></div>","null","neg","CS","CS","1","category1/CS9.png","","","","",""
"","html-keyboard-response","78","300525","0.0-6.0-6.0-0.9","nfytngbctm","one_one","1","direct_first","1","du05en02","0","20","1","1","3","2","","0","NA","0","null","","","<div class = 'row'><div class = 'column'><img src = 'usneg/9561.bmp' width = '100%;'></div><div class = 'column'><img src = 'category4/CS8.png' width = '70%;'></div></div>","null","neg","CS","CS","4","category4/CS8.png","","","","",""
"","html-keyboard-response","79","303030","0.0-6.0-6.0-0.10","nfytngbctm","one_one","1","direct_first","1","du05en02","0","20","1","1","3","2","","0","NA","0","null","","","<div class = 'row'><div class = 'column'><img src = 'category1/CS9.png' width = '70%;'></div><div class = 'column'><img src = 'usneg/9180.bmp' width = '100%;'></div></div>","null","neg","CS","CS","1","category1/CS9.png","","","","",""
"","html-keyboard-response","80","305533","0.0-6.0-6.0-0.11","nfytngbctm","one_one","1","direct_first","1","du05en02","0","20","1","1","3","2","","0","NA","0","null","","","<div class = 'row'><div class = 'column'><img src = 'category4/CS8.png' width = '70%;'></div><div class = 'column'><img src = 'usneg/9561.bmp' width = '100%;'></div></div>","null","neg","CS","CS","4","category4/CS8.png","","","","",""
"","html-keyboard-response","81","308040","0.0-6.0-6.0-0.12","nfytngbctm","one_one","1","direct_first","1","du05en02","0","20","1","1","3","2","","0","NA","0","null","","","<div class = 'row'><div class = 'column'><img src = 'category3/CS3.png' width = '70%;'></div><div class = 'column'><img src = 'uspos/2530.bmp' width = '100%;'></div></div>","null","pos","CS","CS","3","category3/CS3.png","","","","",""
"","html-keyboard-response","82","310546","0.0-6.0-6.0-0.13","nfytngbctm","one_one","1","direct_first","1","du05en02","0","20","1","1","3","2","","0","NA","0","null","","","<div class = 'row'><div class = 'column'><img src = 'category1/CS9.png' width = '70%;'></div><div class = 'column'><img src = 'usneg/9180.bmp' width = '100%;'></div></div>","null","neg","CS","CS","1","category1/CS9.png","","","","",""
"","html-keyboard-response","83","313052","0.0-6.0-6.0-0.14","nfytngbctm","one_one","1","direct_first","1","du05en02","0","20","1","1","3","2","","0","NA","0","null","","","<div class = 'row'><div class = 'column'><img src = 'usneg/9561.bmp' width = '100%;'></div><div class = 'column'><img src = 'category4/CS8.png' width = '70%;'></div></div>","null","neg","CS","CS","4","category4/CS8.png","","","","",""
"","html-keyboard-response","84","315555","0.0-6.0-6.0-0.15","nfytngbctm","one_one","1","direct_first","1","du05en02","0","20","1","1","3","2","","0","NA","0","null","","","<div class = 'row'><div class = 'column'><img src = 'uspos/5629.bmp' width = '100%;'></div><div class = 'column'><img src = 'category2/CS3.png' width = '70%;'></div></div>","null","pos","CS","CS","2","category2/CS3.png","","","","",""
"","html-keyboard-response","85","318063","0.0-6.0-6.0-0.16","nfytngbctm","one_one","1","direct_first","1","du05en02","0","20","1","1","3","2","","0","NA","0","null","","","<div class = 'row'><div class = 'column'><img src = 'usneg/9561.bmp' width = '100%;'></div><div class = 'column'><img src = 'category4/CS8.png' width = '70%;'></div></div>","null","neg","CS","CS","4","category4/CS8.png","","","","",""
"","html-keyboard-response","86","320568","0.0-6.0-6.0-0.17","nfytngbctm","one_one","1","direct_first","1","du05en02","0","20","1","1","3","2","","0","NA","0","null","","","<div class = 'row'><div class = 'column'><img src = 'category1/CS9.png' width = '70%;'></div><div class = 'column'><img src = 'usneg/9180.bmp' width = '100%;'></div></div>","null","neg","CS","CS","1","category1/CS9.png","","","","",""
"","html-keyboard-response","87","323073","0.0-6.0-6.0-0.18","nfytngbctm","one_one","1","direct_first","1","du05en02","0","20","1","1","3","2","","0","NA","0","null","","","<div class = 'row'><div class = 'column'><img src = 'category3/CS3.png' width = '70%;'></div><div class = 'column'><img src = 'uspos/2530.bmp' width = '100%;'></div></div>","null","pos","CS","CS","3","category3/CS3.png","","","","",""
"","html-keyboard-response","88","325578","0.0-6.0-6.0-0.19","nfytngbctm","one_one","1","direct_first","1","du05en02","0","20","1","1","3","2","","0","NA","0","null","","","<div class = 'row'><div class = 'column'><img src = 'uspos/5629.bmp' width = '100%;'></div><div class = 'column'><img src = 'category2/CS3.png' width = '70%;'></div></div>","null","pos","CS","CS","2","category2/CS3.png","","","","",""
"","survey-html-form","89","330403","0.0-7.0","nfytngbctm","one_one","1","direct_first","1","du05en02","0","20","1","1","3","2","","0","NA","0","4323.179999832064","","{}","","","","","","","","","","","",""
"","image-slider-response","90","337546","0.0-8.0-0.0","nfytngbctm","one_one","1","direct_first","1","du05en02","0","20","1","1","3","2","","0","NA","0","5136.609999928623","","","","","neg","GS","GSnew","4","category4/GS3.png","-73","targets/10.png","direct","",""
"","image-slider-response","91","342008","0.0-8.0-0.1","nfytngbctm","one_one","1","direct_first","1","du05en02","0","20","1","1","3","2","","0","NA","0","4459.979999810457","","","","","neg","GS","GSnew","1","category1/GS1.png","38","targets/1.png","direct","",""
"","image-slider-response","92","345065","0.0-8.0-0.2","nfytngbctm","one_one","1","direct_first","1","du05en02","0","20","1","1","3","2","","0","NA","0","3055.4150003008544","","","","","pos","GS","GSold","3","category3/CS10.png","12","targets/14.png","direct","",""
"","image-slider-response","93","348144","0.0-8.0-0.3","nfytngbctm","one_one","1","direct_first","1","du05en02","0","20","1","1","3","2","","0","NA","0","3077.389999758452","","","","","neg","GS","GSold","1","category1/CS4.png","24","targets/47.png","direct","",""
"","image-slider-response","94","353300","0.0-8.0-0.4","nfytngbctm","one_one","1","direct_first","1","du05en02","0","20","1","1","3","2","","0","NA","0","5153.960000257939","","","","","pos","GS","GSnew","3","category3/GS3.png","88","targets/6.png","direct","",""
"","image-slider-response","95","356022","0.0-8.0-0.5","nfytngbctm","one_one","1","direct_first","1","du05en02","0","20","1","1","3","2","","0","NA","0","2720.5449999310076","","","","","pos","GS","GSold","3","category3/CS2.png","44","targets/31.png","direct","",""
"","image-slider-response","96","358807","0.0-8.0-0.6","nfytngbctm","one_one","1","direct_first","1","du05en02","0","20","1","1","3","2","","0","NA","0","2783.4350001066923","","","","","neg","GS","GSold","1","category1/CS1.png","-31","targets/23.png","direct","",""
"","image-slider-response","97","361902","0.0-8.0-0.7","nfytngbctm","one_one","1","direct_first","1","du05en02","0","20","1","1","3","2","","0","NA","0","3092.8400000557303","","","","","neg","GS","abstract","1","category1/ma.png","-91","targets/28.png","direct","",""
"","image-slider-response","98","365281","0.0-8.0-0.8","nfytngbctm","one_one","1","direct_first","1","du05en02","0","20","1","1","3","2","","0","NA","0","3377.739999908954","","","","","pos","GS","GSold","2","category2/CS5.png","100","targets/12.png","direct","",""
"","image-slider-response","99","367880","0.0-8.0-0.9","nfytngbctm","one_one","1","direct_first","1","du05en02","0","20","1","1","3","2","","0","NA","0","2597.380000166595","","","","","pos","GS","GSold","3","category3/CS9.png","16","targets/29.png","direct","",""
"","image-slider-response","100","370604","0.0-8.0-0.10","nfytngbctm","one_one","1","direct_first","1","du05en02","0","20","1","1","3","2","","0","NA","0","2721.9899999909103","","","","","neg","GS","GSnew","1","category1/GS3.png","-66","targets/2.png","direct","",""
"","image-slider-response","101","373139","0.0-8.0-0.11","nfytngbctm","one_one","1","direct_first","1","du05en02","0","20","1","1","3","2","","0","NA","0","2533.9399999938905","","","","","pos","GS","GSnew","2","category2/GS1.png","59","targets/3.png","direct","",""
"","image-slider-response","102","376160","0.0-8.0-0.12","nfytngbctm","one_one","1","direct_first","1","du05en02","0","20","1","1","3","2","","0","NA","0","3019.35000019148","","","","","neg","GS","GSold","4","category4/CS9.png","-13","targets/15.png","direct","",""
"","image-slider-response","103","378971","0.0-8.0-0.13","nfytngbctm","one_one","1","direct_first","1","du05en02","0","20","1","1","3","2","","0","NA","0","2809.330000076443","","","","","pos","CS","CS","3","category3/CS3.png","71","targets/39.png","direct","",""
"","image-slider-response","104","383676","0.0-8.0-0.14","nfytngbctm","one_one","1","direct_first","1","du05en02","0","20","1","1","3","2","","0","NA","0","4702.589999884367","","","","","neg","GS","GSold","1","category1/CS5.png","1","targets/4.png","direct","",""
"","image-slider-response","105","386794","0.0-8.0-0.15","nfytngbctm","one_one","1","direct_first","1","du05en02","0","20","1","1","3","2","","0","NA","0","3115.825000219047","","","","","pos","GS","GSold","2","category2/CS1.png","65","targets/16.png","direct","",""
"","image-slider-response","106","390295","0.0-8.0-0.16","nfytngbctm","one_one","1","direct_first","1","du05en02","0","20","1","1","3","2","","0","NA","0","3499.7100001201034","","","","","pos","CS","CS","2","category2/CS3.png","100","targets/41.png","direct","",""
"","image-slider-response","107","393122","0.0-8.0-0.17","nfytngbctm","one_one","1","direct_first","1","du05en02","0","20","1","1","3","2","","0","NA","0","2825.0549999065697","","","","","neg","GS","GSnew","1","category1/GS2.png","-57","targets/48.png","direct","",""
"","image-slider-response","108","395868","0.0-8.0-0.18","nfytngbctm","one_one","1","direct_first","1","du05en02","0","20","1","1","3","2","","0","NA","0","2744.7299999184906","","","","","neg","GS","GSold","4","category4/CS2.png","-63","targets/11.png","direct","",""
"","image-slider-response","109","398860","0.0-8.0-0.19","nfytngbctm","one_one","1","direct_first","1","du05en02","0","20","1","1","3","2","","0","NA","0","2990.055000409484","","","","","neg","GS","GSnew","4","category4/GS2.png","-28","targets/46.png","direct","",""
"","image-slider-response","110","401569","0.0-8.0-0.20","nfytngbctm","one_one","1","direct_first","1","du05en02","0","20","1","1","3","2","","0","NA","0","2707.115000113845","","","","","neg","CS","CS","4","category4/CS8.png","-100","targets/45.png","direct","",""
"","image-slider-response","111","404248","0.0-8.0-0.21","nfytngbctm","one_one","1","direct_first","1","du05en02","0","20","1","1","3","2","","0","NA","0","2677.864999976009","","","","","neg","GS","GSold","4","category4/CS1.png","-40","targets/42.png","direct","",""
"","image-slider-response","112","406878","0.0-8.0-0.22","nfytngbctm","one_one","1","direct_first","1","du05en02","0","20","1","1","3","2","","0","NA","0","2628.2899999059737","","","","","pos","GS","GSnew","3","category3/GS2.png","-8","targets/36.png","direct","",""
"","image-slider-response","113","410278","0.0-8.0-0.23","nfytngbctm","one_one","1","direct_first","1","du05en02","0","20","1","1","3","2","","0","NA","0","3398.2400000095367","","","","","pos","GS","GSnew","2","category2/GS3.png","10","targets/34.png","direct","",""
"","image-slider-response","114","413512","0.0-8.0-0.24","nfytngbctm","one_one","1","direct_first","1","du05en02","0","20","1","1","3","2","","0","NA","0","3233.334999997169","","","","","pos","GS","abstract","2","category2/men.png","35","targets/26.png","direct","",""
"","image-slider-response","115","416730","0.0-8.0-0.25","nfytngbctm","one_one","1","direct_first","1","du05en02","0","20","1","1","3","2","","0","NA","0","3215.735000092536","","","","","pos","GS","GSold","2","category2/CS2.png","48","targets/37.png","direct","",""
"","image-slider-response","116","419685","0.0-8.0-0.26","nfytngbctm","one_one","1","direct_first","1","du05en02","0","20","1","1","3","2","","0","NA","0","2952.8899998404086","","","","","pos","GS","GSnew","3","category3/GS1.png","5","targets/27.png","direct","",""
"","image-slider-response","117","422619","0.0-8.0-0.27","nfytngbctm","one_one","1","direct_first","1","du05en02","0","20","1","1","3","2","","0","NA","0","2933.2099999301136","","","","","neg","CS","CS","1","category1/CS9.png","9","targets/13.png","direct","",""
"","image-slider-response","118","425531","0.0-8.0-0.28","nfytngbctm","one_one","1","direct_first","1","du05en02","0","20","1","1","3","2","","0","NA","0","2910.4750002734363","","","","","pos","GS","GSnew","2","category2/GS2.png","9","targets/32.png","direct","",""
"","image-slider-response","119","429091","0.0-8.0-0.29","nfytngbctm","one_one","1","direct_first","1","du05en02","0","20","1","1","3","2","","0","NA","0","3558.465000241995","","","","","pos","GS","abstract","3","category3/wang.png","47","targets/38.png","direct","",""
"","image-slider-response","120","431770","0.0-8.0-0.30","nfytngbctm","one_one","1","direct_first","1","du05en02","0","20","1","1","3","2","","0","NA","0","2677.265000063926","","","","","neg","GS","GSnew","4","category4/GS1.png","33","targets/21.png","direct","",""
"","image-slider-response","121","434377","0.0-8.0-0.31","nfytngbctm","one_one","1","direct_first","1","du05en02","0","20","1","1","3","2","","0","NA","0","2605.6999997235835","","","","","neg","GS","abstract","4","category4/lin.png","-50","targets/9.png","direct","",""
"","html-keyboard-response","122","446798","0.0-9.0","nfytngbctm","one_one","1","direct_first","1","du05en02","0","20","1","1","3","2","","0","NA","0","12418.854999821633","","","<p>Sie sehen nun die chinesischen Zeichen nur ganz kurz. Danach sehen Sie die jeweilige Aussprache der Zeichen als Silbe auf dem Bildschrim. Ihre Aufgabe ist es, für jede Silbe anzugeben, ob diese etwas angenehmes, oder unangenehmes bedeuten könnte. Verlassen Sie sich hier vor allem auf Ihre Intuition.<br><br>Die Zeichen werden nur zur Orientierung dargestellt, beachten Sie sie deshalb nicht. Konzentrieren Sie sich vor allem auf die Silben. <br>Reagieren Sie mit folgenden zwei Tasten: <br><br><b>'D' </b> wenn die Silbe etwas <b>unangenehmes</b> bedeuten könnte. <br><b>'K'</b> wenn die Silbe etwas <b>angenehmes</b> bedeuten könnte. <br><br>Bitte legen Sie nun den Zeigefinger der linken Hand auf die Taste 'D' und den Zeigefinger der rechten Hand auf die Taste 'K'. <br>Reagieren Sie auf jede Silbe so schnell wie möglich. Uns interessiert Ihre spontane Reaktion. <br> <br> <br>Drücken Sie 'D' oder 'K', um die nächste Aufgabe zu starten. </p>","68","","","","","","","","","",""
"","html-keyboard-response","123","449803","0.0-10.0-0.0","nfytngbctm","one_one","1","direct_first","1","du05en02","0","20","1","1","3","2","","0","NA","0","null","","","<div style=""font-size:60px;"">+</div>","null","","","","","","","","","",""
"","html-keyboard-response","124","449895","0.0-10.0-1.0","nfytngbctm","one_one","1","direct_first","1","du05en02","0","20","1","1","3","2","","0","NA","0","null","","","<img src = 'category2/CS3.png' width = '100%;'>","null","","","","","","","","","",""
"","html-keyboard-response","125","450150","0.0-10.0-2.0","nfytngbctm","one_one","1","direct_first","1","du05en02","0","20","1","1","3","2","","0","NA","0","null","","","<img src = 'targets/41.png' width = '100%;'>","null","","","","","","","","","",""
"","html-keyboard-response","126","450423","0.0-10.0-3.0","nfytngbctm","one_one","1","direct_first","1","du05en02","0","20","1","1","3","2","","0","NA","0","270.62000008299947","","","<img src = 'targets/mask.png' width = '100%;'>","68","pos","CS","CS","2","category2/CS3.png","","targets/41.png","indirect","0","0"
"","html-keyboard-response","127","451926","0.0-10.0-0.1","nfytngbctm","one_one","1","direct_first","1","du05en02","0","20","1","1","3","2","","0","NA","0","null","","","<div style=""font-size:60px;"">+</div>","null","","","","","","","","","",""
"","html-keyboard-response","128","452019","0.0-10.0-1.1","nfytngbctm","one_one","1","direct_first","1","du05en02","0","20","1","1","3","2","","0","NA","0","null","","","<img src = 'category3/CS9.png' width = '100%;'>","null","","","","","","","","","",""
"","html-keyboard-response","129","452273","0.0-10.0-2.1","nfytngbctm","one_one","1","direct_first","1","du05en02","0","20","1","1","3","2","","0","NA","0","null","","","<img src = 'targets/29.png' width = '100%;'>","null","","","","","","","","","",""
"","html-keyboard-response","130","452642","0.0-10.0-3.1","nfytngbctm","one_one","1","direct_first","1","du05en02","0","20","1","1","3","2","","0","NA","0","367.4499997869134","","","<img src = 'targets/mask.png' width = '100%;'>","75","pos","GS","GSold","3","category3/CS9.png","","targets/29.png","indirect","1","1"
"","html-keyboard-response","131","454145","0.0-10.0-0.2","nfytngbctm","one_one","1","direct_first","1","du05en02","0","20","1","1","3","2","","0","NA","0","null","","","<div style=""font-size:60px;"">+</div>","null","","","","","","","","","",""
"","html-keyboard-response","132","454237","0.0-10.0-1.2","nfytngbctm","one_one","1","direct_first","1","du05en02","0","20","1","1","3","2","","0","NA","0","null","","","<img src = 'category4/CS1.png' width = '100%;'>","null","","","","","","","","","",""
"","html-keyboard-response","133","454490","0.0-10.0-2.2","nfytngbctm","one_one","1","direct_first","1","du05en02","0","20","1","1","3","2","","0","NA","0","null","","","<img src = 'targets/42.png' width = '100%;'>","null","","","","","","","","","",""
"","html-keyboard-response","134","454985","0.0-10.0-3.2","nfytngbctm","one_one","1","direct_first","1","du05en02","0","20","1","1","3","2","","0","NA","0","493.4950000606477","","","<img src = 'targets/mask.png' width = '100%;'>","68","neg","GS","GSold","4","category4/CS1.png","","targets/42.png","indirect","0","2"
"","html-keyboard-response","135","456494","0.0-10.0-0.3","nfytngbctm","one_one","1","direct_first","1","du05en02","0","20","1","1","3","2","","0","NA","0","null","","","<div style=""font-size:60px;"">+</div>","null","","","","","","","","","",""
"","html-keyboard-response","136","456586","0.0-10.0-1.3","nfytngbctm","one_one","1","direct_first","1","du05en02","0","20","1","1","3","2","","0","NA","0","null","","","<img src = 'category1/CS4.png' width = '100%;'>","null","","","","","","","","","",""
"","html-keyboard-response","137","456840","0.0-10.0-2.3","nfytngbctm","one_one","1","direct_first","1","du05en02","0","20","1","1","3","2","","0","NA","0","null","","","<img src = 'targets/47.png' width = '100%;'>","null","","","","","","","","","",""
"","html-keyboard-response","138","457231","0.0-10.0-3.3","nfytngbctm","one_one","1","direct_first","1","du05en02","0","20","1","1","3","2","","0","NA","0","389.12499975413084","","","<img src = 'targets/mask.png' width = '100%;'>","68","neg","GS","GSold","1","category1/CS4.png","","targets/47.png","indirect","0","3"
"","html-keyboard-response","139","458733","0.0-10.0-0.4","nfytngbctm","one_one","1","direct_first","1","du05en02","0","20","1","1","3","2","","0","NA","0","null","","","<div style=""font-size:60px;"">+</div>","null","","","","","","","","","",""
"","html-keyboard-response","140","458826","0.0-10.0-1.4","nfytngbctm","one_one","1","direct_first","1","du05en02","0","20","1","1","3","2","","0","NA","0","null","","","<img src = 'category3/CS10.png' width = '100%;'>","null","","","","","","","","","",""
"","html-keyboard-response","141","459080","0.0-10.0-2.4","nfytngbctm","one_one","1","direct_first","1","du05en02","0","20","1","1","3","2","","0","NA","0","null","","","<img src = 'targets/14.png' width = '100%;'>","null","","","","","","","","","",""
"","html-keyboard-response","142","459508","0.0-10.0-3.4","nfytngbctm","one_one","1","direct_first","1","du05en02","0","20","1","1","3","2","","0","NA","0","426.33000016212463","","","<img src = 'targets/mask.png' width = '100%;'>","75","pos","GS","GSold","3","category3/CS10.png","","targets/14.png","indirect","1","4"
"","html-keyboard-response","143","461011","0.0-10.0-0.5","nfytngbctm","one_one","1","direct_first","1","du05en02","0","20","1","1","3","2","","0","NA","0","null","","","<div style=""font-size:60px;"">+</div>","null","","","","","","","","","",""
"","html-keyboard-response","144","461103","0.0-10.0-1.5","nfytngbctm","one_one","1","direct_first","1","du05en02","0","20","1","1","3","2","","0","NA","0","null","","","<img src = 'category4/CS9.png' width = '100%;'>","null","","","","","","","","","",""
"","html-keyboard-response","145","461355","0.0-10.0-2.5","nfytngbctm","one_one","1","direct_first","1","du05en02","0","20","1","1","3","2","","0","NA","0","null","","","<img src = 'targets/15.png' width = '100%;'>","null","","","","","","","","","",""
"","html-keyboard-response","146","461592","0.0-10.0-3.5","nfytngbctm","one_one","1","direct_first","1","du05en02","0","20","1","1","3","2","","0","NA","0","234.46499975398183","","","<img src = 'targets/mask.png' width = '100%;'>","75","neg","GS","GSold","4","category4/CS9.png","","targets/15.png","indirect","1","5"
"","html-keyboard-response","147","463099","0.0-10.0-0.6","nfytngbctm","one_one","1","direct_first","1","du05en02","0","20","1","1","3","2","","0","NA","0","null","","","<div style=""font-size:60px;"">+</div>","null","","","","","","","","","",""
"","html-keyboard-response","148","463191","0.0-10.0-1.6","nfytngbctm","one_one","1","direct_first","1","du05en02","0","20","1","1","3","2","","0","NA","0","null","","","<img src = 'category4/CS8.png' width = '100%;'>","null","","","","","","","","","",""
"","html-keyboard-response","149","463443","0.0-10.0-2.6","nfytngbctm","one_one","1","direct_first","1","du05en02","0","20","1","1","3","2","","0","NA","0","null","","","<img src = 'targets/45.png' width = '100%;'>","null","","","","","","","","","",""
"","html-keyboard-response","150","463874","0.0-10.0-3.6","nfytngbctm","one_one","1","direct_first","1","du05en02","0","20","1","1","3","2","","0","NA","0","429.040000308305","","","<img src = 'targets/mask.png' width = '100%;'>","68","neg","CS","CS","4","category4/CS8.png","","targets/45.png","indirect","0","6"
"","html-keyboard-response","151","465378","0.0-10.0-0.7","nfytngbctm","one_one","1","direct_first","1","du05en02","0","20","1","1","3","2","","0","NA","0","null","","","<div style=""font-size:60px;"">+</div>","null","","","","","","","","","",""
"","html-keyboard-response","152","465471","0.0-10.0-1.7","nfytngbctm","one_one","1","direct_first","1","du05en02","0","20","1","1","3","2","","0","NA","0","null","","","<img src = 'category1/CS9.png' width = '100%;'>","null","","","","","","","","","",""
"","html-keyboard-response","153","465723","0.0-10.0-2.7","nfytngbctm","one_one","1","direct_first","1","du05en02","0","20","1","1","3","2","","0","NA","0","null","","","<img src = 'targets/13.png' width = '100%;'>","null","","","","","","","","","",""
"","html-keyboard-response","154","466094","0.0-10.0-3.7","nfytngbctm","one_one","1","direct_first","1","du05en02","0","20","1","1","3","2","","0","NA","0","368.735000025481","","","<img src = 'targets/mask.png' width = '100%;'>","68","neg","CS","CS","1","category1/CS9.png","","targets/13.png","indirect","0","7"
"","html-keyboard-response","155","467601","0.0-10.0-0.8","nfytngbctm","one_one","1","direct_first","1","du05en02","0","20","1","1","3","2","","0","NA","0","null","","","<div style=""font-size:60px;"">+</div>","null","","","","","","","","","",""
"","html-keyboard-response","156","467694","0.0-10.0-1.8","nfytngbctm","one_one","1","direct_first","1","du05en02","0","20","1","1","3","2","","0","NA","0","null","","","<img src = 'category3/CS3.png' width = '100%;'>","null","","","","","","","","","",""
"","html-keyboard-response","157","467947","0.0-10.0-2.8","nfytngbctm","one_one","1","direct_first","1","du05en02","0","20","1","1","3","2","","0","NA","0","null","","","<img src = 'targets/39.png' width = '100%;'>","null","","","","","","","","","",""
"","html-keyboard-response","158","468273","0.0-10.0-3.8","nfytngbctm","one_one","1","direct_first","1","du05en02","0","20","1","1","3","2","","0","NA","0","323.83499993011355","","","<img src = 'targets/mask.png' width = '100%;'>","75","pos","CS","CS","3","category3/CS3.png","","targets/39.png","indirect","1","8"
"","html-keyboard-response","159","469775","0.0-10.0-0.9","nfytngbctm","one_one","1","direct_first","1","du05en02","0","20","1","1","3","2","","0","NA","0","null","","","<div style=""font-size:60px;"">+</div>","null","","","","","","","","","",""
"","html-keyboard-response","160","469866","0.0-10.0-1.9","nfytngbctm","one_one","1","direct_first","1","du05en02","0","20","1","1","3","2","","0","NA","0","null","","","<img src = 'category2/CS5.png' width = '100%;'>","null","","","","","","","","","",""
"","html-keyboard-response","161","470119","0.0-10.0-2.9","nfytngbctm","one_one","1","direct_first","1","du05en02","0","20","1","1","3","2","","0","NA","0","null","","","<img src = 'targets/12.png' width = '100%;'>","null","","","","","","","","","",""
"","html-keyboard-response","162","470426","0.0-10.0-3.9","nfytngbctm","one_one","1","direct_first","1","du05en02","0","20","1","1","3","2","","0","NA","0","305.54999969899654","","","<img src = 'targets/mask.png' width = '100%;'>","75","pos","GS","GSold","2","category2/CS5.png","","targets/12.png","indirect","1","9"
"","html-keyboard-response","163","471927","0.0-10.0-0.10","nfytngbctm","one_one","1","direct_first","1","du05en02","0","20","1","1","3","2","","0","NA","0","null","","","<div style=""font-size:60px;"">+</div>","null","","","","","","","","","",""
"","html-keyboard-response","164","472020","0.0-10.0-1.10","nfytngbctm","one_one","1","direct_first","1","du05en02","0","20","1","1","3","2","","0","NA","0","null","","","<img src = 'category4/CS2.png' width = '100%;'>","null","","","","","","","","","",""
"","html-keyboard-response","165","472273","0.0-10.0-2.10","nfytngbctm","one_one","1","direct_first","1","du05en02","0","20","1","1","3","2","","0","NA","0","null","","","<img src = 'targets/11.png' width = '100%;'>","null","","","","","","","","","",""
"","html-keyboard-response","166","472471","0.0-10.0-3.10","nfytngbctm","one_one","1","direct_first","1","du05en02","0","20","1","1","3","2","","0","NA","0","197.5849997252226","","","<img src = 'targets/mask.png' width = '100%;'>","68","neg","GS","GSold","4","category4/CS2.png","","targets/11.png","indirect","0","10"
"","html-keyboard-response","167","473974","0.0-10.0-0.11","nfytngbctm","one_one","1","direct_first","1","du05en02","0","20","1","1","3","2","","0","NA","0","null","","","<div style=""font-size:60px;"">+</div>","null","","","","","","","","","",""
"","html-keyboard-response","168","474067","0.0-10.0-1.11","nfytngbctm","one_one","1","direct_first","1","du05en02","0","20","1","1","3","2","","0","NA","0","null","","","<img src = 'category2/CS1.png' width = '100%;'>","null","","","","","","","","","",""
"","html-keyboard-response","169","474321","0.0-10.0-2.11","nfytngbctm","one_one","1","direct_first","1","du05en02","0","20","1","1","3","2","","0","NA","0","null","","","<img src = 'targets/16.png' width = '100%;'>","null","","","","","","","","","",""
"","html-keyboard-response","170","474718","0.0-10.0-3.11","nfytngbctm","one_one","1","direct_first","1","du05en02","0","20","1","1","3","2","","0","NA","0","395.2600001357496","","","<img src = 'targets/mask.png' width = '100%;'>","75","pos","GS","GSold","2","category2/CS1.png","","targets/16.png","indirect","1","11"
"","html-keyboard-response","171","476221","0.0-10.0-0.12","nfytngbctm","one_one","1","direct_first","1","du05en02","0","20","1","1","3","2","","0","NA","0","null","","","<div style=""font-size:60px;"">+</div>","null","","","","","","","","","",""
"","html-keyboard-response","172","476313","0.0-10.0-1.12","nfytngbctm","one_one","1","direct_first","1","du05en02","0","20","1","1","3","2","","0","NA","0","null","","","<img src = 'category1/CS1.png' width = '100%;'>","null","","","","","","","","","",""
"","html-keyboard-response","173","476566","0.0-10.0-2.12","nfytngbctm","one_one","1","direct_first","1","du05en02","0","20","1","1","3","2","","0","NA","0","null","","","<img src = 'targets/23.png' width = '100%;'>","null","","","","","","","","","",""
"","html-keyboard-response","174","476894","0.0-10.0-3.12","nfytngbctm","one_one","1","direct_first","1","du05en02","0","20","1","1","3","2","","0","NA","0","325.71000000461936","","","<img src = 'targets/mask.png' width = '100%;'>","68","neg","GS","GSold","1","category1/CS1.png","","targets/23.png","indirect","0","12"
"","html-keyboard-response","175","478397","0.0-10.0-0.13","nfytngbctm","one_one","1","direct_first","1","du05en02","0","20","1","1","3","2","","0","NA","0","null","","","<div style=""font-size:60px;"">+</div>","null","","","","","","","","","",""
"","html-keyboard-response","176","478490","0.0-10.0-1.13","nfytngbctm","one_one","1","direct_first","1","du05en02","0","20","1","1","3","2","","0","NA","0","null","","","<img src = 'category1/CS5.png' width = '100%;'>","null","","","","","","","","","",""
"","html-keyboard-response","177","478743","0.0-10.0-2.13","nfytngbctm","one_one","1","direct_first","1","du05en02","0","20","1","1","3","2","","0","NA","0","null","","","<img src = 'targets/4.png' width = '100%;'>","null","","","","","","","","","",""
"","html-keyboard-response","178","479031","0.0-10.0-3.13","nfytngbctm","one_one","1","direct_first","1","du05en02","0","20","1","1","3","2","","0","NA","0","286.6500001400709","","","<img src = 'targets/mask.png' width = '100%;'>","68","neg","GS","GSold","1","category1/CS5.png","","targets/4.png","indirect","0","13"
"","html-keyboard-response","179","480533","0.0-10.0-0.14","nfytngbctm","one_one","1","direct_first","1","du05en02","0","20","1","1","3","2","","0","NA","0","null","","","<div style=""font-size:60px;"">+</div>","null","","","","","","","","","",""
"","html-keyboard-response","180","480626","0.0-10.0-1.14","nfytngbctm","one_one","1","direct_first","1","du05en02","0","20","1","1","3","2","","0","NA","0","null","","","<img src = 'category2/CS2.png' width = '100%;'>","null","","","","","","","","","",""
"","html-keyboard-response","181","480879","0.0-10.0-2.14","nfytngbctm","one_one","1","direct_first","1","du05en02","0","20","1","1","3","2","","0","NA","0","null","","","<img src = 'targets/37.png' width = '100%;'>","null","","","","","","","","","",""
"","html-keyboard-response","182","481200","0.0-10.0-3.14","nfytngbctm","one_one","1","direct_first","1","du05en02","0","20","1","1","3","2","","0","NA","0","319.8799998499453","","","<img src = 'targets/mask.png' width = '100%;'>","75","pos","GS","GSold","2","category2/CS2.png","","targets/37.png","indirect","1","14"
"","html-keyboard-response","183","482703","0.0-10.0-0.15","nfytngbctm","one_one","1","direct_first","1","du05en02","0","20","1","1","3","2","","0","NA","0","null","","","<div style=""font-size:60px;"">+</div>","null","","","","","","","","","",""
"","html-keyboard-response","184","482795","0.0-10.0-1.15","nfytngbctm","one_one","1","direct_first","1","du05en02","0","20","1","1","3","2","","0","NA","0","null","","","<img src = 'category3/CS2.png' width = '100%;'>","null","","","","","","","","","",""
"","html-keyboard-response","185","483049","0.0-10.0-2.15","nfytngbctm","one_one","1","direct_first","1","du05en02","0","20","1","1","3","2","","0","NA","0","null","","","<img src = 'targets/31.png' width = '100%;'>","null","","","","","","","","","",""
"","html-keyboard-response","186","483544","0.0-10.0-3.15","nfytngbctm","one_one","1","direct_first","1","du05en02","0","20","1","1","3","2","","0","NA","0","492.46500013396144","","","<img src = 'targets/mask.png' width = '100%;'>","75","pos","GS","GSold","3","category3/CS2.png","","targets/31.png","indirect","1","15"
"","survey-html-form","187","487017","0.0-11.0","nfytngbctm","one_one","1","direct_first","1","du05en02","0","20","1","1","3","2","","0","NA","0","2970.790000166744","","{}","","","","","","","","","","","",""
"","html-keyboard-response","188","490021","0.0-12.0-0.0","nfytngbctm","one_one","1","direct_first","1","du05en02","0","20","1","1","3","2","","0","NA","0","null","","","<div style=""font-size:60px;"">+</div>","null","","","","","","","","","",""
"","html-keyboard-response","189","490114","0.0-12.0-1.0","nfytngbctm","one_one","1","direct_first","1","du05en02","0","20","1","1","3","2","","0","NA","0","null","","","<img src = 'category3/wang.png' width = '100%;'>","null","","","","","","","","","",""
"","html-keyboard-response","190","490367","0.0-12.0-2.0","nfytngbctm","one_one","1","direct_first","1","du05en02","0","20","1","1","3","2","","0","NA","0","null","","","<img src = 'targets/38.png' width = '100%;'>","null","","","","","","","","","",""
"","html-keyboard-response","191","490645","0.0-12.0-3.0","nfytngbctm","one_one","1","direct_first","1","du05en02","0","20","1","1","3","2","","0","NA","0","275.06000036373734","","","<img src = 'targets/mask.png' width = '100%;'>","75","pos","GS","abstract","3","category3/wang.png","","targets/38.png","indirect","1","16"
"","html-keyboard-response","192","492148","0.0-12.0-0.1","nfytngbctm","one_one","1","direct_first","1","du05en02","0","20","1","1","3","2","","0","NA","0","null","","","<div style=""font-size:60px;"">+</div>","null","","","","","","","","","",""
"","html-keyboard-response","193","492240","0.0-12.0-1.1","nfytngbctm","one_one","1","direct_first","1","du05en02","0","20","1","1","3","2","","0","NA","0","null","","","<img src = 'category3/GS3.png' width = '100%;'>","null","","","","","","","","","",""
"","html-keyboard-response","194","492494","0.0-12.0-2.1","nfytngbctm","one_one","1","direct_first","1","du05en02","0","20","1","1","3","2","","0","NA","0","null","","","<img src = 'targets/6.png' width = '100%;'>","null","","","","","","","","","",""
"","html-keyboard-response","195","492669","0.0-12.0-3.1","nfytngbctm","one_one","1","direct_first","1","du05en02","0","20","1","1","3","2","","0","NA","0","172.80999990180135","","","<img src = 'targets/mask.png' width = '100%;'>","75","pos","GS","GSnew","3","category3/GS3.png","","targets/6.png","indirect","1","17"
"","html-keyboard-response","196","494172","0.0-12.0-0.2","nfytngbctm","one_one","1","direct_first","1","du05en02","0","20","1","1","3","2","","0","NA","0","null","","","<div style=""font-size:60px;"">+</div>","null","","","","","","","","","",""
"","html-keyboard-response","197","494264","0.0-12.0-1.2","nfytngbctm","one_one","1","direct_first","1","du05en02","0","20","1","1","3","2","","0","NA","0","null","","","<img src = 'category4/GS1.png' width = '100%;'>","null","","","","","","","","","",""
"","html-keyboard-response","198","494516","0.0-12.0-2.2","nfytngbctm","one_one","1","direct_first","1","du05en02","0","20","1","1","3","2","","0","NA","0","null","","","<img src = 'targets/21.png' width = '100%;'>","null","","","","","","","","","",""
"","html-keyboard-response","199","494614","0.0-12.0-3.2","nfytngbctm","one_one","1","direct_first","1","du05en02","0","20","1","1","3","2","","0","NA","0","96.3749997317791","","","<img src = 'targets/mask.png' width = '100%;'>","68","neg","GS","GSnew","4","category4/GS1.png","","targets/21.png","indirect","0","18"
"","html-keyboard-response","200","496117","0.0-12.0-0.3","nfytngbctm","one_one","1","direct_first","1","du05en02","0","20","1","1","3","2","","0","NA","0","null","","","<div style=""font-size:60px;"">+</div>","null","","","","","","","","","",""
"","html-keyboard-response","201","496209","0.0-12.0-1.3","nfytngbctm","one_one","1","direct_first","1","du05en02","0","20","1","1","3","2","","0","NA","0","null","","","<img src = 'category3/GS2.png' width = '100%;'>","null","","","","","","","","","",""
"","html-keyboard-response","202","496478","0.0-12.0-2.3","nfytngbctm","one_one","1","direct_first","1","du05en02","0","20","1","1","3","2","","0","NA","0","null","","","<img src = 'targets/36.png' width = '100%;'>","null","","","","","","","","","",""
"","html-keyboard-response","203","496744","0.0-12.0-3.3","nfytngbctm","one_one","1","direct_first","1","du05en02","0","20","1","1","3","2","","0","NA","0","264.70999978482723","","","<img src = 'targets/mask.png' width = '100%;'>","68","pos","GS","GSnew","3","category3/GS2.png","","targets/36.png","indirect","0","19"
"","html-keyboard-response","204","498247","0.0-12.0-0.4","nfytngbctm","one_one","1","direct_first","1","du05en02","0","20","1","1","3","2","","0","NA","0","null","","","<div style=""font-size:60px;"">+</div>","null","","","","","","","","","",""
"","html-keyboard-response","205","498340","0.0-12.0-1.4","nfytngbctm","one_one","1","direct_first","1","du05en02","0","20","1","1","3","2","","0","NA","0","null","","","<img src = 'category4/lin.png' width = '100%;'>","null","","","","","","","","","",""
"","html-keyboard-response","206","498593","0.0-12.0-2.4","nfytngbctm","one_one","1","direct_first","1","du05en02","0","20","1","1","3","2","","0","NA","0","null","","","<img src = 'targets/9.png' width = '100%;'>","null","","","","","","","","","",""
"","html-keyboard-response","207","498974","0.0-12.0-3.4","nfytngbctm","one_one","1","direct_first","1","du05en02","0","20","1","1","3","2","","0","NA","0","379.1050002910197","","","<img src = 'targets/mask.png' width = '100%;'>","68","neg","GS","abstract","4","category4/lin.png","","targets/9.png","indirect","0","20"
"","html-keyboard-response","208","500478","0.0-12.0-0.5","nfytngbctm","one_one","1","direct_first","1","du05en02","0","20","1","1","3","2","","0","NA","0","null","","","<div style=""font-size:60px;"">+</div>","null","","","","","","","","","",""
"","html-keyboard-response","209","500570","0.0-12.0-1.5","nfytngbctm","one_one","1","direct_first","1","du05en02","0","20","1","1","3","2","","0","NA","0","null","","","<img src = 'category4/GS2.png' width = '100%;'>","null","","","","","","","","","",""
"","html-keyboard-response","210","500823","0.0-12.0-2.5","nfytngbctm","one_one","1","direct_first","1","du05en02","0","20","1","1","3","2","","0","NA","0","null","","","<img src = 'targets/46.png' width = '100%;'>","null","","","","","","","","","",""
"","html-keyboard-response","211","501030","0.0-12.0-3.5","nfytngbctm","one_one","1","direct_first","1","du05en02","0","20","1","1","3","2","","0","NA","0","204.8299997113645","","","<img src = 'targets/mask.png' width = '100%;'>","68","neg","GS","GSnew","4","category4/GS2.png","","targets/46.png","indirect","0","21"
"","html-keyboard-response","212","502532","0.0-12.0-0.6","nfytngbctm","one_one","1","direct_first","1","du05en02","0","20","1","1","3","2","","0","NA","0","null","","","<div style=""font-size:60px;"">+</div>","null","","","","","","","","","",""
"","html-keyboard-response","213","502624","0.0-12.0-1.6","nfytngbctm","one_one","1","direct_first","1","du05en02","0","20","1","1","3","2","","0","NA","0","null","","","<img src = 'category1/GS1.png' width = '100%;'>","null","","","","","","","","","",""
"","html-keyboard-response","214","502878","0.0-12.0-2.6","nfytngbctm","one_one","1","direct_first","1","du05en02","0","20","1","1","3","2","","0","NA","0","null","","","<img src = 'targets/1.png' width = '100%;'>","null","","","","","","","","","",""
"","html-keyboard-response","215","503245","0.0-12.0-3.6","nfytngbctm","one_one","1","direct_first","1","du05en02","0","20","1","1","3","2","","0","NA","0","364.69499999657273","","","<img src = 'targets/mask.png' width = '100%;'>","68","neg","GS","GSnew","1","category1/GS1.png","","targets/1.png","indirect","0","22"
"","html-keyboard-response","216","504747","0.0-12.0-0.7","nfytngbctm","one_one","1","direct_first","1","du05en02","0","20","1","1","3","2","","0","NA","0","null","","","<div style=""font-size:60px;"">+</div>","null","","","","","","","","","",""
"","html-keyboard-response","217","504839","0.0-12.0-1.7","nfytngbctm","one_one","1","direct_first","1","du05en02","0","20","1","1","3","2","","0","NA","0","null","","","<img src = 'category1/ma.png' width = '100%;'>","null","","","","","","","","","",""
"","html-keyboard-response","218","505091","0.0-12.0-2.7","nfytngbctm","one_one","1","direct_first","1","du05en02","0","20","1","1","3","2","","0","NA","0","null","","","<img src = 'targets/28.png' width = '100%;'>","null","","","","","","","","","",""
"","html-keyboard-response","219","505472","0.0-12.0-3.7","nfytngbctm","one_one","1","direct_first","1","du05en02","0","20","1","1","3","2","","0","NA","0","379.23499988391995","","","<img src = 'targets/mask.png' width = '100%;'>","68","neg","GS","abstract","1","category1/ma.png","","targets/28.png","indirect","0","23"
"","html-keyboard-response","220","506976","0.0-12.0-0.8","nfytngbctm","one_one","1","direct_first","1","du05en02","0","20","1","1","3","2","","0","NA","0","null","","","<div style=""font-size:60px;"">+</div>","null","","","","","","","","","",""
"","html-keyboard-response","221","507069","0.0-12.0-1.8","nfytngbctm","one_one","1","direct_first","1","du05en02","0","20","1","1","3","2","","0","NA","0","null","","","<img src = 'category1/GS3.png' width = '100%;'>","null","","","","","","","","","",""
"","html-keyboard-response","222","507322","0.0-12.0-2.8","nfytngbctm","one_one","1","direct_first","1","du05en02","0","20","1","1","3","2","","0","NA","0","null","","","<img src = 'targets/2.png' width = '100%;'>","null","","","","","","","","","",""
"","html-keyboard-response","223","507602","0.0-12.0-3.8","nfytngbctm","one_one","1","direct_first","1","du05en02","0","20","1","1","3","2","","0","NA","0","278.44500029459596","","","<img src = 'targets/mask.png' width = '100%;'>","68","neg","GS","GSnew","1","category1/GS3.png","","targets/2.png","indirect","0","24"
"","html-keyboard-response","224","509105","0.0-12.0-0.9","nfytngbctm","one_one","1","direct_first","1","du05en02","0","20","1","1","3","2","","0","NA","0","null","","","<div style=""font-size:60px;"">+</div>","null","","","","","","","","","",""
"","html-keyboard-response","225","509197","0.0-12.0-1.9","nfytngbctm","one_one","1","direct_first","1","du05en02","0","20","1","1","3","2","","0","NA","0","null","","","<img src = 'category2/GS3.png' width = '100%;'>","null","","","","","","","","","",""
"","html-keyboard-response","226","509451","0.0-12.0-2.9","nfytngbctm","one_one","1","direct_first","1","du05en02","0","20","1","1","3","2","","0","NA","0","null","","","<img src = 'targets/34.png' width = '100%;'>","null","","","","","","","","","",""
"","html-keyboard-response","227","509694","0.0-12.0-3.9","nfytngbctm","one_one","1","direct_first","1","du05en02","0","20","1","1","3","2","","0","NA","0","241.14999966695905","","","<img src = 'targets/mask.png' width = '100%;'>","75","pos","GS","GSnew","2","category2/GS3.png","","targets/34.png","indirect","1","25"
"","html-keyboard-response","228","511195","0.0-12.0-0.10","nfytngbctm","one_one","1","direct_first","1","du05en02","0","20","1","1","3","2","","0","NA","0","null","","","<div style=""font-size:60px;"">+</div>","null","","","","","","","","","",""
"","html-keyboard-response","229","511288","0.0-12.0-1.10","nfytngbctm","one_one","1","direct_first","1","du05en02","0","20","1","1","3","2","","0","NA","0","null","","","<img src = 'category2/men.png' width = '100%;'>","null","","","","","","","","","",""
"","html-keyboard-response","230","511541","0.0-12.0-2.10","nfytngbctm","one_one","1","direct_first","1","du05en02","0","20","1","1","3","2","","0","NA","0","null","","","<img src = 'targets/26.png' width = '100%;'>","null","","","","","","","","","",""
"","html-keyboard-response","231","511792","0.0-12.0-3.10","nfytngbctm","one_one","1","direct_first","1","du05en02","0","20","1","1","3","2","","0","NA","0","248.7399997189641","","","<img src = 'targets/mask.png' width = '100%;'>","75","pos","GS","abstract","2","category2/men.png","","targets/26.png","indirect","1","26"
"","html-keyboard-response","232","513297","0.0-12.0-0.11","nfytngbctm","one_one","1","direct_first","1","du05en02","0","20","1","1","3","2","","0","NA","0","null","","","<div style=""font-size:60px;"">+</div>","null","","","","","","","","","",""
"","html-keyboard-response","233","513390","0.0-12.0-1.11","nfytngbctm","one_one","1","direct_first","1","du05en02","0","20","1","1","3","2","","0","NA","0","null","","","<img src = 'category2/GS2.png' width = '100%;'>","null","","","","","","","","","",""
"","html-keyboard-response","234","513643","0.0-12.0-2.11","nfytngbctm","one_one","1","direct_first","1","du05en02","0","20","1","1","3","2","","0","NA","0","null","","","<img src = 'targets/32.png' width = '100%;'>","null","","","","","","","","","",""
"","html-keyboard-response","235","513853","0.0-12.0-3.11","nfytngbctm","one_one","1","direct_first","1","du05en02","0","20","1","1","3","2","","0","NA","0","208.2400000654161","","","<img src = 'targets/mask.png' width = '100%;'>","75","pos","GS","GSnew","2","category2/GS2.png","","targets/32.png","indirect","1","27"
"","html-keyboard-response","236","515356","0.0-12.0-0.12","nfytngbctm","one_one","1","direct_first","1","du05en02","0","20","1","1","3","2","","0","NA","0","null","","","<div style=""font-size:60px;"">+</div>","null","","","","","","","","","",""
"","html-keyboard-response","237","515448","0.0-12.0-1.12","nfytngbctm","one_one","1","direct_first","1","du05en02","0","20","1","1","3","2","","0","NA","0","null","","","<img src = 'category2/GS1.png' width = '100%;'>","null","","","","","","","","","",""
"","html-keyboard-response","238","515701","0.0-12.0-2.12","nfytngbctm","one_one","1","direct_first","1","du05en02","0","20","1","1","3","2","","0","NA","0","null","","","<img src = 'targets/3.png' width = '100%;'>","null","","","","","","","","","",""
"","html-keyboard-response","239","516190","0.0-12.0-3.12","nfytngbctm","one_one","1","direct_first","1","du05en02","0","20","1","1","3","2","","0","NA","0","487.2850002720952","","","<img src = 'targets/mask.png' width = '100%;'>","75","pos","GS","GSnew","2","category2/GS1.png","","targets/3.png","indirect","1","28"
"","html-keyboard-response","240","517693","0.0-12.0-0.13","nfytngbctm","one_one","1","direct_first","1","du05en02","0","20","1","1","3","2","","0","NA","0","null","","","<div style=""font-size:60px;"">+</div>","null","","","","","","","","","",""
"","html-keyboard-response","241","517785","0.0-12.0-1.13","nfytngbctm","one_one","1","direct_first","1","du05en02","0","20","1","1","3","2","","0","NA","0","null","","","<img src = 'category3/GS1.png' width = '100%;'>","null","","","","","","","","","",""
"","html-keyboard-response","242","518038","0.0-12.0-2.13","nfytngbctm","one_one","1","direct_first","1","du05en02","0","20","1","1","3","2","","0","NA","0","null","","","<img src = 'targets/27.png' width = '100%;'>","null","","","","","","","","","",""
"","html-keyboard-response","243","518638","0.0-12.0-3.13","nfytngbctm","one_one","1","direct_first","1","du05en02","0","20","1","1","3","2","","0","NA","0","597.9100000113249","","","<img src = 'targets/mask.png' width = '100%;'>","68","pos","GS","GSnew","3","category3/GS1.png","","targets/27.png","indirect","0","29"
"","html-keyboard-response","244","520141","0.0-12.0-0.14","nfytngbctm","one_one","1","direct_first","1","du05en02","0","20","1","1","3","2","","0","NA","0","null","","","<div style=""font-size:60px;"">+</div>","null","","","","","","","","","",""
"","html-keyboard-response","245","520234","0.0-12.0-1.14","nfytngbctm","one_one","1","direct_first","1","du05en02","0","20","1","1","3","2","","0","NA","0","null","","","<img src = 'category1/GS2.png' width = '100%;'>","null","","","","","","","","","",""
"","html-keyboard-response","246","520485","0.0-12.0-2.14","nfytngbctm","one_one","1","direct_first","1","du05en02","0","20","1","1","3","2","","0","NA","0","null","","","<img src = 'targets/48.png' width = '100%;'>","null","","","","","","","","","",""
"","html-keyboard-response","247","520890","0.0-12.0-3.14","nfytngbctm","one_one","1","direct_first","1","du05en02","0","20","1","1","3","2","","0","NA","0","402.48999977484345","","","<img src = 'targets/mask.png' width = '100%;'>","68","neg","GS","GSnew","1","category1/GS2.png","","targets/48.png","indirect","0","30"
"","html-keyboard-response","248","522394","0.0-12.0-0.15","nfytngbctm","one_one","1","direct_first","1","du05en02","0","20","1","1","3","2","","0","NA","0","null","","","<div style=""font-size:60px;"">+</div>","null","","","","","","","","","",""
"","html-keyboard-response","249","522486","0.0-12.0-1.15","nfytngbctm","one_one","1","direct_first","1","du05en02","0","20","1","1","3","2","","0","NA","0","null","","","<img src = 'category4/GS3.png' width = '100%;'>","null","","","","","","","","","",""
"","html-keyboard-response","250","522739","0.0-12.0-2.15","nfytngbctm","one_one","1","direct_first","1","du05en02","0","20","1","1","3","2","","0","NA","0","null","","","<img src = 'targets/10.png' width = '100%;'>","null","","","","","","","","","",""
"","html-keyboard-response","251","523231","0.0-12.0-3.15","nfytngbctm","one_one","1","direct_first","1","du05en02","0","20","1","1","3","2","","0","NA","0","490.65000005066395","","","<img src = 'targets/mask.png' width = '100%;'>","68","neg","GS","GSnew","4","category4/GS3.png","","targets/10.png","indirect","0","31"
"","survey-html-form","252","527987","0.0-13.0","nfytngbctm","one_one","1","direct_first","1","du05en02","0","20","1","1","3","2","","0","NA","0","4254.009999800473","","{}","","","","","","","","","","","",""
"","image-slider-response","253","532995","0.0-14.0-0.0","nfytngbctm","one_one","1","direct_first","1","du05en02","0","20","1","1","3","2","","0","NA","0","4003.5599996335804","","","","","neg","All","all","1","category1/ma_all.png","-17","","all","",""
"","image-slider-response","254","536860","0.0-14.0-0.1","nfytngbctm","one_one","1","direct_first","1","du05en02","0","20","1","1","3","2","","0","NA","0","3864.250000100583","","","","","pos","All","all","2","category2/men_all.png","37","","all","",""
"","image-slider-response","255","541359","0.0-14.0-0.2","nfytngbctm","one_one","1","direct_first","1","du05en02","0","20","1","1","3","2","","0","NA","0","4496.46499985829","","","","","neg","All","all","4","category4/lin_all.png","-45","","all","",""
"","image-slider-response","256","544227","0.0-14.0-0.3","nfytngbctm","one_one","1","direct_first","1","du05en02","0","20","1","1","3","2","","0","NA","0","2866.3250003010035","","","","","pos","All","all","3","category3/wang_all.png","18","","all","",""
"","survey-text","257","547271","0.0-15.0","nfytngbctm","one_one","1","direct_first","1","du05en02","0","20","1","1","3","2","","0","NA","0","3034.404999576509","","{""comment"":""""}","","","","","","","","","","","",""
"","survey-html-form","258","557798","0.0-16.0","nfytngbctm","one_one","1","direct_first","1","du05en02","0","20","1","1","3","2","","0","NA","0","10524.189999792725","","{""hinschauen"":""0"",""ablenkung"":""NA"",""gewissenhaft"":""0""}","","","","","","","","","","","",""
