"success","trial_type","trial_index","time_elapsed","internal_node_id","subject","condition","condition_code","measure","measure_code","codeword","gender","age","education","chinese","fach","handedness","comment","hinschauen","ablenkung","gewissenhaft","rt","url","responses","stimulus","key_press","val","type","type_specific","category","cs_selected","response","target","task","indirect","nr_pres"
"true","fullscreen","0","7044","0.0-0.0","jrpn3cwjpf","one_one","1","direct_first","1","nn06er24","0","22","1","1","3","1","","0","1","0","","","","","","","","","","","","","","",""
"","external-html","1","50497","0.0-1.0","jrpn3cwjpf","one_one","1","direct_first","1","nn06er24","0","22","1","1","3","1","","0","1","0","43385.820000083186","text/information.html","","","","","","","","","","","","",""
"","external-html","2","65567","0.0-2.0","jrpn3cwjpf","one_one","1","direct_first","1","nn06er24","0","22","1","1","3","1","","0","1","0","14939.320000004955","text/consent.html","","","","","","","","","","","","",""
"","survey-html-form","3","125500","0.0-3.0","jrpn3cwjpf","one_one","1","direct_first","1","nn06er24","0","22","1","1","3","1","","0","1","0","59925.16500002239","","{""codeword_enter"":""nn06er24""}","","","","","","","","","","","",""
"","survey-html-form","4","151838","0.0-4.0","jrpn3cwjpf","one_one","1","direct_first","1","nn06er24","0","22","1","1","3","1","","0","1","0","26323.71999998577","","{""age"":""22"",""education"":""1"",""subject"":""3"",""gender"":""0"",""handedness"":""1"",""chinese"":""1""}","","","","","","","","","","","",""
"","survey-html-form","5","166770","0.0-5.0","jrpn3cwjpf","one_one","1","direct_first","1","nn06er24","0","22","1","1","3","1","","0","1","0","14916.1600000225","","{}","","","","","","","","","","","",""
"","html-keyboard-response","6","170797","0.0-6.0-0.0-0.0","jrpn3cwjpf","one_one","1","direct_first","1","nn06er24","0","22","1","1","3","1","","0","1","0","null","","","<div class = 'row'><div class = 'column'><img src = 'uspos/2311.bmp' width = '100%;'></div><div class = 'column'><img src = 'category2/CS5.png' width = '70%;'></div></div>","null","pos","CS","CS","2","category2/CS5.png","","","","",""
"","html-keyboard-response","7","173315","0.0-6.0-0.0-0.1","jrpn3cwjpf","one_one","1","direct_first","1","nn06er24","0","22","1","1","3","1","","0","1","0","null","","","<div class = 'row'><div class = 'column'><img src = 'uspos/1710.bmp' width = '100%;'></div><div class = 'column'><img src = 'category4/CS4.png' width = '70%;'></div></div>","null","pos","CS","CS","4","category4/CS4.png","","","","",""
"","html-keyboard-response","8","175837","0.0-6.0-0.0-0.2","jrpn3cwjpf","one_one","1","direct_first","1","nn06er24","0","22","1","1","3","1","","0","1","0","null","","","<div class = 'row'><div class = 'column'><img src = 'category2/CS5.png' width = '70%;'></div><div class = 'column'><img src = 'uspos/2311.bmp' width = '100%;'></div></div>","null","pos","CS","CS","2","category2/CS5.png","","","","",""
"","html-keyboard-response","9","178353","0.0-6.0-0.0-0.3","jrpn3cwjpf","one_one","1","direct_first","1","nn06er24","0","22","1","1","3","1","","0","1","0","null","","","<div class = 'row'><div class = 'column'><img src = 'category3/CS4.png' width = '70%;'></div><div class = 'column'><img src = 'usneg/6212.bmp' width = '100%;'></div></div>","null","neg","CS","CS","3","category3/CS4.png","","","","",""
"","html-keyboard-response","10","180870","0.0-6.0-0.0-0.4","jrpn3cwjpf","one_one","1","direct_first","1","nn06er24","0","22","1","1","3","1","","0","1","0","null","","","<div class = 'row'><div class = 'column'><img src = 'uspos/2311.bmp' width = '100%;'></div><div class = 'column'><img src = 'category2/CS5.png' width = '70%;'></div></div>","null","pos","CS","CS","2","category2/CS5.png","","","","",""
"","html-keyboard-response","11","183397","0.0-6.0-0.0-0.5","jrpn3cwjpf","one_one","1","direct_first","1","nn06er24","0","22","1","1","3","1","","0","1","0","null","","","<div class = 'row'><div class = 'column'><img src = 'usneg/6212.bmp' width = '100%;'></div><div class = 'column'><img src = 'category3/CS4.png' width = '70%;'></div></div>","null","neg","CS","CS","3","category3/CS4.png","","","","",""
"","html-keyboard-response","12","185919","0.0-6.0-0.0-0.6","jrpn3cwjpf","one_one","1","direct_first","1","nn06er24","0","22","1","1","3","1","","0","1","0","null","","","<div class = 'row'><div class = 'column'><img src = 'category1/CS1.png' width = '70%;'></div><div class = 'column'><img src = 'usneg/9421.bmp' width = '100%;'></div></div>","null","neg","CS","CS","1","category1/CS1.png","","","","",""
"","html-keyboard-response","13","188441","0.0-6.0-0.0-0.7","jrpn3cwjpf","one_one","1","direct_first","1","nn06er24","0","22","1","1","3","1","","0","1","0","null","","","<div class = 'row'><div class = 'column'><img src = 'category4/CS4.png' width = '70%;'></div><div class = 'column'><img src = 'uspos/1710.bmp' width = '100%;'></div></div>","null","pos","CS","CS","4","category4/CS4.png","","","","",""
"","html-keyboard-response","14","190967","0.0-6.0-0.0-0.8","jrpn3cwjpf","one_one","1","direct_first","1","nn06er24","0","22","1","1","3","1","","0","1","0","null","","","<div class = 'row'><div class = 'column'><img src = 'category3/CS4.png' width = '70%;'></div><div class = 'column'><img src = 'usneg/6212.bmp' width = '100%;'></div></div>","null","neg","CS","CS","3","category3/CS4.png","","","","",""
"","html-keyboard-response","15","193486","0.0-6.0-0.0-0.9","jrpn3cwjpf","one_one","1","direct_first","1","nn06er24","0","22","1","1","3","1","","0","1","0","null","","","<div class = 'row'><div class = 'column'><img src = 'category2/CS5.png' width = '70%;'></div><div class = 'column'><img src = 'uspos/2311.bmp' width = '100%;'></div></div>","null","pos","CS","CS","2","category2/CS5.png","","","","",""
"","html-keyboard-response","16","196004","0.0-6.0-0.0-0.10","jrpn3cwjpf","one_one","1","direct_first","1","nn06er24","0","22","1","1","3","1","","0","1","0","null","","","<div class = 'row'><div class = 'column'><img src = 'category1/CS1.png' width = '70%;'></div><div class = 'column'><img src = 'usneg/9421.bmp' width = '100%;'></div></div>","null","neg","CS","CS","1","category1/CS1.png","","","","",""
"","html-keyboard-response","17","198522","0.0-6.0-0.0-0.11","jrpn3cwjpf","one_one","1","direct_first","1","nn06er24","0","22","1","1","3","1","","0","1","0","null","","","<div class = 'row'><div class = 'column'><img src = 'category4/CS4.png' width = '70%;'></div><div class = 'column'><img src = 'uspos/1710.bmp' width = '100%;'></div></div>","null","pos","CS","CS","4","category4/CS4.png","","","","",""
"","html-keyboard-response","18","201046","0.0-6.0-0.0-0.12","jrpn3cwjpf","one_one","1","direct_first","1","nn06er24","0","22","1","1","3","1","","0","1","0","null","","","<div class = 'row'><div class = 'column'><img src = 'category1/CS1.png' width = '70%;'></div><div class = 'column'><img src = 'usneg/9421.bmp' width = '100%;'></div></div>","null","neg","CS","CS","1","category1/CS1.png","","","","",""
"","html-keyboard-response","19","203570","0.0-6.0-0.0-0.13","jrpn3cwjpf","one_one","1","direct_first","1","nn06er24","0","22","1","1","3","1","","0","1","0","null","","","<div class = 'row'><div class = 'column'><img src = 'category4/CS4.png' width = '70%;'></div><div class = 'column'><img src = 'uspos/1710.bmp' width = '100%;'></div></div>","null","pos","CS","CS","4","category4/CS4.png","","","","",""
"","html-keyboard-response","20","206096","0.0-6.0-0.0-0.14","jrpn3cwjpf","one_one","1","direct_first","1","nn06er24","0","22","1","1","3","1","","0","1","0","null","","","<div class = 'row'><div class = 'column'><img src = 'category3/CS4.png' width = '70%;'></div><div class = 'column'><img src = 'usneg/6212.bmp' width = '100%;'></div></div>","null","neg","CS","CS","3","category3/CS4.png","","","","",""
"","html-keyboard-response","21","208617","0.0-6.0-0.0-0.15","jrpn3cwjpf","one_one","1","direct_first","1","nn06er24","0","22","1","1","3","1","","0","1","0","null","","","<div class = 'row'><div class = 'column'><img src = 'usneg/9421.bmp' width = '100%;'></div><div class = 'column'><img src = 'category1/CS1.png' width = '70%;'></div></div>","null","neg","CS","CS","1","category1/CS1.png","","","","",""
"","html-keyboard-response","22","211136","0.0-6.0-0.0-0.16","jrpn3cwjpf","one_one","1","direct_first","1","nn06er24","0","22","1","1","3","1","","0","1","0","null","","","<div class = 'row'><div class = 'column'><img src = 'uspos/2311.bmp' width = '100%;'></div><div class = 'column'><img src = 'category2/CS5.png' width = '70%;'></div></div>","null","pos","CS","CS","2","category2/CS5.png","","","","",""
"","html-keyboard-response","23","213649","0.0-6.0-0.0-0.17","jrpn3cwjpf","one_one","1","direct_first","1","nn06er24","0","22","1","1","3","1","","0","1","0","null","","","<div class = 'row'><div class = 'column'><img src = 'usneg/9421.bmp' width = '100%;'></div><div class = 'column'><img src = 'category1/CS1.png' width = '70%;'></div></div>","null","neg","CS","CS","1","category1/CS1.png","","","","",""
"","html-keyboard-response","24","216166","0.0-6.0-0.0-0.18","jrpn3cwjpf","one_one","1","direct_first","1","nn06er24","0","22","1","1","3","1","","0","1","0","null","","","<div class = 'row'><div class = 'column'><img src = 'usneg/6212.bmp' width = '100%;'></div><div class = 'column'><img src = 'category3/CS4.png' width = '70%;'></div></div>","null","neg","CS","CS","3","category3/CS4.png","","","","",""
"","html-keyboard-response","25","218679","0.0-6.0-0.0-0.19","jrpn3cwjpf","one_one","1","direct_first","1","nn06er24","0","22","1","1","3","1","","0","1","0","null","","","<div class = 'row'><div class = 'column'><img src = 'uspos/1710.bmp' width = '100%;'></div><div class = 'column'><img src = 'category4/CS4.png' width = '70%;'></div></div>","null","pos","CS","CS","4","category4/CS4.png","","","","",""
"","survey-html-form","26","222471","0.0-6.0-1.0","jrpn3cwjpf","one_one","1","direct_first","1","nn06er24","0","22","1","1","3","1","","0","1","0","3278.0049999710172","","{}","","","","","","","","","","","",""
"","html-keyboard-response","27","226500","0.0-6.0-2.0-0.0","jrpn3cwjpf","one_one","1","direct_first","1","nn06er24","0","22","1","1","3","1","","0","1","0","null","","","<div class = 'row'><div class = 'column'><img src = 'category3/CS4.png' width = '70%;'></div><div class = 'column'><img src = 'usneg/6212.bmp' width = '100%;'></div></div>","null","neg","CS","CS","3","category3/CS4.png","","","","",""
"","html-keyboard-response","28","229013","0.0-6.0-2.0-0.1","jrpn3cwjpf","one_one","1","direct_first","1","nn06er24","0","22","1","1","3","1","","0","1","0","null","","","<div class = 'row'><div class = 'column'><img src = 'category4/CS4.png' width = '70%;'></div><div class = 'column'><img src = 'uspos/1710.bmp' width = '100%;'></div></div>","null","pos","CS","CS","4","category4/CS4.png","","","","",""
"","html-keyboard-response","29","231528","0.0-6.0-2.0-0.2","jrpn3cwjpf","one_one","1","direct_first","1","nn06er24","0","22","1","1","3","1","","0","1","0","null","","","<div class = 'row'><div class = 'column'><img src = 'category3/CS4.png' width = '70%;'></div><div class = 'column'><img src = 'usneg/6212.bmp' width = '100%;'></div></div>","null","neg","CS","CS","3","category3/CS4.png","","","","",""
"","html-keyboard-response","30","234045","0.0-6.0-2.0-0.3","jrpn3cwjpf","one_one","1","direct_first","1","nn06er24","0","22","1","1","3","1","","0","1","0","null","","","<div class = 'row'><div class = 'column'><img src = 'category1/CS1.png' width = '70%;'></div><div class = 'column'><img src = 'usneg/9421.bmp' width = '100%;'></div></div>","null","neg","CS","CS","1","category1/CS1.png","","","","",""
"","html-keyboard-response","31","236561","0.0-6.0-2.0-0.4","jrpn3cwjpf","one_one","1","direct_first","1","nn06er24","0","22","1","1","3","1","","0","1","0","null","","","<div class = 'row'><div class = 'column'><img src = 'usneg/6212.bmp' width = '100%;'></div><div class = 'column'><img src = 'category3/CS4.png' width = '70%;'></div></div>","null","neg","CS","CS","3","category3/CS4.png","","","","",""
"","html-keyboard-response","32","239089","0.0-6.0-2.0-0.5","jrpn3cwjpf","one_one","1","direct_first","1","nn06er24","0","22","1","1","3","1","","0","1","0","null","","","<div class = 'row'><div class = 'column'><img src = 'category4/CS4.png' width = '70%;'></div><div class = 'column'><img src = 'uspos/1710.bmp' width = '100%;'></div></div>","null","pos","CS","CS","4","category4/CS4.png","","","","",""
"","html-keyboard-response","33","241621","0.0-6.0-2.0-0.6","jrpn3cwjpf","one_one","1","direct_first","1","nn06er24","0","22","1","1","3","1","","0","1","0","null","","","<div class = 'row'><div class = 'column'><img src = 'uspos/2311.bmp' width = '100%;'></div><div class = 'column'><img src = 'category2/CS5.png' width = '70%;'></div></div>","null","pos","CS","CS","2","category2/CS5.png","","","","",""
"","html-keyboard-response","34","244148","0.0-6.0-2.0-0.7","jrpn3cwjpf","one_one","1","direct_first","1","nn06er24","0","22","1","1","3","1","","0","1","0","null","","","<div class = 'row'><div class = 'column'><img src = 'category4/CS4.png' width = '70%;'></div><div class = 'column'><img src = 'uspos/1710.bmp' width = '100%;'></div></div>","null","pos","CS","CS","4","category4/CS4.png","","","","",""
"","html-keyboard-response","35","246658","0.0-6.0-2.0-0.8","jrpn3cwjpf","one_one","1","direct_first","1","nn06er24","0","22","1","1","3","1","","0","1","0","null","","","<div class = 'row'><div class = 'column'><img src = 'category3/CS4.png' width = '70%;'></div><div class = 'column'><img src = 'usneg/6212.bmp' width = '100%;'></div></div>","null","neg","CS","CS","3","category3/CS4.png","","","","",""
"","html-keyboard-response","36","249172","0.0-6.0-2.0-0.9","jrpn3cwjpf","one_one","1","direct_first","1","nn06er24","0","22","1","1","3","1","","0","1","0","null","","","<div class = 'row'><div class = 'column'><img src = 'category2/CS5.png' width = '70%;'></div><div class = 'column'><img src = 'uspos/2311.bmp' width = '100%;'></div></div>","null","pos","CS","CS","2","category2/CS5.png","","","","",""
"","html-keyboard-response","37","251690","0.0-6.0-2.0-0.10","jrpn3cwjpf","one_one","1","direct_first","1","nn06er24","0","22","1","1","3","1","","0","1","0","null","","","<div class = 'row'><div class = 'column'><img src = 'category3/CS4.png' width = '70%;'></div><div class = 'column'><img src = 'usneg/6212.bmp' width = '100%;'></div></div>","null","neg","CS","CS","3","category3/CS4.png","","","","",""
"","html-keyboard-response","38","254204","0.0-6.0-2.0-0.11","jrpn3cwjpf","one_one","1","direct_first","1","nn06er24","0","22","1","1","3","1","","0","1","0","null","","","<div class = 'row'><div class = 'column'><img src = 'category2/CS5.png' width = '70%;'></div><div class = 'column'><img src = 'uspos/2311.bmp' width = '100%;'></div></div>","null","pos","CS","CS","2","category2/CS5.png","","","","",""
"","html-keyboard-response","39","256732","0.0-6.0-2.0-0.12","jrpn3cwjpf","one_one","1","direct_first","1","nn06er24","0","22","1","1","3","1","","0","1","0","null","","","<div class = 'row'><div class = 'column'><img src = 'category1/CS1.png' width = '70%;'></div><div class = 'column'><img src = 'usneg/9421.bmp' width = '100%;'></div></div>","null","neg","CS","CS","1","category1/CS1.png","","","","",""
"","html-keyboard-response","40","259251","0.0-6.0-2.0-0.13","jrpn3cwjpf","one_one","1","direct_first","1","nn06er24","0","22","1","1","3","1","","0","1","0","null","","","<div class = 'row'><div class = 'column'><img src = 'uspos/1710.bmp' width = '100%;'></div><div class = 'column'><img src = 'category4/CS4.png' width = '70%;'></div></div>","null","pos","CS","CS","4","category4/CS4.png","","","","",""
"","html-keyboard-response","41","261764","0.0-6.0-2.0-0.14","jrpn3cwjpf","one_one","1","direct_first","1","nn06er24","0","22","1","1","3","1","","0","1","0","null","","","<div class = 'row'><div class = 'column'><img src = 'category1/CS1.png' width = '70%;'></div><div class = 'column'><img src = 'usneg/9421.bmp' width = '100%;'></div></div>","null","neg","CS","CS","1","category1/CS1.png","","","","",""
"","html-keyboard-response","42","264279","0.0-6.0-2.0-0.15","jrpn3cwjpf","one_one","1","direct_first","1","nn06er24","0","22","1","1","3","1","","0","1","0","null","","","<div class = 'row'><div class = 'column'><img src = 'category2/CS5.png' width = '70%;'></div><div class = 'column'><img src = 'uspos/2311.bmp' width = '100%;'></div></div>","null","pos","CS","CS","2","category2/CS5.png","","","","",""
"","html-keyboard-response","43","266797","0.0-6.0-2.0-0.16","jrpn3cwjpf","one_one","1","direct_first","1","nn06er24","0","22","1","1","3","1","","0","1","0","null","","","<div class = 'row'><div class = 'column'><img src = 'usneg/9421.bmp' width = '100%;'></div><div class = 'column'><img src = 'category1/CS1.png' width = '70%;'></div></div>","null","neg","CS","CS","1","category1/CS1.png","","","","",""
"","html-keyboard-response","44","269318","0.0-6.0-2.0-0.17","jrpn3cwjpf","one_one","1","direct_first","1","nn06er24","0","22","1","1","3","1","","0","1","0","null","","","<div class = 'row'><div class = 'column'><img src = 'category4/CS4.png' width = '70%;'></div><div class = 'column'><img src = 'uspos/1710.bmp' width = '100%;'></div></div>","null","pos","CS","CS","4","category4/CS4.png","","","","",""
"","html-keyboard-response","45","271840","0.0-6.0-2.0-0.18","jrpn3cwjpf","one_one","1","direct_first","1","nn06er24","0","22","1","1","3","1","","0","1","0","null","","","<div class = 'row'><div class = 'column'><img src = 'category1/CS1.png' width = '70%;'></div><div class = 'column'><img src = 'usneg/9421.bmp' width = '100%;'></div></div>","null","neg","CS","CS","1","category1/CS1.png","","","","",""
"","html-keyboard-response","46","274352","0.0-6.0-2.0-0.19","jrpn3cwjpf","one_one","1","direct_first","1","nn06er24","0","22","1","1","3","1","","0","1","0","null","","","<div class = 'row'><div class = 'column'><img src = 'uspos/2311.bmp' width = '100%;'></div><div class = 'column'><img src = 'category2/CS5.png' width = '70%;'></div></div>","null","pos","CS","CS","2","category2/CS5.png","","","","",""
"","survey-html-form","47","277669","0.0-6.0-3.0","jrpn3cwjpf","one_one","1","direct_first","1","nn06er24","0","22","1","1","3","1","","0","1","0","2795.9749998990446","","{}","","","","","","","","","","","",""
"","html-keyboard-response","48","281684","0.0-6.0-4.0-0.0","jrpn3cwjpf","one_one","1","direct_first","1","nn06er24","0","22","1","1","3","1","","0","1","0","null","","","<div class = 'row'><div class = 'column'><img src = 'category4/CS4.png' width = '70%;'></div><div class = 'column'><img src = 'uspos/1710.bmp' width = '100%;'></div></div>","null","pos","CS","CS","4","category4/CS4.png","","","","",""
"","html-keyboard-response","49","284191","0.0-6.0-4.0-0.1","jrpn3cwjpf","one_one","1","direct_first","1","nn06er24","0","22","1","1","3","1","","0","1","0","null","","","<div class = 'row'><div class = 'column'><img src = 'category2/CS5.png' width = '70%;'></div><div class = 'column'><img src = 'uspos/2311.bmp' width = '100%;'></div></div>","null","pos","CS","CS","2","category2/CS5.png","","","","",""
"","html-keyboard-response","50","286722","0.0-6.0-4.0-0.2","jrpn3cwjpf","one_one","1","direct_first","1","nn06er24","0","22","1","1","3","1","","0","1","0","null","","","<div class = 'row'><div class = 'column'><img src = 'uspos/1710.bmp' width = '100%;'></div><div class = 'column'><img src = 'category4/CS4.png' width = '70%;'></div></div>","null","pos","CS","CS","4","category4/CS4.png","","","","",""
"","html-keyboard-response","51","289233","0.0-6.0-4.0-0.3","jrpn3cwjpf","one_one","1","direct_first","1","nn06er24","0","22","1","1","3","1","","0","1","0","null","","","<div class = 'row'><div class = 'column'><img src = 'usneg/6212.bmp' width = '100%;'></div><div class = 'column'><img src = 'category3/CS4.png' width = '70%;'></div></div>","null","neg","CS","CS","3","category3/CS4.png","","","","",""
"","html-keyboard-response","52","291761","0.0-6.0-4.0-0.4","jrpn3cwjpf","one_one","1","direct_first","1","nn06er24","0","22","1","1","3","1","","0","1","0","null","","","<div class = 'row'><div class = 'column'><img src = 'category2/CS5.png' width = '70%;'></div><div class = 'column'><img src = 'uspos/2311.bmp' width = '100%;'></div></div>","null","pos","CS","CS","2","category2/CS5.png","","","","",""
"","html-keyboard-response","53","294280","0.0-6.0-4.0-0.5","jrpn3cwjpf","one_one","1","direct_first","1","nn06er24","0","22","1","1","3","1","","0","1","0","null","","","<div class = 'row'><div class = 'column'><img src = 'usneg/6212.bmp' width = '100%;'></div><div class = 'column'><img src = 'category3/CS4.png' width = '70%;'></div></div>","null","neg","CS","CS","3","category3/CS4.png","","","","",""
"","html-keyboard-response","54","296814","0.0-6.0-4.0-0.6","jrpn3cwjpf","one_one","1","direct_first","1","nn06er24","0","22","1","1","3","1","","0","1","0","null","","","<div class = 'row'><div class = 'column'><img src = 'category1/CS1.png' width = '70%;'></div><div class = 'column'><img src = 'usneg/9421.bmp' width = '100%;'></div></div>","null","neg","CS","CS","1","category1/CS1.png","","","","",""
"","html-keyboard-response","55","299334","0.0-6.0-4.0-0.7","jrpn3cwjpf","one_one","1","direct_first","1","nn06er24","0","22","1","1","3","1","","0","1","0","null","","","<div class = 'row'><div class = 'column'><img src = 'uspos/1710.bmp' width = '100%;'></div><div class = 'column'><img src = 'category4/CS4.png' width = '70%;'></div></div>","null","pos","CS","CS","4","category4/CS4.png","","","","",""
"","html-keyboard-response","56","301860","0.0-6.0-4.0-0.8","jrpn3cwjpf","one_one","1","direct_first","1","nn06er24","0","22","1","1","3","1","","0","1","0","null","","","<div class = 'row'><div class = 'column'><img src = 'usneg/9421.bmp' width = '100%;'></div><div class = 'column'><img src = 'category1/CS1.png' width = '70%;'></div></div>","null","neg","CS","CS","1","category1/CS1.png","","","","",""
"","html-keyboard-response","57","304393","0.0-6.0-4.0-0.9","jrpn3cwjpf","one_one","1","direct_first","1","nn06er24","0","22","1","1","3","1","","0","1","0","null","","","<div class = 'row'><div class = 'column'><img src = 'category3/CS4.png' width = '70%;'></div><div class = 'column'><img src = 'usneg/6212.bmp' width = '100%;'></div></div>","null","neg","CS","CS","3","category3/CS4.png","","","","",""
"","html-keyboard-response","58","306908","0.0-6.0-4.0-0.10","jrpn3cwjpf","one_one","1","direct_first","1","nn06er24","0","22","1","1","3","1","","0","1","0","null","","","<div class = 'row'><div class = 'column'><img src = 'usneg/9421.bmp' width = '100%;'></div><div class = 'column'><img src = 'category1/CS1.png' width = '70%;'></div></div>","null","neg","CS","CS","1","category1/CS1.png","","","","",""
"","html-keyboard-response","59","309412","0.0-6.0-4.0-0.11","jrpn3cwjpf","one_one","1","direct_first","1","nn06er24","0","22","1","1","3","1","","0","1","0","null","","","<div class = 'row'><div class = 'column'><img src = 'category2/CS5.png' width = '70%;'></div><div class = 'column'><img src = 'uspos/2311.bmp' width = '100%;'></div></div>","null","pos","CS","CS","2","category2/CS5.png","","","","",""
"","html-keyboard-response","60","311944","0.0-6.0-4.0-0.12","jrpn3cwjpf","one_one","1","direct_first","1","nn06er24","0","22","1","1","3","1","","0","1","0","null","","","<div class = 'row'><div class = 'column'><img src = 'uspos/1710.bmp' width = '100%;'></div><div class = 'column'><img src = 'category4/CS4.png' width = '70%;'></div></div>","null","pos","CS","CS","4","category4/CS4.png","","","","",""
"","html-keyboard-response","61","314468","0.0-6.0-4.0-0.13","jrpn3cwjpf","one_one","1","direct_first","1","nn06er24","0","22","1","1","3","1","","0","1","0","null","","","<div class = 'row'><div class = 'column'><img src = 'usneg/9421.bmp' width = '100%;'></div><div class = 'column'><img src = 'category1/CS1.png' width = '70%;'></div></div>","null","neg","CS","CS","1","category1/CS1.png","","","","",""
"","html-keyboard-response","62","316987","0.0-6.0-4.0-0.14","jrpn3cwjpf","one_one","1","direct_first","1","nn06er24","0","22","1","1","3","1","","0","1","0","null","","","<div class = 'row'><div class = 'column'><img src = 'usneg/6212.bmp' width = '100%;'></div><div class = 'column'><img src = 'category3/CS4.png' width = '70%;'></div></div>","null","neg","CS","CS","3","category3/CS4.png","","","","",""
"","html-keyboard-response","63","319499","0.0-6.0-4.0-0.15","jrpn3cwjpf","one_one","1","direct_first","1","nn06er24","0","22","1","1","3","1","","0","1","0","null","","","<div class = 'row'><div class = 'column'><img src = 'uspos/1710.bmp' width = '100%;'></div><div class = 'column'><img src = 'category4/CS4.png' width = '70%;'></div></div>","null","pos","CS","CS","4","category4/CS4.png","","","","",""
"","html-keyboard-response","64","322016","0.0-6.0-4.0-0.16","jrpn3cwjpf","one_one","1","direct_first","1","nn06er24","0","22","1","1","3","1","","0","1","0","null","","","<div class = 'row'><div class = 'column'><img src = 'category2/CS5.png' width = '70%;'></div><div class = 'column'><img src = 'uspos/2311.bmp' width = '100%;'></div></div>","null","pos","CS","CS","2","category2/CS5.png","","","","",""
"","html-keyboard-response","65","324547","0.0-6.0-4.0-0.17","jrpn3cwjpf","one_one","1","direct_first","1","nn06er24","0","22","1","1","3","1","","0","1","0","null","","","<div class = 'row'><div class = 'column'><img src = 'category3/CS4.png' width = '70%;'></div><div class = 'column'><img src = 'usneg/6212.bmp' width = '100%;'></div></div>","null","neg","CS","CS","3","category3/CS4.png","","","","",""
"","html-keyboard-response","66","327063","0.0-6.0-4.0-0.18","jrpn3cwjpf","one_one","1","direct_first","1","nn06er24","0","22","1","1","3","1","","0","1","0","null","","","<div class = 'row'><div class = 'column'><img src = 'category2/CS5.png' width = '70%;'></div><div class = 'column'><img src = 'uspos/2311.bmp' width = '100%;'></div></div>","null","pos","CS","CS","2","category2/CS5.png","","","","",""
"","html-keyboard-response","67","329591","0.0-6.0-4.0-0.19","jrpn3cwjpf","one_one","1","direct_first","1","nn06er24","0","22","1","1","3","1","","0","1","0","null","","","<div class = 'row'><div class = 'column'><img src = 'category1/CS1.png' width = '70%;'></div><div class = 'column'><img src = 'usneg/9421.bmp' width = '100%;'></div></div>","null","neg","CS","CS","1","category1/CS1.png","","","","",""
"","survey-html-form","68","332109","0.0-6.0-5.0","jrpn3cwjpf","one_one","1","direct_first","1","nn06er24","0","22","1","1","3","1","","0","1","0","2006.3999999547377","","{}","","","","","","","","","","","",""
"","html-keyboard-response","69","336139","0.0-6.0-6.0-0.0","jrpn3cwjpf","one_one","1","direct_first","1","nn06er24","0","22","1","1","3","1","","0","1","0","null","","","<div class = 'row'><div class = 'column'><img src = 'usneg/6212.bmp' width = '100%;'></div><div class = 'column'><img src = 'category3/CS4.png' width = '70%;'></div></div>","null","neg","CS","CS","3","category3/CS4.png","","","","",""
"","html-keyboard-response","70","338656","0.0-6.0-6.0-0.1","jrpn3cwjpf","one_one","1","direct_first","1","nn06er24","0","22","1","1","3","1","","0","1","0","null","","","<div class = 'row'><div class = 'column'><img src = 'category1/CS1.png' width = '70%;'></div><div class = 'column'><img src = 'usneg/9421.bmp' width = '100%;'></div></div>","null","neg","CS","CS","1","category1/CS1.png","","","","",""
"","html-keyboard-response","71","341172","0.0-6.0-6.0-0.2","jrpn3cwjpf","one_one","1","direct_first","1","nn06er24","0","22","1","1","3","1","","0","1","0","null","","","<div class = 'row'><div class = 'column'><img src = 'category4/CS4.png' width = '70%;'></div><div class = 'column'><img src = 'uspos/1710.bmp' width = '100%;'></div></div>","null","pos","CS","CS","4","category4/CS4.png","","","","",""
"","html-keyboard-response","72","343682","0.0-6.0-6.0-0.3","jrpn3cwjpf","one_one","1","direct_first","1","nn06er24","0","22","1","1","3","1","","0","1","0","null","","","<div class = 'row'><div class = 'column'><img src = 'category2/CS5.png' width = '70%;'></div><div class = 'column'><img src = 'uspos/2311.bmp' width = '100%;'></div></div>","null","pos","CS","CS","2","category2/CS5.png","","","","",""
"","html-keyboard-response","73","346215","0.0-6.0-6.0-0.4","jrpn3cwjpf","one_one","1","direct_first","1","nn06er24","0","22","1","1","3","1","","0","1","0","null","","","<div class = 'row'><div class = 'column'><img src = 'category3/CS4.png' width = '70%;'></div><div class = 'column'><img src = 'usneg/6212.bmp' width = '100%;'></div></div>","null","neg","CS","CS","3","category3/CS4.png","","","","",""
"","html-keyboard-response","74","348730","0.0-6.0-6.0-0.5","jrpn3cwjpf","one_one","1","direct_first","1","nn06er24","0","22","1","1","3","1","","0","1","0","null","","","<div class = 'row'><div class = 'column'><img src = 'category4/CS4.png' width = '70%;'></div><div class = 'column'><img src = 'uspos/1710.bmp' width = '100%;'></div></div>","null","pos","CS","CS","4","category4/CS4.png","","","","",""
"","html-keyboard-response","75","351258","0.0-6.0-6.0-0.6","jrpn3cwjpf","one_one","1","direct_first","1","nn06er24","0","22","1","1","3","1","","0","1","0","null","","","<div class = 'row'><div class = 'column'><img src = 'category2/CS5.png' width = '70%;'></div><div class = 'column'><img src = 'uspos/2311.bmp' width = '100%;'></div></div>","null","pos","CS","CS","2","category2/CS5.png","","","","",""
"","html-keyboard-response","76","353805","0.0-6.0-6.0-0.7","jrpn3cwjpf","one_one","1","direct_first","1","nn06er24","0","22","1","1","3","1","","0","1","0","null","","","<div class = 'row'><div class = 'column'><img src = 'category1/CS1.png' width = '70%;'></div><div class = 'column'><img src = 'usneg/9421.bmp' width = '100%;'></div></div>","null","neg","CS","CS","1","category1/CS1.png","","","","",""
"","html-keyboard-response","77","356331","0.0-6.0-6.0-0.8","jrpn3cwjpf","one_one","1","direct_first","1","nn06er24","0","22","1","1","3","1","","0","1","0","null","","","<div class = 'row'><div class = 'column'><img src = 'category2/CS5.png' width = '70%;'></div><div class = 'column'><img src = 'uspos/2311.bmp' width = '100%;'></div></div>","null","pos","CS","CS","2","category2/CS5.png","","","","",""
"","html-keyboard-response","78","358866","0.0-6.0-6.0-0.9","jrpn3cwjpf","one_one","1","direct_first","1","nn06er24","0","22","1","1","3","1","","0","1","0","null","","","<div class = 'row'><div class = 'column'><img src = 'category3/CS4.png' width = '70%;'></div><div class = 'column'><img src = 'usneg/6212.bmp' width = '100%;'></div></div>","null","neg","CS","CS","3","category3/CS4.png","","","","",""
"","html-keyboard-response","79","361382","0.0-6.0-6.0-0.10","jrpn3cwjpf","one_one","1","direct_first","1","nn06er24","0","22","1","1","3","1","","0","1","0","null","","","<div class = 'row'><div class = 'column'><img src = 'category1/CS1.png' width = '70%;'></div><div class = 'column'><img src = 'usneg/9421.bmp' width = '100%;'></div></div>","null","neg","CS","CS","1","category1/CS1.png","","","","",""
"","html-keyboard-response","80","363928","0.0-6.0-6.0-0.11","jrpn3cwjpf","one_one","1","direct_first","1","nn06er24","0","22","1","1","3","1","","0","1","0","null","","","<div class = 'row'><div class = 'column'><img src = 'category2/CS5.png' width = '70%;'></div><div class = 'column'><img src = 'uspos/2311.bmp' width = '100%;'></div></div>","null","pos","CS","CS","2","category2/CS5.png","","","","",""
"","html-keyboard-response","81","366451","0.0-6.0-6.0-0.12","jrpn3cwjpf","one_one","1","direct_first","1","nn06er24","0","22","1","1","3","1","","0","1","0","null","","","<div class = 'row'><div class = 'column'><img src = 'category3/CS4.png' width = '70%;'></div><div class = 'column'><img src = 'usneg/6212.bmp' width = '100%;'></div></div>","null","neg","CS","CS","3","category3/CS4.png","","","","",""
"","html-keyboard-response","82","368971","0.0-6.0-6.0-0.13","jrpn3cwjpf","one_one","1","direct_first","1","nn06er24","0","22","1","1","3","1","","0","1","0","null","","","<div class = 'row'><div class = 'column'><img src = 'category2/CS5.png' width = '70%;'></div><div class = 'column'><img src = 'uspos/2311.bmp' width = '100%;'></div></div>","null","pos","CS","CS","2","category2/CS5.png","","","","",""
"","html-keyboard-response","83","371497","0.0-6.0-6.0-0.14","jrpn3cwjpf","one_one","1","direct_first","1","nn06er24","0","22","1","1","3","1","","0","1","0","null","","","<div class = 'row'><div class = 'column'><img src = 'uspos/1710.bmp' width = '100%;'></div><div class = 'column'><img src = 'category4/CS4.png' width = '70%;'></div></div>","null","pos","CS","CS","4","category4/CS4.png","","","","",""
"","html-keyboard-response","84","374029","0.0-6.0-6.0-0.15","jrpn3cwjpf","one_one","1","direct_first","1","nn06er24","0","22","1","1","3","1","","0","1","0","null","","","<div class = 'row'><div class = 'column'><img src = 'category1/CS1.png' width = '70%;'></div><div class = 'column'><img src = 'usneg/9421.bmp' width = '100%;'></div></div>","null","neg","CS","CS","1","category1/CS1.png","","","","",""
"","html-keyboard-response","85","376548","0.0-6.0-6.0-0.16","jrpn3cwjpf","one_one","1","direct_first","1","nn06er24","0","22","1","1","3","1","","0","1","0","null","","","<div class = 'row'><div class = 'column'><img src = 'category4/CS4.png' width = '70%;'></div><div class = 'column'><img src = 'uspos/1710.bmp' width = '100%;'></div></div>","null","pos","CS","CS","4","category4/CS4.png","","","","",""
"","html-keyboard-response","86","379076","0.0-6.0-6.0-0.17","jrpn3cwjpf","one_one","1","direct_first","1","nn06er24","0","22","1","1","3","1","","0","1","0","null","","","<div class = 'row'><div class = 'column'><img src = 'usneg/9421.bmp' width = '100%;'></div><div class = 'column'><img src = 'category1/CS1.png' width = '70%;'></div></div>","null","neg","CS","CS","1","category1/CS1.png","","","","",""
"","html-keyboard-response","87","381605","0.0-6.0-6.0-0.18","jrpn3cwjpf","one_one","1","direct_first","1","nn06er24","0","22","1","1","3","1","","0","1","0","null","","","<div class = 'row'><div class = 'column'><img src = 'usneg/6212.bmp' width = '100%;'></div><div class = 'column'><img src = 'category3/CS4.png' width = '70%;'></div></div>","null","neg","CS","CS","3","category3/CS4.png","","","","",""
"","html-keyboard-response","88","384120","0.0-6.0-6.0-0.19","jrpn3cwjpf","one_one","1","direct_first","1","nn06er24","0","22","1","1","3","1","","0","1","0","null","","","<div class = 'row'><div class = 'column'><img src = 'category4/CS4.png' width = '70%;'></div><div class = 'column'><img src = 'uspos/1710.bmp' width = '100%;'></div></div>","null","pos","CS","CS","4","category4/CS4.png","","","","",""
"","survey-html-form","89","401780","0.0-7.0","jrpn3cwjpf","one_one","1","direct_first","1","nn06er24","0","22","1","1","3","1","","0","1","0","17157.55500004161","","{}","","","","","","","","","","","",""
"","image-slider-response","90","413434","0.0-8.0-0.0","jrpn3cwjpf","one_one","1","direct_first","1","nn06er24","0","22","1","1","3","1","","0","1","0","9640.96500002779","","","","","neg","GS","GSnew","3","category3/GS2.png","-52","targets/3.png","direct","",""
"","image-slider-response","91","418142","0.0-8.0-0.1","jrpn3cwjpf","one_one","1","direct_first","1","nn06er24","0","22","1","1","3","1","","0","1","0","4702.889999956824","","","","","neg","GS","GSnew","3","category3/GS3.png","34","targets/16.png","direct","",""
"","image-slider-response","92","423543","0.0-8.0-0.2","jrpn3cwjpf","one_one","1","direct_first","1","nn06er24","0","22","1","1","3","1","","0","1","0","5398.0599999194965","","","","","neg","GS","abstract","1","category1/ma.png","-16","targets/1.png","direct","",""
"","image-slider-response","93","433149","0.0-8.0-0.3","jrpn3cwjpf","one_one","1","direct_first","1","nn06er24","0","22","1","1","3","1","","0","1","0","9601.335000013933","","","","","neg","GS","GSold","3","category3/CS5.png","21","targets/5.png","direct","",""
"","image-slider-response","94","437280","0.0-8.0-0.4","jrpn3cwjpf","one_one","1","direct_first","1","nn06er24","0","22","1","1","3","1","","0","1","0","4127.124999999069","","","","","pos","GS","GSold","2","category2/CS2.png","25","targets/25.png","direct","",""
"","image-slider-response","95","441838","0.0-8.0-0.5","jrpn3cwjpf","one_one","1","direct_first","1","nn06er24","0","22","1","1","3","1","","0","1","0","4553.399999975227","","","","","neg","GS","GSold","1","category1/CS5.png","-71","targets/33.png","direct","",""
"","image-slider-response","96","445321","0.0-8.0-0.6","jrpn3cwjpf","one_one","1","direct_first","1","nn06er24","0","22","1","1","3","1","","0","1","0","3478.7299999734387","","","","","pos","GS","GSold","2","category2/CS10.png","100","targets/27.png","direct","",""
"","image-slider-response","97","448925","0.0-8.0-0.7","jrpn3cwjpf","one_one","1","direct_first","1","nn06er24","0","22","1","1","3","1","","0","1","0","3600.860000005923","","","","","pos","GS","GSold","4","category4/CS2.png","70","targets/31.png","direct","",""
"","image-slider-response","98","453040","0.0-8.0-0.8","jrpn3cwjpf","one_one","1","direct_first","1","nn06er24","0","22","1","1","3","1","","0","1","0","4111.335000023246","","","","","neg","GS","GSold","1","category1/CS4.png","-45","targets/28.png","direct","",""
"","image-slider-response","99","456301","0.0-8.0-0.9","jrpn3cwjpf","one_one","1","direct_first","1","nn06er24","0","22","1","1","3","1","","0","1","0","3256.8200000096112","","","","","pos","GS","GSold","4","category4/CS3.png","30","targets/42.png","direct","",""
"","image-slider-response","100","461438","0.0-8.0-0.10","jrpn3cwjpf","one_one","1","direct_first","1","nn06er24","0","22","1","1","3","1","","0","1","0","5133.540000068024","","","","","pos","GS","GSold","4","category4/CS5.png","-25","targets/12.png","direct","",""
"","image-slider-response","101","466121","0.0-8.0-0.11","jrpn3cwjpf","one_one","1","direct_first","1","nn06er24","0","22","1","1","3","1","","0","1","0","4678.799999994226","","","","","pos","GS","GSnew","2","category2/GS3.png","-22","targets/36.png","direct","",""
"","image-slider-response","102","469252","0.0-8.0-0.12","jrpn3cwjpf","one_one","1","direct_first","1","nn06er24","0","22","1","1","3","1","","0","1","0","3126.634999993257","","","","","pos","GS","GSnew","2","category2/GS1.png","-37","targets/40.png","direct","",""
"","image-slider-response","103","473423","0.0-8.0-0.13","jrpn3cwjpf","one_one","1","direct_first","1","nn06er24","0","22","1","1","3","1","","0","1","0","4167.750000022352","","","","","pos","GS","abstract","2","category2/men.png","100","targets/9.png","direct","",""
"","image-slider-response","104","476489","0.0-8.0-0.14","jrpn3cwjpf","one_one","1","direct_first","1","nn06er24","0","22","1","1","3","1","","0","1","0","3062.1200000168756","","","","","neg","GS","GSnew","1","category1/GS1.png","-29","targets/15.png","direct","",""
"","image-slider-response","105","481296","0.0-8.0-0.15","jrpn3cwjpf","one_one","1","direct_first","1","nn06er24","0","22","1","1","3","1","","0","1","0","4804.239999968559","","","","","neg","GS","GSnew","1","category1/GS2.png","-8","targets/29.png","direct","",""
"","image-slider-response","106","488869","0.0-8.0-0.16","jrpn3cwjpf","one_one","1","direct_first","1","nn06er24","0","22","1","1","3","1","","0","1","0","7569.134999997914","","","","","pos","GS","GSnew","4","category4/GS3.png","-14","targets/8.png","direct","",""
"","image-slider-response","107","491820","0.0-8.0-0.17","jrpn3cwjpf","one_one","1","direct_first","1","nn06er24","0","22","1","1","3","1","","0","1","0","2946.7149999691173","","","","","pos","GS","GSnew","2","category2/GS2.png","44","targets/43.png","direct","",""
"","image-slider-response","108","495918","0.0-8.0-0.18","jrpn3cwjpf","one_one","1","direct_first","1","nn06er24","0","22","1","1","3","1","","0","1","0","4093.8449999084696","","","","","pos","CS","CS","4","category4/CS4.png","72","targets/41.png","direct","",""
"","image-slider-response","109","498895","0.0-8.0-0.19","jrpn3cwjpf","one_one","1","direct_first","1","nn06er24","0","22","1","1","3","1","","0","1","0","2973.2399999629706","","","","","pos","CS","CS","2","category2/CS5.png","81","targets/17.png","direct","",""
"","image-slider-response","110","501655","0.0-8.0-0.20","jrpn3cwjpf","one_one","1","direct_first","1","nn06er24","0","22","1","1","3","1","","0","1","0","2756.834999890998","","","","","neg","CS","CS","1","category1/CS1.png","-34","targets/2.png","direct","",""
"","image-slider-response","111","504546","0.0-8.0-0.21","jrpn3cwjpf","one_one","1","direct_first","1","nn06er24","0","22","1","1","3","1","","0","1","0","2887.4899999937043","","","","","neg","GS","GSnew","1","category1/GS3.png","-39","targets/18.png","direct","",""
"","image-slider-response","112","507903","0.0-8.0-0.22","jrpn3cwjpf","one_one","1","direct_first","1","nn06er24","0","22","1","1","3","1","","0","1","0","3353.194999974221","","","","","neg","GS","GSold","3","category3/CS6.png","28","targets/45.png","direct","",""
"","image-slider-response","113","512917","0.0-8.0-0.23","jrpn3cwjpf","one_one","1","direct_first","1","nn06er24","0","22","1","1","3","1","","0","1","0","5010.170000023209","","","","","neg","CS","CS","3","category3/CS4.png","-88","targets/20.png","direct","",""
"","image-slider-response","114","516420","0.0-8.0-0.24","jrpn3cwjpf","one_one","1","direct_first","1","nn06er24","0","22","1","1","3","1","","0","1","0","3499.1099999751896","","","","","neg","GS","GSold","3","category3/CS10.png","-61","targets/24.png","direct","",""
"","image-slider-response","115","519887","0.0-8.0-0.25","jrpn3cwjpf","one_one","1","direct_first","1","nn06er24","0","22","1","1","3","1","","0","1","0","3462.6200000056997","","","","","neg","GS","abstract","3","category3/wang.png","11","targets/14.png","direct","",""
"","image-slider-response","116","522720","0.0-8.0-0.26","jrpn3cwjpf","one_one","1","direct_first","1","nn06er24","0","22","1","1","3","1","","0","1","0","2828.5899999318644","","","","","pos","GS","GSold","2","category2/CS6.png","75","targets/21.png","direct","",""
"","image-slider-response","117","526000","0.0-8.0-0.27","jrpn3cwjpf","one_one","1","direct_first","1","nn06er24","0","22","1","1","3","1","","0","1","0","3277.9100000625476","","","","","pos","GS","GSnew","4","category4/GS2.png","-32","targets/46.png","direct","",""
"","image-slider-response","118","531693","0.0-8.0-0.28","jrpn3cwjpf","one_one","1","direct_first","1","nn06er24","0","22","1","1","3","1","","0","1","0","5688.994999974966","","","","","neg","GS","GSnew","3","category3/GS1.png","-27","targets/32.png","direct","",""
"","image-slider-response","119","534721","0.0-8.0-0.29","jrpn3cwjpf","one_one","1","direct_first","1","nn06er24","0","22","1","1","3","1","","0","1","0","3023.894999991171","","","","","pos","GS","GSnew","4","category4/GS1.png","32","targets/34.png","direct","",""
"","image-slider-response","120","538125","0.0-8.0-0.30","jrpn3cwjpf","one_one","1","direct_first","1","nn06er24","0","22","1","1","3","1","","0","1","0","3400.524999946356","","","","","neg","GS","GSold","1","category1/CS8.png","-90","targets/30.png","direct","",""
"","image-slider-response","121","541407","0.0-8.0-0.31","jrpn3cwjpf","one_one","1","direct_first","1","nn06er24","0","22","1","1","3","1","","0","1","0","3278.050000080839","","","","","pos","GS","abstract","4","category4/lin.png","-20","targets/6.png","direct","",""
"","html-keyboard-response","122","578792","0.0-9.0","jrpn3cwjpf","one_one","1","direct_first","1","nn06er24","0","22","1","1","3","1","","0","1","0","37382.61500000954","","","<p>Sie sehen nun die chinesischen Zeichen nur ganz kurz. Danach sehen Sie die jeweilige Aussprache der Zeichen als Silbe auf dem Bildschrim. Ihre Aufgabe ist es, für jede Silbe anzugeben, ob diese etwas angenehmes, oder unangenehmes bedeuten könnte. Verlassen Sie sich hier vor allem auf Ihre Intuition.<br><br>Die Zeichen werden nur zur Orientierung dargestellt, beachten Sie sie deshalb nicht. Konzentrieren Sie sich vor allem auf die Silben. <br>Reagieren Sie mit folgenden zwei Tasten: <br><br><b>'D' </b> wenn die Silbe etwas <b>unangenehmes</b> bedeuten könnte. <br><b>'K'</b> wenn die Silbe etwas <b>angenehmes</b> bedeuten könnte. <br><br>Bitte legen Sie nun den Zeigefinger der linken Hand auf die Taste 'D' und den Zeigefinger der rechten Hand auf die Taste 'K'. <br>Reagieren Sie auf jede Silbe so schnell wie möglich. Uns interessiert Ihre spontane Reaktion. <br> <br> <br>Drücken Sie 'D' oder 'K', um die nächste Aufgabe zu starten. </p>","68","","","","","","","","","",""
"","html-keyboard-response","123","581839","0.0-10.0-0.0","jrpn3cwjpf","one_one","1","direct_first","1","nn06er24","0","22","1","1","3","1","","0","1","0","null","","","<div style=""font-size:60px;"">+</div>","null","","","","","","","","","",""
"","html-keyboard-response","124","581939","0.0-10.0-1.0","jrpn3cwjpf","one_one","1","direct_first","1","nn06er24","0","22","1","1","3","1","","0","1","0","null","","","<img src = 'category2/CS2.png' width = '100%;'>","null","","","","","","","","","",""
"","html-keyboard-response","125","582218","0.0-10.0-2.0","jrpn3cwjpf","one_one","1","direct_first","1","nn06er24","0","22","1","1","3","1","","0","1","0","null","","","<img src = 'targets/25.png' width = '100%;'>","null","","","","","","","","","",""
"","html-keyboard-response","126","586760","0.0-10.0-3.0","jrpn3cwjpf","one_one","1","direct_first","1","nn06er24","0","22","1","1","3","1","","0","1","0","4540.739999967627","","","<img src = 'targets/mask.png' width = '100%;'>","75","pos","GS","GSold","2","category2/CS2.png","","targets/25.png","indirect","1","0"
"","html-keyboard-response","127","588265","0.0-10.0-0.1","jrpn3cwjpf","one_one","1","direct_first","1","nn06er24","0","22","1","1","3","1","","0","1","0","null","","","<div style=""font-size:60px;"">+</div>","null","","","","","","","","","",""
"","html-keyboard-response","128","588359","0.0-10.0-1.1","jrpn3cwjpf","one_one","1","direct_first","1","nn06er24","0","22","1","1","3","1","","0","1","0","null","","","<img src = 'category2/CS5.png' width = '100%;'>","null","","","","","","","","","",""
"","html-keyboard-response","129","588625","0.0-10.0-2.1","jrpn3cwjpf","one_one","1","direct_first","1","nn06er24","0","22","1","1","3","1","","0","1","0","null","","","<img src = 'targets/17.png' width = '100%;'>","null","","","","","","","","","",""
"","html-keyboard-response","130","591078","0.0-10.0-3.1","jrpn3cwjpf","one_one","1","direct_first","1","nn06er24","0","22","1","1","3","1","","0","1","0","2451.6399999847636","","","<img src = 'targets/mask.png' width = '100%;'>","68","pos","CS","CS","2","category2/CS5.png","","targets/17.png","indirect","0","1"
"","html-keyboard-response","131","592595","0.0-10.0-0.2","jrpn3cwjpf","one_one","1","direct_first","1","nn06er24","0","22","1","1","3","1","","0","1","0","null","","","<div style=""font-size:60px;"">+</div>","null","","","","","","","","","",""
"","html-keyboard-response","132","592693","0.0-10.0-1.2","jrpn3cwjpf","one_one","1","direct_first","1","nn06er24","0","22","1","1","3","1","","0","1","0","null","","","<img src = 'category1/CS1.png' width = '100%;'>","null","","","","","","","","","",""
"","html-keyboard-response","133","592965","0.0-10.0-2.2","jrpn3cwjpf","one_one","1","direct_first","1","nn06er24","0","22","1","1","3","1","","0","1","0","null","","","<img src = 'targets/2.png' width = '100%;'>","null","","","","","","","","","",""
"","html-keyboard-response","134","594000","0.0-10.0-3.2","jrpn3cwjpf","one_one","1","direct_first","1","nn06er24","0","22","1","1","3","1","","0","1","0","1032.5949999969453","","","<img src = 'targets/mask.png' width = '100%;'>","75","neg","CS","CS","1","category1/CS1.png","","targets/2.png","indirect","1","2"
"","html-keyboard-response","135","595508","0.0-10.0-0.3","jrpn3cwjpf","one_one","1","direct_first","1","nn06er24","0","22","1","1","3","1","","0","1","0","null","","","<div style=""font-size:60px;"">+</div>","null","","","","","","","","","",""
"","html-keyboard-response","136","595614","0.0-10.0-1.3","jrpn3cwjpf","one_one","1","direct_first","1","nn06er24","0","22","1","1","3","1","","0","1","0","null","","","<img src = 'category4/CS5.png' width = '100%;'>","null","","","","","","","","","",""
"","html-keyboard-response","137","595876","0.0-10.0-2.3","jrpn3cwjpf","one_one","1","direct_first","1","nn06er24","0","22","1","1","3","1","","0","1","0","null","","","<img src = 'targets/12.png' width = '100%;'>","null","","","","","","","","","",""
"","html-keyboard-response","138","596956","0.0-10.0-3.3","jrpn3cwjpf","one_one","1","direct_first","1","nn06er24","0","22","1","1","3","1","","0","1","0","1077.9649999458343","","","<img src = 'targets/mask.png' width = '100%;'>","75","pos","GS","GSold","4","category4/CS5.png","","targets/12.png","indirect","1","3"
"","html-keyboard-response","139","598479","0.0-10.0-0.4","jrpn3cwjpf","one_one","1","direct_first","1","nn06er24","0","22","1","1","3","1","","0","1","0","null","","","<div style=""font-size:60px;"">+</div>","null","","","","","","","","","",""
"","html-keyboard-response","140","598572","0.0-10.0-1.4","jrpn3cwjpf","one_one","1","direct_first","1","nn06er24","0","22","1","1","3","1","","0","1","0","null","","","<img src = 'category3/CS4.png' width = '100%;'>","null","","","","","","","","","",""
"","html-keyboard-response","141","598839","0.0-10.0-2.4","jrpn3cwjpf","one_one","1","direct_first","1","nn06er24","0","22","1","1","3","1","","0","1","0","null","","","<img src = 'targets/20.png' width = '100%;'>","null","","","","","","","","","",""
"","html-keyboard-response","142","600345","0.0-10.0-3.4","jrpn3cwjpf","one_one","1","direct_first","1","nn06er24","0","22","1","1","3","1","","0","1","0","1504.9299999373034","","","<img src = 'targets/mask.png' width = '100%;'>","68","neg","CS","CS","3","category3/CS4.png","","targets/20.png","indirect","0","4"
"","html-keyboard-response","143","601866","0.0-10.0-0.5","jrpn3cwjpf","one_one","1","direct_first","1","nn06er24","0","22","1","1","3","1","","0","1","0","null","","","<div style=""font-size:60px;"">+</div>","null","","","","","","","","","",""
"","html-keyboard-response","144","601963","0.0-10.0-1.5","jrpn3cwjpf","one_one","1","direct_first","1","nn06er24","0","22","1","1","3","1","","0","1","0","null","","","<img src = 'category4/CS3.png' width = '100%;'>","null","","","","","","","","","",""
"","html-keyboard-response","145","602231","0.0-10.0-2.5","jrpn3cwjpf","one_one","1","direct_first","1","nn06er24","0","22","1","1","3","1","","0","1","0","null","","","<img src = 'targets/42.png' width = '100%;'>","null","","","","","","","","","",""
"","html-keyboard-response","146","603345","0.0-10.0-3.5","jrpn3cwjpf","one_one","1","direct_first","1","nn06er24","0","22","1","1","3","1","","0","1","0","1111.8149999529123","","","<img src = 'targets/mask.png' width = '100%;'>","68","pos","GS","GSold","4","category4/CS3.png","","targets/42.png","indirect","0","5"
"","html-keyboard-response","147","604866","0.0-10.0-0.6","jrpn3cwjpf","one_one","1","direct_first","1","nn06er24","0","22","1","1","3","1","","0","1","0","null","","","<div style=""font-size:60px;"">+</div>","null","","","","","","","","","",""
"","html-keyboard-response","148","604963","0.0-10.0-1.6","jrpn3cwjpf","one_one","1","direct_first","1","nn06er24","0","22","1","1","3","1","","0","1","0","null","","","<img src = 'category1/CS8.png' width = '100%;'>","null","","","","","","","","","",""
"","html-keyboard-response","149","605226","0.0-10.0-2.6","jrpn3cwjpf","one_one","1","direct_first","1","nn06er24","0","22","1","1","3","1","","0","1","0","null","","","<img src = 'targets/30.png' width = '100%;'>","null","","","","","","","","","",""
"","html-keyboard-response","150","606806","0.0-10.0-3.6","jrpn3cwjpf","one_one","1","direct_first","1","nn06er24","0","22","1","1","3","1","","0","1","0","1576.7099999357015","","","<img src = 'targets/mask.png' width = '100%;'>","68","neg","GS","GSold","1","category1/CS8.png","","targets/30.png","indirect","0","6"
"","html-keyboard-response","151","608313","0.0-10.0-0.7","jrpn3cwjpf","one_one","1","direct_first","1","nn06er24","0","22","1","1","3","1","","0","1","0","null","","","<div style=""font-size:60px;"">+</div>","null","","","","","","","","","",""
"","html-keyboard-response","152","608416","0.0-10.0-1.7","jrpn3cwjpf","one_one","1","direct_first","1","nn06er24","0","22","1","1","3","1","","0","1","0","null","","","<img src = 'category1/CS5.png' width = '100%;'>","null","","","","","","","","","",""
"","html-keyboard-response","153","608685","0.0-10.0-2.7","jrpn3cwjpf","one_one","1","direct_first","1","nn06er24","0","22","1","1","3","1","","0","1","0","null","","","<img src = 'targets/33.png' width = '100%;'>","null","","","","","","","","","",""
"","html-keyboard-response","154","609797","0.0-10.0-3.7","jrpn3cwjpf","one_one","1","direct_first","1","nn06er24","0","22","1","1","3","1","","0","1","0","1109.8149999743327","","","<img src = 'targets/mask.png' width = '100%;'>","75","neg","GS","GSold","1","category1/CS5.png","","targets/33.png","indirect","1","7"
"","html-keyboard-response","155","611317","0.0-10.0-0.8","jrpn3cwjpf","one_one","1","direct_first","1","nn06er24","0","22","1","1","3","1","","0","1","0","null","","","<div style=""font-size:60px;"">+</div>","null","","","","","","","","","",""
"","html-keyboard-response","156","611414","0.0-10.0-1.8","jrpn3cwjpf","one_one","1","direct_first","1","nn06er24","0","22","1","1","3","1","","0","1","0","null","","","<img src = 'category3/CS6.png' width = '100%;'>","null","","","","","","","","","",""
"","html-keyboard-response","157","611685","0.0-10.0-2.8","jrpn3cwjpf","one_one","1","direct_first","1","nn06er24","0","22","1","1","3","1","","0","1","0","null","","","<img src = 'targets/45.png' width = '100%;'>","null","","","","","","","","","",""
"","html-keyboard-response","158","612495","0.0-10.0-3.8","jrpn3cwjpf","one_one","1","direct_first","1","nn06er24","0","22","1","1","3","1","","0","1","0","807.8700000187382","","","<img src = 'targets/mask.png' width = '100%;'>","68","neg","GS","GSold","3","category3/CS6.png","","targets/45.png","indirect","0","8"
"","html-keyboard-response","159","614009","0.0-10.0-0.9","jrpn3cwjpf","one_one","1","direct_first","1","nn06er24","0","22","1","1","3","1","","0","1","0","null","","","<div style=""font-size:60px;"">+</div>","null","","","","","","","","","",""
"","html-keyboard-response","160","614107","0.0-10.0-1.9","jrpn3cwjpf","one_one","1","direct_first","1","nn06er24","0","22","1","1","3","1","","0","1","0","null","","","<img src = 'category2/CS10.png' width = '100%;'>","null","","","","","","","","","",""
"","html-keyboard-response","161","614382","0.0-10.0-2.9","jrpn3cwjpf","one_one","1","direct_first","1","nn06er24","0","22","1","1","3","1","","0","1","0","null","","","<img src = 'targets/27.png' width = '100%;'>","null","","","","","","","","","",""
"","html-keyboard-response","162","615169","0.0-10.0-3.9","jrpn3cwjpf","one_one","1","direct_first","1","nn06er24","0","22","1","1","3","1","","0","1","0","786.034999997355","","","<img src = 'targets/mask.png' width = '100%;'>","75","pos","GS","GSold","2","category2/CS10.png","","targets/27.png","indirect","1","9"
"","html-keyboard-response","163","616690","0.0-10.0-0.10","jrpn3cwjpf","one_one","1","direct_first","1","nn06er24","0","22","1","1","3","1","","0","1","0","null","","","<div style=""font-size:60px;"">+</div>","null","","","","","","","","","",""
"","html-keyboard-response","164","616791","0.0-10.0-1.10","jrpn3cwjpf","one_one","1","direct_first","1","nn06er24","0","22","1","1","3","1","","0","1","0","null","","","<img src = 'category4/CS4.png' width = '100%;'>","null","","","","","","","","","",""
"","html-keyboard-response","165","617062","0.0-10.0-2.10","jrpn3cwjpf","one_one","1","direct_first","1","nn06er24","0","22","1","1","3","1","","0","1","0","null","","","<img src = 'targets/41.png' width = '100%;'>","null","","","","","","","","","",""
"","html-keyboard-response","166","617772","0.0-10.0-3.10","jrpn3cwjpf","one_one","1","direct_first","1","nn06er24","0","22","1","1","3","1","","0","1","0","708.1550000002608","","","<img src = 'targets/mask.png' width = '100%;'>","75","pos","CS","CS","4","category4/CS4.png","","targets/41.png","indirect","1","10"
"","html-keyboard-response","167","619283","0.0-10.0-0.11","jrpn3cwjpf","one_one","1","direct_first","1","nn06er24","0","22","1","1","3","1","","0","1","0","null","","","<div style=""font-size:60px;"">+</div>","null","","","","","","","","","",""
"","html-keyboard-response","168","619388","0.0-10.0-1.11","jrpn3cwjpf","one_one","1","direct_first","1","nn06er24","0","22","1","1","3","1","","0","1","0","null","","","<img src = 'category4/CS2.png' width = '100%;'>","null","","","","","","","","","",""
"","html-keyboard-response","169","619648","0.0-10.0-2.11","jrpn3cwjpf","one_one","1","direct_first","1","nn06er24","0","22","1","1","3","1","","0","1","0","null","","","<img src = 'targets/31.png' width = '100%;'>","null","","","","","","","","","",""
"","html-keyboard-response","170","620240","0.0-10.0-3.11","jrpn3cwjpf","one_one","1","direct_first","1","nn06er24","0","22","1","1","3","1","","0","1","0","589.9549999739975","","","<img src = 'targets/mask.png' width = '100%;'>","75","pos","GS","GSold","4","category4/CS2.png","","targets/31.png","indirect","1","11"
"","html-keyboard-response","171","621751","0.0-10.0-0.12","jrpn3cwjpf","one_one","1","direct_first","1","nn06er24","0","22","1","1","3","1","","0","1","0","null","","","<div style=""font-size:60px;"">+</div>","null","","","","","","","","","",""
"","html-keyboard-response","172","621856","0.0-10.0-1.12","jrpn3cwjpf","one_one","1","direct_first","1","nn06er24","0","22","1","1","3","1","","0","1","0","null","","","<img src = 'category1/CS4.png' width = '100%;'>","null","","","","","","","","","",""
"","html-keyboard-response","173","622132","0.0-10.0-2.12","jrpn3cwjpf","one_one","1","direct_first","1","nn06er24","0","22","1","1","3","1","","0","1","0","null","","","<img src = 'targets/28.png' width = '100%;'>","null","","","","","","","","","",""
"","html-keyboard-response","174","622635","0.0-10.0-3.12","jrpn3cwjpf","one_one","1","direct_first","1","nn06er24","0","22","1","1","3","1","","0","1","0","501.4649999793619","","","<img src = 'targets/mask.png' width = '100%;'>","68","neg","GS","GSold","1","category1/CS4.png","","targets/28.png","indirect","0","12"
"","html-keyboard-response","175","624159","0.0-10.0-0.13","jrpn3cwjpf","one_one","1","direct_first","1","nn06er24","0","22","1","1","3","1","","0","1","0","null","","","<div style=""font-size:60px;"">+</div>","null","","","","","","","","","",""
"","html-keyboard-response","176","624252","0.0-10.0-1.13","jrpn3cwjpf","one_one","1","direct_first","1","nn06er24","0","22","1","1","3","1","","0","1","0","null","","","<img src = 'category2/CS6.png' width = '100%;'>","null","","","","","","","","","",""
"","html-keyboard-response","177","624532","0.0-10.0-2.13","jrpn3cwjpf","one_one","1","direct_first","1","nn06er24","0","22","1","1","3","1","","0","1","0","null","","","<img src = 'targets/21.png' width = '100%;'>","null","","","","","","","","","",""
"","html-keyboard-response","178","625854","0.0-10.0-3.13","jrpn3cwjpf","one_one","1","direct_first","1","nn06er24","0","22","1","1","3","1","","0","1","0","1318.5499999672174","","","<img src = 'targets/mask.png' width = '100%;'>","68","pos","GS","GSold","2","category2/CS6.png","","targets/21.png","indirect","0","13"
"","html-keyboard-response","179","627372","0.0-10.0-0.14","jrpn3cwjpf","one_one","1","direct_first","1","nn06er24","0","22","1","1","3","1","","0","1","0","null","","","<div style=""font-size:60px;"">+</div>","null","","","","","","","","","",""
"","html-keyboard-response","180","627468","0.0-10.0-1.14","jrpn3cwjpf","one_one","1","direct_first","1","nn06er24","0","22","1","1","3","1","","0","1","0","null","","","<img src = 'category3/CS5.png' width = '100%;'>","null","","","","","","","","","",""
"","html-keyboard-response","181","627734","0.0-10.0-2.14","jrpn3cwjpf","one_one","1","direct_first","1","nn06er24","0","22","1","1","3","1","","0","1","0","null","","","<img src = 'targets/5.png' width = '100%;'>","null","","","","","","","","","",""
"","html-keyboard-response","182","628294","0.0-10.0-3.14","jrpn3cwjpf","one_one","1","direct_first","1","nn06er24","0","22","1","1","3","1","","0","1","0","556.3050000928342","","","<img src = 'targets/mask.png' width = '100%;'>","75","neg","GS","GSold","3","category3/CS5.png","","targets/5.png","indirect","1","14"
"","html-keyboard-response","183","629817","0.0-10.0-0.15","jrpn3cwjpf","one_one","1","direct_first","1","nn06er24","0","22","1","1","3","1","","0","1","0","null","","","<div style=""font-size:60px;"">+</div>","null","","","","","","","","","",""
"","html-keyboard-response","184","629921","0.0-10.0-1.15","jrpn3cwjpf","one_one","1","direct_first","1","nn06er24","0","22","1","1","3","1","","0","1","0","null","","","<img src = 'category3/CS10.png' width = '100%;'>","null","","","","","","","","","",""
"","html-keyboard-response","185","630185","0.0-10.0-2.15","jrpn3cwjpf","one_one","1","direct_first","1","nn06er24","0","22","1","1","3","1","","0","1","0","null","","","<img src = 'targets/24.png' width = '100%;'>","null","","","","","","","","","",""
"","html-keyboard-response","186","630783","0.0-10.0-3.15","jrpn3cwjpf","one_one","1","direct_first","1","nn06er24","0","22","1","1","3","1","","0","1","0","595.8700000774115","","","<img src = 'targets/mask.png' width = '100%;'>","68","neg","GS","GSold","3","category3/CS10.png","","targets/24.png","indirect","0","15"
"","survey-html-form","187","633849","0.0-11.0","jrpn3cwjpf","one_one","1","direct_first","1","nn06er24","0","22","1","1","3","1","","0","1","0","2559.1649999842048","","{}","","","","","","","","","","","",""
"","html-keyboard-response","188","636877","0.0-12.0-0.0","jrpn3cwjpf","one_one","1","direct_first","1","nn06er24","0","22","1","1","3","1","","0","1","0","null","","","<div style=""font-size:60px;"">+</div>","null","","","","","","","","","",""
"","html-keyboard-response","189","636980","0.0-12.0-1.0","jrpn3cwjpf","one_one","1","direct_first","1","nn06er24","0","22","1","1","3","1","","0","1","0","null","","","<img src = 'category3/GS1.png' width = '100%;'>","null","","","","","","","","","",""
"","html-keyboard-response","190","637252","0.0-12.0-2.0","jrpn3cwjpf","one_one","1","direct_first","1","nn06er24","0","22","1","1","3","1","","0","1","0","null","","","<img src = 'targets/32.png' width = '100%;'>","null","","","","","","","","","",""
"","html-keyboard-response","191","637896","0.0-12.0-3.0","jrpn3cwjpf","one_one","1","direct_first","1","nn06er24","0","22","1","1","3","1","","0","1","0","641.9299999251962","","","<img src = 'targets/mask.png' width = '100%;'>","68","neg","GS","GSnew","3","category3/GS1.png","","targets/32.png","indirect","0","16"
"","html-keyboard-response","192","639409","0.0-12.0-0.1","jrpn3cwjpf","one_one","1","direct_first","1","nn06er24","0","22","1","1","3","1","","0","1","0","null","","","<div style=""font-size:60px;"">+</div>","null","","","","","","","","","",""
"","html-keyboard-response","193","639504","0.0-12.0-1.1","jrpn3cwjpf","one_one","1","direct_first","1","nn06er24","0","22","1","1","3","1","","0","1","0","null","","","<img src = 'category4/GS3.png' width = '100%;'>","null","","","","","","","","","",""
"","html-keyboard-response","194","639771","0.0-12.0-2.1","jrpn3cwjpf","one_one","1","direct_first","1","nn06er24","0","22","1","1","3","1","","0","1","0","null","","","<img src = 'targets/8.png' width = '100%;'>","null","","","","","","","","","",""
"","html-keyboard-response","195","640224","0.0-12.0-3.1","jrpn3cwjpf","one_one","1","direct_first","1","nn06er24","0","22","1","1","3","1","","0","1","0","450.93499997165054","","","<img src = 'targets/mask.png' width = '100%;'>","75","pos","GS","GSnew","4","category4/GS3.png","","targets/8.png","indirect","1","17"
"","html-keyboard-response","196","641755","0.0-12.0-0.2","jrpn3cwjpf","one_one","1","direct_first","1","nn06er24","0","22","1","1","3","1","","0","1","0","null","","","<div style=""font-size:60px;"">+</div>","null","","","","","","","","","",""
"","html-keyboard-response","197","641857","0.0-12.0-1.2","jrpn3cwjpf","one_one","1","direct_first","1","nn06er24","0","22","1","1","3","1","","0","1","0","null","","","<img src = 'category1/GS2.png' width = '100%;'>","null","","","","","","","","","",""
"","html-keyboard-response","198","642120","0.0-12.0-2.2","jrpn3cwjpf","one_one","1","direct_first","1","nn06er24","0","22","1","1","3","1","","0","1","0","null","","","<img src = 'targets/29.png' width = '100%;'>","null","","","","","","","","","",""
"","html-keyboard-response","199","642816","0.0-12.0-3.2","jrpn3cwjpf","one_one","1","direct_first","1","nn06er24","0","22","1","1","3","1","","0","1","0","694.844999932684","","","<img src = 'targets/mask.png' width = '100%;'>","75","neg","GS","GSnew","1","category1/GS2.png","","targets/29.png","indirect","1","18"
"","html-keyboard-response","200","644334","0.0-12.0-0.3","jrpn3cwjpf","one_one","1","direct_first","1","nn06er24","0","22","1","1","3","1","","0","1","0","null","","","<div style=""font-size:60px;"">+</div>","null","","","","","","","","","",""
"","html-keyboard-response","201","644441","0.0-12.0-1.3","jrpn3cwjpf","one_one","1","direct_first","1","nn06er24","0","22","1","1","3","1","","0","1","0","null","","","<img src = 'category2/GS1.png' width = '100%;'>","null","","","","","","","","","",""
"","html-keyboard-response","202","644705","0.0-12.0-2.3","jrpn3cwjpf","one_one","1","direct_first","1","nn06er24","0","22","1","1","3","1","","0","1","0","null","","","<img src = 'targets/40.png' width = '100%;'>","null","","","","","","","","","",""
"","html-keyboard-response","203","645419","0.0-12.0-3.3","jrpn3cwjpf","one_one","1","direct_first","1","nn06er24","0","22","1","1","3","1","","0","1","0","712.7249999903142","","","<img src = 'targets/mask.png' width = '100%;'>","68","pos","GS","GSnew","2","category2/GS1.png","","targets/40.png","indirect","0","19"
"","html-keyboard-response","204","646935","0.0-12.0-0.4","jrpn3cwjpf","one_one","1","direct_first","1","nn06er24","0","22","1","1","3","1","","0","1","0","null","","","<div style=""font-size:60px;"">+</div>","null","","","","","","","","","",""
"","html-keyboard-response","205","647042","0.0-12.0-1.4","jrpn3cwjpf","one_one","1","direct_first","1","nn06er24","0","22","1","1","3","1","","0","1","0","null","","","<img src = 'category2/men.png' width = '100%;'>","null","","","","","","","","","",""
"","html-keyboard-response","206","647305","0.0-12.0-2.4","jrpn3cwjpf","one_one","1","direct_first","1","nn06er24","0","22","1","1","3","1","","0","1","0","null","","","<img src = 'targets/9.png' width = '100%;'>","null","","","","","","","","","",""
"","html-keyboard-response","207","647743","0.0-12.0-3.4","jrpn3cwjpf","one_one","1","direct_first","1","nn06er24","0","22","1","1","3","1","","0","1","0","435.1700000697747","","","<img src = 'targets/mask.png' width = '100%;'>","75","pos","GS","abstract","2","category2/men.png","","targets/9.png","indirect","1","20"
"","html-keyboard-response","208","649259","0.0-12.0-0.5","jrpn3cwjpf","one_one","1","direct_first","1","nn06er24","0","22","1","1","3","1","","0","1","0","null","","","<div style=""font-size:60px;"">+</div>","null","","","","","","","","","",""
"","html-keyboard-response","209","649358","0.0-12.0-1.5","jrpn3cwjpf","one_one","1","direct_first","1","nn06er24","0","22","1","1","3","1","","0","1","0","null","","","<img src = 'category3/GS2.png' width = '100%;'>","null","","","","","","","","","",""
"","html-keyboard-response","210","649623","0.0-12.0-2.5","jrpn3cwjpf","one_one","1","direct_first","1","nn06er24","0","22","1","1","3","1","","0","1","0","null","","","<img src = 'targets/3.png' width = '100%;'>","null","","","","","","","","","",""
"","html-keyboard-response","211","650099","0.0-12.0-3.5","jrpn3cwjpf","one_one","1","direct_first","1","nn06er24","0","22","1","1","3","1","","0","1","0","474.38999998848885","","","<img src = 'targets/mask.png' width = '100%;'>","68","neg","GS","GSnew","3","category3/GS2.png","","targets/3.png","indirect","0","21"
"","html-keyboard-response","212","651618","0.0-12.0-0.6","jrpn3cwjpf","one_one","1","direct_first","1","nn06er24","0","22","1","1","3","1","","0","1","0","null","","","<div style=""font-size:60px;"">+</div>","null","","","","","","","","","",""
"","html-keyboard-response","213","651725","0.0-12.0-1.6","jrpn3cwjpf","one_one","1","direct_first","1","nn06er24","0","22","1","1","3","1","","0","1","0","null","","","<img src = 'category3/GS3.png' width = '100%;'>","null","","","","","","","","","",""
"","html-keyboard-response","214","651993","0.0-12.0-2.6","jrpn3cwjpf","one_one","1","direct_first","1","nn06er24","0","22","1","1","3","1","","0","1","0","null","","","<img src = 'targets/16.png' width = '100%;'>","null","","","","","","","","","",""
"","html-keyboard-response","215","652541","0.0-12.0-3.6","jrpn3cwjpf","one_one","1","direct_first","1","nn06er24","0","22","1","1","3","1","","0","1","0","546.0800000000745","","","<img src = 'targets/mask.png' width = '100%;'>","68","neg","GS","GSnew","3","category3/GS3.png","","targets/16.png","indirect","0","22"
"","html-keyboard-response","216","654060","0.0-12.0-0.7","jrpn3cwjpf","one_one","1","direct_first","1","nn06er24","0","22","1","1","3","1","","0","1","0","null","","","<div style=""font-size:60px;"">+</div>","null","","","","","","","","","",""
"","html-keyboard-response","217","654164","0.0-12.0-1.7","jrpn3cwjpf","one_one","1","direct_first","1","nn06er24","0","22","1","1","3","1","","0","1","0","null","","","<img src = 'category4/GS2.png' width = '100%;'>","null","","","","","","","","","",""
"","html-keyboard-response","218","654424","0.0-12.0-2.7","jrpn3cwjpf","one_one","1","direct_first","1","nn06er24","0","22","1","1","3","1","","0","1","0","null","","","<img src = 'targets/46.png' width = '100%;'>","null","","","","","","","","","",""
"","html-keyboard-response","219","654974","0.0-12.0-3.7","jrpn3cwjpf","one_one","1","direct_first","1","nn06er24","0","22","1","1","3","1","","0","1","0","548.3249999815598","","","<img src = 'targets/mask.png' width = '100%;'>","75","pos","GS","GSnew","4","category4/GS2.png","","targets/46.png","indirect","1","23"
"","html-keyboard-response","220","656484","0.0-12.0-0.8","jrpn3cwjpf","one_one","1","direct_first","1","nn06er24","0","22","1","1","3","1","","0","1","0","null","","","<div style=""font-size:60px;"">+</div>","null","","","","","","","","","",""
"","html-keyboard-response","221","656591","0.0-12.0-1.8","jrpn3cwjpf","one_one","1","direct_first","1","nn06er24","0","22","1","1","3","1","","0","1","0","null","","","<img src = 'category1/GS1.png' width = '100%;'>","null","","","","","","","","","",""
"","html-keyboard-response","222","656862","0.0-12.0-2.8","jrpn3cwjpf","one_one","1","direct_first","1","nn06er24","0","22","1","1","3","1","","0","1","0","null","","","<img src = 'targets/15.png' width = '100%;'>","null","","","","","","","","","",""
"","html-keyboard-response","223","657386","0.0-12.0-3.8","jrpn3cwjpf","one_one","1","direct_first","1","nn06er24","0","22","1","1","3","1","","0","1","0","522.6699999766424","","","<img src = 'targets/mask.png' width = '100%;'>","68","neg","GS","GSnew","1","category1/GS1.png","","targets/15.png","indirect","0","24"
"","html-keyboard-response","224","658899","0.0-12.0-0.9","jrpn3cwjpf","one_one","1","direct_first","1","nn06er24","0","22","1","1","3","1","","0","1","0","null","","","<div style=""font-size:60px;"">+</div>","null","","","","","","","","","",""
"","html-keyboard-response","225","658995","0.0-12.0-1.9","jrpn3cwjpf","one_one","1","direct_first","1","nn06er24","0","22","1","1","3","1","","0","1","0","null","","","<img src = 'category2/GS2.png' width = '100%;'>","null","","","","","","","","","",""
"","html-keyboard-response","226","659262","0.0-12.0-2.9","jrpn3cwjpf","one_one","1","direct_first","1","nn06er24","0","22","1","1","3","1","","0","1","0","null","","","<img src = 'targets/43.png' width = '100%;'>","null","","","","","","","","","",""
"","html-keyboard-response","227","659828","0.0-12.0-3.9","jrpn3cwjpf","one_one","1","direct_first","1","nn06er24","0","22","1","1","3","1","","0","1","0","563.800000003539","","","<img src = 'targets/mask.png' width = '100%;'>","68","pos","GS","GSnew","2","category2/GS2.png","","targets/43.png","indirect","0","25"
"","html-keyboard-response","228","661355","0.0-12.0-0.10","jrpn3cwjpf","one_one","1","direct_first","1","nn06er24","0","22","1","1","3","1","","0","1","0","null","","","<div style=""font-size:60px;"">+</div>","null","","","","","","","","","",""
"","html-keyboard-response","229","661462","0.0-12.0-1.10","jrpn3cwjpf","one_one","1","direct_first","1","nn06er24","0","22","1","1","3","1","","0","1","0","null","","","<img src = 'category1/GS3.png' width = '100%;'>","null","","","","","","","","","",""
"","html-keyboard-response","230","661742","0.0-12.0-2.10","jrpn3cwjpf","one_one","1","direct_first","1","nn06er24","0","22","1","1","3","1","","0","1","0","null","","","<img src = 'targets/18.png' width = '100%;'>","null","","","","","","","","","",""
"","html-keyboard-response","231","663266","0.0-12.0-3.10","jrpn3cwjpf","one_one","1","direct_first","1","nn06er24","0","22","1","1","3","1","","0","1","0","1523.1500000227243","","","<img src = 'targets/mask.png' width = '100%;'>","68","neg","GS","GSnew","1","category1/GS3.png","","targets/18.png","indirect","0","26"
"","html-keyboard-response","232","664780","0.0-12.0-0.11","jrpn3cwjpf","one_one","1","direct_first","1","nn06er24","0","22","1","1","3","1","","0","1","0","null","","","<div style=""font-size:60px;"">+</div>","null","","","","","","","","","",""
"","html-keyboard-response","233","664879","0.0-12.0-1.11","jrpn3cwjpf","one_one","1","direct_first","1","nn06er24","0","22","1","1","3","1","","0","1","0","null","","","<img src = 'category1/ma.png' width = '100%;'>","null","","","","","","","","","",""
"","html-keyboard-response","234","665146","0.0-12.0-2.11","jrpn3cwjpf","one_one","1","direct_first","1","nn06er24","0","22","1","1","3","1","","0","1","0","null","","","<img src = 'targets/1.png' width = '100%;'>","null","","","","","","","","","",""
"","html-keyboard-response","235","665679","0.0-12.0-3.11","jrpn3cwjpf","one_one","1","direct_first","1","nn06er24","0","22","1","1","3","1","","0","1","0","531.3799999421462","","","<img src = 'targets/mask.png' width = '100%;'>","75","neg","GS","abstract","1","category1/ma.png","","targets/1.png","indirect","1","27"
"","html-keyboard-response","236","667189","0.0-12.0-0.12","jrpn3cwjpf","one_one","1","direct_first","1","nn06er24","0","22","1","1","3","1","","0","1","0","null","","","<div style=""font-size:60px;"">+</div>","null","","","","","","","","","",""
"","html-keyboard-response","237","667294","0.0-12.0-1.12","jrpn3cwjpf","one_one","1","direct_first","1","nn06er24","0","22","1","1","3","1","","0","1","0","null","","","<img src = 'category2/GS3.png' width = '100%;'>","null","","","","","","","","","",""
"","html-keyboard-response","238","667569","0.0-12.0-2.12","jrpn3cwjpf","one_one","1","direct_first","1","nn06er24","0","22","1","1","3","1","","0","1","0","null","","","<img src = 'targets/36.png' width = '100%;'>","null","","","","","","","","","",""
"","html-keyboard-response","239","668016","0.0-12.0-3.12","jrpn3cwjpf","one_one","1","direct_first","1","nn06er24","0","22","1","1","3","1","","0","1","0","444.9200000381097","","","<img src = 'targets/mask.png' width = '100%;'>","75","pos","GS","GSnew","2","category2/GS3.png","","targets/36.png","indirect","1","28"
"","html-keyboard-response","240","669530","0.0-12.0-0.13","jrpn3cwjpf","one_one","1","direct_first","1","nn06er24","0","22","1","1","3","1","","0","1","0","null","","","<div style=""font-size:60px;"">+</div>","null","","","","","","","","","",""
"","html-keyboard-response","241","669629","0.0-12.0-1.13","jrpn3cwjpf","one_one","1","direct_first","1","nn06er24","0","22","1","1","3","1","","0","1","0","null","","","<img src = 'category3/wang.png' width = '100%;'>","null","","","","","","","","","",""
"","html-keyboard-response","242","669896","0.0-12.0-2.13","jrpn3cwjpf","one_one","1","direct_first","1","nn06er24","0","22","1","1","3","1","","0","1","0","null","","","<img src = 'targets/14.png' width = '100%;'>","null","","","","","","","","","",""
"","html-keyboard-response","243","670412","0.0-12.0-3.13","jrpn3cwjpf","one_one","1","direct_first","1","nn06er24","0","22","1","1","3","1","","0","1","0","513.9950000448152","","","<img src = 'targets/mask.png' width = '100%;'>","75","neg","GS","abstract","3","category3/wang.png","","targets/14.png","indirect","1","29"
"","html-keyboard-response","244","671929","0.0-12.0-0.14","jrpn3cwjpf","one_one","1","direct_first","1","nn06er24","0","22","1","1","3","1","","0","1","0","null","","","<div style=""font-size:60px;"">+</div>","null","","","","","","","","","",""
"","html-keyboard-response","245","672032","0.0-12.0-1.14","jrpn3cwjpf","one_one","1","direct_first","1","nn06er24","0","22","1","1","3","1","","0","1","0","null","","","<img src = 'category4/GS1.png' width = '100%;'>","null","","","","","","","","","",""
"","html-keyboard-response","246","672296","0.0-12.0-2.14","jrpn3cwjpf","one_one","1","direct_first","1","nn06er24","0","22","1","1","3","1","","0","1","0","null","","","<img src = 'targets/34.png' width = '100%;'>","null","","","","","","","","","",""
"","html-keyboard-response","247","672840","0.0-12.0-3.14","jrpn3cwjpf","one_one","1","direct_first","1","nn06er24","0","22","1","1","3","1","","0","1","0","542.7749999798834","","","<img src = 'targets/mask.png' width = '100%;'>","75","pos","GS","GSnew","4","category4/GS1.png","","targets/34.png","indirect","1","30"
"","html-keyboard-response","248","674365","0.0-12.0-0.15","jrpn3cwjpf","one_one","1","direct_first","1","nn06er24","0","22","1","1","3","1","","0","1","0","null","","","<div style=""font-size:60px;"">+</div>","null","","","","","","","","","",""
"","html-keyboard-response","249","674469","0.0-12.0-1.15","jrpn3cwjpf","one_one","1","direct_first","1","nn06er24","0","22","1","1","3","1","","0","1","0","null","","","<img src = 'category4/lin.png' width = '100%;'>","null","","","","","","","","","",""
"","html-keyboard-response","250","674731","0.0-12.0-2.15","jrpn3cwjpf","one_one","1","direct_first","1","nn06er24","0","22","1","1","3","1","","0","1","0","null","","","<img src = 'targets/6.png' width = '100%;'>","null","","","","","","","","","",""
"","html-keyboard-response","251","675212","0.0-12.0-3.15","jrpn3cwjpf","one_one","1","direct_first","1","nn06er24","0","22","1","1","3","1","","0","1","0","479.21499994117767","","","<img src = 'targets/mask.png' width = '100%;'>","75","pos","GS","abstract","4","category4/lin.png","","targets/6.png","indirect","1","31"
"","survey-html-form","252","680818","0.0-13.0","jrpn3cwjpf","one_one","1","direct_first","1","nn06er24","0","22","1","1","3","1","","0","1","0","5102.974999928847","","{}","","","","","","","","","","","",""
"","image-slider-response","253","689169","0.0-14.0-0.0","jrpn3cwjpf","one_one","1","direct_first","1","nn06er24","0","22","1","1","3","1","","0","1","0","7335.504999966361","","","","","neg","All","all","3","category3/wang_all.png","5","","all","",""
"","image-slider-response","254","692931","0.0-14.0-0.1","jrpn3cwjpf","one_one","1","direct_first","1","nn06er24","0","22","1","1","3","1","","0","1","0","3757.549999980256","","","","","pos","All","all","4","category4/lin_all.png","-32","","all","",""
"","image-slider-response","255","696603","0.0-14.0-0.2","jrpn3cwjpf","one_one","1","direct_first","1","nn06er24","0","22","1","1","3","1","","0","1","0","3668.8250000588596","","","","","pos","All","all","2","category2/men_all.png","35","","all","",""
"","image-slider-response","256","700318","0.0-14.0-0.3","jrpn3cwjpf","one_one","1","direct_first","1","nn06er24","0","22","1","1","3","1","","0","1","0","3710.329999914393","","","","","neg","All","all","1","category1/ma_all.png","-30","","all","",""
"","survey-text","257","703693","0.0-15.0","jrpn3cwjpf","one_one","1","direct_first","1","nn06er24","0","22","1","1","3","1","","0","1","0","3353.4900000086054","","{""comment"":""""}","","","","","","","","","","","",""
"","survey-html-form","258","717312","0.0-16.0","jrpn3cwjpf","one_one","1","direct_first","1","nn06er24","0","22","1","1","3","1","","0","1","0","13612.229999969713","","{""hinschauen"":""0"",""ablenkung"":""1"",""gewissenhaft"":""0""}","","","","","","","","","","","",""
