"success","trial_type","trial_index","time_elapsed","internal_node_id","subject","condition","condition_code","measure","measure_code","codeword","gender","age","education","chinese","fach","handedness","comment","hinschauen","ablenkung","gewissenhaft","rt","url","responses","stimulus","key_press","val","type","type_specific","category","cs_selected","target","indirect","task","nr_pres","response"
"true","fullscreen","0","4402","0.0-0.0","n5le7pcbkl","one_one","1","indirect_first","0","inhend09","0","19","1","1","3","1","","0","1","0","","","","","","","","","","","","","","",""
"","external-html","1","24383","0.0-1.0","n5le7pcbkl","one_one","1","indirect_first","0","inhend09","0","19","1","1","3","1","","0","1","0","19950.550000183284","text/information.html","","","","","","","","","","","","",""
"","external-html","2","40929","0.0-2.0","n5le7pcbkl","one_one","1","indirect_first","0","inhend09","0","19","1","1","3","1","","0","1","0","16498.610000126064","text/consent.html","","","","","","","","","","","","",""
"","survey-html-form","3","63726","0.0-3.0","n5le7pcbkl","one_one","1","indirect_first","0","inhend09","0","19","1","1","3","1","","0","1","0","22793.76499983482","","{""codeword_enter"":""inhend09""}","","","","","","","","","","","",""
"","survey-html-form","4","81805","0.0-4.0","n5le7pcbkl","one_one","1","indirect_first","0","inhend09","0","19","1","1","3","1","","0","1","0","18075.909999897704","","{""age"":""19"",""education"":""1"",""subject"":""3"",""gender"":""0"",""handedness"":""1"",""chinese"":""1""}","","","","","","","","","","","",""
"","survey-html-form","5","90767","0.0-5.0","n5le7pcbkl","one_one","1","indirect_first","0","inhend09","0","19","1","1","3","1","","0","1","0","8960.00500000082","","{}","","","","","","","","","","","",""
"","html-keyboard-response","6","94773","0.0-6.0-0.0-0.0","n5le7pcbkl","one_one","1","indirect_first","0","inhend09","0","19","1","1","3","1","","0","1","0","null","","","<div class = 'row'><div class = 'column'><img src = 'category4/CS4.png' width = '70%;'></div><div class = 'column'><img src = 'usneg/6020.bmp' width = '100%;'></div></div>","null","neg","CS","CS","4","category4/CS4.png","","","","",""
"","html-keyboard-response","7","97277","0.0-6.0-0.0-0.1","n5le7pcbkl","one_one","1","indirect_first","0","inhend09","0","19","1","1","3","1","","0","1","0","null","","","<div class = 'row'><div class = 'column'><img src = 'uspos/5629.bmp' width = '100%;'></div><div class = 'column'><img src = 'category1/CS10.png' width = '70%;'></div></div>","null","pos","CS","CS","1","category1/CS10.png","","","","",""
"","html-keyboard-response","8","99780","0.0-6.0-0.0-0.2","n5le7pcbkl","one_one","1","indirect_first","0","inhend09","0","19","1","1","3","1","","0","1","0","null","","","<div class = 'row'><div class = 'column'><img src = 'category2/CS4.png' width = '70%;'></div><div class = 'column'><img src = 'usneg/7380.bmp' width = '100%;'></div></div>","null","neg","CS","CS","2","category2/CS4.png","","","","",""
"","html-keyboard-response","9","102284","0.0-6.0-0.0-0.3","n5le7pcbkl","one_one","1","indirect_first","0","inhend09","0","19","1","1","3","1","","0","1","0","null","","","<div class = 'row'><div class = 'column'><img src = 'category1/CS10.png' width = '70%;'></div><div class = 'column'><img src = 'uspos/5629.bmp' width = '100%;'></div></div>","null","pos","CS","CS","1","category1/CS10.png","","","","",""
"","html-keyboard-response","10","104787","0.0-6.0-0.0-0.4","n5le7pcbkl","one_one","1","indirect_first","0","inhend09","0","19","1","1","3","1","","0","1","0","null","","","<div class = 'row'><div class = 'column'><img src = 'uspos/2150.bmp' width = '100%;'></div><div class = 'column'><img src = 'category3/CS2.png' width = '70%;'></div></div>","null","pos","CS","CS","3","category3/CS2.png","","","","",""
"","html-keyboard-response","11","107290","0.0-6.0-0.0-0.5","n5le7pcbkl","one_one","1","indirect_first","0","inhend09","0","19","1","1","3","1","","0","1","0","null","","","<div class = 'row'><div class = 'column'><img src = 'category1/CS10.png' width = '70%;'></div><div class = 'column'><img src = 'uspos/5629.bmp' width = '100%;'></div></div>","null","pos","CS","CS","1","category1/CS10.png","","","","",""
"","html-keyboard-response","12","109795","0.0-6.0-0.0-0.6","n5le7pcbkl","one_one","1","indirect_first","0","inhend09","0","19","1","1","3","1","","0","1","0","null","","","<div class = 'row'><div class = 'column'><img src = 'uspos/2150.bmp' width = '100%;'></div><div class = 'column'><img src = 'category3/CS2.png' width = '70%;'></div></div>","null","pos","CS","CS","3","category3/CS2.png","","","","",""
"","html-keyboard-response","13","112298","0.0-6.0-0.0-0.7","n5le7pcbkl","one_one","1","indirect_first","0","inhend09","0","19","1","1","3","1","","0","1","0","null","","","<div class = 'row'><div class = 'column'><img src = 'usneg/6020.bmp' width = '100%;'></div><div class = 'column'><img src = 'category4/CS4.png' width = '70%;'></div></div>","null","neg","CS","CS","4","category4/CS4.png","","","","",""
"","html-keyboard-response","14","114801","0.0-6.0-0.0-0.8","n5le7pcbkl","one_one","1","indirect_first","0","inhend09","0","19","1","1","3","1","","0","1","0","null","","","<div class = 'row'><div class = 'column'><img src = 'uspos/5629.bmp' width = '100%;'></div><div class = 'column'><img src = 'category1/CS10.png' width = '70%;'></div></div>","null","pos","CS","CS","1","category1/CS10.png","","","","",""
"","html-keyboard-response","15","117305","0.0-6.0-0.0-0.9","n5le7pcbkl","one_one","1","indirect_first","0","inhend09","0","19","1","1","3","1","","0","1","0","null","","","<div class = 'row'><div class = 'column'><img src = 'category4/CS4.png' width = '70%;'></div><div class = 'column'><img src = 'usneg/6020.bmp' width = '100%;'></div></div>","null","neg","CS","CS","4","category4/CS4.png","","","","",""
"","html-keyboard-response","16","119809","0.0-6.0-0.0-0.10","n5le7pcbkl","one_one","1","indirect_first","0","inhend09","0","19","1","1","3","1","","0","1","0","null","","","<div class = 'row'><div class = 'column'><img src = 'usneg/7380.bmp' width = '100%;'></div><div class = 'column'><img src = 'category2/CS4.png' width = '70%;'></div></div>","null","neg","CS","CS","2","category2/CS4.png","","","","",""
"","html-keyboard-response","17","122312","0.0-6.0-0.0-0.11","n5le7pcbkl","one_one","1","indirect_first","0","inhend09","0","19","1","1","3","1","","0","1","0","null","","","<div class = 'row'><div class = 'column'><img src = 'category3/CS2.png' width = '70%;'></div><div class = 'column'><img src = 'uspos/2150.bmp' width = '100%;'></div></div>","null","pos","CS","CS","3","category3/CS2.png","","","","",""
"","html-keyboard-response","18","124815","0.0-6.0-0.0-0.12","n5le7pcbkl","one_one","1","indirect_first","0","inhend09","0","19","1","1","3","1","","0","1","0","null","","","<div class = 'row'><div class = 'column'><img src = 'category2/CS4.png' width = '70%;'></div><div class = 'column'><img src = 'usneg/7380.bmp' width = '100%;'></div></div>","null","neg","CS","CS","2","category2/CS4.png","","","","",""
"","html-keyboard-response","19","127318","0.0-6.0-0.0-0.13","n5le7pcbkl","one_one","1","indirect_first","0","inhend09","0","19","1","1","3","1","","0","1","0","null","","","<div class = 'row'><div class = 'column'><img src = 'uspos/2150.bmp' width = '100%;'></div><div class = 'column'><img src = 'category3/CS2.png' width = '70%;'></div></div>","null","pos","CS","CS","3","category3/CS2.png","","","","",""
"","html-keyboard-response","20","129822","0.0-6.0-0.0-0.14","n5le7pcbkl","one_one","1","indirect_first","0","inhend09","0","19","1","1","3","1","","0","1","0","null","","","<div class = 'row'><div class = 'column'><img src = 'usneg/6020.bmp' width = '100%;'></div><div class = 'column'><img src = 'category4/CS4.png' width = '70%;'></div></div>","null","neg","CS","CS","4","category4/CS4.png","","","","",""
"","html-keyboard-response","21","132325","0.0-6.0-0.0-0.15","n5le7pcbkl","one_one","1","indirect_first","0","inhend09","0","19","1","1","3","1","","0","1","0","null","","","<div class = 'row'><div class = 'column'><img src = 'uspos/2150.bmp' width = '100%;'></div><div class = 'column'><img src = 'category3/CS2.png' width = '70%;'></div></div>","null","pos","CS","CS","3","category3/CS2.png","","","","",""
"","html-keyboard-response","22","134828","0.0-6.0-0.0-0.16","n5le7pcbkl","one_one","1","indirect_first","0","inhend09","0","19","1","1","3","1","","0","1","0","null","","","<div class = 'row'><div class = 'column'><img src = 'usneg/7380.bmp' width = '100%;'></div><div class = 'column'><img src = 'category2/CS4.png' width = '70%;'></div></div>","null","neg","CS","CS","2","category2/CS4.png","","","","",""
"","html-keyboard-response","23","137331","0.0-6.0-0.0-0.17","n5le7pcbkl","one_one","1","indirect_first","0","inhend09","0","19","1","1","3","1","","0","1","0","null","","","<div class = 'row'><div class = 'column'><img src = 'uspos/5629.bmp' width = '100%;'></div><div class = 'column'><img src = 'category1/CS10.png' width = '70%;'></div></div>","null","pos","CS","CS","1","category1/CS10.png","","","","",""
"","html-keyboard-response","24","139834","0.0-6.0-0.0-0.18","n5le7pcbkl","one_one","1","indirect_first","0","inhend09","0","19","1","1","3","1","","0","1","0","null","","","<div class = 'row'><div class = 'column'><img src = 'category4/CS4.png' width = '70%;'></div><div class = 'column'><img src = 'usneg/6020.bmp' width = '100%;'></div></div>","null","neg","CS","CS","4","category4/CS4.png","","","","",""
"","html-keyboard-response","25","142337","0.0-6.0-0.0-0.19","n5le7pcbkl","one_one","1","indirect_first","0","inhend09","0","19","1","1","3","1","","0","1","0","null","","","<div class = 'row'><div class = 'column'><img src = 'usneg/7380.bmp' width = '100%;'></div><div class = 'column'><img src = 'category2/CS4.png' width = '70%;'></div></div>","null","neg","CS","CS","2","category2/CS4.png","","","","",""
"","survey-html-form","26","144902","0.0-6.0-1.0","n5le7pcbkl","one_one","1","indirect_first","0","inhend09","0","19","1","1","3","1","","0","1","0","2063.300000037998","","{}","","","","","","","","","","","",""
"","html-keyboard-response","27","148906","0.0-6.0-2.0-0.0","n5le7pcbkl","one_one","1","indirect_first","0","inhend09","0","19","1","1","3","1","","0","1","0","null","","","<div class = 'row'><div class = 'column'><img src = 'category1/CS10.png' width = '70%;'></div><div class = 'column'><img src = 'uspos/5629.bmp' width = '100%;'></div></div>","null","pos","CS","CS","1","category1/CS10.png","","","","",""
"","html-keyboard-response","28","151410","0.0-6.0-2.0-0.1","n5le7pcbkl","one_one","1","indirect_first","0","inhend09","0","19","1","1","3","1","","0","1","0","null","","","<div class = 'row'><div class = 'column'><img src = 'uspos/2150.bmp' width = '100%;'></div><div class = 'column'><img src = 'category3/CS2.png' width = '70%;'></div></div>","null","pos","CS","CS","3","category3/CS2.png","","","","",""
"","html-keyboard-response","29","153914","0.0-6.0-2.0-0.2","n5le7pcbkl","one_one","1","indirect_first","0","inhend09","0","19","1","1","3","1","","0","1","0","null","","","<div class = 'row'><div class = 'column'><img src = 'category2/CS4.png' width = '70%;'></div><div class = 'column'><img src = 'usneg/7380.bmp' width = '100%;'></div></div>","null","neg","CS","CS","2","category2/CS4.png","","","","",""
"","html-keyboard-response","30","156417","0.0-6.0-2.0-0.3","n5le7pcbkl","one_one","1","indirect_first","0","inhend09","0","19","1","1","3","1","","0","1","0","null","","","<div class = 'row'><div class = 'column'><img src = 'usneg/6020.bmp' width = '100%;'></div><div class = 'column'><img src = 'category4/CS4.png' width = '70%;'></div></div>","null","neg","CS","CS","4","category4/CS4.png","","","","",""
"","html-keyboard-response","31","158921","0.0-6.0-2.0-0.4","n5le7pcbkl","one_one","1","indirect_first","0","inhend09","0","19","1","1","3","1","","0","1","0","null","","","<div class = 'row'><div class = 'column'><img src = 'uspos/2150.bmp' width = '100%;'></div><div class = 'column'><img src = 'category3/CS2.png' width = '70%;'></div></div>","null","pos","CS","CS","3","category3/CS2.png","","","","",""
"","html-keyboard-response","32","161425","0.0-6.0-2.0-0.5","n5le7pcbkl","one_one","1","indirect_first","0","inhend09","0","19","1","1","3","1","","0","1","0","null","","","<div class = 'row'><div class = 'column'><img src = 'category4/CS4.png' width = '70%;'></div><div class = 'column'><img src = 'usneg/6020.bmp' width = '100%;'></div></div>","null","neg","CS","CS","4","category4/CS4.png","","","","",""
"","html-keyboard-response","33","163928","0.0-6.0-2.0-0.6","n5le7pcbkl","one_one","1","indirect_first","0","inhend09","0","19","1","1","3","1","","0","1","0","null","","","<div class = 'row'><div class = 'column'><img src = 'category2/CS4.png' width = '70%;'></div><div class = 'column'><img src = 'usneg/7380.bmp' width = '100%;'></div></div>","null","neg","CS","CS","2","category2/CS4.png","","","","",""
"","html-keyboard-response","34","166433","0.0-6.0-2.0-0.7","n5le7pcbkl","one_one","1","indirect_first","0","inhend09","0","19","1","1","3","1","","0","1","0","null","","","<div class = 'row'><div class = 'column'><img src = 'usneg/6020.bmp' width = '100%;'></div><div class = 'column'><img src = 'category4/CS4.png' width = '70%;'></div></div>","null","neg","CS","CS","4","category4/CS4.png","","","","",""
"","html-keyboard-response","35","168936","0.0-6.0-2.0-0.8","n5le7pcbkl","one_one","1","indirect_first","0","inhend09","0","19","1","1","3","1","","0","1","0","null","","","<div class = 'row'><div class = 'column'><img src = 'category1/CS10.png' width = '70%;'></div><div class = 'column'><img src = 'uspos/5629.bmp' width = '100%;'></div></div>","null","pos","CS","CS","1","category1/CS10.png","","","","",""
"","html-keyboard-response","36","171440","0.0-6.0-2.0-0.9","n5le7pcbkl","one_one","1","indirect_first","0","inhend09","0","19","1","1","3","1","","0","1","0","null","","","<div class = 'row'><div class = 'column'><img src = 'uspos/2150.bmp' width = '100%;'></div><div class = 'column'><img src = 'category3/CS2.png' width = '70%;'></div></div>","null","pos","CS","CS","3","category3/CS2.png","","","","",""
"","html-keyboard-response","37","173942","0.0-6.0-2.0-0.10","n5le7pcbkl","one_one","1","indirect_first","0","inhend09","0","19","1","1","3","1","","0","1","0","null","","","<div class = 'row'><div class = 'column'><img src = 'usneg/6020.bmp' width = '100%;'></div><div class = 'column'><img src = 'category4/CS4.png' width = '70%;'></div></div>","null","neg","CS","CS","4","category4/CS4.png","","","","",""
"","html-keyboard-response","38","176445","0.0-6.0-2.0-0.11","n5le7pcbkl","one_one","1","indirect_first","0","inhend09","0","19","1","1","3","1","","0","1","0","null","","","<div class = 'row'><div class = 'column'><img src = 'uspos/2150.bmp' width = '100%;'></div><div class = 'column'><img src = 'category3/CS2.png' width = '70%;'></div></div>","null","pos","CS","CS","3","category3/CS2.png","","","","",""
"","html-keyboard-response","39","178949","0.0-6.0-2.0-0.12","n5le7pcbkl","one_one","1","indirect_first","0","inhend09","0","19","1","1","3","1","","0","1","0","null","","","<div class = 'row'><div class = 'column'><img src = 'uspos/5629.bmp' width = '100%;'></div><div class = 'column'><img src = 'category1/CS10.png' width = '70%;'></div></div>","null","pos","CS","CS","1","category1/CS10.png","","","","",""
"","html-keyboard-response","40","181452","0.0-6.0-2.0-0.13","n5le7pcbkl","one_one","1","indirect_first","0","inhend09","0","19","1","1","3","1","","0","1","0","null","","","<div class = 'row'><div class = 'column'><img src = 'category2/CS4.png' width = '70%;'></div><div class = 'column'><img src = 'usneg/7380.bmp' width = '100%;'></div></div>","null","neg","CS","CS","2","category2/CS4.png","","","","",""
"","html-keyboard-response","41","183955","0.0-6.0-2.0-0.14","n5le7pcbkl","one_one","1","indirect_first","0","inhend09","0","19","1","1","3","1","","0","1","0","null","","","<div class = 'row'><div class = 'column'><img src = 'usneg/6020.bmp' width = '100%;'></div><div class = 'column'><img src = 'category4/CS4.png' width = '70%;'></div></div>","null","neg","CS","CS","4","category4/CS4.png","","","","",""
"","html-keyboard-response","42","186459","0.0-6.0-2.0-0.15","n5le7pcbkl","one_one","1","indirect_first","0","inhend09","0","19","1","1","3","1","","0","1","0","null","","","<div class = 'row'><div class = 'column'><img src = 'category1/CS10.png' width = '70%;'></div><div class = 'column'><img src = 'uspos/5629.bmp' width = '100%;'></div></div>","null","pos","CS","CS","1","category1/CS10.png","","","","",""
"","html-keyboard-response","43","188962","0.0-6.0-2.0-0.16","n5le7pcbkl","one_one","1","indirect_first","0","inhend09","0","19","1","1","3","1","","0","1","0","null","","","<div class = 'row'><div class = 'column'><img src = 'usneg/7380.bmp' width = '100%;'></div><div class = 'column'><img src = 'category2/CS4.png' width = '70%;'></div></div>","null","neg","CS","CS","2","category2/CS4.png","","","","",""
"","html-keyboard-response","44","191465","0.0-6.0-2.0-0.17","n5le7pcbkl","one_one","1","indirect_first","0","inhend09","0","19","1","1","3","1","","0","1","0","null","","","<div class = 'row'><div class = 'column'><img src = 'category3/CS2.png' width = '70%;'></div><div class = 'column'><img src = 'uspos/2150.bmp' width = '100%;'></div></div>","null","pos","CS","CS","3","category3/CS2.png","","","","",""
"","html-keyboard-response","45","193968","0.0-6.0-2.0-0.18","n5le7pcbkl","one_one","1","indirect_first","0","inhend09","0","19","1","1","3","1","","0","1","0","null","","","<div class = 'row'><div class = 'column'><img src = 'uspos/5629.bmp' width = '100%;'></div><div class = 'column'><img src = 'category1/CS10.png' width = '70%;'></div></div>","null","pos","CS","CS","1","category1/CS10.png","","","","",""
"","html-keyboard-response","46","196471","0.0-6.0-2.0-0.19","n5le7pcbkl","one_one","1","indirect_first","0","inhend09","0","19","1","1","3","1","","0","1","0","null","","","<div class = 'row'><div class = 'column'><img src = 'category2/CS4.png' width = '70%;'></div><div class = 'column'><img src = 'usneg/7380.bmp' width = '100%;'></div></div>","null","neg","CS","CS","2","category2/CS4.png","","","","",""
"","survey-html-form","47","198072","0.0-6.0-3.0","n5le7pcbkl","one_one","1","indirect_first","0","inhend09","0","19","1","1","3","1","","0","1","0","1099.2850000038743","","{}","","","","","","","","","","","",""
"","html-keyboard-response","48","202077","0.0-6.0-4.0-0.0","n5le7pcbkl","one_one","1","indirect_first","0","inhend09","0","19","1","1","3","1","","0","1","0","null","","","<div class = 'row'><div class = 'column'><img src = 'uspos/5629.bmp' width = '100%;'></div><div class = 'column'><img src = 'category1/CS10.png' width = '70%;'></div></div>","null","pos","CS","CS","1","category1/CS10.png","","","","",""
"","html-keyboard-response","49","204579","0.0-6.0-4.0-0.1","n5le7pcbkl","one_one","1","indirect_first","0","inhend09","0","19","1","1","3","1","","0","1","0","null","","","<div class = 'row'><div class = 'column'><img src = 'category4/CS4.png' width = '70%;'></div><div class = 'column'><img src = 'usneg/6020.bmp' width = '100%;'></div></div>","null","neg","CS","CS","4","category4/CS4.png","","","","",""
"","html-keyboard-response","50","207082","0.0-6.0-4.0-0.2","n5le7pcbkl","one_one","1","indirect_first","0","inhend09","0","19","1","1","3","1","","0","1","0","null","","","<div class = 'row'><div class = 'column'><img src = 'uspos/5629.bmp' width = '100%;'></div><div class = 'column'><img src = 'category1/CS10.png' width = '70%;'></div></div>","null","pos","CS","CS","1","category1/CS10.png","","","","",""
"","html-keyboard-response","51","209585","0.0-6.0-4.0-0.3","n5le7pcbkl","one_one","1","indirect_first","0","inhend09","0","19","1","1","3","1","","0","1","0","null","","","<div class = 'row'><div class = 'column'><img src = 'uspos/2150.bmp' width = '100%;'></div><div class = 'column'><img src = 'category3/CS2.png' width = '70%;'></div></div>","null","pos","CS","CS","3","category3/CS2.png","","","","",""
"","html-keyboard-response","52","212088","0.0-6.0-4.0-0.4","n5le7pcbkl","one_one","1","indirect_first","0","inhend09","0","19","1","1","3","1","","0","1","0","null","","","<div class = 'row'><div class = 'column'><img src = 'category2/CS4.png' width = '70%;'></div><div class = 'column'><img src = 'usneg/7380.bmp' width = '100%;'></div></div>","null","neg","CS","CS","2","category2/CS4.png","","","","",""
"","html-keyboard-response","53","214591","0.0-6.0-4.0-0.5","n5le7pcbkl","one_one","1","indirect_first","0","inhend09","0","19","1","1","3","1","","0","1","0","null","","","<div class = 'row'><div class = 'column'><img src = 'uspos/5629.bmp' width = '100%;'></div><div class = 'column'><img src = 'category1/CS10.png' width = '70%;'></div></div>","null","pos","CS","CS","1","category1/CS10.png","","","","",""
"","html-keyboard-response","54","217093","0.0-6.0-4.0-0.6","n5le7pcbkl","one_one","1","indirect_first","0","inhend09","0","19","1","1","3","1","","0","1","0","null","","","<div class = 'row'><div class = 'column'><img src = 'uspos/2150.bmp' width = '100%;'></div><div class = 'column'><img src = 'category3/CS2.png' width = '70%;'></div></div>","null","pos","CS","CS","3","category3/CS2.png","","","","",""
"","html-keyboard-response","55","219597","0.0-6.0-4.0-0.7","n5le7pcbkl","one_one","1","indirect_first","0","inhend09","0","19","1","1","3","1","","0","1","0","null","","","<div class = 'row'><div class = 'column'><img src = 'category4/CS4.png' width = '70%;'></div><div class = 'column'><img src = 'usneg/6020.bmp' width = '100%;'></div></div>","null","neg","CS","CS","4","category4/CS4.png","","","","",""
"","html-keyboard-response","56","222100","0.0-6.0-4.0-0.8","n5le7pcbkl","one_one","1","indirect_first","0","inhend09","0","19","1","1","3","1","","0","1","0","null","","","<div class = 'row'><div class = 'column'><img src = 'uspos/5629.bmp' width = '100%;'></div><div class = 'column'><img src = 'category1/CS10.png' width = '70%;'></div></div>","null","pos","CS","CS","1","category1/CS10.png","","","","",""
"","html-keyboard-response","57","224605","0.0-6.0-4.0-0.9","n5le7pcbkl","one_one","1","indirect_first","0","inhend09","0","19","1","1","3","1","","0","1","0","null","","","<div class = 'row'><div class = 'column'><img src = 'category2/CS4.png' width = '70%;'></div><div class = 'column'><img src = 'usneg/7380.bmp' width = '100%;'></div></div>","null","neg","CS","CS","2","category2/CS4.png","","","","",""
"","html-keyboard-response","58","227109","0.0-6.0-4.0-0.10","n5le7pcbkl","one_one","1","indirect_first","0","inhend09","0","19","1","1","3","1","","0","1","0","null","","","<div class = 'row'><div class = 'column'><img src = 'usneg/6020.bmp' width = '100%;'></div><div class = 'column'><img src = 'category4/CS4.png' width = '70%;'></div></div>","null","neg","CS","CS","4","category4/CS4.png","","","","",""
"","html-keyboard-response","59","229612","0.0-6.0-4.0-0.11","n5le7pcbkl","one_one","1","indirect_first","0","inhend09","0","19","1","1","3","1","","0","1","0","null","","","<div class = 'row'><div class = 'column'><img src = 'uspos/2150.bmp' width = '100%;'></div><div class = 'column'><img src = 'category3/CS2.png' width = '70%;'></div></div>","null","pos","CS","CS","3","category3/CS2.png","","","","",""
"","html-keyboard-response","60","232115","0.0-6.0-4.0-0.12","n5le7pcbkl","one_one","1","indirect_first","0","inhend09","0","19","1","1","3","1","","0","1","0","null","","","<div class = 'row'><div class = 'column'><img src = 'usneg/6020.bmp' width = '100%;'></div><div class = 'column'><img src = 'category4/CS4.png' width = '70%;'></div></div>","null","neg","CS","CS","4","category4/CS4.png","","","","",""
"","html-keyboard-response","61","234617","0.0-6.0-4.0-0.13","n5le7pcbkl","one_one","1","indirect_first","0","inhend09","0","19","1","1","3","1","","0","1","0","null","","","<div class = 'row'><div class = 'column'><img src = 'uspos/2150.bmp' width = '100%;'></div><div class = 'column'><img src = 'category3/CS2.png' width = '70%;'></div></div>","null","pos","CS","CS","3","category3/CS2.png","","","","",""
"","html-keyboard-response","62","237120","0.0-6.0-4.0-0.14","n5le7pcbkl","one_one","1","indirect_first","0","inhend09","0","19","1","1","3","1","","0","1","0","null","","","<div class = 'row'><div class = 'column'><img src = 'usneg/7380.bmp' width = '100%;'></div><div class = 'column'><img src = 'category2/CS4.png' width = '70%;'></div></div>","null","neg","CS","CS","2","category2/CS4.png","","","","",""
"","html-keyboard-response","63","239623","0.0-6.0-4.0-0.15","n5le7pcbkl","one_one","1","indirect_first","0","inhend09","0","19","1","1","3","1","","0","1","0","null","","","<div class = 'row'><div class = 'column'><img src = 'uspos/5629.bmp' width = '100%;'></div><div class = 'column'><img src = 'category1/CS10.png' width = '70%;'></div></div>","null","pos","CS","CS","1","category1/CS10.png","","","","",""
"","html-keyboard-response","64","242128","0.0-6.0-4.0-0.16","n5le7pcbkl","one_one","1","indirect_first","0","inhend09","0","19","1","1","3","1","","0","1","0","null","","","<div class = 'row'><div class = 'column'><img src = 'usneg/7380.bmp' width = '100%;'></div><div class = 'column'><img src = 'category2/CS4.png' width = '70%;'></div></div>","null","neg","CS","CS","2","category2/CS4.png","","","","",""
"","html-keyboard-response","65","244631","0.0-6.0-4.0-0.17","n5le7pcbkl","one_one","1","indirect_first","0","inhend09","0","19","1","1","3","1","","0","1","0","null","","","<div class = 'row'><div class = 'column'><img src = 'usneg/6020.bmp' width = '100%;'></div><div class = 'column'><img src = 'category4/CS4.png' width = '70%;'></div></div>","null","neg","CS","CS","4","category4/CS4.png","","","","",""
"","html-keyboard-response","66","247134","0.0-6.0-4.0-0.18","n5le7pcbkl","one_one","1","indirect_first","0","inhend09","0","19","1","1","3","1","","0","1","0","null","","","<div class = 'row'><div class = 'column'><img src = 'category2/CS4.png' width = '70%;'></div><div class = 'column'><img src = 'usneg/7380.bmp' width = '100%;'></div></div>","null","neg","CS","CS","2","category2/CS4.png","","","","",""
"","html-keyboard-response","67","249638","0.0-6.0-4.0-0.19","n5le7pcbkl","one_one","1","indirect_first","0","inhend09","0","19","1","1","3","1","","0","1","0","null","","","<div class = 'row'><div class = 'column'><img src = 'uspos/2150.bmp' width = '100%;'></div><div class = 'column'><img src = 'category3/CS2.png' width = '70%;'></div></div>","null","pos","CS","CS","3","category3/CS2.png","","","","",""
"","survey-html-form","68","251678","0.0-6.0-5.0","n5le7pcbkl","one_one","1","indirect_first","0","inhend09","0","19","1","1","3","1","","0","1","0","1537.620000075549","","{}","","","","","","","","","","","",""
"","html-keyboard-response","69","255695","0.0-6.0-6.0-0.0","n5le7pcbkl","one_one","1","indirect_first","0","inhend09","0","19","1","1","3","1","","0","1","0","null","","","<div class = 'row'><div class = 'column'><img src = 'category1/CS10.png' width = '70%;'></div><div class = 'column'><img src = 'uspos/5629.bmp' width = '100%;'></div></div>","null","pos","CS","CS","1","category1/CS10.png","","","","",""
"","html-keyboard-response","70","258198","0.0-6.0-6.0-0.1","n5le7pcbkl","one_one","1","indirect_first","0","inhend09","0","19","1","1","3","1","","0","1","0","null","","","<div class = 'row'><div class = 'column'><img src = 'usneg/7380.bmp' width = '100%;'></div><div class = 'column'><img src = 'category2/CS4.png' width = '70%;'></div></div>","null","neg","CS","CS","2","category2/CS4.png","","","","",""
"","html-keyboard-response","71","260701","0.0-6.0-6.0-0.2","n5le7pcbkl","one_one","1","indirect_first","0","inhend09","0","19","1","1","3","1","","0","1","0","null","","","<div class = 'row'><div class = 'column'><img src = 'uspos/2150.bmp' width = '100%;'></div><div class = 'column'><img src = 'category3/CS2.png' width = '70%;'></div></div>","null","pos","CS","CS","3","category3/CS2.png","","","","",""
"","html-keyboard-response","72","263205","0.0-6.0-6.0-0.3","n5le7pcbkl","one_one","1","indirect_first","0","inhend09","0","19","1","1","3","1","","0","1","0","null","","","<div class = 'row'><div class = 'column'><img src = 'category4/CS4.png' width = '70%;'></div><div class = 'column'><img src = 'usneg/6020.bmp' width = '100%;'></div></div>","null","neg","CS","CS","4","category4/CS4.png","","","","",""
"","html-keyboard-response","73","265708","0.0-6.0-6.0-0.4","n5le7pcbkl","one_one","1","indirect_first","0","inhend09","0","19","1","1","3","1","","0","1","0","null","","","<div class = 'row'><div class = 'column'><img src = 'category1/CS10.png' width = '70%;'></div><div class = 'column'><img src = 'uspos/5629.bmp' width = '100%;'></div></div>","null","pos","CS","CS","1","category1/CS10.png","","","","",""
"","html-keyboard-response","74","268211","0.0-6.0-6.0-0.5","n5le7pcbkl","one_one","1","indirect_first","0","inhend09","0","19","1","1","3","1","","0","1","0","null","","","<div class = 'row'><div class = 'column'><img src = 'usneg/6020.bmp' width = '100%;'></div><div class = 'column'><img src = 'category4/CS4.png' width = '70%;'></div></div>","null","neg","CS","CS","4","category4/CS4.png","","","","",""
"","html-keyboard-response","75","270715","0.0-6.0-6.0-0.6","n5le7pcbkl","one_one","1","indirect_first","0","inhend09","0","19","1","1","3","1","","0","1","0","null","","","<div class = 'row'><div class = 'column'><img src = 'uspos/2150.bmp' width = '100%;'></div><div class = 'column'><img src = 'category3/CS2.png' width = '70%;'></div></div>","null","pos","CS","CS","3","category3/CS2.png","","","","",""
"","html-keyboard-response","76","273218","0.0-6.0-6.0-0.7","n5le7pcbkl","one_one","1","indirect_first","0","inhend09","0","19","1","1","3","1","","0","1","0","null","","","<div class = 'row'><div class = 'column'><img src = 'usneg/7380.bmp' width = '100%;'></div><div class = 'column'><img src = 'category2/CS4.png' width = '70%;'></div></div>","null","neg","CS","CS","2","category2/CS4.png","","","","",""
"","html-keyboard-response","77","275722","0.0-6.0-6.0-0.8","n5le7pcbkl","one_one","1","indirect_first","0","inhend09","0","19","1","1","3","1","","0","1","0","null","","","<div class = 'row'><div class = 'column'><img src = 'category1/CS10.png' width = '70%;'></div><div class = 'column'><img src = 'uspos/5629.bmp' width = '100%;'></div></div>","null","pos","CS","CS","1","category1/CS10.png","","","","",""
"","html-keyboard-response","78","278225","0.0-6.0-6.0-0.9","n5le7pcbkl","one_one","1","indirect_first","0","inhend09","0","19","1","1","3","1","","0","1","0","null","","","<div class = 'row'><div class = 'column'><img src = 'usneg/7380.bmp' width = '100%;'></div><div class = 'column'><img src = 'category2/CS4.png' width = '70%;'></div></div>","null","neg","CS","CS","2","category2/CS4.png","","","","",""
"","html-keyboard-response","79","280727","0.0-6.0-6.0-0.10","n5le7pcbkl","one_one","1","indirect_first","0","inhend09","0","19","1","1","3","1","","0","1","0","null","","","<div class = 'row'><div class = 'column'><img src = 'uspos/2150.bmp' width = '100%;'></div><div class = 'column'><img src = 'category3/CS2.png' width = '70%;'></div></div>","null","pos","CS","CS","3","category3/CS2.png","","","","",""
"","html-keyboard-response","80","283231","0.0-6.0-6.0-0.11","n5le7pcbkl","one_one","1","indirect_first","0","inhend09","0","19","1","1","3","1","","0","1","0","null","","","<div class = 'row'><div class = 'column'><img src = 'category2/CS4.png' width = '70%;'></div><div class = 'column'><img src = 'usneg/7380.bmp' width = '100%;'></div></div>","null","neg","CS","CS","2","category2/CS4.png","","","","",""
"","html-keyboard-response","81","285734","0.0-6.0-6.0-0.12","n5le7pcbkl","one_one","1","indirect_first","0","inhend09","0","19","1","1","3","1","","0","1","0","null","","","<div class = 'row'><div class = 'column'><img src = 'category3/CS2.png' width = '70%;'></div><div class = 'column'><img src = 'uspos/2150.bmp' width = '100%;'></div></div>","null","pos","CS","CS","3","category3/CS2.png","","","","",""
"","html-keyboard-response","82","288238","0.0-6.0-6.0-0.13","n5le7pcbkl","one_one","1","indirect_first","0","inhend09","0","19","1","1","3","1","","0","1","0","null","","","<div class = 'row'><div class = 'column'><img src = 'category4/CS4.png' width = '70%;'></div><div class = 'column'><img src = 'usneg/6020.bmp' width = '100%;'></div></div>","null","neg","CS","CS","4","category4/CS4.png","","","","",""
"","html-keyboard-response","83","290741","0.0-6.0-6.0-0.14","n5le7pcbkl","one_one","1","indirect_first","0","inhend09","0","19","1","1","3","1","","0","1","0","null","","","<div class = 'row'><div class = 'column'><img src = 'category3/CS2.png' width = '70%;'></div><div class = 'column'><img src = 'uspos/2150.bmp' width = '100%;'></div></div>","null","pos","CS","CS","3","category3/CS2.png","","","","",""
"","html-keyboard-response","84","293245","0.0-6.0-6.0-0.15","n5le7pcbkl","one_one","1","indirect_first","0","inhend09","0","19","1","1","3","1","","0","1","0","null","","","<div class = 'row'><div class = 'column'><img src = 'uspos/5629.bmp' width = '100%;'></div><div class = 'column'><img src = 'category1/CS10.png' width = '70%;'></div></div>","null","pos","CS","CS","1","category1/CS10.png","","","","",""
"","html-keyboard-response","85","295749","0.0-6.0-6.0-0.16","n5le7pcbkl","one_one","1","indirect_first","0","inhend09","0","19","1","1","3","1","","0","1","0","null","","","<div class = 'row'><div class = 'column'><img src = 'usneg/6020.bmp' width = '100%;'></div><div class = 'column'><img src = 'category4/CS4.png' width = '70%;'></div></div>","null","neg","CS","CS","4","category4/CS4.png","","","","",""
"","html-keyboard-response","86","298252","0.0-6.0-6.0-0.17","n5le7pcbkl","one_one","1","indirect_first","0","inhend09","0","19","1","1","3","1","","0","1","0","null","","","<div class = 'row'><div class = 'column'><img src = 'usneg/7380.bmp' width = '100%;'></div><div class = 'column'><img src = 'category2/CS4.png' width = '70%;'></div></div>","null","neg","CS","CS","2","category2/CS4.png","","","","",""
"","html-keyboard-response","87","300755","0.0-6.0-6.0-0.18","n5le7pcbkl","one_one","1","indirect_first","0","inhend09","0","19","1","1","3","1","","0","1","0","null","","","<div class = 'row'><div class = 'column'><img src = 'usneg/6020.bmp' width = '100%;'></div><div class = 'column'><img src = 'category4/CS4.png' width = '70%;'></div></div>","null","neg","CS","CS","4","category4/CS4.png","","","","",""
"","html-keyboard-response","88","303258","0.0-6.0-6.0-0.19","n5le7pcbkl","one_one","1","indirect_first","0","inhend09","0","19","1","1","3","1","","0","1","0","null","","","<div class = 'row'><div class = 'column'><img src = 'category1/CS10.png' width = '70%;'></div><div class = 'column'><img src = 'uspos/5629.bmp' width = '100%;'></div></div>","null","pos","CS","CS","1","category1/CS10.png","","","","",""
"","html-keyboard-response","89","323318","0.0-7.0","n5le7pcbkl","one_one","1","indirect_first","0","inhend09","0","19","1","1","3","1","","0","1","0","19556.92999996245","","","<p>Sie sehen nun die chinesischen Zeichen nur ganz kurz. Danach sehen Sie die jeweilige Aussprache der Zeichen als Silbe auf dem Bildschrim. Ihre Aufgabe ist es, für jede Silbe anzugeben, ob diese etwas angenehmes, oder unangenehmes bedeuten könnte. Verlassen Sie sich hier vor allem auf Ihre Intuition.<br><br>Die Zeichen werden nur zur Orientierung dargestellt, beachten Sie sie deshalb nicht. Konzentrieren Sie sich vor allem auf die Silben. <br>Reagieren Sie mit folgenden zwei Tasten: <br><br><b>'D' </b> wenn die Silbe etwas <b>unangenehmes</b> bedeuten könnte. <br><b>'K'</b> wenn die Silbe etwas <b>angenehmes</b> bedeuten könnte. <br><br>Bitte legen Sie nun den Zeigefinger der linken Hand auf die Taste 'D' und den Zeigefinger der rechten Hand auf die Taste 'K'. <br>Reagieren Sie auf jede Silbe so schnell wie möglich. Uns interessiert Ihre spontane Reaktion. <br> <br> <br>Drücken Sie 'D' oder 'K', um die nächste Aufgabe zu starten. </p>","68","","","","","","","","","",""
"","html-keyboard-response","90","326320","0.0-8.0-0.0","n5le7pcbkl","one_one","1","indirect_first","0","inhend09","0","19","1","1","3","1","","0","1","0","null","","","<div style=""font-size:60px;"">+</div>","null","","","","","","","","","",""
"","html-keyboard-response","91","326412","0.0-8.0-1.0","n5le7pcbkl","one_one","1","indirect_first","0","inhend09","0","19","1","1","3","1","","0","1","0","null","","","<img src = 'category2/CS1.png' width = '100%;'>","null","","","","","","","","","",""
"","html-keyboard-response","92","326665","0.0-8.0-2.0","n5le7pcbkl","one_one","1","indirect_first","0","inhend09","0","19","1","1","3","1","","0","1","0","null","","","<img src = 'targets/48.png' width = '100%;'>","null","","","","","","","","","",""
"","html-keyboard-response","93","329959","0.0-8.0-3.0","n5le7pcbkl","one_one","1","indirect_first","0","inhend09","0","19","1","1","3","1","","0","1","0","3292.585000162944","","","<img src = 'targets/mask.png' width = '100%;'>","68","neg","GS","GSold","2","category2/CS1.png","targets/48.png","0","indirect","0",""
"","html-keyboard-response","94","331463","0.0-8.0-0.1","n5le7pcbkl","one_one","1","indirect_first","0","inhend09","0","19","1","1","3","1","","0","1","0","null","","","<div style=""font-size:60px;"">+</div>","null","","","","","","","","","",""
"","html-keyboard-response","95","331555","0.0-8.0-1.1","n5le7pcbkl","one_one","1","indirect_first","0","inhend09","0","19","1","1","3","1","","0","1","0","null","","","<img src = 'category1/CS1.png' width = '100%;'>","null","","","","","","","","","",""
"","html-keyboard-response","96","331807","0.0-8.0-2.1","n5le7pcbkl","one_one","1","indirect_first","0","inhend09","0","19","1","1","3","1","","0","1","0","null","","","<img src = 'targets/29.png' width = '100%;'>","null","","","","","","","","","",""
"","html-keyboard-response","97","333649","0.0-8.0-3.1","n5le7pcbkl","one_one","1","indirect_first","0","inhend09","0","19","1","1","3","1","","0","1","0","1840.074999956414","","","<img src = 'targets/mask.png' width = '100%;'>","68","pos","GS","GSold","1","category1/CS1.png","targets/29.png","0","indirect","1",""
"","html-keyboard-response","98","335150","0.0-8.0-0.2","n5le7pcbkl","one_one","1","indirect_first","0","inhend09","0","19","1","1","3","1","","0","1","0","null","","","<div style=""font-size:60px;"">+</div>","null","","","","","","","","","",""
"","html-keyboard-response","99","335242","0.0-8.0-1.2","n5le7pcbkl","one_one","1","indirect_first","0","inhend09","0","19","1","1","3","1","","0","1","0","null","","","<img src = 'category1/CS10.png' width = '100%;'>","null","","","","","","","","","",""
"","html-keyboard-response","100","335495","0.0-8.0-2.2","n5le7pcbkl","one_one","1","indirect_first","0","inhend09","0","19","1","1","3","1","","0","1","0","null","","","<img src = 'targets/34.png' width = '100%;'>","null","","","","","","","","","",""
"","html-keyboard-response","101","336688","0.0-8.0-3.2","n5le7pcbkl","one_one","1","indirect_first","0","inhend09","0","19","1","1","3","1","","0","1","0","1192.0350000727922","","","<img src = 'targets/mask.png' width = '100%;'>","68","pos","CS","CS","1","category1/CS10.png","targets/34.png","0","indirect","2",""
"","html-keyboard-response","102","338190","0.0-8.0-0.3","n5le7pcbkl","one_one","1","indirect_first","0","inhend09","0","19","1","1","3","1","","0","1","0","null","","","<div style=""font-size:60px;"">+</div>","null","","","","","","","","","",""
"","html-keyboard-response","103","338281","0.0-8.0-1.3","n5le7pcbkl","one_one","1","indirect_first","0","inhend09","0","19","1","1","3","1","","0","1","0","null","","","<img src = 'category3/CS7.png' width = '100%;'>","null","","","","","","","","","",""
"","html-keyboard-response","104","338535","0.0-8.0-2.3","n5le7pcbkl","one_one","1","indirect_first","0","inhend09","0","19","1","1","3","1","","0","1","0","null","","","<img src = 'targets/20.png' width = '100%;'>","null","","","","","","","","","",""
"","html-keyboard-response","105","339752","0.0-8.0-3.3","n5le7pcbkl","one_one","1","indirect_first","0","inhend09","0","19","1","1","3","1","","0","1","0","1216.0000000149012","","","<img src = 'targets/mask.png' width = '100%;'>","75","pos","GS","GSold","3","category3/CS7.png","targets/20.png","1","indirect","3",""
"","html-keyboard-response","106","341255","0.0-8.0-0.4","n5le7pcbkl","one_one","1","indirect_first","0","inhend09","0","19","1","1","3","1","","0","1","0","null","","","<div style=""font-size:60px;"">+</div>","null","","","","","","","","","",""
"","html-keyboard-response","107","341347","0.0-8.0-1.4","n5le7pcbkl","one_one","1","indirect_first","0","inhend09","0","19","1","1","3","1","","0","1","0","null","","","<img src = 'category4/CS4.png' width = '100%;'>","null","","","","","","","","","",""
"","html-keyboard-response","108","341599","0.0-8.0-2.4","n5le7pcbkl","one_one","1","indirect_first","0","inhend09","0","19","1","1","3","1","","0","1","0","null","","","<img src = 'targets/15.png' width = '100%;'>","null","","","","","","","","","",""
"","html-keyboard-response","109","342606","0.0-8.0-3.4","n5le7pcbkl","one_one","1","indirect_first","0","inhend09","0","19","1","1","3","1","","0","1","0","1004.8050000332296","","","<img src = 'targets/mask.png' width = '100%;'>","75","neg","CS","CS","4","category4/CS4.png","targets/15.png","1","indirect","4",""
"","html-keyboard-response","110","344107","0.0-8.0-0.5","n5le7pcbkl","one_one","1","indirect_first","0","inhend09","0","19","1","1","3","1","","0","1","0","null","","","<div style=""font-size:60px;"">+</div>","null","","","","","","","","","",""
"","html-keyboard-response","111","344199","0.0-8.0-1.5","n5le7pcbkl","one_one","1","indirect_first","0","inhend09","0","19","1","1","3","1","","0","1","0","null","","","<img src = 'category4/CS6.png' width = '100%;'>","null","","","","","","","","","",""
"","html-keyboard-response","112","344451","0.0-8.0-2.5","n5le7pcbkl","one_one","1","indirect_first","0","inhend09","0","19","1","1","3","1","","0","1","0","null","","","<img src = 'targets/25.png' width = '100%;'>","null","","","","","","","","","",""
"","html-keyboard-response","113","345721","0.0-8.0-3.5","n5le7pcbkl","one_one","1","indirect_first","0","inhend09","0","19","1","1","3","1","","0","1","0","1269.1550001036376","","","<img src = 'targets/mask.png' width = '100%;'>","68","neg","GS","GSold","4","category4/CS6.png","targets/25.png","0","indirect","5",""
"","html-keyboard-response","114","347224","0.0-8.0-0.6","n5le7pcbkl","one_one","1","indirect_first","0","inhend09","0","19","1","1","3","1","","0","1","0","null","","","<div style=""font-size:60px;"">+</div>","null","","","","","","","","","",""
"","html-keyboard-response","115","347316","0.0-8.0-1.6","n5le7pcbkl","one_one","1","indirect_first","0","inhend09","0","19","1","1","3","1","","0","1","0","null","","","<img src = 'category4/CS9.png' width = '100%;'>","null","","","","","","","","","",""
"","html-keyboard-response","116","347568","0.0-8.0-2.6","n5le7pcbkl","one_one","1","indirect_first","0","inhend09","0","19","1","1","3","1","","0","1","0","null","","","<img src = 'targets/4.png' width = '100%;'>","null","","","","","","","","","",""
"","html-keyboard-response","117","348867","0.0-8.0-3.6","n5le7pcbkl","one_one","1","indirect_first","0","inhend09","0","19","1","1","3","1","","0","1","0","1296.8200000468642","","","<img src = 'targets/mask.png' width = '100%;'>","75","neg","GS","GSold","4","category4/CS9.png","targets/4.png","1","indirect","6",""
"","html-keyboard-response","118","350369","0.0-8.0-0.7","n5le7pcbkl","one_one","1","indirect_first","0","inhend09","0","19","1","1","3","1","","0","1","0","null","","","<div style=""font-size:60px;"">+</div>","null","","","","","","","","","",""
"","html-keyboard-response","119","350461","0.0-8.0-1.7","n5le7pcbkl","one_one","1","indirect_first","0","inhend09","0","19","1","1","3","1","","0","1","0","null","","","<img src = 'category3/CS10.png' width = '100%;'>","null","","","","","","","","","",""
"","html-keyboard-response","120","350712","0.0-8.0-2.7","n5le7pcbkl","one_one","1","indirect_first","0","inhend09","0","19","1","1","3","1","","0","1","0","null","","","<img src = 'targets/11.png' width = '100%;'>","null","","","","","","","","","",""
"","html-keyboard-response","121","352582","0.0-8.0-3.7","n5le7pcbkl","one_one","1","indirect_first","0","inhend09","0","19","1","1","3","1","","0","1","0","1867.4800000153482","","","<img src = 'targets/mask.png' width = '100%;'>","68","pos","GS","GSold","3","category3/CS10.png","targets/11.png","0","indirect","7",""
"","html-keyboard-response","122","354083","0.0-8.0-0.8","n5le7pcbkl","one_one","1","indirect_first","0","inhend09","0","19","1","1","3","1","","0","1","0","null","","","<div style=""font-size:60px;"">+</div>","null","","","","","","","","","",""
"","html-keyboard-response","123","354175","0.0-8.0-1.8","n5le7pcbkl","one_one","1","indirect_first","0","inhend09","0","19","1","1","3","1","","0","1","0","null","","","<img src = 'category4/CS10.png' width = '100%;'>","null","","","","","","","","","",""
"","html-keyboard-response","124","354427","0.0-8.0-2.8","n5le7pcbkl","one_one","1","indirect_first","0","inhend09","0","19","1","1","3","1","","0","1","0","null","","","<img src = 'targets/46.png' width = '100%;'>","null","","","","","","","","","",""
"","html-keyboard-response","125","356630","0.0-8.0-3.8","n5le7pcbkl","one_one","1","indirect_first","0","inhend09","0","19","1","1","3","1","","0","1","0","2202.2150000557303","","","<img src = 'targets/mask.png' width = '100%;'>","68","neg","GS","GSold","4","category4/CS10.png","targets/46.png","0","indirect","8",""
"","html-keyboard-response","126","358132","0.0-8.0-0.9","n5le7pcbkl","one_one","1","indirect_first","0","inhend09","0","19","1","1","3","1","","0","1","0","null","","","<div style=""font-size:60px;"">+</div>","null","","","","","","","","","",""
"","html-keyboard-response","127","358224","0.0-8.0-1.9","n5le7pcbkl","one_one","1","indirect_first","0","inhend09","0","19","1","1","3","1","","0","1","0","null","","","<img src = 'category1/CS7.png' width = '100%;'>","null","","","","","","","","","",""
"","html-keyboard-response","128","358476","0.0-8.0-2.9","n5le7pcbkl","one_one","1","indirect_first","0","inhend09","0","19","1","1","3","1","","0","1","0","null","","","<img src = 'targets/7.png' width = '100%;'>","null","","","","","","","","","",""
"","html-keyboard-response","129","361223","0.0-8.0-3.9","n5le7pcbkl","one_one","1","indirect_first","0","inhend09","0","19","1","1","3","1","","0","1","0","2744.925000006333","","","<img src = 'targets/mask.png' width = '100%;'>","75","pos","GS","GSold","1","category1/CS7.png","targets/7.png","1","indirect","9",""
"","html-keyboard-response","130","362736","0.0-8.0-0.10","n5le7pcbkl","one_one","1","indirect_first","0","inhend09","0","19","1","1","3","1","","0","1","0","null","","","<div style=""font-size:60px;"">+</div>","null","","","","","","","","","",""
"","html-keyboard-response","131","362827","0.0-8.0-1.10","n5le7pcbkl","one_one","1","indirect_first","0","inhend09","0","19","1","1","3","1","","0","1","0","null","","","<img src = 'category2/CS9.png' width = '100%;'>","null","","","","","","","","","",""
"","html-keyboard-response","132","363080","0.0-8.0-2.10","n5le7pcbkl","one_one","1","indirect_first","0","inhend09","0","19","1","1","3","1","","0","1","0","null","","","<img src = 'targets/2.png' width = '100%;'>","null","","","","","","","","","",""
"","html-keyboard-response","133","364367","0.0-8.0-3.10","n5le7pcbkl","one_one","1","indirect_first","0","inhend09","0","19","1","1","3","1","","0","1","0","1284.6150000113994","","","<img src = 'targets/mask.png' width = '100%;'>","68","neg","GS","GSold","2","category2/CS9.png","targets/2.png","0","indirect","10",""
"","html-keyboard-response","134","365869","0.0-8.0-0.11","n5le7pcbkl","one_one","1","indirect_first","0","inhend09","0","19","1","1","3","1","","0","1","0","null","","","<div style=""font-size:60px;"">+</div>","null","","","","","","","","","",""
"","html-keyboard-response","135","365960","0.0-8.0-1.11","n5le7pcbkl","one_one","1","indirect_first","0","inhend09","0","19","1","1","3","1","","0","1","0","null","","","<img src = 'category3/CS8.png' width = '100%;'>","null","","","","","","","","","",""
"","html-keyboard-response","136","366213","0.0-8.0-2.11","n5le7pcbkl","one_one","1","indirect_first","0","inhend09","0","19","1","1","3","1","","0","1","0","null","","","<img src = 'targets/27.png' width = '100%;'>","null","","","","","","","","","",""
"","html-keyboard-response","137","369260","0.0-8.0-3.11","n5le7pcbkl","one_one","1","indirect_first","0","inhend09","0","19","1","1","3","1","","0","1","0","3046.2299999780953","","","<img src = 'targets/mask.png' width = '100%;'>","68","pos","GS","GSold","3","category3/CS8.png","targets/27.png","0","indirect","11",""
"","html-keyboard-response","138","370762","0.0-8.0-0.12","n5le7pcbkl","one_one","1","indirect_first","0","inhend09","0","19","1","1","3","1","","0","1","0","null","","","<div style=""font-size:60px;"">+</div>","null","","","","","","","","","",""
"","html-keyboard-response","139","370854","0.0-8.0-1.12","n5le7pcbkl","one_one","1","indirect_first","0","inhend09","0","19","1","1","3","1","","0","1","0","null","","","<img src = 'category1/CS3.png' width = '100%;'>","null","","","","","","","","","",""
"","html-keyboard-response","140","371105","0.0-8.0-2.12","n5le7pcbkl","one_one","1","indirect_first","0","inhend09","0","19","1","1","3","1","","0","1","0","null","","","<img src = 'targets/30.png' width = '100%;'>","null","","","","","","","","","",""
"","html-keyboard-response","141","372388","0.0-8.0-3.12","n5le7pcbkl","one_one","1","indirect_first","0","inhend09","0","19","1","1","3","1","","0","1","0","1281.0049999970943","","","<img src = 'targets/mask.png' width = '100%;'>","75","pos","GS","GSold","1","category1/CS3.png","targets/30.png","1","indirect","12",""
"","html-keyboard-response","142","373890","0.0-8.0-0.13","n5le7pcbkl","one_one","1","indirect_first","0","inhend09","0","19","1","1","3","1","","0","1","0","null","","","<div style=""font-size:60px;"">+</div>","null","","","","","","","","","",""
"","html-keyboard-response","143","373982","0.0-8.0-1.13","n5le7pcbkl","one_one","1","indirect_first","0","inhend09","0","19","1","1","3","1","","0","1","0","null","","","<img src = 'category3/CS2.png' width = '100%;'>","null","","","","","","","","","",""
"","html-keyboard-response","144","374234","0.0-8.0-2.13","n5le7pcbkl","one_one","1","indirect_first","0","inhend09","0","19","1","1","3","1","","0","1","0","null","","","<img src = 'targets/28.png' width = '100%;'>","null","","","","","","","","","",""
"","html-keyboard-response","145","376183","0.0-8.0-3.13","n5le7pcbkl","one_one","1","indirect_first","0","inhend09","0","19","1","1","3","1","","0","1","0","1947.9000000283122","","","<img src = 'targets/mask.png' width = '100%;'>","75","pos","CS","CS","3","category3/CS2.png","targets/28.png","1","indirect","13",""
"","html-keyboard-response","146","377685","0.0-8.0-0.14","n5le7pcbkl","one_one","1","indirect_first","0","inhend09","0","19","1","1","3","1","","0","1","0","null","","","<div style=""font-size:60px;"">+</div>","null","","","","","","","","","",""
"","html-keyboard-response","147","377777","0.0-8.0-1.14","n5le7pcbkl","one_one","1","indirect_first","0","inhend09","0","19","1","1","3","1","","0","1","0","null","","","<img src = 'category2/CS5.png' width = '100%;'>","null","","","","","","","","","",""
"","html-keyboard-response","148","378029","0.0-8.0-2.14","n5le7pcbkl","one_one","1","indirect_first","0","inhend09","0","19","1","1","3","1","","0","1","0","null","","","<img src = 'targets/6.png' width = '100%;'>","null","","","","","","","","","",""
"","html-keyboard-response","149","379413","0.0-8.0-3.14","n5le7pcbkl","one_one","1","indirect_first","0","inhend09","0","19","1","1","3","1","","0","1","0","1383.2699998747557","","","<img src = 'targets/mask.png' width = '100%;'>","75","neg","GS","GSold","2","category2/CS5.png","targets/6.png","1","indirect","14",""
"","html-keyboard-response","150","380915","0.0-8.0-0.15","n5le7pcbkl","one_one","1","indirect_first","0","inhend09","0","19","1","1","3","1","","0","1","0","null","","","<div style=""font-size:60px;"">+</div>","null","","","","","","","","","",""
"","html-keyboard-response","151","381007","0.0-8.0-1.15","n5le7pcbkl","one_one","1","indirect_first","0","inhend09","0","19","1","1","3","1","","0","1","0","null","","","<img src = 'category2/CS4.png' width = '100%;'>","null","","","","","","","","","",""
"","html-keyboard-response","152","381259","0.0-8.0-2.15","n5le7pcbkl","one_one","1","indirect_first","0","inhend09","0","19","1","1","3","1","","0","1","0","null","","","<img src = 'targets/17.png' width = '100%;'>","null","","","","","","","","","",""
"","html-keyboard-response","153","382215","0.0-8.0-3.15","n5le7pcbkl","one_one","1","indirect_first","0","inhend09","0","19","1","1","3","1","","0","1","0","955.0749999471009","","","<img src = 'targets/mask.png' width = '100%;'>","68","neg","CS","CS","2","category2/CS4.png","targets/17.png","0","indirect","15",""
"","survey-html-form","154","387033","0.0-9.0","n5le7pcbkl","one_one","1","indirect_first","0","inhend09","0","19","1","1","3","1","","0","1","0","4307.130000088364","","{}","","","","","","","","","","","",""
"","html-keyboard-response","155","390036","0.0-10.0-0.0","n5le7pcbkl","one_one","1","indirect_first","0","inhend09","0","19","1","1","3","1","","0","1","0","null","","","<div style=""font-size:60px;"">+</div>","null","","","","","","","","","",""
"","html-keyboard-response","156","390127","0.0-10.0-1.0","n5le7pcbkl","one_one","1","indirect_first","0","inhend09","0","19","1","1","3","1","","0","1","0","null","","","<img src = 'category3/GS2.png' width = '100%;'>","null","","","","","","","","","",""
"","html-keyboard-response","157","390380","0.0-10.0-2.0","n5le7pcbkl","one_one","1","indirect_first","0","inhend09","0","19","1","1","3","1","","0","1","0","null","","","<img src = 'targets/37.png' width = '100%;'>","null","","","","","","","","","",""
"","html-keyboard-response","158","391255","0.0-10.0-3.0","n5le7pcbkl","one_one","1","indirect_first","0","inhend09","0","19","1","1","3","1","","0","1","0","872.2899998538196","","","<img src = 'targets/mask.png' width = '100%;'>","75","pos","GS","GSnew","3","category3/GS2.png","targets/37.png","1","indirect","16",""
"","html-keyboard-response","159","392757","0.0-10.0-0.1","n5le7pcbkl","one_one","1","indirect_first","0","inhend09","0","19","1","1","3","1","","0","1","0","null","","","<div style=""font-size:60px;"">+</div>","null","","","","","","","","","",""
"","html-keyboard-response","160","392849","0.0-10.0-1.1","n5le7pcbkl","one_one","1","indirect_first","0","inhend09","0","19","1","1","3","1","","0","1","0","null","","","<img src = 'category4/GS2.png' width = '100%;'>","null","","","","","","","","","",""
"","html-keyboard-response","161","393102","0.0-10.0-2.1","n5le7pcbkl","one_one","1","indirect_first","0","inhend09","0","19","1","1","3","1","","0","1","0","null","","","<img src = 'targets/41.png' width = '100%;'>","null","","","","","","","","","",""
"","html-keyboard-response","162","393938","0.0-10.0-3.1","n5le7pcbkl","one_one","1","indirect_first","0","inhend09","0","19","1","1","3","1","","0","1","0","834.6450000535697","","","<img src = 'targets/mask.png' width = '100%;'>","75","neg","GS","GSnew","4","category4/GS2.png","targets/41.png","1","indirect","17",""
"","html-keyboard-response","163","395440","0.0-10.0-0.2","n5le7pcbkl","one_one","1","indirect_first","0","inhend09","0","19","1","1","3","1","","0","1","0","null","","","<div style=""font-size:60px;"">+</div>","null","","","","","","","","","",""
"","html-keyboard-response","164","395532","0.0-10.0-1.2","n5le7pcbkl","one_one","1","indirect_first","0","inhend09","0","19","1","1","3","1","","0","1","0","null","","","<img src = 'category4/GS3.png' width = '100%;'>","null","","","","","","","","","",""
"","html-keyboard-response","165","395784","0.0-10.0-2.2","n5le7pcbkl","one_one","1","indirect_first","0","inhend09","0","19","1","1","3","1","","0","1","0","null","","","<img src = 'targets/47.png' width = '100%;'>","null","","","","","","","","","",""
"","html-keyboard-response","166","396482","0.0-10.0-3.2","n5le7pcbkl","one_one","1","indirect_first","0","inhend09","0","19","1","1","3","1","","0","1","0","697.6000000722706","","","<img src = 'targets/mask.png' width = '100%;'>","75","neg","GS","GSnew","4","category4/GS3.png","targets/47.png","1","indirect","18",""
"","html-keyboard-response","167","397984","0.0-10.0-0.3","n5le7pcbkl","one_one","1","indirect_first","0","inhend09","0","19","1","1","3","1","","0","1","0","null","","","<div style=""font-size:60px;"">+</div>","null","","","","","","","","","",""
"","html-keyboard-response","168","398076","0.0-10.0-1.3","n5le7pcbkl","one_one","1","indirect_first","0","inhend09","0","19","1","1","3","1","","0","1","0","null","","","<img src = 'category2/GS3.png' width = '100%;'>","null","","","","","","","","","",""
"","html-keyboard-response","169","398327","0.0-10.0-2.3","n5le7pcbkl","one_one","1","indirect_first","0","inhend09","0","19","1","1","3","1","","0","1","0","null","","","<img src = 'targets/42.png' width = '100%;'>","null","","","","","","","","","",""
"","html-keyboard-response","170","399284","0.0-10.0-3.3","n5le7pcbkl","one_one","1","indirect_first","0","inhend09","0","19","1","1","3","1","","0","1","0","955.4550000466406","","","<img src = 'targets/mask.png' width = '100%;'>","68","neg","GS","GSnew","2","category2/GS3.png","targets/42.png","0","indirect","19",""
"","html-keyboard-response","171","400785","0.0-10.0-0.4","n5le7pcbkl","one_one","1","indirect_first","0","inhend09","0","19","1","1","3","1","","0","1","0","null","","","<div style=""font-size:60px;"">+</div>","null","","","","","","","","","",""
"","html-keyboard-response","172","400877","0.0-10.0-1.4","n5le7pcbkl","one_one","1","indirect_first","0","inhend09","0","19","1","1","3","1","","0","1","0","null","","","<img src = 'category1/GS2.png' width = '100%;'>","null","","","","","","","","","",""
"","html-keyboard-response","173","401129","0.0-10.0-2.4","n5le7pcbkl","one_one","1","indirect_first","0","inhend09","0","19","1","1","3","1","","0","1","0","null","","","<img src = 'targets/40.png' width = '100%;'>","null","","","","","","","","","",""
"","html-keyboard-response","174","402098","0.0-10.0-3.4","n5le7pcbkl","one_one","1","indirect_first","0","inhend09","0","19","1","1","3","1","","0","1","0","967.695000115782","","","<img src = 'targets/mask.png' width = '100%;'>","68","pos","GS","GSnew","1","category1/GS2.png","targets/40.png","0","indirect","20",""
"","html-keyboard-response","175","403601","0.0-10.0-0.5","n5le7pcbkl","one_one","1","indirect_first","0","inhend09","0","19","1","1","3","1","","0","1","0","null","","","<div style=""font-size:60px;"">+</div>","null","","","","","","","","","",""
"","html-keyboard-response","176","403692","0.0-10.0-1.5","n5le7pcbkl","one_one","1","indirect_first","0","inhend09","0","19","1","1","3","1","","0","1","0","null","","","<img src = 'category3/wang.png' width = '100%;'>","null","","","","","","","","","",""
"","html-keyboard-response","177","403945","0.0-10.0-2.5","n5le7pcbkl","one_one","1","indirect_first","0","inhend09","0","19","1","1","3","1","","0","1","0","null","","","<img src = 'targets/22.png' width = '100%;'>","null","","","","","","","","","",""
"","html-keyboard-response","178","404531","0.0-10.0-3.5","n5le7pcbkl","one_one","1","indirect_first","0","inhend09","0","19","1","1","3","1","","0","1","0","585.0199998822063","","","<img src = 'targets/mask.png' width = '100%;'>","75","pos","GS","abstract","3","category3/wang.png","targets/22.png","1","indirect","21",""
"","html-keyboard-response","179","406033","0.0-10.0-0.6","n5le7pcbkl","one_one","1","indirect_first","0","inhend09","0","19","1","1","3","1","","0","1","0","null","","","<div style=""font-size:60px;"">+</div>","null","","","","","","","","","",""
"","html-keyboard-response","180","406125","0.0-10.0-1.6","n5le7pcbkl","one_one","1","indirect_first","0","inhend09","0","19","1","1","3","1","","0","1","0","null","","","<img src = 'category2/men.png' width = '100%;'>","null","","","","","","","","","",""
"","html-keyboard-response","181","406377","0.0-10.0-2.6","n5le7pcbkl","one_one","1","indirect_first","0","inhend09","0","19","1","1","3","1","","0","1","0","null","","","<img src = 'targets/32.png' width = '100%;'>","null","","","","","","","","","",""
"","html-keyboard-response","182","407319","0.0-10.0-3.6","n5le7pcbkl","one_one","1","indirect_first","0","inhend09","0","19","1","1","3","1","","0","1","0","941.0250000655651","","","<img src = 'targets/mask.png' width = '100%;'>","68","neg","GS","abstract","2","category2/men.png","targets/32.png","0","indirect","22",""
"","html-keyboard-response","183","408826","0.0-10.0-0.7","n5le7pcbkl","one_one","1","indirect_first","0","inhend09","0","19","1","1","3","1","","0","1","0","null","","","<div style=""font-size:60px;"">+</div>","null","","","","","","","","","",""
"","html-keyboard-response","184","408917","0.0-10.0-1.7","n5le7pcbkl","one_one","1","indirect_first","0","inhend09","0","19","1","1","3","1","","0","1","0","null","","","<img src = 'category2/GS2.png' width = '100%;'>","null","","","","","","","","","",""
"","html-keyboard-response","185","409169","0.0-10.0-2.7","n5le7pcbkl","one_one","1","indirect_first","0","inhend09","0","19","1","1","3","1","","0","1","0","null","","","<img src = 'targets/21.png' width = '100%;'>","null","","","","","","","","","",""
"","html-keyboard-response","186","409980","0.0-10.0-3.7","n5le7pcbkl","one_one","1","indirect_first","0","inhend09","0","19","1","1","3","1","","0","1","0","809.3099999241531","","","<img src = 'targets/mask.png' width = '100%;'>","68","neg","GS","GSnew","2","category2/GS2.png","targets/21.png","0","indirect","23",""
"","html-keyboard-response","187","411482","0.0-10.0-0.8","n5le7pcbkl","one_one","1","indirect_first","0","inhend09","0","19","1","1","3","1","","0","1","0","null","","","<div style=""font-size:60px;"">+</div>","null","","","","","","","","","",""
"","html-keyboard-response","188","411574","0.0-10.0-1.8","n5le7pcbkl","one_one","1","indirect_first","0","inhend09","0","19","1","1","3","1","","0","1","0","null","","","<img src = 'category3/GS3.png' width = '100%;'>","null","","","","","","","","","",""
"","html-keyboard-response","189","411827","0.0-10.0-2.8","n5le7pcbkl","one_one","1","indirect_first","0","inhend09","0","19","1","1","3","1","","0","1","0","null","","","<img src = 'targets/10.png' width = '100%;'>","null","","","","","","","","","",""
"","html-keyboard-response","190","412500","0.0-10.0-3.8","n5le7pcbkl","one_one","1","indirect_first","0","inhend09","0","19","1","1","3","1","","0","1","0","672.179999994114","","","<img src = 'targets/mask.png' width = '100%;'>","75","pos","GS","GSnew","3","category3/GS3.png","targets/10.png","1","indirect","24",""
"","html-keyboard-response","191","414002","0.0-10.0-0.9","n5le7pcbkl","one_one","1","indirect_first","0","inhend09","0","19","1","1","3","1","","0","1","0","null","","","<div style=""font-size:60px;"">+</div>","null","","","","","","","","","",""
"","html-keyboard-response","192","414094","0.0-10.0-1.9","n5le7pcbkl","one_one","1","indirect_first","0","inhend09","0","19","1","1","3","1","","0","1","0","null","","","<img src = 'category1/ma.png' width = '100%;'>","null","","","","","","","","","",""
"","html-keyboard-response","193","414345","0.0-10.0-2.9","n5le7pcbkl","one_one","1","indirect_first","0","inhend09","0","19","1","1","3","1","","0","1","0","null","","","<img src = 'targets/8.png' width = '100%;'>","null","","","","","","","","","",""
"","html-keyboard-response","194","414769","0.0-10.0-3.9","n5le7pcbkl","one_one","1","indirect_first","0","inhend09","0","19","1","1","3","1","","0","1","0","422.95000003650784","","","<img src = 'targets/mask.png' width = '100%;'>","68","pos","GS","abstract","1","category1/ma.png","targets/8.png","0","indirect","25",""
"","html-keyboard-response","195","416271","0.0-10.0-0.10","n5le7pcbkl","one_one","1","indirect_first","0","inhend09","0","19","1","1","3","1","","0","1","0","null","","","<div style=""font-size:60px;"">+</div>","null","","","","","","","","","",""
"","html-keyboard-response","196","416363","0.0-10.0-1.10","n5le7pcbkl","one_one","1","indirect_first","0","inhend09","0","19","1","1","3","1","","0","1","0","null","","","<img src = 'category3/GS1.png' width = '100%;'>","null","","","","","","","","","",""
"","html-keyboard-response","197","416615","0.0-10.0-2.10","n5le7pcbkl","one_one","1","indirect_first","0","inhend09","0","19","1","1","3","1","","0","1","0","null","","","<img src = 'targets/9.png' width = '100%;'>","null","","","","","","","","","",""
"","html-keyboard-response","198","417451","0.0-10.0-3.10","n5le7pcbkl","one_one","1","indirect_first","0","inhend09","0","19","1","1","3","1","","0","1","0","834.7049998119473","","","<img src = 'targets/mask.png' width = '100%;'>","75","pos","GS","GSnew","3","category3/GS1.png","targets/9.png","1","indirect","26",""
"","html-keyboard-response","199","418953","0.0-10.0-0.11","n5le7pcbkl","one_one","1","indirect_first","0","inhend09","0","19","1","1","3","1","","0","1","0","null","","","<div style=""font-size:60px;"">+</div>","null","","","","","","","","","",""
"","html-keyboard-response","200","419045","0.0-10.0-1.11","n5le7pcbkl","one_one","1","indirect_first","0","inhend09","0","19","1","1","3","1","","0","1","0","null","","","<img src = 'category1/GS1.png' width = '100%;'>","null","","","","","","","","","",""
"","html-keyboard-response","201","419297","0.0-10.0-2.11","n5le7pcbkl","one_one","1","indirect_first","0","inhend09","0","19","1","1","3","1","","0","1","0","null","","","<img src = 'targets/36.png' width = '100%;'>","null","","","","","","","","","",""
"","html-keyboard-response","202","419770","0.0-10.0-3.11","n5le7pcbkl","one_one","1","indirect_first","0","inhend09","0","19","1","1","3","1","","0","1","0","471.4399999938905","","","<img src = 'targets/mask.png' width = '100%;'>","75","pos","GS","GSnew","1","category1/GS1.png","targets/36.png","1","indirect","27",""
"","html-keyboard-response","203","421272","0.0-10.0-0.12","n5le7pcbkl","one_one","1","indirect_first","0","inhend09","0","19","1","1","3","1","","0","1","0","null","","","<div style=""font-size:60px;"">+</div>","null","","","","","","","","","",""
"","html-keyboard-response","204","421364","0.0-10.0-1.12","n5le7pcbkl","one_one","1","indirect_first","0","inhend09","0","19","1","1","3","1","","0","1","0","null","","","<img src = 'category4/GS1.png' width = '100%;'>","null","","","","","","","","","",""
"","html-keyboard-response","205","421615","0.0-10.0-2.12","n5le7pcbkl","one_one","1","indirect_first","0","inhend09","0","19","1","1","3","1","","0","1","0","null","","","<img src = 'targets/13.png' width = '100%;'>","null","","","","","","","","","",""
"","html-keyboard-response","206","422814","0.0-10.0-3.12","n5le7pcbkl","one_one","1","indirect_first","0","inhend09","0","19","1","1","3","1","","0","1","0","1197.2649998497218","","","<img src = 'targets/mask.png' width = '100%;'>","75","neg","GS","GSnew","4","category4/GS1.png","targets/13.png","1","indirect","28",""
"","html-keyboard-response","207","424315","0.0-10.0-0.13","n5le7pcbkl","one_one","1","indirect_first","0","inhend09","0","19","1","1","3","1","","0","1","0","null","","","<div style=""font-size:60px;"">+</div>","null","","","","","","","","","",""
"","html-keyboard-response","208","424407","0.0-10.0-1.13","n5le7pcbkl","one_one","1","indirect_first","0","inhend09","0","19","1","1","3","1","","0","1","0","null","","","<img src = 'category1/GS3.png' width = '100%;'>","null","","","","","","","","","",""
"","html-keyboard-response","209","424660","0.0-10.0-2.13","n5le7pcbkl","one_one","1","indirect_first","0","inhend09","0","19","1","1","3","1","","0","1","0","null","","","<img src = 'targets/19.png' width = '100%;'>","null","","","","","","","","","",""
"","html-keyboard-response","210","425986","0.0-10.0-3.13","n5le7pcbkl","one_one","1","indirect_first","0","inhend09","0","19","1","1","3","1","","0","1","0","1325.080000096932","","","<img src = 'targets/mask.png' width = '100%;'>","68","pos","GS","GSnew","1","category1/GS3.png","targets/19.png","0","indirect","29",""
"","html-keyboard-response","211","427488","0.0-10.0-0.14","n5le7pcbkl","one_one","1","indirect_first","0","inhend09","0","19","1","1","3","1","","0","1","0","null","","","<div style=""font-size:60px;"">+</div>","null","","","","","","","","","",""
"","html-keyboard-response","212","427580","0.0-10.0-1.14","n5le7pcbkl","one_one","1","indirect_first","0","inhend09","0","19","1","1","3","1","","0","1","0","null","","","<img src = 'category2/GS1.png' width = '100%;'>","null","","","","","","","","","",""
"","html-keyboard-response","213","427832","0.0-10.0-2.14","n5le7pcbkl","one_one","1","indirect_first","0","inhend09","0","19","1","1","3","1","","0","1","0","null","","","<img src = 'targets/18.png' width = '100%;'>","null","","","","","","","","","",""
"","html-keyboard-response","214","428613","0.0-10.0-3.14","n5le7pcbkl","one_one","1","indirect_first","0","inhend09","0","19","1","1","3","1","","0","1","0","779.3099998962134","","","<img src = 'targets/mask.png' width = '100%;'>","75","neg","GS","GSnew","2","category2/GS1.png","targets/18.png","1","indirect","30",""
"","html-keyboard-response","215","430115","0.0-10.0-0.15","n5le7pcbkl","one_one","1","indirect_first","0","inhend09","0","19","1","1","3","1","","0","1","0","null","","","<div style=""font-size:60px;"">+</div>","null","","","","","","","","","",""
"","html-keyboard-response","216","430206","0.0-10.0-1.15","n5le7pcbkl","one_one","1","indirect_first","0","inhend09","0","19","1","1","3","1","","0","1","0","null","","","<img src = 'category4/lin.png' width = '100%;'>","null","","","","","","","","","",""
"","html-keyboard-response","217","430458","0.0-10.0-2.15","n5le7pcbkl","one_one","1","indirect_first","0","inhend09","0","19","1","1","3","1","","0","1","0","null","","","<img src = 'targets/16.png' width = '100%;'>","null","","","","","","","","","",""
"","html-keyboard-response","218","431137","0.0-10.0-3.15","n5le7pcbkl","one_one","1","indirect_first","0","inhend09","0","19","1","1","3","1","","0","1","0","678.1649999320507","","","<img src = 'targets/mask.png' width = '100%;'>","75","neg","GS","abstract","4","category4/lin.png","targets/16.png","1","indirect","31",""
"","survey-html-form","219","435481","0.0-11.0","n5le7pcbkl","one_one","1","indirect_first","0","inhend09","0","19","1","1","3","1","","0","1","0","3842.494999989867","","{}","","","","","","","","","","","",""
"","image-slider-response","220","442537","0.0-12.0-0.0","n5le7pcbkl","one_one","1","indirect_first","0","inhend09","0","19","1","1","3","1","","0","1","0","5051.0700000450015","","","","","neg","GS","GSnew","2","category2/GS3.png","targets/42.png","","direct","","-15"
"","image-slider-response","221","445355","0.0-12.0-0.1","n5le7pcbkl","one_one","1","indirect_first","0","inhend09","0","19","1","1","3","1","","0","1","0","2815.405000001192","","","","","neg","GS","GSold","4","category4/CS10.png","targets/46.png","","direct","","30"
"","image-slider-response","222","448170","0.0-12.0-0.2","n5le7pcbkl","one_one","1","indirect_first","0","inhend09","0","19","1","1","3","1","","0","1","0","2813.5199998505414","","","","","pos","CS","CS","3","category3/CS2.png","targets/28.png","","direct","","100"
"","image-slider-response","223","452217","0.0-12.0-0.3","n5le7pcbkl","one_one","1","indirect_first","0","inhend09","0","19","1","1","3","1","","0","1","0","4045.2799999620765","","","","","pos","GS","GSold","3","category3/CS8.png","targets/27.png","","direct","","-51"
"","image-slider-response","224","455400","0.0-12.0-0.4","n5le7pcbkl","one_one","1","indirect_first","0","inhend09","0","19","1","1","3","1","","0","1","0","3180.750000057742","","","","","pos","GS","GSold","1","category1/CS3.png","targets/30.png","","direct","","24"
"","image-slider-response","225","457900","0.0-12.0-0.5","n5le7pcbkl","one_one","1","indirect_first","0","inhend09","0","19","1","1","3","1","","0","1","0","2497.1849999856204","","","","","pos","GS","GSnew","3","category3/GS2.png","targets/37.png","","direct","","-37"
"","image-slider-response","226","460348","0.0-12.0-0.6","n5le7pcbkl","one_one","1","indirect_first","0","inhend09","0","19","1","1","3","1","","0","1","0","2446.8650000635535","","","","","pos","GS","GSold","3","category3/CS7.png","targets/20.png","","direct","","9"
"","image-slider-response","227","462932","0.0-12.0-0.7","n5le7pcbkl","one_one","1","indirect_first","0","inhend09","0","19","1","1","3","1","","0","1","0","2582.4049999937415","","","","","neg","GS","GSold","4","category4/CS9.png","targets/4.png","","direct","","-41"
"","image-slider-response","228","465525","0.0-12.0-0.8","n5le7pcbkl","one_one","1","indirect_first","0","inhend09","0","19","1","1","3","1","","0","1","0","2590.7899998128414","","","","","neg","GS","GSold","2","category2/CS5.png","targets/6.png","","direct","","38"
"","image-slider-response","229","467604","0.0-12.0-0.9","n5le7pcbkl","one_one","1","indirect_first","0","inhend09","0","19","1","1","3","1","","0","1","0","2077.260000165552","","","","","neg","GS","GSnew","4","category4/GS2.png","targets/41.png","","direct","","-44"
"","image-slider-response","230","469918","0.0-12.0-0.10","n5le7pcbkl","one_one","1","indirect_first","0","inhend09","0","19","1","1","3","1","","0","1","0","2312.320000026375","","","","","pos","GS","abstract","3","category3/wang.png","targets/22.png","","direct","","62"
"","image-slider-response","231","472342","0.0-12.0-0.11","n5le7pcbkl","one_one","1","indirect_first","0","inhend09","0","19","1","1","3","1","","0","1","0","2422.1550000365824","","","","","pos","GS","GSnew","1","category1/GS3.png","targets/19.png","","direct","","-56"
"","image-slider-response","232","474799","0.0-12.0-0.12","n5le7pcbkl","one_one","1","indirect_first","0","inhend09","0","19","1","1","3","1","","0","1","0","2454.7050001565367","","","","","pos","GS","GSnew","3","category3/GS1.png","targets/9.png","","direct","","-65"
"","image-slider-response","233","477034","0.0-12.0-0.13","n5le7pcbkl","one_one","1","indirect_first","0","inhend09","0","19","1","1","3","1","","0","1","0","2233.4500001743436","","","","","pos","GS","GSold","3","category3/CS10.png","targets/11.png","","direct","","48"
"","image-slider-response","234","479597","0.0-12.0-0.14","n5le7pcbkl","one_one","1","indirect_first","0","inhend09","0","19","1","1","3","1","","0","1","0","2561.439999844879","","","","","pos","GS","GSnew","1","category1/GS1.png","targets/36.png","","direct","","-16"
"","image-slider-response","235","481962","0.0-12.0-0.15","n5le7pcbkl","one_one","1","indirect_first","0","inhend09","0","19","1","1","3","1","","0","1","0","2362.4200001358986","","","","","pos","CS","CS","1","category1/CS10.png","targets/34.png","","direct","","82"
"","image-slider-response","236","484572","0.0-12.0-0.16","n5le7pcbkl","one_one","1","indirect_first","0","inhend09","0","19","1","1","3","1","","0","1","0","2608.5949998814613","","","","","neg","CS","CS","2","category2/CS4.png","targets/17.png","","direct","","76"
"","image-slider-response","237","486776","0.0-12.0-0.17","n5le7pcbkl","one_one","1","indirect_first","0","inhend09","0","19","1","1","3","1","","0","1","0","2202.270000008866","","","","","neg","GS","GSnew","2","category2/GS1.png","targets/18.png","","direct","","-23"
"","image-slider-response","238","489707","0.0-12.0-0.18","n5le7pcbkl","one_one","1","indirect_first","0","inhend09","0","19","1","1","3","1","","0","1","0","2929.0299999993294","","","","","neg","GS","GSold","4","category4/CS6.png","targets/25.png","","direct","","-31"
"","image-slider-response","239","492119","0.0-12.0-0.19","n5le7pcbkl","one_one","1","indirect_first","0","inhend09","0","19","1","1","3","1","","0","1","0","2410.0750000216067","","","","","neg","CS","CS","4","category4/CS4.png","targets/15.png","","direct","","-97"
"","image-slider-response","240","494496","0.0-12.0-0.20","n5le7pcbkl","one_one","1","indirect_first","0","inhend09","0","19","1","1","3","1","","0","1","0","2376.064999960363","","","","","pos","GS","GSold","1","category1/CS1.png","targets/29.png","","direct","","-12"
"","image-slider-response","241","496867","0.0-12.0-0.21","n5le7pcbkl","one_one","1","indirect_first","0","inhend09","0","19","1","1","3","1","","0","1","0","2369.1000000108033","","","","","neg","GS","abstract","4","category4/lin.png","targets/16.png","","direct","","-58"
"","image-slider-response","242","500021","0.0-12.0-0.22","n5le7pcbkl","one_one","1","indirect_first","0","inhend09","0","19","1","1","3","1","","0","1","0","3151.5849998686463","","","","","pos","GS","GSold","1","category1/CS7.png","targets/7.png","","direct","","-68"
"","image-slider-response","243","502267","0.0-12.0-0.23","n5le7pcbkl","one_one","1","indirect_first","0","inhend09","0","19","1","1","3","1","","0","1","0","2244.4899999536574","","","","","neg","GS","GSnew","4","category4/GS3.png","targets/47.png","","direct","","-68"
"","image-slider-response","244","505438","0.0-12.0-0.24","n5le7pcbkl","one_one","1","indirect_first","0","inhend09","0","19","1","1","3","1","","0","1","0","3168.735000072047","","","","","neg","GS","GSnew","2","category2/GS2.png","targets/21.png","","direct","","19"
"","image-slider-response","245","508038","0.0-12.0-0.25","n5le7pcbkl","one_one","1","indirect_first","0","inhend09","0","19","1","1","3","1","","0","1","0","2597.8749999776483","","","","","pos","GS","abstract","1","category1/ma.png","targets/8.png","","direct","","41"
"","image-slider-response","246","510489","0.0-12.0-0.26","n5le7pcbkl","one_one","1","indirect_first","0","inhend09","0","19","1","1","3","1","","0","1","0","2449.769999831915","","","","","neg","GS","GSold","2","category2/CS1.png","targets/48.png","","direct","","-11"
"","image-slider-response","247","512940","0.0-12.0-0.27","n5le7pcbkl","one_one","1","indirect_first","0","inhend09","0","19","1","1","3","1","","0","1","0","2449.415000155568","","","","","neg","GS","GSnew","4","category4/GS1.png","targets/13.png","","direct","","-28"
"","image-slider-response","248","516233","0.0-12.0-0.28","n5le7pcbkl","one_one","1","indirect_first","0","inhend09","0","19","1","1","3","1","","0","1","0","3290.7100000884384","","","","","neg","GS","abstract","2","category2/men.png","targets/32.png","","direct","","98"
"","image-slider-response","249","518872","0.0-12.0-0.29","n5le7pcbkl","one_one","1","indirect_first","0","inhend09","0","19","1","1","3","1","","0","1","0","2636.9650000706315","","","","","pos","GS","GSnew","3","category3/GS3.png","targets/10.png","","direct","","73"
"","image-slider-response","250","520790","0.0-12.0-0.30","n5le7pcbkl","one_one","1","indirect_first","0","inhend09","0","19","1","1","3","1","","0","1","0","1915.8849997911602","","","","","pos","GS","GSnew","1","category1/GS2.png","targets/40.png","","direct","","-35"
"","image-slider-response","251","523279","0.0-12.0-0.31","n5le7pcbkl","one_one","1","indirect_first","0","inhend09","0","19","1","1","3","1","","0","1","0","2487.4500001315027","","","","","neg","GS","GSold","2","category2/CS9.png","targets/2.png","","direct","","-39"
"","survey-html-form","252","527262","0.0-13.0","n5le7pcbkl","one_one","1","indirect_first","0","inhend09","0","19","1","1","3","1","","0","1","0","3981.5700000617653","","{}","","","","","","","","","","","",""
"","image-slider-response","253","532014","0.0-14.0-0.0","n5le7pcbkl","one_one","1","indirect_first","0","inhend09","0","19","1","1","3","1","","0","1","0","3748.894999967888","","","","","neg","All","all","2","category2/men_all.png","","","all","","11"
"","image-slider-response","254","534328","0.0-14.0-0.1","n5le7pcbkl","one_one","1","indirect_first","0","inhend09","0","19","1","1","3","1","","0","1","0","2311.22999987565","","","","","pos","All","all","1","category1/ma_all.png","","","all","","-59"
"","image-slider-response","255","539141","0.0-14.0-0.2","n5le7pcbkl","one_one","1","indirect_first","0","inhend09","0","19","1","1","3","1","","0","1","0","4811.360000167042","","","","","neg","All","all","4","category4/lin_all.png","","","all","","-42"
"","image-slider-response","256","542007","0.0-14.0-0.3","n5le7pcbkl","one_one","1","indirect_first","0","inhend09","0","19","1","1","3","1","","0","1","0","2864.045000169426","","","","","pos","All","all","3","category3/wang_all.png","","","all","","28"
"","survey-text","257","544132","0.0-15.0","n5le7pcbkl","one_one","1","indirect_first","0","inhend09","0","19","1","1","3","1","","0","1","0","2115.474999882281","","{""comment"":""""}","","","","","","","","","","","",""
"","survey-html-form","258","552671","0.0-16.0","n5le7pcbkl","one_one","1","indirect_first","0","inhend09","0","19","1","1","3","1","","0","1","0","8535.90999986045","","{""hinschauen"":""0"",""ablenkung"":""1"",""gewissenhaft"":""0""}","","","","","","","","","","","",""
