"success","trial_type","trial_index","time_elapsed","internal_node_id","subject","condition","condition_code","measure","measure_code","codeword","gender","age","education","chinese","fach","handedness","comment","hinschauen","ablenkung","gewissenhaft","rt","url","responses","stimulus","key_press","val","type","type_specific","category","cs_selected","response","target","task","indirect","nr_pres"
"true","fullscreen","0","4470","0.0-0.0","8hm2c2gukk","many_one","0","direct_first","1","slsb17W3","0","20","1","1","3","1","","0","NA","0","","","","","","","","","","","","","","",""
"","external-html","1","30226","0.0-1.0","8hm2c2gukk","many_one","0","direct_first","1","slsb17W3","0","20","1","1","3","1","","0","NA","0","25530.55999999924","text/information.html","","","","","","","","","","","","",""
"","external-html","2","62724","0.0-2.0","8hm2c2gukk","many_one","0","direct_first","1","slsb17W3","0","20","1","1","3","1","","0","NA","0","32074.250000005122","text/consent.html","","","","","","","","","","","","",""
"","survey-html-form","3","80010","0.0-3.0","8hm2c2gukk","many_one","0","direct_first","1","slsb17W3","0","20","1","1","3","1","","0","NA","0","17278.96499999042","","{""codeword_enter"":""slsb17W3""}","","","","","","","","","","","",""
"","survey-html-form","4","112484","0.0-4.0","8hm2c2gukk","many_one","0","direct_first","1","slsb17W3","0","20","1","1","3","1","","0","NA","0","32471.615000002203","","{""age"":""20"",""education"":""1"",""subject"":""3"",""gender"":""0"",""handedness"":""1"",""chinese"":""1""}","","","","","","","","","","","",""
"","survey-html-form","5","122203","0.0-5.0","8hm2c2gukk","many_one","0","direct_first","1","slsb17W3","0","20","1","1","3","1","","0","NA","0","9715.595000001485","","{}","","","","","","","","","","","",""
"","html-keyboard-response","6","126226","0.0-6.0-0.0-0.0","8hm2c2gukk","many_one","0","direct_first","1","slsb17W3","0","20","1","1","3","1","","0","NA","0","null","","","<div class = 'row'><div class = 'column'><img src = 'category4/CS4.png' width = '70%;'></div><div class = 'column'><img src = 'usneg/9050.bmp' width = '100%;'></div></div>","null","neg","CS","CS","4","category4/CS4.png","","","","",""
"","html-keyboard-response","7","128742","0.0-6.0-0.0-0.1","8hm2c2gukk","many_one","0","direct_first","1","slsb17W3","0","20","1","1","3","1","","0","NA","0","null","","","<div class = 'row'><div class = 'column'><img src = 'uspos/2360.bmp' width = '100%;'></div><div class = 'column'><img src = 'category2/CS2.png' width = '70%;'></div></div>","null","pos","CS","CS","2","category2/CS2.png","","","","",""
"","html-keyboard-response","8","131259","0.0-6.0-0.0-0.2","8hm2c2gukk","many_one","0","direct_first","1","slsb17W3","0","20","1","1","3","1","","0","NA","0","null","","","<div class = 'row'><div class = 'column'><img src = 'uspos/2550.bmp' width = '100%;'></div><div class = 'column'><img src = 'category3/CS8.png' width = '70%;'></div></div>","null","pos","CS","CS","3","category3/CS8.png","","","","",""
"","html-keyboard-response","9","133771","0.0-6.0-0.0-0.3","8hm2c2gukk","many_one","0","direct_first","1","slsb17W3","0","20","1","1","3","1","","0","NA","0","null","","","<div class = 'row'><div class = 'column'><img src = 'category1/CS3.png' width = '70%;'></div><div class = 'column'><img src = 'usneg/6020.bmp' width = '100%;'></div></div>","null","neg","CS","CS","1","category1/CS3.png","","","","",""
"","html-keyboard-response","10","136293","0.0-6.0-0.0-0.4","8hm2c2gukk","many_one","0","direct_first","1","slsb17W3","0","20","1","1","3","1","","0","NA","0","null","","","<div class = 'row'><div class = 'column'><img src = 'category2/CS6.png' width = '70%;'></div><div class = 'column'><img src = 'uspos/8350.bmp' width = '100%;'></div></div>","null","pos","CS","CS","2","category2/CS6.png","","","","",""
"","html-keyboard-response","11","138808","0.0-6.0-0.0-0.5","8hm2c2gukk","many_one","0","direct_first","1","slsb17W3","0","20","1","1","3","1","","0","NA","0","null","","","<div class = 'row'><div class = 'column'><img src = 'category3/CS9.png' width = '70%;'></div><div class = 'column'><img src = 'uspos/1460.bmp' width = '100%;'></div></div>","null","pos","CS","CS","3","category3/CS9.png","","","","",""
"","html-keyboard-response","12","141313","0.0-6.0-0.0-0.6","8hm2c2gukk","many_one","0","direct_first","1","slsb17W3","0","20","1","1","3","1","","0","NA","0","null","","","<div class = 'row'><div class = 'column'><img src = 'usneg/2750.bmp' width = '100%;'></div><div class = 'column'><img src = 'category4/CS9.png' width = '70%;'></div></div>","null","neg","CS","CS","4","category4/CS9.png","","","","",""
"","html-keyboard-response","13","143829","0.0-6.0-0.0-0.7","8hm2c2gukk","many_one","0","direct_first","1","slsb17W3","0","20","1","1","3","1","","0","NA","0","null","","","<div class = 'row'><div class = 'column'><img src = 'usneg/9182.bmp' width = '100%;'></div><div class = 'column'><img src = 'category4/CS2.png' width = '70%;'></div></div>","null","neg","CS","CS","4","category4/CS2.png","","","","",""
"","html-keyboard-response","14","146342","0.0-6.0-0.0-0.8","8hm2c2gukk","many_one","0","direct_first","1","slsb17W3","0","20","1","1","3","1","","0","NA","0","null","","","<div class = 'row'><div class = 'column'><img src = 'category1/CS4.png' width = '70%;'></div><div class = 'column'><img src = 'usneg/9342.bmp' width = '100%;'></div></div>","null","neg","CS","CS","1","category1/CS4.png","","","","",""
"","html-keyboard-response","15","148856","0.0-6.0-0.0-0.9","8hm2c2gukk","many_one","0","direct_first","1","slsb17W3","0","20","1","1","3","1","","0","NA","0","null","","","<div class = 'row'><div class = 'column'><img src = 'category1/CS9.png' width = '70%;'></div><div class = 'column'><img src = 'usneg/9584.bmp' width = '100%;'></div></div>","null","neg","CS","CS","1","category1/CS9.png","","","","",""
"","html-keyboard-response","16","151365","0.0-6.0-0.0-0.10","8hm2c2gukk","many_one","0","direct_first","1","slsb17W3","0","20","1","1","3","1","","0","NA","0","null","","","<div class = 'row'><div class = 'column'><img src = 'uspos/7325.bmp' width = '100%;'></div><div class = 'column'><img src = 'category2/CS8.png' width = '70%;'></div></div>","null","pos","CS","CS","2","category2/CS8.png","","","","",""
"","html-keyboard-response","17","153877","0.0-6.0-0.0-0.11","8hm2c2gukk","many_one","0","direct_first","1","slsb17W3","0","20","1","1","3","1","","0","NA","0","null","","","<div class = 'row'><div class = 'column'><img src = 'uspos/2150.bmp' width = '100%;'></div><div class = 'column'><img src = 'category2/CS7.png' width = '70%;'></div></div>","null","pos","CS","CS","2","category2/CS7.png","","","","",""
"","html-keyboard-response","18","156384","0.0-6.0-0.0-0.12","8hm2c2gukk","many_one","0","direct_first","1","slsb17W3","0","20","1","1","3","1","","0","NA","0","null","","","<div class = 'row'><div class = 'column'><img src = 'usneg/9280.bmp' width = '100%;'></div><div class = 'column'><img src = 'category1/CS7.png' width = '70%;'></div></div>","null","neg","CS","CS","1","category1/CS7.png","","","","",""
"","html-keyboard-response","19","158902","0.0-6.0-0.0-0.13","8hm2c2gukk","many_one","0","direct_first","1","slsb17W3","0","20","1","1","3","1","","0","NA","0","null","","","<div class = 'row'><div class = 'column'><img src = 'usneg/6212.bmp' width = '100%;'></div><div class = 'column'><img src = 'category4/CS5.png' width = '70%;'></div></div>","null","neg","CS","CS","4","category4/CS5.png","","","","",""
"","html-keyboard-response","20","161415","0.0-6.0-0.0-0.14","8hm2c2gukk","many_one","0","direct_first","1","slsb17W3","0","20","1","1","3","1","","0","NA","0","null","","","<div class = 'row'><div class = 'column'><img src = 'category3/CS1.png' width = '70%;'></div><div class = 'column'><img src = 'uspos/2160.bmp' width = '100%;'></div></div>","null","pos","CS","CS","3","category3/CS1.png","","","","",""
"","html-keyboard-response","21","163926","0.0-6.0-0.0-0.15","8hm2c2gukk","many_one","0","direct_first","1","slsb17W3","0","20","1","1","3","1","","0","NA","0","null","","","<div class = 'row'><div class = 'column'><img src = 'uspos/2341.bmp' width = '100%;'></div><div class = 'column'><img src = 'category2/CS3.png' width = '70%;'></div></div>","null","pos","CS","CS","2","category2/CS3.png","","","","",""
"","html-keyboard-response","22","166445","0.0-6.0-0.0-0.16","8hm2c2gukk","many_one","0","direct_first","1","slsb17W3","0","20","1","1","3","1","","0","NA","0","null","","","<div class = 'row'><div class = 'column'><img src = 'category1/CS2.png' width = '70%;'></div><div class = 'column'><img src = 'usneg/3160.bmp' width = '100%;'></div></div>","null","neg","CS","CS","1","category1/CS2.png","","","","",""
"","html-keyboard-response","23","168961","0.0-6.0-0.0-0.17","8hm2c2gukk","many_one","0","direct_first","1","slsb17W3","0","20","1","1","3","1","","0","NA","0","null","","","<div class = 'row'><div class = 'column'><img src = 'category3/CS7.png' width = '70%;'></div><div class = 'column'><img src = 'uspos/2311.bmp' width = '100%;'></div></div>","null","pos","CS","CS","3","category3/CS7.png","","","","",""
"","html-keyboard-response","24","171480","0.0-6.0-0.0-0.18","8hm2c2gukk","many_one","0","direct_first","1","slsb17W3","0","20","1","1","3","1","","0","NA","0","null","","","<div class = 'row'><div class = 'column'><img src = 'usneg/9520.bmp' width = '100%;'></div><div class = 'column'><img src = 'category4/CS8.png' width = '70%;'></div></div>","null","neg","CS","CS","4","category4/CS8.png","","","","",""
"","html-keyboard-response","25","173991","0.0-6.0-0.0-0.19","8hm2c2gukk","many_one","0","direct_first","1","slsb17W3","0","20","1","1","3","1","","0","NA","0","null","","","<div class = 'row'><div class = 'column'><img src = 'uspos/1463.bmp' width = '100%;'></div><div class = 'column'><img src = 'category3/CS10.png' width = '70%;'></div></div>","null","pos","CS","CS","3","category3/CS10.png","","","","",""
"","survey-html-form","26","177406","0.0-6.0-1.0","8hm2c2gukk","many_one","0","direct_first","1","slsb17W3","0","20","1","1","3","1","","0","NA","0","2912.575000009383","","{}","","","","","","","","","","","",""
"","html-keyboard-response","27","181415","0.0-6.0-2.0-0.0","8hm2c2gukk","many_one","0","direct_first","1","slsb17W3","0","20","1","1","3","1","","0","NA","0","null","","","<div class = 'row'><div class = 'column'><img src = 'category3/CS8.png' width = '70%;'></div><div class = 'column'><img src = 'uspos/2550.bmp' width = '100%;'></div></div>","null","pos","CS","CS","3","category3/CS8.png","","","","",""
"","html-keyboard-response","28","183922","0.0-6.0-2.0-0.1","8hm2c2gukk","many_one","0","direct_first","1","slsb17W3","0","20","1","1","3","1","","0","NA","0","null","","","<div class = 'row'><div class = 'column'><img src = 'usneg/9520.bmp' width = '100%;'></div><div class = 'column'><img src = 'category4/CS8.png' width = '70%;'></div></div>","null","neg","CS","CS","4","category4/CS8.png","","","","",""
"","html-keyboard-response","29","186429","0.0-6.0-2.0-0.2","8hm2c2gukk","many_one","0","direct_first","1","slsb17W3","0","20","1","1","3","1","","0","NA","0","null","","","<div class = 'row'><div class = 'column'><img src = 'category3/CS1.png' width = '70%;'></div><div class = 'column'><img src = 'uspos/2160.bmp' width = '100%;'></div></div>","null","pos","CS","CS","3","category3/CS1.png","","","","",""
"","html-keyboard-response","30","188935","0.0-6.0-2.0-0.3","8hm2c2gukk","many_one","0","direct_first","1","slsb17W3","0","20","1","1","3","1","","0","NA","0","null","","","<div class = 'row'><div class = 'column'><img src = 'category4/CS9.png' width = '70%;'></div><div class = 'column'><img src = 'usneg/2750.bmp' width = '100%;'></div></div>","null","neg","CS","CS","4","category4/CS9.png","","","","",""
"","html-keyboard-response","31","191449","0.0-6.0-2.0-0.4","8hm2c2gukk","many_one","0","direct_first","1","slsb17W3","0","20","1","1","3","1","","0","NA","0","null","","","<div class = 'row'><div class = 'column'><img src = 'category3/CS7.png' width = '70%;'></div><div class = 'column'><img src = 'uspos/2311.bmp' width = '100%;'></div></div>","null","pos","CS","CS","3","category3/CS7.png","","","","",""
"","html-keyboard-response","32","193963","0.0-6.0-2.0-0.5","8hm2c2gukk","many_one","0","direct_first","1","slsb17W3","0","20","1","1","3","1","","0","NA","0","null","","","<div class = 'row'><div class = 'column'><img src = 'uspos/2150.bmp' width = '100%;'></div><div class = 'column'><img src = 'category2/CS7.png' width = '70%;'></div></div>","null","pos","CS","CS","2","category2/CS7.png","","","","",""
"","html-keyboard-response","33","196476","0.0-6.0-2.0-0.6","8hm2c2gukk","many_one","0","direct_first","1","slsb17W3","0","20","1","1","3","1","","0","NA","0","null","","","<div class = 'row'><div class = 'column'><img src = 'usneg/6212.bmp' width = '100%;'></div><div class = 'column'><img src = 'category4/CS5.png' width = '70%;'></div></div>","null","neg","CS","CS","4","category4/CS5.png","","","","",""
"","html-keyboard-response","34","198998","0.0-6.0-2.0-0.7","8hm2c2gukk","many_one","0","direct_first","1","slsb17W3","0","20","1","1","3","1","","0","NA","0","null","","","<div class = 'row'><div class = 'column'><img src = 'category4/CS4.png' width = '70%;'></div><div class = 'column'><img src = 'usneg/9050.bmp' width = '100%;'></div></div>","null","neg","CS","CS","4","category4/CS4.png","","","","",""
"","html-keyboard-response","35","201503","0.0-6.0-2.0-0.8","8hm2c2gukk","many_one","0","direct_first","1","slsb17W3","0","20","1","1","3","1","","0","NA","0","null","","","<div class = 'row'><div class = 'column'><img src = 'usneg/9584.bmp' width = '100%;'></div><div class = 'column'><img src = 'category1/CS9.png' width = '70%;'></div></div>","null","neg","CS","CS","1","category1/CS9.png","","","","",""
"","html-keyboard-response","36","204009","0.0-6.0-2.0-0.9","8hm2c2gukk","many_one","0","direct_first","1","slsb17W3","0","20","1","1","3","1","","0","NA","0","null","","","<div class = 'row'><div class = 'column'><img src = 'uspos/7325.bmp' width = '100%;'></div><div class = 'column'><img src = 'category2/CS8.png' width = '70%;'></div></div>","null","pos","CS","CS","2","category2/CS8.png","","","","",""
"","html-keyboard-response","37","206529","0.0-6.0-2.0-0.10","8hm2c2gukk","many_one","0","direct_first","1","slsb17W3","0","20","1","1","3","1","","0","NA","0","null","","","<div class = 'row'><div class = 'column'><img src = 'category2/CS2.png' width = '70%;'></div><div class = 'column'><img src = 'uspos/2360.bmp' width = '100%;'></div></div>","null","pos","CS","CS","2","category2/CS2.png","","","","",""
"","html-keyboard-response","38","209038","0.0-6.0-2.0-0.11","8hm2c2gukk","many_one","0","direct_first","1","slsb17W3","0","20","1","1","3","1","","0","NA","0","null","","","<div class = 'row'><div class = 'column'><img src = 'uspos/8350.bmp' width = '100%;'></div><div class = 'column'><img src = 'category2/CS6.png' width = '70%;'></div></div>","null","pos","CS","CS","2","category2/CS6.png","","","","",""
"","html-keyboard-response","39","211575","0.0-6.0-2.0-0.12","8hm2c2gukk","many_one","0","direct_first","1","slsb17W3","0","20","1","1","3","1","","0","NA","0","null","","","<div class = 'row'><div class = 'column'><img src = 'uspos/2341.bmp' width = '100%;'></div><div class = 'column'><img src = 'category2/CS3.png' width = '70%;'></div></div>","null","pos","CS","CS","2","category2/CS3.png","","","","",""
"","html-keyboard-response","40","214087","0.0-6.0-2.0-0.13","8hm2c2gukk","many_one","0","direct_first","1","slsb17W3","0","20","1","1","3","1","","0","NA","0","null","","","<div class = 'row'><div class = 'column'><img src = 'category1/CS3.png' width = '70%;'></div><div class = 'column'><img src = 'usneg/6020.bmp' width = '100%;'></div></div>","null","neg","CS","CS","1","category1/CS3.png","","","","",""
"","html-keyboard-response","41","216602","0.0-6.0-2.0-0.14","8hm2c2gukk","many_one","0","direct_first","1","slsb17W3","0","20","1","1","3","1","","0","NA","0","null","","","<div class = 'row'><div class = 'column'><img src = 'category4/CS2.png' width = '70%;'></div><div class = 'column'><img src = 'usneg/9182.bmp' width = '100%;'></div></div>","null","neg","CS","CS","4","category4/CS2.png","","","","",""
"","html-keyboard-response","42","219116","0.0-6.0-2.0-0.15","8hm2c2gukk","many_one","0","direct_first","1","slsb17W3","0","20","1","1","3","1","","0","NA","0","null","","","<div class = 'row'><div class = 'column'><img src = 'category3/CS9.png' width = '70%;'></div><div class = 'column'><img src = 'uspos/1460.bmp' width = '100%;'></div></div>","null","pos","CS","CS","3","category3/CS9.png","","","","",""
"","html-keyboard-response","43","221638","0.0-6.0-2.0-0.16","8hm2c2gukk","many_one","0","direct_first","1","slsb17W3","0","20","1","1","3","1","","0","NA","0","null","","","<div class = 'row'><div class = 'column'><img src = 'usneg/3160.bmp' width = '100%;'></div><div class = 'column'><img src = 'category1/CS2.png' width = '70%;'></div></div>","null","neg","CS","CS","1","category1/CS2.png","","","","",""
"","html-keyboard-response","44","224157","0.0-6.0-2.0-0.17","8hm2c2gukk","many_one","0","direct_first","1","slsb17W3","0","20","1","1","3","1","","0","NA","0","null","","","<div class = 'row'><div class = 'column'><img src = 'uspos/1463.bmp' width = '100%;'></div><div class = 'column'><img src = 'category3/CS10.png' width = '70%;'></div></div>","null","pos","CS","CS","3","category3/CS10.png","","","","",""
"","html-keyboard-response","45","226687","0.0-6.0-2.0-0.18","8hm2c2gukk","many_one","0","direct_first","1","slsb17W3","0","20","1","1","3","1","","0","NA","0","null","","","<div class = 'row'><div class = 'column'><img src = 'usneg/9280.bmp' width = '100%;'></div><div class = 'column'><img src = 'category1/CS7.png' width = '70%;'></div></div>","null","neg","CS","CS","1","category1/CS7.png","","","","",""
"","html-keyboard-response","46","229202","0.0-6.0-2.0-0.19","8hm2c2gukk","many_one","0","direct_first","1","slsb17W3","0","20","1","1","3","1","","0","NA","0","null","","","<div class = 'row'><div class = 'column'><img src = 'usneg/9342.bmp' width = '100%;'></div><div class = 'column'><img src = 'category1/CS4.png' width = '70%;'></div></div>","null","neg","CS","CS","1","category1/CS4.png","","","","",""
"","survey-html-form","47","446689","0.0-6.0-3.0","8hm2c2gukk","many_one","0","direct_first","1","slsb17W3","0","20","1","1","3","1","","0","NA","0","216982.19500000414","","{}","","","","","","","","","","","",""
"","html-keyboard-response","48","450700","0.0-6.0-4.0-0.0","8hm2c2gukk","many_one","0","direct_first","1","slsb17W3","0","20","1","1","3","1","","0","NA","0","null","","","<div class = 'row'><div class = 'column'><img src = 'uspos/7325.bmp' width = '100%;'></div><div class = 'column'><img src = 'category2/CS8.png' width = '70%;'></div></div>","null","pos","CS","CS","2","category2/CS8.png","","","","",""
"","html-keyboard-response","49","453217","0.0-6.0-4.0-0.1","8hm2c2gukk","many_one","0","direct_first","1","slsb17W3","0","20","1","1","3","1","","0","NA","0","null","","","<div class = 'row'><div class = 'column'><img src = 'category3/CS1.png' width = '70%;'></div><div class = 'column'><img src = 'uspos/2160.bmp' width = '100%;'></div></div>","null","pos","CS","CS","3","category3/CS1.png","","","","",""
"","html-keyboard-response","50","455726","0.0-6.0-4.0-0.2","8hm2c2gukk","many_one","0","direct_first","1","slsb17W3","0","20","1","1","3","1","","0","NA","0","null","","","<div class = 'row'><div class = 'column'><img src = 'usneg/9520.bmp' width = '100%;'></div><div class = 'column'><img src = 'category4/CS8.png' width = '70%;'></div></div>","null","neg","CS","CS","4","category4/CS8.png","","","","",""
"","html-keyboard-response","51","458246","0.0-6.0-4.0-0.3","8hm2c2gukk","many_one","0","direct_first","1","slsb17W3","0","20","1","1","3","1","","0","NA","0","null","","","<div class = 'row'><div class = 'column'><img src = 'category4/CS5.png' width = '70%;'></div><div class = 'column'><img src = 'usneg/6212.bmp' width = '100%;'></div></div>","null","neg","CS","CS","4","category4/CS5.png","","","","",""
"","html-keyboard-response","52","460760","0.0-6.0-4.0-0.4","8hm2c2gukk","many_one","0","direct_first","1","slsb17W3","0","20","1","1","3","1","","0","NA","0","null","","","<div class = 'row'><div class = 'column'><img src = 'usneg/9342.bmp' width = '100%;'></div><div class = 'column'><img src = 'category1/CS4.png' width = '70%;'></div></div>","null","neg","CS","CS","1","category1/CS4.png","","","","",""
"","html-keyboard-response","53","463270","0.0-6.0-4.0-0.5","8hm2c2gukk","many_one","0","direct_first","1","slsb17W3","0","20","1","1","3","1","","0","NA","0","null","","","<div class = 'row'><div class = 'column'><img src = 'usneg/3160.bmp' width = '100%;'></div><div class = 'column'><img src = 'category1/CS2.png' width = '70%;'></div></div>","null","neg","CS","CS","1","category1/CS2.png","","","","",""
"","html-keyboard-response","54","465783","0.0-6.0-4.0-0.6","8hm2c2gukk","many_one","0","direct_first","1","slsb17W3","0","20","1","1","3","1","","0","NA","0","null","","","<div class = 'row'><div class = 'column'><img src = 'category4/CS2.png' width = '70%;'></div><div class = 'column'><img src = 'usneg/9182.bmp' width = '100%;'></div></div>","null","neg","CS","CS","4","category4/CS2.png","","","","",""
"","html-keyboard-response","55","468290","0.0-6.0-4.0-0.7","8hm2c2gukk","many_one","0","direct_first","1","slsb17W3","0","20","1","1","3","1","","0","NA","0","null","","","<div class = 'row'><div class = 'column'><img src = 'usneg/6020.bmp' width = '100%;'></div><div class = 'column'><img src = 'category1/CS3.png' width = '70%;'></div></div>","null","neg","CS","CS","1","category1/CS3.png","","","","",""
"","html-keyboard-response","56","470808","0.0-6.0-4.0-0.8","8hm2c2gukk","many_one","0","direct_first","1","slsb17W3","0","20","1","1","3","1","","0","NA","0","null","","","<div class = 'row'><div class = 'column'><img src = 'category4/CS4.png' width = '70%;'></div><div class = 'column'><img src = 'usneg/9050.bmp' width = '100%;'></div></div>","null","neg","CS","CS","4","category4/CS4.png","","","","",""
"","html-keyboard-response","57","473323","0.0-6.0-4.0-0.9","8hm2c2gukk","many_one","0","direct_first","1","slsb17W3","0","20","1","1","3","1","","0","NA","0","null","","","<div class = 'row'><div class = 'column'><img src = 'uspos/2341.bmp' width = '100%;'></div><div class = 'column'><img src = 'category2/CS3.png' width = '70%;'></div></div>","null","pos","CS","CS","2","category2/CS3.png","","","","",""
"","html-keyboard-response","58","475830","0.0-6.0-4.0-0.10","8hm2c2gukk","many_one","0","direct_first","1","slsb17W3","0","20","1","1","3","1","","0","NA","0","null","","","<div class = 'row'><div class = 'column'><img src = 'uspos/1463.bmp' width = '100%;'></div><div class = 'column'><img src = 'category3/CS10.png' width = '70%;'></div></div>","null","pos","CS","CS","3","category3/CS10.png","","","","",""
"","html-keyboard-response","59","478344","0.0-6.0-4.0-0.11","8hm2c2gukk","many_one","0","direct_first","1","slsb17W3","0","20","1","1","3","1","","0","NA","0","null","","","<div class = 'row'><div class = 'column'><img src = 'uspos/2150.bmp' width = '100%;'></div><div class = 'column'><img src = 'category2/CS7.png' width = '70%;'></div></div>","null","pos","CS","CS","2","category2/CS7.png","","","","",""
"","html-keyboard-response","60","480859","0.0-6.0-4.0-0.12","8hm2c2gukk","many_one","0","direct_first","1","slsb17W3","0","20","1","1","3","1","","0","NA","0","null","","","<div class = 'row'><div class = 'column'><img src = 'category3/CS9.png' width = '70%;'></div><div class = 'column'><img src = 'uspos/1460.bmp' width = '100%;'></div></div>","null","pos","CS","CS","3","category3/CS9.png","","","","",""
"","html-keyboard-response","61","483373","0.0-6.0-4.0-0.13","8hm2c2gukk","many_one","0","direct_first","1","slsb17W3","0","20","1","1","3","1","","0","NA","0","null","","","<div class = 'row'><div class = 'column'><img src = 'uspos/2311.bmp' width = '100%;'></div><div class = 'column'><img src = 'category3/CS7.png' width = '70%;'></div></div>","null","pos","CS","CS","3","category3/CS7.png","","","","",""
"","html-keyboard-response","62","485885","0.0-6.0-4.0-0.14","8hm2c2gukk","many_one","0","direct_first","1","slsb17W3","0","20","1","1","3","1","","0","NA","0","null","","","<div class = 'row'><div class = 'column'><img src = 'category2/CS2.png' width = '70%;'></div><div class = 'column'><img src = 'uspos/2360.bmp' width = '100%;'></div></div>","null","pos","CS","CS","2","category2/CS2.png","","","","",""
"","html-keyboard-response","63","488401","0.0-6.0-4.0-0.15","8hm2c2gukk","many_one","0","direct_first","1","slsb17W3","0","20","1","1","3","1","","0","NA","0","null","","","<div class = 'row'><div class = 'column'><img src = 'category2/CS6.png' width = '70%;'></div><div class = 'column'><img src = 'uspos/8350.bmp' width = '100%;'></div></div>","null","pos","CS","CS","2","category2/CS6.png","","","","",""
"","html-keyboard-response","64","490912","0.0-6.0-4.0-0.16","8hm2c2gukk","many_one","0","direct_first","1","slsb17W3","0","20","1","1","3","1","","0","NA","0","null","","","<div class = 'row'><div class = 'column'><img src = 'usneg/9584.bmp' width = '100%;'></div><div class = 'column'><img src = 'category1/CS9.png' width = '70%;'></div></div>","null","neg","CS","CS","1","category1/CS9.png","","","","",""
"","html-keyboard-response","65","493431","0.0-6.0-4.0-0.17","8hm2c2gukk","many_one","0","direct_first","1","slsb17W3","0","20","1","1","3","1","","0","NA","0","null","","","<div class = 'row'><div class = 'column'><img src = 'usneg/2750.bmp' width = '100%;'></div><div class = 'column'><img src = 'category4/CS9.png' width = '70%;'></div></div>","null","neg","CS","CS","4","category4/CS9.png","","","","",""
"","html-keyboard-response","66","495942","0.0-6.0-4.0-0.18","8hm2c2gukk","many_one","0","direct_first","1","slsb17W3","0","20","1","1","3","1","","0","NA","0","null","","","<div class = 'row'><div class = 'column'><img src = 'uspos/2550.bmp' width = '100%;'></div><div class = 'column'><img src = 'category3/CS8.png' width = '70%;'></div></div>","null","pos","CS","CS","3","category3/CS8.png","","","","",""
"","html-keyboard-response","67","498462","0.0-6.0-4.0-0.19","8hm2c2gukk","many_one","0","direct_first","1","slsb17W3","0","20","1","1","3","1","","0","NA","0","null","","","<div class = 'row'><div class = 'column'><img src = 'usneg/9280.bmp' width = '100%;'></div><div class = 'column'><img src = 'category1/CS7.png' width = '70%;'></div></div>","null","neg","CS","CS","1","category1/CS7.png","","","","",""
"","survey-html-form","68","506372","0.0-6.0-5.0","8hm2c2gukk","many_one","0","direct_first","1","slsb17W3","0","20","1","1","3","1","","0","NA","0","7408.370000004652","","{}","","","","","","","","","","","",""
"","html-keyboard-response","69","510391","0.0-6.0-6.0-0.0","8hm2c2gukk","many_one","0","direct_first","1","slsb17W3","0","20","1","1","3","1","","0","NA","0","null","","","<div class = 'row'><div class = 'column'><img src = 'usneg/9050.bmp' width = '100%;'></div><div class = 'column'><img src = 'category4/CS4.png' width = '70%;'></div></div>","null","neg","CS","CS","4","category4/CS4.png","","","","",""
"","html-keyboard-response","70","512909","0.0-6.0-6.0-0.1","8hm2c2gukk","many_one","0","direct_first","1","slsb17W3","0","20","1","1","3","1","","0","NA","0","null","","","<div class = 'row'><div class = 'column'><img src = 'category3/CS7.png' width = '70%;'></div><div class = 'column'><img src = 'uspos/2311.bmp' width = '100%;'></div></div>","null","pos","CS","CS","3","category3/CS7.png","","","","",""
"","html-keyboard-response","71","515426","0.0-6.0-6.0-0.2","8hm2c2gukk","many_one","0","direct_first","1","slsb17W3","0","20","1","1","3","1","","0","NA","0","null","","","<div class = 'row'><div class = 'column'><img src = 'usneg/9280.bmp' width = '100%;'></div><div class = 'column'><img src = 'category1/CS7.png' width = '70%;'></div></div>","null","neg","CS","CS","1","category1/CS7.png","","","","",""
"","html-keyboard-response","72","517945","0.0-6.0-6.0-0.3","8hm2c2gukk","many_one","0","direct_first","1","slsb17W3","0","20","1","1","3","1","","0","NA","0","null","","","<div class = 'row'><div class = 'column'><img src = 'usneg/6212.bmp' width = '100%;'></div><div class = 'column'><img src = 'category4/CS5.png' width = '70%;'></div></div>","null","neg","CS","CS","4","category4/CS5.png","","","","",""
"","html-keyboard-response","73","520470","0.0-6.0-6.0-0.4","8hm2c2gukk","many_one","0","direct_first","1","slsb17W3","0","20","1","1","3","1","","0","NA","0","null","","","<div class = 'row'><div class = 'column'><img src = 'category4/CS9.png' width = '70%;'></div><div class = 'column'><img src = 'usneg/2750.bmp' width = '100%;'></div></div>","null","neg","CS","CS","4","category4/CS9.png","","","","",""
"","html-keyboard-response","74","522996","0.0-6.0-6.0-0.5","8hm2c2gukk","many_one","0","direct_first","1","slsb17W3","0","20","1","1","3","1","","0","NA","0","null","","","<div class = 'row'><div class = 'column'><img src = 'category2/CS2.png' width = '70%;'></div><div class = 'column'><img src = 'uspos/2360.bmp' width = '100%;'></div></div>","null","pos","CS","CS","2","category2/CS2.png","","","","",""
"","html-keyboard-response","75","525508","0.0-6.0-6.0-0.6","8hm2c2gukk","many_one","0","direct_first","1","slsb17W3","0","20","1","1","3","1","","0","NA","0","null","","","<div class = 'row'><div class = 'column'><img src = 'uspos/2160.bmp' width = '100%;'></div><div class = 'column'><img src = 'category3/CS1.png' width = '70%;'></div></div>","null","pos","CS","CS","3","category3/CS1.png","","","","",""
"","html-keyboard-response","76","528031","0.0-6.0-6.0-0.7","8hm2c2gukk","many_one","0","direct_first","1","slsb17W3","0","20","1","1","3","1","","0","NA","0","null","","","<div class = 'row'><div class = 'column'><img src = 'category1/CS3.png' width = '70%;'></div><div class = 'column'><img src = 'usneg/6020.bmp' width = '100%;'></div></div>","null","neg","CS","CS","1","category1/CS3.png","","","","",""
"","html-keyboard-response","77","530554","0.0-6.0-6.0-0.8","8hm2c2gukk","many_one","0","direct_first","1","slsb17W3","0","20","1","1","3","1","","0","NA","0","null","","","<div class = 'row'><div class = 'column'><img src = 'usneg/9520.bmp' width = '100%;'></div><div class = 'column'><img src = 'category4/CS8.png' width = '70%;'></div></div>","null","neg","CS","CS","4","category4/CS8.png","","","","",""
"","html-keyboard-response","78","533066","0.0-6.0-6.0-0.9","8hm2c2gukk","many_one","0","direct_first","1","slsb17W3","0","20","1","1","3","1","","0","NA","0","null","","","<div class = 'row'><div class = 'column'><img src = 'category2/CS3.png' width = '70%;'></div><div class = 'column'><img src = 'uspos/2341.bmp' width = '100%;'></div></div>","null","pos","CS","CS","2","category2/CS3.png","","","","",""
"","html-keyboard-response","79","535575","0.0-6.0-6.0-0.10","8hm2c2gukk","many_one","0","direct_first","1","slsb17W3","0","20","1","1","3","1","","0","NA","0","null","","","<div class = 'row'><div class = 'column'><img src = 'uspos/2550.bmp' width = '100%;'></div><div class = 'column'><img src = 'category3/CS8.png' width = '70%;'></div></div>","null","pos","CS","CS","3","category3/CS8.png","","","","",""
"","html-keyboard-response","80","538090","0.0-6.0-6.0-0.11","8hm2c2gukk","many_one","0","direct_first","1","slsb17W3","0","20","1","1","3","1","","0","NA","0","null","","","<div class = 'row'><div class = 'column'><img src = 'uspos/8350.bmp' width = '100%;'></div><div class = 'column'><img src = 'category2/CS6.png' width = '70%;'></div></div>","null","pos","CS","CS","2","category2/CS6.png","","","","",""
"","html-keyboard-response","81","540608","0.0-6.0-6.0-0.12","8hm2c2gukk","many_one","0","direct_first","1","slsb17W3","0","20","1","1","3","1","","0","NA","0","null","","","<div class = 'row'><div class = 'column'><img src = 'category1/CS4.png' width = '70%;'></div><div class = 'column'><img src = 'usneg/9342.bmp' width = '100%;'></div></div>","null","neg","CS","CS","1","category1/CS4.png","","","","",""
"","html-keyboard-response","82","543124","0.0-6.0-6.0-0.13","8hm2c2gukk","many_one","0","direct_first","1","slsb17W3","0","20","1","1","3","1","","0","NA","0","null","","","<div class = 'row'><div class = 'column'><img src = 'uspos/1460.bmp' width = '100%;'></div><div class = 'column'><img src = 'category3/CS9.png' width = '70%;'></div></div>","null","pos","CS","CS","3","category3/CS9.png","","","","",""
"","html-keyboard-response","83","545636","0.0-6.0-6.0-0.14","8hm2c2gukk","many_one","0","direct_first","1","slsb17W3","0","20","1","1","3","1","","0","NA","0","null","","","<div class = 'row'><div class = 'column'><img src = 'category4/CS2.png' width = '70%;'></div><div class = 'column'><img src = 'usneg/9182.bmp' width = '100%;'></div></div>","null","neg","CS","CS","4","category4/CS2.png","","","","",""
"","html-keyboard-response","84","548154","0.0-6.0-6.0-0.15","8hm2c2gukk","many_one","0","direct_first","1","slsb17W3","0","20","1","1","3","1","","0","NA","0","null","","","<div class = 'row'><div class = 'column'><img src = 'usneg/3160.bmp' width = '100%;'></div><div class = 'column'><img src = 'category1/CS2.png' width = '70%;'></div></div>","null","neg","CS","CS","1","category1/CS2.png","","","","",""
"","html-keyboard-response","85","550670","0.0-6.0-6.0-0.16","8hm2c2gukk","many_one","0","direct_first","1","slsb17W3","0","20","1","1","3","1","","0","NA","0","null","","","<div class = 'row'><div class = 'column'><img src = 'uspos/7325.bmp' width = '100%;'></div><div class = 'column'><img src = 'category2/CS8.png' width = '70%;'></div></div>","null","pos","CS","CS","2","category2/CS8.png","","","","",""
"","html-keyboard-response","86","553185","0.0-6.0-6.0-0.17","8hm2c2gukk","many_one","0","direct_first","1","slsb17W3","0","20","1","1","3","1","","0","NA","0","null","","","<div class = 'row'><div class = 'column'><img src = 'uspos/2150.bmp' width = '100%;'></div><div class = 'column'><img src = 'category2/CS7.png' width = '70%;'></div></div>","null","pos","CS","CS","2","category2/CS7.png","","","","",""
"","html-keyboard-response","87","555703","0.0-6.0-6.0-0.18","8hm2c2gukk","many_one","0","direct_first","1","slsb17W3","0","20","1","1","3","1","","0","NA","0","null","","","<div class = 'row'><div class = 'column'><img src = 'category3/CS10.png' width = '70%;'></div><div class = 'column'><img src = 'uspos/1463.bmp' width = '100%;'></div></div>","null","pos","CS","CS","3","category3/CS10.png","","","","",""
"","html-keyboard-response","88","558218","0.0-6.0-6.0-0.19","8hm2c2gukk","many_one","0","direct_first","1","slsb17W3","0","20","1","1","3","1","","0","NA","0","null","","","<div class = 'row'><div class = 'column'><img src = 'usneg/9584.bmp' width = '100%;'></div><div class = 'column'><img src = 'category1/CS9.png' width = '70%;'></div></div>","null","neg","CS","CS","1","category1/CS9.png","","","","",""
"","survey-html-form","89","570994","0.0-7.0","8hm2c2gukk","many_one","0","direct_first","1","slsb17W3","0","20","1","1","3","1","","0","NA","0","12271.9550000038","","{}","","","","","","","","","","","",""
"","image-slider-response","90","587025","0.0-8.0-0.0","8hm2c2gukk","many_one","0","direct_first","1","slsb17W3","0","20","1","1","3","1","","0","NA","0","14022.004999991623","","","","","pos","GS","GSold","3","category3/CS3.png","68","targets/20.png","direct","",""
"","image-slider-response","91","594256","0.0-8.0-0.1","8hm2c2gukk","many_one","0","direct_first","1","slsb17W3","0","20","1","1","3","1","","0","NA","0","7228.515000009793","","","","","pos","GS","GSnew","3","category3/GS2.png","-54","targets/13.png","direct","",""
"","image-slider-response","92","602393","0.0-8.0-0.2","8hm2c2gukk","many_one","0","direct_first","1","slsb17W3","0","20","1","1","3","1","","0","NA","0","8133.184999998775","","","","","neg","GS","GSold","4","category4/CS7.png","-57","targets/9.png","direct","",""
"","image-slider-response","93","606939","0.0-8.0-0.3","8hm2c2gukk","many_one","0","direct_first","1","slsb17W3","0","20","1","1","3","1","","0","NA","0","4543.705000003683","","","","","neg","CS","CS","1","category1/CS2.png","-56","targets/47.png","direct","",""
"","image-slider-response","94","614001","0.0-8.0-0.4","8hm2c2gukk","many_one","0","direct_first","1","slsb17W3","0","20","1","1","3","1","","0","NA","0","7058.6699999985285","","","","","neg","CS","CS","4","category4/CS4.png","56","targets/17.png","direct","",""
"","image-slider-response","95","619378","0.0-8.0-0.5","8hm2c2gukk","many_one","0","direct_first","1","slsb17W3","0","20","1","1","3","1","","0","NA","0","5374.584999997751","","","","","pos","GS","GSold","2","category2/CS5.png","55","targets/19.png","direct","",""
"","image-slider-response","96","624636","0.0-8.0-0.6","8hm2c2gukk","many_one","0","direct_first","1","slsb17W3","0","20","1","1","3","1","","0","NA","0","5253.12500000291","","","","","neg","GS","GSold","4","category4/CS6.png","-43","targets/21.png","direct","",""
"","image-slider-response","97","628864","0.0-8.0-0.7","8hm2c2gukk","many_one","0","direct_first","1","slsb17W3","0","20","1","1","3","1","","0","NA","0","4225.41500000807","","","","","pos","CS","CS","2","category2/CS6.png","48","targets/30.png","direct","",""
"","image-slider-response","98","633195","0.0-8.0-0.8","8hm2c2gukk","many_one","0","direct_first","1","slsb17W3","0","20","1","1","3","1","","0","NA","0","4330.790000007255","","","","","pos","GS","GSold","3","category3/CS4.png","-52","targets/22.png","direct","",""
"","image-slider-response","99","638470","0.0-8.0-0.9","8hm2c2gukk","many_one","0","direct_first","1","slsb17W3","0","20","1","1","3","1","","0","NA","0","5272.094999992987","","","","","neg","GS","GSnew","4","category4/GS2.png","-47","targets/18.png","direct","",""
"","image-slider-response","100","643041","0.0-8.0-0.10","8hm2c2gukk","many_one","0","direct_first","1","slsb17W3","0","20","1","1","3","1","","0","NA","0","4568.00500000827","","","","","neg","GS","abstract","1","category1/ma.png","-49","targets/25.png","direct","",""
"","image-slider-response","101","647644","0.0-8.0-0.11","8hm2c2gukk","many_one","0","direct_first","1","slsb17W3","0","20","1","1","3","1","","0","NA","0","4599.660000007134","","","","","neg","CS","CS","4","category4/CS8.png","-53","targets/39.png","direct","",""
"","image-slider-response","102","651325","0.0-8.0-0.12","8hm2c2gukk","many_one","0","direct_first","1","slsb17W3","0","20","1","1","3","1","","0","NA","0","3678.26500000956","","","","","pos","CS","CS","3","category3/CS10.png","55","targets/45.png","direct","",""
"","image-slider-response","103","655885","0.0-8.0-0.13","8hm2c2gukk","many_one","0","direct_first","1","slsb17W3","0","20","1","1","3","1","","0","NA","0","4557.689999986906","","","","","neg","GS","GSold","1","category1/CS8.png","-36","targets/33.png","direct","",""
"","image-slider-response","104","659786","0.0-8.0-0.14","8hm2c2gukk","many_one","0","direct_first","1","slsb17W3","0","20","1","1","3","1","","0","NA","0","3898.2600000017555","","","","","pos","GS","GSold","3","category3/CS5.png","53","targets/43.png","direct","",""
"","image-slider-response","105","662926","0.0-8.0-0.15","8hm2c2gukk","many_one","0","direct_first","1","slsb17W3","0","20","1","1","3","1","","0","NA","0","3137.2750000009546","","","","","neg","GS","GSold","1","category1/CS10.png","-57","targets/6.png","direct","",""
"","image-slider-response","106","665921","0.0-8.0-0.16","8hm2c2gukk","many_one","0","direct_first","1","slsb17W3","0","20","1","1","3","1","","0","NA","0","2992.1050000120886","","","","","pos","CS","CS","3","category3/CS9.png","53","targets/35.png","direct","",""
"","image-slider-response","107","669187","0.0-8.0-0.17","8hm2c2gukk","many_one","0","direct_first","1","slsb17W3","0","20","1","1","3","1","","0","NA","0","3264.049999997951","","","","","pos","CS","CS","2","category2/CS3.png","44","targets/5.png","direct","",""
"","image-slider-response","108","672676","0.0-8.0-0.18","8hm2c2gukk","many_one","0","direct_first","1","slsb17W3","0","20","1","1","3","1","","0","NA","0","3485.6500000023516","","","","","neg","GS","GSnew","1","category1/GS2.png","-45","targets/42.png","direct","",""
"","image-slider-response","109","676356","0.0-8.0-0.19","8hm2c2gukk","many_one","0","direct_first","1","slsb17W3","0","20","1","1","3","1","","0","NA","0","3675.7349999970756","","","","","neg","GS","GSold","1","category1/CS6.png","-55","targets/41.png","direct","",""
"","image-slider-response","110","680168","0.0-8.0-0.20","8hm2c2gukk","many_one","0","direct_first","1","slsb17W3","0","20","1","1","3","1","","0","NA","0","3808.6500000063097","","","","","neg","GS","GSnew","4","category4/GS3.png","-45","targets/37.png","direct","",""
"","image-slider-response","111","683238","0.0-8.0-0.21","8hm2c2gukk","many_one","0","direct_first","1","slsb17W3","0","20","1","1","3","1","","0","NA","0","3067.6349999994272","","","","","neg","CS","CS","4","category4/CS2.png","50","targets/2.png","direct","",""
"","image-slider-response","112","687150","0.0-8.0-0.22","8hm2c2gukk","many_one","0","direct_first","1","slsb17W3","0","20","1","1","3","1","","0","NA","0","3909.1999999945983","","","","","pos","GS","GSnew","2","category2/GS3.png","-47","targets/16.png","direct","",""
"","image-slider-response","113","690942","0.0-8.0-0.23","8hm2c2gukk","many_one","0","direct_first","1","slsb17W3","0","20","1","1","3","1","","0","NA","0","3784.449999991921","","","","","pos","CS","CS","3","category3/CS1.png","50","targets/40.png","direct","",""
"","image-slider-response","114","694940","0.0-8.0-0.24","8hm2c2gukk","many_one","0","direct_first","1","slsb17W3","0","20","1","1","3","1","","0","NA","0","3994.7749999992084","","","","","pos","CS","CS","2","category2/CS8.png","-46","targets/10.png","direct","",""
"","image-slider-response","115","698575","0.0-8.0-0.25","8hm2c2gukk","many_one","0","direct_first","1","slsb17W3","0","20","1","1","3","1","","0","NA","0","3632.644999990589","","","","","pos","GS","GSnew","3","category3/GS1.png","-34","targets/24.png","direct","",""
"","image-slider-response","116","703852","0.0-8.0-0.26","8hm2c2gukk","many_one","0","direct_first","1","slsb17W3","0","20","1","1","3","1","","0","NA","0","5275.264999989304","","","","","neg","GS","abstract","4","category4/lin.png","67","targets/32.png","direct","",""
"","image-slider-response","117","709534","0.0-8.0-0.27","8hm2c2gukk","many_one","0","direct_first","1","slsb17W3","0","20","1","1","3","1","","0","NA","0","5679.149999996298","","","","","pos","CS","CS","2","category2/CS2.png","-93","targets/34.png","direct","",""
"","image-slider-response","118","715620","0.0-8.0-0.28","8hm2c2gukk","many_one","0","direct_first","1","slsb17W3","0","20","1","1","3","1","","0","NA","0","6082.72500000021","","","","","pos","GS","GSnew","2","category2/GS1.png","-82","targets/12.png","direct","",""
"","image-slider-response","119","718359","0.0-8.0-0.29","8hm2c2gukk","many_one","0","direct_first","1","slsb17W3","0","20","1","1","3","1","","0","NA","0","2735.820000001695","","","","","pos","GS","GSnew","3","category3/GS3.png","87","targets/4.png","direct","",""
"","image-slider-response","120","721466","0.0-8.0-0.30","8hm2c2gukk","many_one","0","direct_first","1","slsb17W3","0","20","1","1","3","1","","0","NA","0","3104.925000006915","","","","","neg","GS","GSnew","1","category1/GS3.png","-84","targets/38.png","direct","",""
"","image-slider-response","121","725219","0.0-8.0-0.31","8hm2c2gukk","many_one","0","direct_first","1","slsb17W3","0","20","1","1","3","1","","0","NA","0","3748.3999999967637","","","","","pos","GS","abstract","3","category3/wang.png","89","targets/26.png","direct","",""
"","image-slider-response","122","732199","0.0-8.0-0.32","8hm2c2gukk","many_one","0","direct_first","1","slsb17W3","0","20","1","1","3","1","","0","NA","0","6977.035000003525","","","","","pos","CS","CS","3","category3/CS7.png","-22","targets/11.png","direct","",""
"","image-slider-response","123","740063","0.0-8.0-0.33","8hm2c2gukk","many_one","0","direct_first","1","slsb17W3","0","20","1","1","3","1","","0","NA","0","7861.979999986943","","","","","pos","GS","abstract","2","category2/men.png","69","targets/46.png","direct","",""
"","image-slider-response","124","744940","0.0-8.0-0.34","8hm2c2gukk","many_one","0","direct_first","1","slsb17W3","0","20","1","1","3","1","","0","NA","0","4874.335000000428","","","","","neg","CS","CS","1","category1/CS7.png","-82","targets/36.png","direct","",""
"","image-slider-response","125","750013","0.0-8.0-0.35","8hm2c2gukk","many_one","0","direct_first","1","slsb17W3","0","20","1","1","3","1","","0","NA","0","5069.8149999952875","","","","","neg","CS","CS","4","category4/CS5.png","-17","targets/14.png","direct","",""
"","image-slider-response","126","753891","0.0-8.0-0.36","8hm2c2gukk","many_one","0","direct_first","1","slsb17W3","0","20","1","1","3","1","","0","NA","0","3875.3449999931036","","","","","pos","GS","GSold","2","category2/CS4.png","81","targets/3.png","direct","",""
"","image-slider-response","127","757487","0.0-8.0-0.37","8hm2c2gukk","many_one","0","direct_first","1","slsb17W3","0","20","1","1","3","1","","0","NA","0","3592.914999986533","","","","","neg","GS","GSold","4","category4/CS10.png","100","targets/1.png","direct","",""
"","image-slider-response","128","761914","0.0-8.0-0.38","8hm2c2gukk","many_one","0","direct_first","1","slsb17W3","0","20","1","1","3","1","","0","NA","0","4423.735000003944","","","","","neg","GS","GSnew","1","category1/GS1.png","-30","targets/31.png","direct","",""
"","image-slider-response","129","765682","0.0-8.0-0.39","8hm2c2gukk","many_one","0","direct_first","1","slsb17W3","0","20","1","1","3","1","","0","NA","0","3765.1000000041677","","","","","pos","CS","CS","3","category3/CS8.png","100","targets/27.png","direct","",""
"","image-slider-response","130","769582","0.0-8.0-0.40","8hm2c2gukk","many_one","0","direct_first","1","slsb17W3","0","20","1","1","3","1","","0","NA","0","3897.094999992987","","","","","neg","CS","CS","1","category1/CS9.png","77","targets/48.png","direct","",""
"","image-slider-response","131","772790","0.0-8.0-0.41","8hm2c2gukk","many_one","0","direct_first","1","slsb17W3","0","20","1","1","3","1","","0","NA","0","3205.355000012787","","","","","neg","CS","CS","1","category1/CS3.png","-91","targets/15.png","direct","",""
"","image-slider-response","132","775991","0.0-8.0-0.42","8hm2c2gukk","many_one","0","direct_first","1","slsb17W3","0","20","1","1","3","1","","0","NA","0","3198.0750000075204","","","","","pos","GS","GSnew","2","category2/GS2.png","-91","targets/8.png","direct","",""
"","image-slider-response","133","780177","0.0-8.0-0.43","8hm2c2gukk","many_one","0","direct_first","1","slsb17W3","0","20","1","1","3","1","","0","NA","0","4183.120000001509","","","","","pos","CS","CS","2","category2/CS7.png","-79","targets/28.png","direct","",""
"","image-slider-response","134","784770","0.0-8.0-0.44","8hm2c2gukk","many_one","0","direct_first","1","slsb17W3","0","20","1","1","3","1","","0","NA","0","4590.039999995497","","","","","neg","CS","CS","1","category1/CS4.png","-86","targets/29.png","direct","",""
"","image-slider-response","135","788324","0.0-8.0-0.45","8hm2c2gukk","many_one","0","direct_first","1","slsb17W3","0","20","1","1","3","1","","0","NA","0","3551.5100000047823","","","","","neg","GS","GSnew","4","category4/GS1.png","-28","targets/44.png","direct","",""
"","image-slider-response","136","792374","0.0-8.0-0.46","8hm2c2gukk","many_one","0","direct_first","1","slsb17W3","0","20","1","1","3","1","","0","NA","0","4047.6699999999255","","","","","pos","GS","GSold","2","category2/CS10.png","93","targets/7.png","direct","",""
"","image-slider-response","137","797502","0.0-8.0-0.47","8hm2c2gukk","many_one","0","direct_first","1","slsb17W3","0","20","1","1","3","1","","0","NA","0","5124.779999998282","","","","","neg","CS","CS","4","category4/CS9.png","98","targets/23.png","direct","",""
"","html-keyboard-response","138","840191","0.0-9.0","8hm2c2gukk","many_one","0","direct_first","1","slsb17W3","0","20","1","1","3","1","","0","NA","0","42691.4950000064","","","<p>Sie sehen nun die chinesischen Zeichen nur ganz kurz. Danach sehen Sie die jeweilige Aussprache der Zeichen als Silbe auf dem Bildschrim. Ihre Aufgabe ist es, für jede Silbe anzugeben, ob diese etwas angenehmes, oder unangenehmes bedeuten könnte. Verlassen Sie sich hier vor allem auf Ihre Intuition.<br><br>Die Zeichen werden nur zur Orientierung dargestellt, beachten Sie sie deshalb nicht. Konzentrieren Sie sich vor allem auf die Silben. <br>Reagieren Sie mit folgenden zwei Tasten: <br><br><b>'D' </b> wenn die Silbe etwas <b>unangenehmes</b> bedeuten könnte. <br><b>'K'</b> wenn die Silbe etwas <b>angenehmes</b> bedeuten könnte. <br><br>Bitte legen Sie nun den Zeigefinger der linken Hand auf die Taste 'D' und den Zeigefinger der rechten Hand auf die Taste 'K'. <br>Reagieren Sie auf jede Silbe so schnell wie möglich. Uns interessiert Ihre spontane Reaktion. <br> <br> <br>Drücken Sie 'D' oder 'K', um die nächste Aufgabe zu starten. </p>","68","","","","","","","","","",""
"","html-keyboard-response","139","843204","0.0-10.0-0.0","8hm2c2gukk","many_one","0","direct_first","1","slsb17W3","0","20","1","1","3","1","","0","NA","0","null","","","<div style=""font-size:60px;"">+</div>","null","","","","","","","","","",""
"","html-keyboard-response","140","843301","0.0-10.0-1.0","8hm2c2gukk","many_one","0","direct_first","1","slsb17W3","0","20","1","1","3","1","","0","NA","0","null","","","<img src = 'category2/CS5.png' width = '100%;'>","null","","","","","","","","","",""
"","html-keyboard-response","141","843558","0.0-10.0-2.0","8hm2c2gukk","many_one","0","direct_first","1","slsb17W3","0","20","1","1","3","1","","0","NA","0","null","","","<img src = 'targets/19.png' width = '100%;'>","null","","","","","","","","","",""
"","html-keyboard-response","142","847743","0.0-10.0-3.0","8hm2c2gukk","many_one","0","direct_first","1","slsb17W3","0","20","1","1","3","1","","0","NA","0","4183.505000008154","","","<img src = 'targets/mask.png' width = '100%;'>","75","pos","GS","GSold","2","category2/CS5.png","","targets/19.png","indirect","1","0"
"","html-keyboard-response","143","849254","0.0-10.0-0.1","8hm2c2gukk","many_one","0","direct_first","1","slsb17W3","0","20","1","1","3","1","","0","NA","0","null","","","<div style=""font-size:60px;"">+</div>","null","","","","","","","","","",""
"","html-keyboard-response","144","849345","0.0-10.0-1.1","8hm2c2gukk","many_one","0","direct_first","1","slsb17W3","0","20","1","1","3","1","","0","NA","0","null","","","<img src = 'category1/CS2.png' width = '100%;'>","null","","","","","","","","","",""
"","html-keyboard-response","145","849602","0.0-10.0-2.1","8hm2c2gukk","many_one","0","direct_first","1","slsb17W3","0","20","1","1","3","1","","0","NA","0","null","","","<img src = 'targets/47.png' width = '100%;'>","null","","","","","","","","","",""
"","html-keyboard-response","146","850784","0.0-10.0-3.1","8hm2c2gukk","many_one","0","direct_first","1","slsb17W3","0","20","1","1","3","1","","0","NA","0","1180.0250000087544","","","<img src = 'targets/mask.png' width = '100%;'>","75","neg","CS","CS","1","category1/CS2.png","","targets/47.png","indirect","1","1"
"","html-keyboard-response","147","852298","0.0-10.0-0.2","8hm2c2gukk","many_one","0","direct_first","1","slsb17W3","0","20","1","1","3","1","","0","NA","0","null","","","<div style=""font-size:60px;"">+</div>","null","","","","","","","","","",""
"","html-keyboard-response","148","852390","0.0-10.0-1.2","8hm2c2gukk","many_one","0","direct_first","1","slsb17W3","0","20","1","1","3","1","","0","NA","0","null","","","<img src = 'category1/CS3.png' width = '100%;'>","null","","","","","","","","","",""
"","html-keyboard-response","149","852648","0.0-10.0-2.2","8hm2c2gukk","many_one","0","direct_first","1","slsb17W3","0","20","1","1","3","1","","0","NA","0","null","","","<img src = 'targets/15.png' width = '100%;'>","null","","","","","","","","","",""
"","html-keyboard-response","150","853872","0.0-10.0-3.2","8hm2c2gukk","many_one","0","direct_first","1","slsb17W3","0","20","1","1","3","1","","0","NA","0","1222.024999995483","","","<img src = 'targets/mask.png' width = '100%;'>","75","neg","CS","CS","1","category1/CS3.png","","targets/15.png","indirect","1","2"
"","html-keyboard-response","151","855378","0.0-10.0-0.3","8hm2c2gukk","many_one","0","direct_first","1","slsb17W3","0","20","1","1","3","1","","0","NA","0","null","","","<div style=""font-size:60px;"">+</div>","null","","","","","","","","","",""
"","html-keyboard-response","152","855471","0.0-10.0-1.3","8hm2c2gukk","many_one","0","direct_first","1","slsb17W3","0","20","1","1","3","1","","0","NA","0","null","","","<img src = 'category4/CS9.png' width = '100%;'>","null","","","","","","","","","",""
"","html-keyboard-response","153","855733","0.0-10.0-2.3","8hm2c2gukk","many_one","0","direct_first","1","slsb17W3","0","20","1","1","3","1","","0","NA","0","null","","","<img src = 'targets/23.png' width = '100%;'>","null","","","","","","","","","",""
"","html-keyboard-response","154","856320","0.0-10.0-3.3","8hm2c2gukk","many_one","0","direct_first","1","slsb17W3","0","20","1","1","3","1","","0","NA","0","584.7500000090804","","","<img src = 'targets/mask.png' width = '100%;'>","75","neg","CS","CS","4","category4/CS9.png","","targets/23.png","indirect","1","3"
"","html-keyboard-response","155","857832","0.0-10.0-0.4","8hm2c2gukk","many_one","0","direct_first","1","slsb17W3","0","20","1","1","3","1","","0","NA","0","null","","","<div style=""font-size:60px;"">+</div>","null","","","","","","","","","",""
"","html-keyboard-response","156","857932","0.0-10.0-1.4","8hm2c2gukk","many_one","0","direct_first","1","slsb17W3","0","20","1","1","3","1","","0","NA","0","null","","","<img src = 'category1/CS9.png' width = '100%;'>","null","","","","","","","","","",""
"","html-keyboard-response","157","858191","0.0-10.0-2.4","8hm2c2gukk","many_one","0","direct_first","1","slsb17W3","0","20","1","1","3","1","","0","NA","0","null","","","<img src = 'targets/48.png' width = '100%;'>","null","","","","","","","","","",""
"","html-keyboard-response","158","861655","0.0-10.0-3.4","8hm2c2gukk","many_one","0","direct_first","1","slsb17W3","0","20","1","1","3","1","","0","NA","0","3461.990000010701","","","<img src = 'targets/mask.png' width = '100%;'>","68","neg","CS","CS","1","category1/CS9.png","","targets/48.png","indirect","0","4"
"","html-keyboard-response","159","863167","0.0-10.0-0.5","8hm2c2gukk","many_one","0","direct_first","1","slsb17W3","0","20","1","1","3","1","","0","NA","0","null","","","<div style=""font-size:60px;"">+</div>","null","","","","","","","","","",""
"","html-keyboard-response","160","863259","0.0-10.0-1.5","8hm2c2gukk","many_one","0","direct_first","1","slsb17W3","0","20","1","1","3","1","","0","NA","0","null","","","<img src = 'category1/CS6.png' width = '100%;'>","null","","","","","","","","","",""
"","html-keyboard-response","161","863516","0.0-10.0-2.5","8hm2c2gukk","many_one","0","direct_first","1","slsb17W3","0","20","1","1","3","1","","0","NA","0","null","","","<img src = 'targets/41.png' width = '100%;'>","null","","","","","","","","","",""
"","html-keyboard-response","162","864266","0.0-10.0-3.5","8hm2c2gukk","many_one","0","direct_first","1","slsb17W3","0","20","1","1","3","1","","0","NA","0","747.6800000004005","","","<img src = 'targets/mask.png' width = '100%;'>","75","neg","GS","GSold","1","category1/CS6.png","","targets/41.png","indirect","1","5"
"","html-keyboard-response","163","865777","0.0-10.0-0.6","8hm2c2gukk","many_one","0","direct_first","1","slsb17W3","0","20","1","1","3","1","","0","NA","0","null","","","<div style=""font-size:60px;"">+</div>","null","","","","","","","","","",""
"","html-keyboard-response","164","865877","0.0-10.0-1.6","8hm2c2gukk","many_one","0","direct_first","1","slsb17W3","0","20","1","1","3","1","","0","NA","0","null","","","<img src = 'category3/CS7.png' width = '100%;'>","null","","","","","","","","","",""
"","html-keyboard-response","165","866140","0.0-10.0-2.6","8hm2c2gukk","many_one","0","direct_first","1","slsb17W3","0","20","1","1","3","1","","0","NA","0","null","","","<img src = 'targets/11.png' width = '100%;'>","null","","","","","","","","","",""
"","html-keyboard-response","166","866761","0.0-10.0-3.6","8hm2c2gukk","many_one","0","direct_first","1","slsb17W3","0","20","1","1","3","1","","0","NA","0","618.9400000002934","","","<img src = 'targets/mask.png' width = '100%;'>","75","pos","CS","CS","3","category3/CS7.png","","targets/11.png","indirect","1","6"
"","html-keyboard-response","167","868272","0.0-10.0-0.7","8hm2c2gukk","many_one","0","direct_first","1","slsb17W3","0","20","1","1","3","1","","0","NA","0","null","","","<div style=""font-size:60px;"">+</div>","null","","","","","","","","","",""
"","html-keyboard-response","168","868370","0.0-10.0-1.7","8hm2c2gukk","many_one","0","direct_first","1","slsb17W3","0","20","1","1","3","1","","0","NA","0","null","","","<img src = 'category1/CS10.png' width = '100%;'>","null","","","","","","","","","",""
"","html-keyboard-response","169","868633","0.0-10.0-2.7","8hm2c2gukk","many_one","0","direct_first","1","slsb17W3","0","20","1","1","3","1","","0","NA","0","null","","","<img src = 'targets/6.png' width = '100%;'>","null","","","","","","","","","",""
"","html-keyboard-response","170","869272","0.0-10.0-3.7","8hm2c2gukk","many_one","0","direct_first","1","slsb17W3","0","20","1","1","3","1","","0","NA","0","636.6050000069663","","","<img src = 'targets/mask.png' width = '100%;'>","75","neg","GS","GSold","1","category1/CS10.png","","targets/6.png","indirect","1","7"
"","html-keyboard-response","171","870782","0.0-10.0-0.8","8hm2c2gukk","many_one","0","direct_first","1","slsb17W3","0","20","1","1","3","1","","0","NA","0","null","","","<div style=""font-size:60px;"">+</div>","null","","","","","","","","","",""
"","html-keyboard-response","172","870875","0.0-10.0-1.8","8hm2c2gukk","many_one","0","direct_first","1","slsb17W3","0","20","1","1","3","1","","0","NA","0","null","","","<img src = 'category3/CS8.png' width = '100%;'>","null","","","","","","","","","",""
"","html-keyboard-response","173","871129","0.0-10.0-2.8","8hm2c2gukk","many_one","0","direct_first","1","slsb17W3","0","20","1","1","3","1","","0","NA","0","null","","","<img src = 'targets/27.png' width = '100%;'>","null","","","","","","","","","",""
"","html-keyboard-response","174","871794","0.0-10.0-3.8","8hm2c2gukk","many_one","0","direct_first","1","slsb17W3","0","20","1","1","3","1","","0","NA","0","663.2600000011735","","","<img src = 'targets/mask.png' width = '100%;'>","75","pos","CS","CS","3","category3/CS8.png","","targets/27.png","indirect","1","8"
"","html-keyboard-response","175","873303","0.0-10.0-0.9","8hm2c2gukk","many_one","0","direct_first","1","slsb17W3","0","20","1","1","3","1","","0","NA","0","null","","","<div style=""font-size:60px;"">+</div>","null","","","","","","","","","",""
"","html-keyboard-response","176","873396","0.0-10.0-1.9","8hm2c2gukk","many_one","0","direct_first","1","slsb17W3","0","20","1","1","3","1","","0","NA","0","null","","","<img src = 'category2/CS2.png' width = '100%;'>","null","","","","","","","","","",""
"","html-keyboard-response","177","873654","0.0-10.0-2.9","8hm2c2gukk","many_one","0","direct_first","1","slsb17W3","0","20","1","1","3","1","","0","NA","0","null","","","<img src = 'targets/34.png' width = '100%;'>","null","","","","","","","","","",""
"","html-keyboard-response","178","874294","0.0-10.0-3.9","8hm2c2gukk","many_one","0","direct_first","1","slsb17W3","0","20","1","1","3","1","","0","NA","0","638.4399999951711","","","<img src = 'targets/mask.png' width = '100%;'>","75","pos","CS","CS","2","category2/CS2.png","","targets/34.png","indirect","1","9"
"","html-keyboard-response","179","875805","0.0-10.0-0.10","8hm2c2gukk","many_one","0","direct_first","1","slsb17W3","0","20","1","1","3","1","","0","NA","0","null","","","<div style=""font-size:60px;"">+</div>","null","","","","","","","","","",""
"","html-keyboard-response","180","875904","0.0-10.0-1.10","8hm2c2gukk","many_one","0","direct_first","1","slsb17W3","0","20","1","1","3","1","","0","NA","0","null","","","<img src = 'category1/CS7.png' width = '100%;'>","null","","","","","","","","","",""
"","html-keyboard-response","181","876162","0.0-10.0-2.10","8hm2c2gukk","many_one","0","direct_first","1","slsb17W3","0","20","1","1","3","1","","0","NA","0","null","","","<img src = 'targets/36.png' width = '100%;'>","null","","","","","","","","","",""
"","html-keyboard-response","182","877007","0.0-10.0-3.10","8hm2c2gukk","many_one","0","direct_first","1","slsb17W3","0","20","1","1","3","1","","0","NA","0","843.7350000021979","","","<img src = 'targets/mask.png' width = '100%;'>","75","neg","CS","CS","1","category1/CS7.png","","targets/36.png","indirect","1","10"
"","html-keyboard-response","183","878519","0.0-10.0-0.11","8hm2c2gukk","many_one","0","direct_first","1","slsb17W3","0","20","1","1","3","1","","0","NA","0","null","","","<div style=""font-size:60px;"">+</div>","null","","","","","","","","","",""
"","html-keyboard-response","184","878618","0.0-10.0-1.11","8hm2c2gukk","many_one","0","direct_first","1","slsb17W3","0","20","1","1","3","1","","0","NA","0","null","","","<img src = 'category2/CS6.png' width = '100%;'>","null","","","","","","","","","",""
"","html-keyboard-response","185","878878","0.0-10.0-2.11","8hm2c2gukk","many_one","0","direct_first","1","slsb17W3","0","20","1","1","3","1","","0","NA","0","null","","","<img src = 'targets/30.png' width = '100%;'>","null","","","","","","","","","",""
"","html-keyboard-response","186","879505","0.0-10.0-3.11","8hm2c2gukk","many_one","0","direct_first","1","slsb17W3","0","20","1","1","3","1","","0","NA","0","624.1900000022724","","","<img src = 'targets/mask.png' width = '100%;'>","75","pos","CS","CS","2","category2/CS6.png","","targets/30.png","indirect","1","11"
"","html-keyboard-response","187","881013","0.0-10.0-0.12","8hm2c2gukk","many_one","0","direct_first","1","slsb17W3","0","20","1","1","3","1","","0","NA","0","null","","","<div style=""font-size:60px;"">+</div>","null","","","","","","","","","",""
"","html-keyboard-response","188","881113","0.0-10.0-1.12","8hm2c2gukk","many_one","0","direct_first","1","slsb17W3","0","20","1","1","3","1","","0","NA","0","null","","","<img src = 'category2/CS8.png' width = '100%;'>","null","","","","","","","","","",""
"","html-keyboard-response","189","881374","0.0-10.0-2.12","8hm2c2gukk","many_one","0","direct_first","1","slsb17W3","0","20","1","1","3","1","","0","NA","0","null","","","<img src = 'targets/10.png' width = '100%;'>","null","","","","","","","","","",""
"","html-keyboard-response","190","882070","0.0-10.0-3.12","8hm2c2gukk","many_one","0","direct_first","1","slsb17W3","0","20","1","1","3","1","","0","NA","0","693.874999997206","","","<img src = 'targets/mask.png' width = '100%;'>","75","pos","CS","CS","2","category2/CS8.png","","targets/10.png","indirect","1","12"
"","html-keyboard-response","191","883575","0.0-10.0-0.13","8hm2c2gukk","many_one","0","direct_first","1","slsb17W3","0","20","1","1","3","1","","0","NA","0","null","","","<div style=""font-size:60px;"">+</div>","null","","","","","","","","","",""
"","html-keyboard-response","192","883668","0.0-10.0-1.13","8hm2c2gukk","many_one","0","direct_first","1","slsb17W3","0","20","1","1","3","1","","0","NA","0","null","","","<img src = 'category2/CS3.png' width = '100%;'>","null","","","","","","","","","",""
"","html-keyboard-response","193","883924","0.0-10.0-2.13","8hm2c2gukk","many_one","0","direct_first","1","slsb17W3","0","20","1","1","3","1","","0","NA","0","null","","","<img src = 'targets/5.png' width = '100%;'>","null","","","","","","","","","",""
"","html-keyboard-response","194","884558","0.0-10.0-3.13","8hm2c2gukk","many_one","0","direct_first","1","slsb17W3","0","20","1","1","3","1","","0","NA","0","631.8049999972573","","","<img src = 'targets/mask.png' width = '100%;'>","75","pos","CS","CS","2","category2/CS3.png","","targets/5.png","indirect","1","13"
"","html-keyboard-response","195","886073","0.0-10.0-0.14","8hm2c2gukk","many_one","0","direct_first","1","slsb17W3","0","20","1","1","3","1","","0","NA","0","null","","","<div style=""font-size:60px;"">+</div>","null","","","","","","","","","",""
"","html-keyboard-response","196","886173","0.0-10.0-1.14","8hm2c2gukk","many_one","0","direct_first","1","slsb17W3","0","20","1","1","3","1","","0","NA","0","null","","","<img src = 'category3/CS1.png' width = '100%;'>","null","","","","","","","","","",""
"","html-keyboard-response","197","886432","0.0-10.0-2.14","8hm2c2gukk","many_one","0","direct_first","1","slsb17W3","0","20","1","1","3","1","","0","NA","0","null","","","<img src = 'targets/40.png' width = '100%;'>","null","","","","","","","","","",""
"","html-keyboard-response","198","887198","0.0-10.0-3.14","8hm2c2gukk","many_one","0","direct_first","1","slsb17W3","0","20","1","1","3","1","","0","NA","0","764.2549999873154","","","<img src = 'targets/mask.png' width = '100%;'>","68","pos","CS","CS","3","category3/CS1.png","","targets/40.png","indirect","0","14"
"","html-keyboard-response","199","888711","0.0-10.0-0.15","8hm2c2gukk","many_one","0","direct_first","1","slsb17W3","0","20","1","1","3","1","","0","NA","0","null","","","<div style=""font-size:60px;"">+</div>","null","","","","","","","","","",""
"","html-keyboard-response","200","888804","0.0-10.0-1.15","8hm2c2gukk","many_one","0","direct_first","1","slsb17W3","0","20","1","1","3","1","","0","NA","0","null","","","<img src = 'category4/CS5.png' width = '100%;'>","null","","","","","","","","","",""
"","html-keyboard-response","201","889068","0.0-10.0-2.15","8hm2c2gukk","many_one","0","direct_first","1","slsb17W3","0","20","1","1","3","1","","0","NA","0","null","","","<img src = 'targets/14.png' width = '100%;'>","null","","","","","","","","","",""
"","html-keyboard-response","202","889979","0.0-10.0-3.15","8hm2c2gukk","many_one","0","direct_first","1","slsb17W3","0","20","1","1","3","1","","0","NA","0","908.7500000023283","","","<img src = 'targets/mask.png' width = '100%;'>","68","neg","CS","CS","4","category4/CS5.png","","targets/14.png","indirect","0","15"
"","html-keyboard-response","203","891496","0.0-10.0-0.16","8hm2c2gukk","many_one","0","direct_first","1","slsb17W3","0","20","1","1","3","1","","0","NA","0","null","","","<div style=""font-size:60px;"">+</div>","null","","","","","","","","","",""
"","html-keyboard-response","204","891588","0.0-10.0-1.16","8hm2c2gukk","many_one","0","direct_first","1","slsb17W3","0","20","1","1","3","1","","0","NA","0","null","","","<img src = 'category4/CS8.png' width = '100%;'>","null","","","","","","","","","",""
"","html-keyboard-response","205","891852","0.0-10.0-2.16","8hm2c2gukk","many_one","0","direct_first","1","slsb17W3","0","20","1","1","3","1","","0","NA","0","null","","","<img src = 'targets/39.png' width = '100%;'>","null","","","","","","","","","",""
"","html-keyboard-response","206","893730","0.0-10.0-3.16","8hm2c2gukk","many_one","0","direct_first","1","slsb17W3","0","20","1","1","3","1","","0","NA","0","1869.7549999924377","","","<img src = 'targets/mask.png' width = '100%;'>","68","neg","CS","CS","4","category4/CS8.png","","targets/39.png","indirect","0","16"
"","html-keyboard-response","207","895242","0.0-10.0-0.17","8hm2c2gukk","many_one","0","direct_first","1","slsb17W3","0","20","1","1","3","1","","0","NA","0","null","","","<div style=""font-size:60px;"">+</div>","null","","","","","","","","","",""
"","html-keyboard-response","208","895342","0.0-10.0-1.17","8hm2c2gukk","many_one","0","direct_first","1","slsb17W3","0","20","1","1","3","1","","0","NA","0","null","","","<img src = 'category4/CS2.png' width = '100%;'>","null","","","","","","","","","",""
"","html-keyboard-response","209","895605","0.0-10.0-2.17","8hm2c2gukk","many_one","0","direct_first","1","slsb17W3","0","20","1","1","3","1","","0","NA","0","null","","","<img src = 'targets/2.png' width = '100%;'>","null","","","","","","","","","",""
"","html-keyboard-response","210","896814","0.0-10.0-3.17","8hm2c2gukk","many_one","0","direct_first","1","slsb17W3","0","20","1","1","3","1","","0","NA","0","1207.0150000072317","","","<img src = 'targets/mask.png' width = '100%;'>","68","neg","CS","CS","4","category4/CS2.png","","targets/2.png","indirect","0","17"
"","html-keyboard-response","211","898332","0.0-10.0-0.18","8hm2c2gukk","many_one","0","direct_first","1","slsb17W3","0","20","1","1","3","1","","0","NA","0","null","","","<div style=""font-size:60px;"">+</div>","null","","","","","","","","","",""
"","html-keyboard-response","212","898423","0.0-10.0-1.18","8hm2c2gukk","many_one","0","direct_first","1","slsb17W3","0","20","1","1","3","1","","0","NA","0","null","","","<img src = 'category1/CS4.png' width = '100%;'>","null","","","","","","","","","",""
"","html-keyboard-response","213","898678","0.0-10.0-2.18","8hm2c2gukk","many_one","0","direct_first","1","slsb17W3","0","20","1","1","3","1","","0","NA","0","null","","","<img src = 'targets/29.png' width = '100%;'>","null","","","","","","","","","",""
"","html-keyboard-response","214","899177","0.0-10.0-3.18","8hm2c2gukk","many_one","0","direct_first","1","slsb17W3","0","20","1","1","3","1","","0","NA","0","497.52499999885913","","","<img src = 'targets/mask.png' width = '100%;'>","75","neg","CS","CS","1","category1/CS4.png","","targets/29.png","indirect","1","18"
"","html-keyboard-response","215","900687","0.0-10.0-0.19","8hm2c2gukk","many_one","0","direct_first","1","slsb17W3","0","20","1","1","3","1","","0","NA","0","null","","","<div style=""font-size:60px;"">+</div>","null","","","","","","","","","",""
"","html-keyboard-response","216","900794","0.0-10.0-1.19","8hm2c2gukk","many_one","0","direct_first","1","slsb17W3","0","20","1","1","3","1","","0","NA","0","null","","","<img src = 'category3/CS10.png' width = '100%;'>","null","","","","","","","","","",""
"","html-keyboard-response","217","901051","0.0-10.0-2.19","8hm2c2gukk","many_one","0","direct_first","1","slsb17W3","0","20","1","1","3","1","","0","NA","0","null","","","<img src = 'targets/45.png' width = '100%;'>","null","","","","","","","","","",""
"","html-keyboard-response","218","901490","0.0-10.0-3.19","8hm2c2gukk","many_one","0","direct_first","1","slsb17W3","0","20","1","1","3","1","","0","NA","0","436.54500000411645","","","<img src = 'targets/mask.png' width = '100%;'>","75","pos","CS","CS","3","category3/CS10.png","","targets/45.png","indirect","1","19"
"","html-keyboard-response","219","902997","0.0-10.0-0.20","8hm2c2gukk","many_one","0","direct_first","1","slsb17W3","0","20","1","1","3","1","","0","NA","0","null","","","<div style=""font-size:60px;"">+</div>","null","","","","","","","","","",""
"","html-keyboard-response","220","903095","0.0-10.0-1.20","8hm2c2gukk","many_one","0","direct_first","1","slsb17W3","0","20","1","1","3","1","","0","NA","0","null","","","<img src = 'category1/CS8.png' width = '100%;'>","null","","","","","","","","","",""
"","html-keyboard-response","221","903352","0.0-10.0-2.20","8hm2c2gukk","many_one","0","direct_first","1","slsb17W3","0","20","1","1","3","1","","0","NA","0","null","","","<img src = 'targets/33.png' width = '100%;'>","null","","","","","","","","","",""
"","html-keyboard-response","222","903770","0.0-10.0-3.20","8hm2c2gukk","many_one","0","direct_first","1","slsb17W3","0","20","1","1","3","1","","0","NA","0","415.23999998753425","","","<img src = 'targets/mask.png' width = '100%;'>","75","neg","GS","GSold","1","category1/CS8.png","","targets/33.png","indirect","1","20"
"","html-keyboard-response","223","905283","0.0-10.0-0.21","8hm2c2gukk","many_one","0","direct_first","1","slsb17W3","0","20","1","1","3","1","","0","NA","0","null","","","<div style=""font-size:60px;"">+</div>","null","","","","","","","","","",""
"","html-keyboard-response","224","905377","0.0-10.0-1.21","8hm2c2gukk","many_one","0","direct_first","1","slsb17W3","0","20","1","1","3","1","","0","NA","0","null","","","<img src = 'category3/CS9.png' width = '100%;'>","null","","","","","","","","","",""
"","html-keyboard-response","225","905634","0.0-10.0-2.21","8hm2c2gukk","many_one","0","direct_first","1","slsb17W3","0","20","1","1","3","1","","0","NA","0","null","","","<img src = 'targets/35.png' width = '100%;'>","null","","","","","","","","","",""
"","html-keyboard-response","226","906241","0.0-10.0-3.21","8hm2c2gukk","many_one","0","direct_first","1","slsb17W3","0","20","1","1","3","1","","0","NA","0","604.1150000091875","","","<img src = 'targets/mask.png' width = '100%;'>","75","pos","CS","CS","3","category3/CS9.png","","targets/35.png","indirect","1","21"
"","html-keyboard-response","227","907748","0.0-10.0-0.22","8hm2c2gukk","many_one","0","direct_first","1","slsb17W3","0","20","1","1","3","1","","0","NA","0","null","","","<div style=""font-size:60px;"">+</div>","null","","","","","","","","","",""
"","html-keyboard-response","228","907840","0.0-10.0-1.22","8hm2c2gukk","many_one","0","direct_first","1","slsb17W3","0","20","1","1","3","1","","0","NA","0","null","","","<img src = 'category4/CS4.png' width = '100%;'>","null","","","","","","","","","",""
"","html-keyboard-response","229","908100","0.0-10.0-2.22","8hm2c2gukk","many_one","0","direct_first","1","slsb17W3","0","20","1","1","3","1","","0","NA","0","null","","","<img src = 'targets/17.png' width = '100%;'>","null","","","","","","","","","",""
"","html-keyboard-response","230","908728","0.0-10.0-3.22","8hm2c2gukk","many_one","0","direct_first","1","slsb17W3","0","20","1","1","3","1","","0","NA","0","626.2249999999767","","","<img src = 'targets/mask.png' width = '100%;'>","68","neg","CS","CS","4","category4/CS4.png","","targets/17.png","indirect","0","22"
"","html-keyboard-response","231","910240","0.0-10.0-0.23","8hm2c2gukk","many_one","0","direct_first","1","slsb17W3","0","20","1","1","3","1","","0","NA","0","null","","","<div style=""font-size:60px;"">+</div>","null","","","","","","","","","",""
"","html-keyboard-response","232","910333","0.0-10.0-1.23","8hm2c2gukk","many_one","0","direct_first","1","slsb17W3","0","20","1","1","3","1","","0","NA","0","null","","","<img src = 'category2/CS7.png' width = '100%;'>","null","","","","","","","","","",""
"","html-keyboard-response","233","910605","0.0-10.0-2.23","8hm2c2gukk","many_one","0","direct_first","1","slsb17W3","0","20","1","1","3","1","","0","NA","0","null","","","<img src = 'targets/28.png' width = '100%;'>","null","","","","","","","","","",""
"","html-keyboard-response","234","911604","0.0-10.0-3.23","8hm2c2gukk","many_one","0","direct_first","1","slsb17W3","0","20","1","1","3","1","","0","NA","0","996.5749999973923","","","<img src = 'targets/mask.png' width = '100%;'>","68","pos","CS","CS","2","category2/CS7.png","","targets/28.png","indirect","0","23"
"","survey-html-form","235","927751","0.0-11.0","8hm2c2gukk","many_one","0","direct_first","1","slsb17W3","0","20","1","1","3","1","","0","NA","0","15643.41499999864","","{}","","","","","","","","","","","",""
"","html-keyboard-response","236","930757","0.0-12.0-0.0","8hm2c2gukk","many_one","0","direct_first","1","slsb17W3","0","20","1","1","3","1","","0","NA","0","null","","","<div style=""font-size:60px;"">+</div>","null","","","","","","","","","",""
"","html-keyboard-response","237","930855","0.0-12.0-1.0","8hm2c2gukk","many_one","0","direct_first","1","slsb17W3","0","20","1","1","3","1","","0","NA","0","null","","","<img src = 'category3/CS3.png' width = '100%;'>","null","","","","","","","","","",""
"","html-keyboard-response","238","931108","0.0-12.0-2.0","8hm2c2gukk","many_one","0","direct_first","1","slsb17W3","0","20","1","1","3","1","","0","NA","0","null","","","<img src = 'targets/20.png' width = '100%;'>","null","","","","","","","","","",""
"","html-keyboard-response","239","932321","0.0-12.0-3.0","8hm2c2gukk","many_one","0","direct_first","1","slsb17W3","0","20","1","1","3","1","","0","NA","0","1211.3399999943795","","","<img src = 'targets/mask.png' width = '100%;'>","75","pos","GS","GSold","3","category3/CS3.png","","targets/20.png","indirect","1","24"
"","html-keyboard-response","240","933830","0.0-12.0-0.1","8hm2c2gukk","many_one","0","direct_first","1","slsb17W3","0","20","1","1","3","1","","0","NA","0","null","","","<div style=""font-size:60px;"">+</div>","null","","","","","","","","","",""
"","html-keyboard-response","241","933929","0.0-12.0-1.1","8hm2c2gukk","many_one","0","direct_first","1","slsb17W3","0","20","1","1","3","1","","0","NA","0","null","","","<img src = 'category1/GS1.png' width = '100%;'>","null","","","","","","","","","",""
"","html-keyboard-response","242","934197","0.0-12.0-2.1","8hm2c2gukk","many_one","0","direct_first","1","slsb17W3","0","20","1","1","3","1","","0","NA","0","null","","","<img src = 'targets/31.png' width = '100%;'>","null","","","","","","","","","",""
"","html-keyboard-response","243","934882","0.0-12.0-3.1","8hm2c2gukk","many_one","0","direct_first","1","slsb17W3","0","20","1","1","3","1","","0","NA","0","682.9049999942072","","","<img src = 'targets/mask.png' width = '100%;'>","75","neg","GS","GSnew","1","category1/GS1.png","","targets/31.png","indirect","1","25"
"","html-keyboard-response","244","936387","0.0-12.0-0.2","8hm2c2gukk","many_one","0","direct_first","1","slsb17W3","0","20","1","1","3","1","","0","NA","0","null","","","<div style=""font-size:60px;"">+</div>","null","","","","","","","","","",""
"","html-keyboard-response","245","936480","0.0-12.0-1.2","8hm2c2gukk","many_one","0","direct_first","1","slsb17W3","0","20","1","1","3","1","","0","NA","0","null","","","<img src = 'category3/GS1.png' width = '100%;'>","null","","","","","","","","","",""
"","html-keyboard-response","246","936746","0.0-12.0-2.2","8hm2c2gukk","many_one","0","direct_first","1","slsb17W3","0","20","1","1","3","1","","0","NA","0","null","","","<img src = 'targets/24.png' width = '100%;'>","null","","","","","","","","","",""
"","html-keyboard-response","247","939270","0.0-12.0-3.2","8hm2c2gukk","many_one","0","direct_first","1","slsb17W3","0","20","1","1","3","1","","0","NA","0","2521.820000009029","","","<img src = 'targets/mask.png' width = '100%;'>","68","pos","GS","GSnew","3","category3/GS1.png","","targets/24.png","indirect","0","26"
"","html-keyboard-response","248","940780","0.0-12.0-0.3","8hm2c2gukk","many_one","0","direct_first","1","slsb17W3","0","20","1","1","3","1","","0","NA","0","null","","","<div style=""font-size:60px;"">+</div>","null","","","","","","","","","",""
"","html-keyboard-response","249","940877","0.0-12.0-1.3","8hm2c2gukk","many_one","0","direct_first","1","slsb17W3","0","20","1","1","3","1","","0","NA","0","null","","","<img src = 'category4/GS1.png' width = '100%;'>","null","","","","","","","","","",""
"","html-keyboard-response","250","941143","0.0-12.0-2.3","8hm2c2gukk","many_one","0","direct_first","1","slsb17W3","0","20","1","1","3","1","","0","NA","0","null","","","<img src = 'targets/44.png' width = '100%;'>","null","","","","","","","","","",""
"","html-keyboard-response","251","941741","0.0-12.0-3.3","8hm2c2gukk","many_one","0","direct_first","1","slsb17W3","0","20","1","1","3","1","","0","NA","0","595.8800000080373","","","<img src = 'targets/mask.png' width = '100%;'>","75","neg","GS","GSnew","4","category4/GS1.png","","targets/44.png","indirect","1","27"
"","html-keyboard-response","252","943251","0.0-12.0-0.4","8hm2c2gukk","many_one","0","direct_first","1","slsb17W3","0","20","1","1","3","1","","0","NA","0","null","","","<div style=""font-size:60px;"">+</div>","null","","","","","","","","","",""
"","html-keyboard-response","253","943348","0.0-12.0-1.4","8hm2c2gukk","many_one","0","direct_first","1","slsb17W3","0","20","1","1","3","1","","0","NA","0","null","","","<img src = 'category2/men.png' width = '100%;'>","null","","","","","","","","","",""
"","html-keyboard-response","254","943601","0.0-12.0-2.4","8hm2c2gukk","many_one","0","direct_first","1","slsb17W3","0","20","1","1","3","1","","0","NA","0","null","","","<img src = 'targets/46.png' width = '100%;'>","null","","","","","","","","","",""
"","html-keyboard-response","255","944994","0.0-12.0-3.4","8hm2c2gukk","many_one","0","direct_first","1","slsb17W3","0","20","1","1","3","1","","0","NA","0","1390.9599999897182","","","<img src = 'targets/mask.png' width = '100%;'>","68","pos","GS","abstract","2","category2/men.png","","targets/46.png","indirect","0","28"
"","html-keyboard-response","256","946499","0.0-12.0-0.5","8hm2c2gukk","many_one","0","direct_first","1","slsb17W3","0","20","1","1","3","1","","0","NA","0","null","","","<div style=""font-size:60px;"">+</div>","null","","","","","","","","","",""
"","html-keyboard-response","257","946597","0.0-12.0-1.5","8hm2c2gukk","many_one","0","direct_first","1","slsb17W3","0","20","1","1","3","1","","0","NA","0","null","","","<img src = 'category4/CS7.png' width = '100%;'>","null","","","","","","","","","",""
"","html-keyboard-response","258","946858","0.0-12.0-2.5","8hm2c2gukk","many_one","0","direct_first","1","slsb17W3","0","20","1","1","3","1","","0","NA","0","null","","","<img src = 'targets/9.png' width = '100%;'>","null","","","","","","","","","",""
"","html-keyboard-response","259","947470","0.0-12.0-3.5","8hm2c2gukk","many_one","0","direct_first","1","slsb17W3","0","20","1","1","3","1","","0","NA","0","609.6400000096764","","","<img src = 'targets/mask.png' width = '100%;'>","75","neg","GS","GSold","4","category4/CS7.png","","targets/9.png","indirect","1","29"
"","html-keyboard-response","260","948976","0.0-12.0-0.6","8hm2c2gukk","many_one","0","direct_first","1","slsb17W3","0","20","1","1","3","1","","0","NA","0","null","","","<div style=""font-size:60px;"">+</div>","null","","","","","","","","","",""
"","html-keyboard-response","261","949075","0.0-12.0-1.6","8hm2c2gukk","many_one","0","direct_first","1","slsb17W3","0","20","1","1","3","1","","0","NA","0","null","","","<img src = 'category1/GS2.png' width = '100%;'>","null","","","","","","","","","",""
"","html-keyboard-response","262","949348","0.0-12.0-2.6","8hm2c2gukk","many_one","0","direct_first","1","slsb17W3","0","20","1","1","3","1","","0","NA","0","null","","","<img src = 'targets/42.png' width = '100%;'>","null","","","","","","","","","",""
"","html-keyboard-response","263","949834","0.0-12.0-3.6","8hm2c2gukk","many_one","0","direct_first","1","slsb17W3","0","20","1","1","3","1","","0","NA","0","484.36499999661464","","","<img src = 'targets/mask.png' width = '100%;'>","75","neg","GS","GSnew","1","category1/GS2.png","","targets/42.png","indirect","1","30"
"","html-keyboard-response","264","951341","0.0-12.0-0.7","8hm2c2gukk","many_one","0","direct_first","1","slsb17W3","0","20","1","1","3","1","","0","NA","0","null","","","<div style=""font-size:60px;"">+</div>","null","","","","","","","","","",""
"","html-keyboard-response","265","951440","0.0-12.0-1.7","8hm2c2gukk","many_one","0","direct_first","1","slsb17W3","0","20","1","1","3","1","","0","NA","0","null","","","<img src = 'category1/GS3.png' width = '100%;'>","null","","","","","","","","","",""
"","html-keyboard-response","266","951709","0.0-12.0-2.7","8hm2c2gukk","many_one","0","direct_first","1","slsb17W3","0","20","1","1","3","1","","0","NA","0","null","","","<img src = 'targets/38.png' width = '100%;'>","null","","","","","","","","","",""
"","html-keyboard-response","267","952238","0.0-12.0-3.7","8hm2c2gukk","many_one","0","direct_first","1","slsb17W3","0","20","1","1","3","1","","0","NA","0","526.7149999999674","","","<img src = 'targets/mask.png' width = '100%;'>","75","neg","GS","GSnew","1","category1/GS3.png","","targets/38.png","indirect","1","31"
"","html-keyboard-response","268","953745","0.0-12.0-0.8","8hm2c2gukk","many_one","0","direct_first","1","slsb17W3","0","20","1","1","3","1","","0","NA","0","null","","","<div style=""font-size:60px;"">+</div>","null","","","","","","","","","",""
"","html-keyboard-response","269","953843","0.0-12.0-1.8","8hm2c2gukk","many_one","0","direct_first","1","slsb17W3","0","20","1","1","3","1","","0","NA","0","null","","","<img src = 'category2/CS10.png' width = '100%;'>","null","","","","","","","","","",""
"","html-keyboard-response","270","954097","0.0-12.0-2.8","8hm2c2gukk","many_one","0","direct_first","1","slsb17W3","0","20","1","1","3","1","","0","NA","0","null","","","<img src = 'targets/7.png' width = '100%;'>","null","","","","","","","","","",""
"","html-keyboard-response","271","954657","0.0-12.0-3.8","8hm2c2gukk","many_one","0","direct_first","1","slsb17W3","0","20","1","1","3","1","","0","NA","0","558.0249999911757","","","<img src = 'targets/mask.png' width = '100%;'>","75","pos","GS","GSold","2","category2/CS10.png","","targets/7.png","indirect","1","32"
"","html-keyboard-response","272","956174","0.0-12.0-0.9","8hm2c2gukk","many_one","0","direct_first","1","slsb17W3","0","20","1","1","3","1","","0","NA","0","null","","","<div style=""font-size:60px;"">+</div>","null","","","","","","","","","",""
"","html-keyboard-response","273","956266","0.0-12.0-1.9","8hm2c2gukk","many_one","0","direct_first","1","slsb17W3","0","20","1","1","3","1","","0","NA","0","null","","","<img src = 'category2/GS3.png' width = '100%;'>","null","","","","","","","","","",""
"","html-keyboard-response","274","956532","0.0-12.0-2.9","8hm2c2gukk","many_one","0","direct_first","1","slsb17W3","0","20","1","1","3","1","","0","NA","0","null","","","<img src = 'targets/16.png' width = '100%;'>","null","","","","","","","","","",""
"","html-keyboard-response","275","957188","0.0-12.0-3.9","8hm2c2gukk","many_one","0","direct_first","1","slsb17W3","0","20","1","1","3","1","","0","NA","0","654.2999999946915","","","<img src = 'targets/mask.png' width = '100%;'>","68","pos","GS","GSnew","2","category2/GS3.png","","targets/16.png","indirect","0","33"
"","html-keyboard-response","276","958702","0.0-12.0-0.10","8hm2c2gukk","many_one","0","direct_first","1","slsb17W3","0","20","1","1","3","1","","0","NA","0","null","","","<div style=""font-size:60px;"">+</div>","null","","","","","","","","","",""
"","html-keyboard-response","277","958801","0.0-12.0-1.10","8hm2c2gukk","many_one","0","direct_first","1","slsb17W3","0","20","1","1","3","1","","0","NA","0","null","","","<img src = 'category2/GS1.png' width = '100%;'>","null","","","","","","","","","",""
"","html-keyboard-response","278","959062","0.0-12.0-2.10","8hm2c2gukk","many_one","0","direct_first","1","slsb17W3","0","20","1","1","3","1","","0","NA","0","null","","","<img src = 'targets/12.png' width = '100%;'>","null","","","","","","","","","",""
"","html-keyboard-response","279","959673","0.0-12.0-3.10","8hm2c2gukk","many_one","0","direct_first","1","slsb17W3","0","20","1","1","3","1","","0","NA","0","609.0249999979278","","","<img src = 'targets/mask.png' width = '100%;'>","75","pos","GS","GSnew","2","category2/GS1.png","","targets/12.png","indirect","1","34"
"","html-keyboard-response","280","961179","0.0-12.0-0.11","8hm2c2gukk","many_one","0","direct_first","1","slsb17W3","0","20","1","1","3","1","","0","NA","0","null","","","<div style=""font-size:60px;"">+</div>","null","","","","","","","","","",""
"","html-keyboard-response","281","961277","0.0-12.0-1.11","8hm2c2gukk","many_one","0","direct_first","1","slsb17W3","0","20","1","1","3","1","","0","NA","0","null","","","<img src = 'category1/ma.png' width = '100%;'>","null","","","","","","","","","",""
"","html-keyboard-response","282","961537","0.0-12.0-2.11","8hm2c2gukk","many_one","0","direct_first","1","slsb17W3","0","20","1","1","3","1","","0","NA","0","null","","","<img src = 'targets/25.png' width = '100%;'>","null","","","","","","","","","",""
"","html-keyboard-response","283","962644","0.0-12.0-3.11","8hm2c2gukk","many_one","0","direct_first","1","slsb17W3","0","20","1","1","3","1","","0","NA","0","1103.914999999688","","","<img src = 'targets/mask.png' width = '100%;'>","75","neg","GS","abstract","1","category1/ma.png","","targets/25.png","indirect","1","35"
"","html-keyboard-response","284","964153","0.0-12.0-0.12","8hm2c2gukk","many_one","0","direct_first","1","slsb17W3","0","20","1","1","3","1","","0","NA","0","null","","","<div style=""font-size:60px;"">+</div>","null","","","","","","","","","",""
"","html-keyboard-response","285","964251","0.0-12.0-1.12","8hm2c2gukk","many_one","0","direct_first","1","slsb17W3","0","20","1","1","3","1","","0","NA","0","null","","","<img src = 'category3/GS3.png' width = '100%;'>","null","","","","","","","","","",""
"","html-keyboard-response","286","964509","0.0-12.0-2.12","8hm2c2gukk","many_one","0","direct_first","1","slsb17W3","0","20","1","1","3","1","","0","NA","0","null","","","<img src = 'targets/4.png' width = '100%;'>","null","","","","","","","","","",""
"","html-keyboard-response","287","964959","0.0-12.0-3.12","8hm2c2gukk","many_one","0","direct_first","1","slsb17W3","0","20","1","1","3","1","","0","NA","0","447.9599999904167","","","<img src = 'targets/mask.png' width = '100%;'>","75","pos","GS","GSnew","3","category3/GS3.png","","targets/4.png","indirect","1","36"
"","html-keyboard-response","288","966463","0.0-12.0-0.13","8hm2c2gukk","many_one","0","direct_first","1","slsb17W3","0","20","1","1","3","1","","0","NA","0","null","","","<div style=""font-size:60px;"">+</div>","null","","","","","","","","","",""
"","html-keyboard-response","289","966561","0.0-12.0-1.13","8hm2c2gukk","many_one","0","direct_first","1","slsb17W3","0","20","1","1","3","1","","0","NA","0","null","","","<img src = 'category4/lin.png' width = '100%;'>","null","","","","","","","","","",""
"","html-keyboard-response","290","966817","0.0-12.0-2.13","8hm2c2gukk","many_one","0","direct_first","1","slsb17W3","0","20","1","1","3","1","","0","NA","0","null","","","<img src = 'targets/32.png' width = '100%;'>","null","","","","","","","","","",""
"","html-keyboard-response","291","968396","0.0-12.0-3.13","8hm2c2gukk","many_one","0","direct_first","1","slsb17W3","0","20","1","1","3","1","","0","NA","0","1577.000000004773","","","<img src = 'targets/mask.png' width = '100%;'>","68","neg","GS","abstract","4","category4/lin.png","","targets/32.png","indirect","0","37"
"","html-keyboard-response","292","969903","0.0-12.0-0.14","8hm2c2gukk","many_one","0","direct_first","1","slsb17W3","0","20","1","1","3","1","","0","NA","0","null","","","<div style=""font-size:60px;"">+</div>","null","","","","","","","","","",""
"","html-keyboard-response","293","970000","0.0-12.0-1.14","8hm2c2gukk","many_one","0","direct_first","1","slsb17W3","0","20","1","1","3","1","","0","NA","0","null","","","<img src = 'category4/GS2.png' width = '100%;'>","null","","","","","","","","","",""
"","html-keyboard-response","294","970261","0.0-12.0-2.14","8hm2c2gukk","many_one","0","direct_first","1","slsb17W3","0","20","1","1","3","1","","0","NA","0","null","","","<img src = 'targets/18.png' width = '100%;'>","null","","","","","","","","","",""
"","html-keyboard-response","295","971177","0.0-12.0-3.14","8hm2c2gukk","many_one","0","direct_first","1","slsb17W3","0","20","1","1","3","1","","0","NA","0","914.2049999936717","","","<img src = 'targets/mask.png' width = '100%;'>","68","neg","GS","GSnew","4","category4/GS2.png","","targets/18.png","indirect","0","38"
"","html-keyboard-response","296","972686","0.0-12.0-0.15","8hm2c2gukk","many_one","0","direct_first","1","slsb17W3","0","20","1","1","3","1","","0","NA","0","null","","","<div style=""font-size:60px;"">+</div>","null","","","","","","","","","",""
"","html-keyboard-response","297","972784","0.0-12.0-1.15","8hm2c2gukk","many_one","0","direct_first","1","slsb17W3","0","20","1","1","3","1","","0","NA","0","null","","","<img src = 'category4/CS10.png' width = '100%;'>","null","","","","","","","","","",""
"","html-keyboard-response","298","973051","0.0-12.0-2.15","8hm2c2gukk","many_one","0","direct_first","1","slsb17W3","0","20","1","1","3","1","","0","NA","0","null","","","<img src = 'targets/1.png' width = '100%;'>","null","","","","","","","","","",""
"","html-keyboard-response","299","973777","0.0-12.0-3.15","8hm2c2gukk","many_one","0","direct_first","1","slsb17W3","0","20","1","1","3","1","","0","NA","0","724.8949999921024","","","<img src = 'targets/mask.png' width = '100%;'>","75","neg","GS","GSold","4","category4/CS10.png","","targets/1.png","indirect","1","39"
"","html-keyboard-response","300","975282","0.0-12.0-0.16","8hm2c2gukk","many_one","0","direct_first","1","slsb17W3","0","20","1","1","3","1","","0","NA","0","null","","","<div style=""font-size:60px;"">+</div>","null","","","","","","","","","",""
"","html-keyboard-response","301","975382","0.0-12.0-1.16","8hm2c2gukk","many_one","0","direct_first","1","slsb17W3","0","20","1","1","3","1","","0","NA","0","null","","","<img src = 'category3/CS5.png' width = '100%;'>","null","","","","","","","","","",""
"","html-keyboard-response","302","975652","0.0-12.0-2.16","8hm2c2gukk","many_one","0","direct_first","1","slsb17W3","0","20","1","1","3","1","","0","NA","0","null","","","<img src = 'targets/43.png' width = '100%;'>","null","","","","","","","","","",""
"","html-keyboard-response","303","976304","0.0-12.0-3.16","8hm2c2gukk","many_one","0","direct_first","1","slsb17W3","0","20","1","1","3","1","","0","NA","0","649.4999999995343","","","<img src = 'targets/mask.png' width = '100%;'>","75","pos","GS","GSold","3","category3/CS5.png","","targets/43.png","indirect","1","40"
"","html-keyboard-response","304","977809","0.0-12.0-0.17","8hm2c2gukk","many_one","0","direct_first","1","slsb17W3","0","20","1","1","3","1","","0","NA","0","null","","","<div style=""font-size:60px;"">+</div>","null","","","","","","","","","",""
"","html-keyboard-response","305","977908","0.0-12.0-1.17","8hm2c2gukk","many_one","0","direct_first","1","slsb17W3","0","20","1","1","3","1","","0","NA","0","null","","","<img src = 'category3/CS4.png' width = '100%;'>","null","","","","","","","","","",""
"","html-keyboard-response","306","978177","0.0-12.0-2.17","8hm2c2gukk","many_one","0","direct_first","1","slsb17W3","0","20","1","1","3","1","","0","NA","0","null","","","<img src = 'targets/22.png' width = '100%;'>","null","","","","","","","","","",""
"","html-keyboard-response","307","978823","0.0-12.0-3.17","8hm2c2gukk","many_one","0","direct_first","1","slsb17W3","0","20","1","1","3","1","","0","NA","0","643.739999999525","","","<img src = 'targets/mask.png' width = '100%;'>","68","pos","GS","GSold","3","category3/CS4.png","","targets/22.png","indirect","0","41"
"","html-keyboard-response","308","980344","0.0-12.0-0.18","8hm2c2gukk","many_one","0","direct_first","1","slsb17W3","0","20","1","1","3","1","","0","NA","0","null","","","<div style=""font-size:60px;"">+</div>","null","","","","","","","","","",""
"","html-keyboard-response","309","980442","0.0-12.0-1.18","8hm2c2gukk","many_one","0","direct_first","1","slsb17W3","0","20","1","1","3","1","","0","NA","0","null","","","<img src = 'category2/CS4.png' width = '100%;'>","null","","","","","","","","","",""
"","html-keyboard-response","310","980703","0.0-12.0-2.18","8hm2c2gukk","many_one","0","direct_first","1","slsb17W3","0","20","1","1","3","1","","0","NA","0","null","","","<img src = 'targets/3.png' width = '100%;'>","null","","","","","","","","","",""
"","html-keyboard-response","311","981273","0.0-12.0-3.18","8hm2c2gukk","many_one","0","direct_first","1","slsb17W3","0","20","1","1","3","1","","0","NA","0","568.619999990915","","","<img src = 'targets/mask.png' width = '100%;'>","68","pos","GS","GSold","2","category2/CS4.png","","targets/3.png","indirect","0","42"
"","html-keyboard-response","312","982790","0.0-12.0-0.19","8hm2c2gukk","many_one","0","direct_first","1","slsb17W3","0","20","1","1","3","1","","0","NA","0","null","","","<div style=""font-size:60px;"">+</div>","null","","","","","","","","","",""
"","html-keyboard-response","313","982889","0.0-12.0-1.19","8hm2c2gukk","many_one","0","direct_first","1","slsb17W3","0","20","1","1","3","1","","0","NA","0","null","","","<img src = 'category4/GS3.png' width = '100%;'>","null","","","","","","","","","",""
"","html-keyboard-response","314","983150","0.0-12.0-2.19","8hm2c2gukk","many_one","0","direct_first","1","slsb17W3","0","20","1","1","3","1","","0","NA","0","null","","","<img src = 'targets/37.png' width = '100%;'>","null","","","","","","","","","",""
"","html-keyboard-response","315","983704","0.0-12.0-3.19","8hm2c2gukk","many_one","0","direct_first","1","slsb17W3","0","20","1","1","3","1","","0","NA","0","552.1449999941979","","","<img src = 'targets/mask.png' width = '100%;'>","68","neg","GS","GSnew","4","category4/GS3.png","","targets/37.png","indirect","0","43"
"","html-keyboard-response","316","985222","0.0-12.0-0.20","8hm2c2gukk","many_one","0","direct_first","1","slsb17W3","0","20","1","1","3","1","","0","NA","0","null","","","<div style=""font-size:60px;"">+</div>","null","","","","","","","","","",""
"","html-keyboard-response","317","985329","0.0-12.0-1.20","8hm2c2gukk","many_one","0","direct_first","1","slsb17W3","0","20","1","1","3","1","","0","NA","0","null","","","<img src = 'category4/CS6.png' width = '100%;'>","null","","","","","","","","","",""
"","html-keyboard-response","318","985590","0.0-12.0-2.20","8hm2c2gukk","many_one","0","direct_first","1","slsb17W3","0","20","1","1","3","1","","0","NA","0","null","","","<img src = 'targets/21.png' width = '100%;'>","null","","","","","","","","","",""
"","html-keyboard-response","319","986173","0.0-12.0-3.20","8hm2c2gukk","many_one","0","direct_first","1","slsb17W3","0","20","1","1","3","1","","0","NA","0","580.549999998766","","","<img src = 'targets/mask.png' width = '100%;'>","75","neg","GS","GSold","4","category4/CS6.png","","targets/21.png","indirect","1","44"
"","html-keyboard-response","320","987684","0.0-12.0-0.21","8hm2c2gukk","many_one","0","direct_first","1","slsb17W3","0","20","1","1","3","1","","0","NA","0","null","","","<div style=""font-size:60px;"">+</div>","null","","","","","","","","","",""
"","html-keyboard-response","321","987776","0.0-12.0-1.21","8hm2c2gukk","many_one","0","direct_first","1","slsb17W3","0","20","1","1","3","1","","0","NA","0","null","","","<img src = 'category3/wang.png' width = '100%;'>","null","","","","","","","","","",""
"","html-keyboard-response","322","988043","0.0-12.0-2.21","8hm2c2gukk","many_one","0","direct_first","1","slsb17W3","0","20","1","1","3","1","","0","NA","0","null","","","<img src = 'targets/26.png' width = '100%;'>","null","","","","","","","","","",""
"","html-keyboard-response","323","988518","0.0-12.0-3.21","8hm2c2gukk","many_one","0","direct_first","1","slsb17W3","0","20","1","1","3","1","","0","NA","0","473.07500000169966","","","<img src = 'targets/mask.png' width = '100%;'>","75","pos","GS","abstract","3","category3/wang.png","","targets/26.png","indirect","1","45"
"","html-keyboard-response","324","990039","0.0-12.0-0.22","8hm2c2gukk","many_one","0","direct_first","1","slsb17W3","0","20","1","1","3","1","","0","NA","0","null","","","<div style=""font-size:60px;"">+</div>","null","","","","","","","","","",""
"","html-keyboard-response","325","990138","0.0-12.0-1.22","8hm2c2gukk","many_one","0","direct_first","1","slsb17W3","0","20","1","1","3","1","","0","NA","0","null","","","<img src = 'category2/GS2.png' width = '100%;'>","null","","","","","","","","","",""
"","html-keyboard-response","326","990397","0.0-12.0-2.22","8hm2c2gukk","many_one","0","direct_first","1","slsb17W3","0","20","1","1","3","1","","0","NA","0","null","","","<img src = 'targets/8.png' width = '100%;'>","null","","","","","","","","","",""
