"success","trial_type","trial_index","time_elapsed","internal_node_id","subject","condition","condition_code","measure","measure_code","codeword","gender","age","education","chinese","fach","handedness","comment","hinschauen","ablenkung","gewissenhaft","rt","url","responses","stimulus","key_press","val","type","type_specific","category","cs_selected","target","indirect","task","nr_pres","response"
"true","fullscreen","0","449449","0.0-0.0","t6ev74okbf","one_one","1","indirect_first","0","le05en17","0","38","1","1","3","1","","0","1","0","","","","","","","","","","","","","","",""
"","external-html","1","490540","0.0-1.0","t6ev74okbf","one_one","1","indirect_first","0","le05en17","0","38","1","1","3","1","","0","1","0","41032.97999990173","text/information.html","","","","","","","","","","","","",""
"","external-html","2","512716","0.0-2.0","t6ev74okbf","one_one","1","indirect_first","0","le05en17","0","38","1","1","3","1","","0","1","0","22131.889999844134","text/consent.html","","","","","","","","","","","","",""
"","survey-html-form","3","540922","0.0-3.0","t6ev74okbf","one_one","1","indirect_first","0","le05en17","0","38","1","1","3","1","","0","1","0","28197.38500006497","","{""codeword_enter"":""le05en17""}","","","","","","","","","","","",""
"","survey-html-form","4","565141","0.0-4.0","t6ev74okbf","one_one","1","indirect_first","0","le05en17","0","38","1","1","3","1","","0","1","0","24212.620000122115","","{""age"":""38"",""education"":""1"",""subject"":""3"",""gender"":""0"",""handedness"":""1"",""chinese"":""1""}","","","","","","","","","","","",""
"","survey-html-form","5","573869","0.0-5.0","t6ev74okbf","one_one","1","indirect_first","0","le05en17","0","38","1","1","3","1","","0","1","0","8725.43999995105","","{}","","","","","","","","","","","",""
"","html-keyboard-response","6","577885","0.0-6.0-0.0-0.0","t6ev74okbf","one_one","1","indirect_first","0","le05en17","0","38","1","1","3","1","","0","1","0","null","","","<div class = 'row'><div class = 'column'><img src = 'category1/CS6.png' width = '70%;'></div><div class = 'column'><img src = 'usneg/6570.1.bmp' width = '100%;'></div></div>","null","neg","CS","CS","1","category1/CS6.png","","","","",""
"","html-keyboard-response","7","580406","0.0-6.0-0.0-0.1","t6ev74okbf","one_one","1","indirect_first","0","le05en17","0","38","1","1","3","1","","0","1","0","null","","","<div class = 'row'><div class = 'column'><img src = 'uspos/2057.bmp' width = '100%;'></div><div class = 'column'><img src = 'category3/CS10.png' width = '70%;'></div></div>","null","pos","CS","CS","3","category3/CS10.png","","","","",""
"","html-keyboard-response","8","582923","0.0-6.0-0.0-0.2","t6ev74okbf","one_one","1","indirect_first","0","le05en17","0","38","1","1","3","1","","0","1","0","null","","","<div class = 'row'><div class = 'column'><img src = 'uspos/1440.bmp' width = '100%;'></div><div class = 'column'><img src = 'category2/CS6.png' width = '70%;'></div></div>","null","pos","CS","CS","2","category2/CS6.png","","","","",""
"","html-keyboard-response","9","585443","0.0-6.0-0.0-0.3","t6ev74okbf","one_one","1","indirect_first","0","le05en17","0","38","1","1","3","1","","0","1","0","null","","","<div class = 'row'><div class = 'column'><img src = 'uspos/2057.bmp' width = '100%;'></div><div class = 'column'><img src = 'category3/CS10.png' width = '70%;'></div></div>","null","pos","CS","CS","3","category3/CS10.png","","","","",""
"","html-keyboard-response","10","587948","0.0-6.0-0.0-0.4","t6ev74okbf","one_one","1","indirect_first","0","le05en17","0","38","1","1","3","1","","0","1","0","null","","","<div class = 'row'><div class = 'column'><img src = 'category1/CS6.png' width = '70%;'></div><div class = 'column'><img src = 'usneg/6570.1.bmp' width = '100%;'></div></div>","null","neg","CS","CS","1","category1/CS6.png","","","","",""
"","html-keyboard-response","11","590464","0.0-6.0-0.0-0.5","t6ev74okbf","one_one","1","indirect_first","0","le05en17","0","38","1","1","3","1","","0","1","0","null","","","<div class = 'row'><div class = 'column'><img src = 'usneg/9050.bmp' width = '100%;'></div><div class = 'column'><img src = 'category4/CS9.png' width = '70%;'></div></div>","null","neg","CS","CS","4","category4/CS9.png","","","","",""
"","html-keyboard-response","12","592981","0.0-6.0-0.0-0.6","t6ev74okbf","one_one","1","indirect_first","0","le05en17","0","38","1","1","3","1","","0","1","0","null","","","<div class = 'row'><div class = 'column'><img src = 'uspos/2057.bmp' width = '100%;'></div><div class = 'column'><img src = 'category3/CS10.png' width = '70%;'></div></div>","null","pos","CS","CS","3","category3/CS10.png","","","","",""
"","html-keyboard-response","13","595499","0.0-6.0-0.0-0.7","t6ev74okbf","one_one","1","indirect_first","0","le05en17","0","38","1","1","3","1","","0","1","0","null","","","<div class = 'row'><div class = 'column'><img src = 'category2/CS6.png' width = '70%;'></div><div class = 'column'><img src = 'uspos/1440.bmp' width = '100%;'></div></div>","null","pos","CS","CS","2","category2/CS6.png","","","","",""
"","html-keyboard-response","14","598009","0.0-6.0-0.0-0.8","t6ev74okbf","one_one","1","indirect_first","0","le05en17","0","38","1","1","3","1","","0","1","0","null","","","<div class = 'row'><div class = 'column'><img src = 'category1/CS6.png' width = '70%;'></div><div class = 'column'><img src = 'usneg/6570.1.bmp' width = '100%;'></div></div>","null","neg","CS","CS","1","category1/CS6.png","","","","",""
"","html-keyboard-response","15","600527","0.0-6.0-0.0-0.9","t6ev74okbf","one_one","1","indirect_first","0","le05en17","0","38","1","1","3","1","","0","1","0","null","","","<div class = 'row'><div class = 'column'><img src = 'category4/CS9.png' width = '70%;'></div><div class = 'column'><img src = 'usneg/9050.bmp' width = '100%;'></div></div>","null","neg","CS","CS","4","category4/CS9.png","","","","",""
"","html-keyboard-response","16","603030","0.0-6.0-0.0-0.10","t6ev74okbf","one_one","1","indirect_first","0","le05en17","0","38","1","1","3","1","","0","1","0","null","","","<div class = 'row'><div class = 'column'><img src = 'uspos/1440.bmp' width = '100%;'></div><div class = 'column'><img src = 'category2/CS6.png' width = '70%;'></div></div>","null","pos","CS","CS","2","category2/CS6.png","","","","",""
"","html-keyboard-response","17","605550","0.0-6.0-0.0-0.11","t6ev74okbf","one_one","1","indirect_first","0","le05en17","0","38","1","1","3","1","","0","1","0","null","","","<div class = 'row'><div class = 'column'><img src = 'category4/CS9.png' width = '70%;'></div><div class = 'column'><img src = 'usneg/9050.bmp' width = '100%;'></div></div>","null","neg","CS","CS","4","category4/CS9.png","","","","",""
"","html-keyboard-response","18","608055","0.0-6.0-0.0-0.12","t6ev74okbf","one_one","1","indirect_first","0","le05en17","0","38","1","1","3","1","","0","1","0","null","","","<div class = 'row'><div class = 'column'><img src = 'uspos/1440.bmp' width = '100%;'></div><div class = 'column'><img src = 'category2/CS6.png' width = '70%;'></div></div>","null","pos","CS","CS","2","category2/CS6.png","","","","",""
"","html-keyboard-response","19","610569","0.0-6.0-0.0-0.13","t6ev74okbf","one_one","1","indirect_first","0","le05en17","0","38","1","1","3","1","","0","1","0","null","","","<div class = 'row'><div class = 'column'><img src = 'category1/CS6.png' width = '70%;'></div><div class = 'column'><img src = 'usneg/6570.1.bmp' width = '100%;'></div></div>","null","neg","CS","CS","1","category1/CS6.png","","","","",""
"","html-keyboard-response","20","613081","0.0-6.0-0.0-0.14","t6ev74okbf","one_one","1","indirect_first","0","le05en17","0","38","1","1","3","1","","0","1","0","null","","","<div class = 'row'><div class = 'column'><img src = 'usneg/9050.bmp' width = '100%;'></div><div class = 'column'><img src = 'category4/CS9.png' width = '70%;'></div></div>","null","neg","CS","CS","4","category4/CS9.png","","","","",""
"","html-keyboard-response","21","615599","0.0-6.0-0.0-0.15","t6ev74okbf","one_one","1","indirect_first","0","le05en17","0","38","1","1","3","1","","0","1","0","null","","","<div class = 'row'><div class = 'column'><img src = 'category1/CS6.png' width = '70%;'></div><div class = 'column'><img src = 'usneg/6570.1.bmp' width = '100%;'></div></div>","null","neg","CS","CS","1","category1/CS6.png","","","","",""
"","html-keyboard-response","22","618116","0.0-6.0-0.0-0.16","t6ev74okbf","one_one","1","indirect_first","0","le05en17","0","38","1","1","3","1","","0","1","0","null","","","<div class = 'row'><div class = 'column'><img src = 'uspos/1440.bmp' width = '100%;'></div><div class = 'column'><img src = 'category2/CS6.png' width = '70%;'></div></div>","null","pos","CS","CS","2","category2/CS6.png","","","","",""
"","html-keyboard-response","23","620619","0.0-6.0-0.0-0.17","t6ev74okbf","one_one","1","indirect_first","0","le05en17","0","38","1","1","3","1","","0","1","0","null","","","<div class = 'row'><div class = 'column'><img src = 'uspos/2057.bmp' width = '100%;'></div><div class = 'column'><img src = 'category3/CS10.png' width = '70%;'></div></div>","null","pos","CS","CS","3","category3/CS10.png","","","","",""
"","html-keyboard-response","24","623134","0.0-6.0-0.0-0.18","t6ev74okbf","one_one","1","indirect_first","0","le05en17","0","38","1","1","3","1","","0","1","0","null","","","<div class = 'row'><div class = 'column'><img src = 'category4/CS9.png' width = '70%;'></div><div class = 'column'><img src = 'usneg/9050.bmp' width = '100%;'></div></div>","null","neg","CS","CS","4","category4/CS9.png","","","","",""
"","html-keyboard-response","25","625651","0.0-6.0-0.0-0.19","t6ev74okbf","one_one","1","indirect_first","0","le05en17","0","38","1","1","3","1","","0","1","0","null","","","<div class = 'row'><div class = 'column'><img src = 'category3/CS10.png' width = '70%;'></div><div class = 'column'><img src = 'uspos/2057.bmp' width = '100%;'></div></div>","null","pos","CS","CS","3","category3/CS10.png","","","","",""
"","survey-html-form","26","652500","0.0-6.0-1.0","t6ev74okbf","one_one","1","indirect_first","0","le05en17","0","38","1","1","3","1","","0","1","0","26346.635000081733","","{}","","","","","","","","","","","",""
"","html-keyboard-response","27","656525","0.0-6.0-2.0-0.0","t6ev74okbf","one_one","1","indirect_first","0","le05en17","0","38","1","1","3","1","","0","1","0","null","","","<div class = 'row'><div class = 'column'><img src = 'category1/CS6.png' width = '70%;'></div><div class = 'column'><img src = 'usneg/6570.1.bmp' width = '100%;'></div></div>","null","neg","CS","CS","1","category1/CS6.png","","","","",""
"","html-keyboard-response","28","659045","0.0-6.0-2.0-0.1","t6ev74okbf","one_one","1","indirect_first","0","le05en17","0","38","1","1","3","1","","0","1","0","null","","","<div class = 'row'><div class = 'column'><img src = 'uspos/2057.bmp' width = '100%;'></div><div class = 'column'><img src = 'category3/CS10.png' width = '70%;'></div></div>","null","pos","CS","CS","3","category3/CS10.png","","","","",""
"","html-keyboard-response","29","661563","0.0-6.0-2.0-0.2","t6ev74okbf","one_one","1","indirect_first","0","le05en17","0","38","1","1","3","1","","0","1","0","null","","","<div class = 'row'><div class = 'column'><img src = 'category1/CS6.png' width = '70%;'></div><div class = 'column'><img src = 'usneg/6570.1.bmp' width = '100%;'></div></div>","null","neg","CS","CS","1","category1/CS6.png","","","","",""
"","html-keyboard-response","30","664066","0.0-6.0-2.0-0.3","t6ev74okbf","one_one","1","indirect_first","0","le05en17","0","38","1","1","3","1","","0","1","0","null","","","<div class = 'row'><div class = 'column'><img src = 'uspos/2057.bmp' width = '100%;'></div><div class = 'column'><img src = 'category3/CS10.png' width = '70%;'></div></div>","null","pos","CS","CS","3","category3/CS10.png","","","","",""
"","html-keyboard-response","31","666575","0.0-6.0-2.0-0.4","t6ev74okbf","one_one","1","indirect_first","0","le05en17","0","38","1","1","3","1","","0","1","0","null","","","<div class = 'row'><div class = 'column'><img src = 'category1/CS6.png' width = '70%;'></div><div class = 'column'><img src = 'usneg/6570.1.bmp' width = '100%;'></div></div>","null","neg","CS","CS","1","category1/CS6.png","","","","",""
"","html-keyboard-response","32","669090","0.0-6.0-2.0-0.5","t6ev74okbf","one_one","1","indirect_first","0","le05en17","0","38","1","1","3","1","","0","1","0","null","","","<div class = 'row'><div class = 'column'><img src = 'category2/CS6.png' width = '70%;'></div><div class = 'column'><img src = 'uspos/1440.bmp' width = '100%;'></div></div>","null","pos","CS","CS","2","category2/CS6.png","","","","",""
"","html-keyboard-response","33","671605","0.0-6.0-2.0-0.6","t6ev74okbf","one_one","1","indirect_first","0","le05en17","0","38","1","1","3","1","","0","1","0","null","","","<div class = 'row'><div class = 'column'><img src = 'usneg/9050.bmp' width = '100%;'></div><div class = 'column'><img src = 'category4/CS9.png' width = '70%;'></div></div>","null","neg","CS","CS","4","category4/CS9.png","","","","",""
"","html-keyboard-response","34","674120","0.0-6.0-2.0-0.7","t6ev74okbf","one_one","1","indirect_first","0","le05en17","0","38","1","1","3","1","","0","1","0","null","","","<div class = 'row'><div class = 'column'><img src = 'uspos/2057.bmp' width = '100%;'></div><div class = 'column'><img src = 'category3/CS10.png' width = '70%;'></div></div>","null","pos","CS","CS","3","category3/CS10.png","","","","",""
"","html-keyboard-response","35","676643","0.0-6.0-2.0-0.8","t6ev74okbf","one_one","1","indirect_first","0","le05en17","0","38","1","1","3","1","","0","1","0","null","","","<div class = 'row'><div class = 'column'><img src = 'uspos/1440.bmp' width = '100%;'></div><div class = 'column'><img src = 'category2/CS6.png' width = '70%;'></div></div>","null","pos","CS","CS","2","category2/CS6.png","","","","",""
"","html-keyboard-response","36","679162","0.0-6.0-2.0-0.9","t6ev74okbf","one_one","1","indirect_first","0","le05en17","0","38","1","1","3","1","","0","1","0","null","","","<div class = 'row'><div class = 'column'><img src = 'usneg/9050.bmp' width = '100%;'></div><div class = 'column'><img src = 'category4/CS9.png' width = '70%;'></div></div>","null","neg","CS","CS","4","category4/CS9.png","","","","",""
"","html-keyboard-response","37","681685","0.0-6.0-2.0-0.10","t6ev74okbf","one_one","1","indirect_first","0","le05en17","0","38","1","1","3","1","","0","1","0","null","","","<div class = 'row'><div class = 'column'><img src = 'uspos/2057.bmp' width = '100%;'></div><div class = 'column'><img src = 'category3/CS10.png' width = '70%;'></div></div>","null","pos","CS","CS","3","category3/CS10.png","","","","",""
"","html-keyboard-response","38","684193","0.0-6.0-2.0-0.11","t6ev74okbf","one_one","1","indirect_first","0","le05en17","0","38","1","1","3","1","","0","1","0","null","","","<div class = 'row'><div class = 'column'><img src = 'usneg/9050.bmp' width = '100%;'></div><div class = 'column'><img src = 'category4/CS9.png' width = '70%;'></div></div>","null","neg","CS","CS","4","category4/CS9.png","","","","",""
"","html-keyboard-response","39","686714","0.0-6.0-2.0-0.12","t6ev74okbf","one_one","1","indirect_first","0","le05en17","0","38","1","1","3","1","","0","1","0","null","","","<div class = 'row'><div class = 'column'><img src = 'category2/CS6.png' width = '70%;'></div><div class = 'column'><img src = 'uspos/1440.bmp' width = '100%;'></div></div>","null","pos","CS","CS","2","category2/CS6.png","","","","",""
"","html-keyboard-response","40","689222","0.0-6.0-2.0-0.13","t6ev74okbf","one_one","1","indirect_first","0","le05en17","0","38","1","1","3","1","","0","1","0","null","","","<div class = 'row'><div class = 'column'><img src = 'category3/CS10.png' width = '70%;'></div><div class = 'column'><img src = 'uspos/2057.bmp' width = '100%;'></div></div>","null","pos","CS","CS","3","category3/CS10.png","","","","",""
"","html-keyboard-response","41","691726","0.0-6.0-2.0-0.14","t6ev74okbf","one_one","1","indirect_first","0","le05en17","0","38","1","1","3","1","","0","1","0","null","","","<div class = 'row'><div class = 'column'><img src = 'uspos/1440.bmp' width = '100%;'></div><div class = 'column'><img src = 'category2/CS6.png' width = '70%;'></div></div>","null","pos","CS","CS","2","category2/CS6.png","","","","",""
"","html-keyboard-response","42","694230","0.0-6.0-2.0-0.15","t6ev74okbf","one_one","1","indirect_first","0","le05en17","0","38","1","1","3","1","","0","1","0","null","","","<div class = 'row'><div class = 'column'><img src = 'usneg/9050.bmp' width = '100%;'></div><div class = 'column'><img src = 'category4/CS9.png' width = '70%;'></div></div>","null","neg","CS","CS","4","category4/CS9.png","","","","",""
"","html-keyboard-response","43","696748","0.0-6.0-2.0-0.16","t6ev74okbf","one_one","1","indirect_first","0","le05en17","0","38","1","1","3","1","","0","1","0","null","","","<div class = 'row'><div class = 'column'><img src = 'category1/CS6.png' width = '70%;'></div><div class = 'column'><img src = 'usneg/6570.1.bmp' width = '100%;'></div></div>","null","neg","CS","CS","1","category1/CS6.png","","","","",""
"","html-keyboard-response","44","699251","0.0-6.0-2.0-0.17","t6ev74okbf","one_one","1","indirect_first","0","le05en17","0","38","1","1","3","1","","0","1","0","null","","","<div class = 'row'><div class = 'column'><img src = 'usneg/9050.bmp' width = '100%;'></div><div class = 'column'><img src = 'category4/CS9.png' width = '70%;'></div></div>","null","neg","CS","CS","4","category4/CS9.png","","","","",""
"","html-keyboard-response","45","701766","0.0-6.0-2.0-0.18","t6ev74okbf","one_one","1","indirect_first","0","le05en17","0","38","1","1","3","1","","0","1","0","null","","","<div class = 'row'><div class = 'column'><img src = 'uspos/1440.bmp' width = '100%;'></div><div class = 'column'><img src = 'category2/CS6.png' width = '70%;'></div></div>","null","pos","CS","CS","2","category2/CS6.png","","","","",""
"","html-keyboard-response","46","704283","0.0-6.0-2.0-0.19","t6ev74okbf","one_one","1","indirect_first","0","le05en17","0","38","1","1","3","1","","0","1","0","null","","","<div class = 'row'><div class = 'column'><img src = 'usneg/6570.1.bmp' width = '100%;'></div><div class = 'column'><img src = 'category1/CS6.png' width = '70%;'></div></div>","null","neg","CS","CS","1","category1/CS6.png","","","","",""
"","survey-html-form","47","767724","0.0-6.0-3.0","t6ev74okbf","one_one","1","indirect_first","0","le05en17","0","38","1","1","3","1","","0","1","0","62930.89499999769","","{}","","","","","","","","","","","",""
"","html-keyboard-response","48","771745","0.0-6.0-4.0-0.0","t6ev74okbf","one_one","1","indirect_first","0","le05en17","0","38","1","1","3","1","","0","1","0","null","","","<div class = 'row'><div class = 'column'><img src = 'category4/CS9.png' width = '70%;'></div><div class = 'column'><img src = 'usneg/9050.bmp' width = '100%;'></div></div>","null","neg","CS","CS","4","category4/CS9.png","","","","",""
"","html-keyboard-response","49","774265","0.0-6.0-4.0-0.1","t6ev74okbf","one_one","1","indirect_first","0","le05en17","0","38","1","1","3","1","","0","1","0","null","","","<div class = 'row'><div class = 'column'><img src = 'usneg/6570.1.bmp' width = '100%;'></div><div class = 'column'><img src = 'category1/CS6.png' width = '70%;'></div></div>","null","neg","CS","CS","1","category1/CS6.png","","","","",""
"","html-keyboard-response","50","776786","0.0-6.0-4.0-0.2","t6ev74okbf","one_one","1","indirect_first","0","le05en17","0","38","1","1","3","1","","0","1","0","null","","","<div class = 'row'><div class = 'column'><img src = 'category4/CS9.png' width = '70%;'></div><div class = 'column'><img src = 'usneg/9050.bmp' width = '100%;'></div></div>","null","neg","CS","CS","4","category4/CS9.png","","","","",""
"","html-keyboard-response","51","779304","0.0-6.0-4.0-0.3","t6ev74okbf","one_one","1","indirect_first","0","le05en17","0","38","1","1","3","1","","0","1","0","null","","","<div class = 'row'><div class = 'column'><img src = 'category2/CS6.png' width = '70%;'></div><div class = 'column'><img src = 'uspos/1440.bmp' width = '100%;'></div></div>","null","pos","CS","CS","2","category2/CS6.png","","","","",""
"","html-keyboard-response","52","781827","0.0-6.0-4.0-0.4","t6ev74okbf","one_one","1","indirect_first","0","le05en17","0","38","1","1","3","1","","0","1","0","null","","","<div class = 'row'><div class = 'column'><img src = 'category4/CS9.png' width = '70%;'></div><div class = 'column'><img src = 'usneg/9050.bmp' width = '100%;'></div></div>","null","neg","CS","CS","4","category4/CS9.png","","","","",""
"","html-keyboard-response","53","784332","0.0-6.0-4.0-0.5","t6ev74okbf","one_one","1","indirect_first","0","le05en17","0","38","1","1","3","1","","0","1","0","null","","","<div class = 'row'><div class = 'column'><img src = 'uspos/1440.bmp' width = '100%;'></div><div class = 'column'><img src = 'category2/CS6.png' width = '70%;'></div></div>","null","pos","CS","CS","2","category2/CS6.png","","","","",""
"","html-keyboard-response","54","786850","0.0-6.0-4.0-0.6","t6ev74okbf","one_one","1","indirect_first","0","le05en17","0","38","1","1","3","1","","0","1","0","null","","","<div class = 'row'><div class = 'column'><img src = 'usneg/9050.bmp' width = '100%;'></div><div class = 'column'><img src = 'category4/CS9.png' width = '70%;'></div></div>","null","neg","CS","CS","4","category4/CS9.png","","","","",""
"","html-keyboard-response","55","789367","0.0-6.0-4.0-0.7","t6ev74okbf","one_one","1","indirect_first","0","le05en17","0","38","1","1","3","1","","0","1","0","null","","","<div class = 'row'><div class = 'column'><img src = 'category3/CS10.png' width = '70%;'></div><div class = 'column'><img src = 'uspos/2057.bmp' width = '100%;'></div></div>","null","pos","CS","CS","3","category3/CS10.png","","","","",""
"","html-keyboard-response","56","791886","0.0-6.0-4.0-0.8","t6ev74okbf","one_one","1","indirect_first","0","le05en17","0","38","1","1","3","1","","0","1","0","null","","","<div class = 'row'><div class = 'column'><img src = 'usneg/6570.1.bmp' width = '100%;'></div><div class = 'column'><img src = 'category1/CS6.png' width = '70%;'></div></div>","null","neg","CS","CS","1","category1/CS6.png","","","","",""
"","html-keyboard-response","57","794405","0.0-6.0-4.0-0.9","t6ev74okbf","one_one","1","indirect_first","0","le05en17","0","38","1","1","3","1","","0","1","0","null","","","<div class = 'row'><div class = 'column'><img src = 'category3/CS10.png' width = '70%;'></div><div class = 'column'><img src = 'uspos/2057.bmp' width = '100%;'></div></div>","null","pos","CS","CS","3","category3/CS10.png","","","","",""
"","html-keyboard-response","58","796923","0.0-6.0-4.0-0.10","t6ev74okbf","one_one","1","indirect_first","0","le05en17","0","38","1","1","3","1","","0","1","0","null","","","<div class = 'row'><div class = 'column'><img src = 'category1/CS6.png' width = '70%;'></div><div class = 'column'><img src = 'usneg/6570.1.bmp' width = '100%;'></div></div>","null","neg","CS","CS","1","category1/CS6.png","","","","",""
"","html-keyboard-response","59","799430","0.0-6.0-4.0-0.11","t6ev74okbf","one_one","1","indirect_first","0","le05en17","0","38","1","1","3","1","","0","1","0","null","","","<div class = 'row'><div class = 'column'><img src = 'usneg/9050.bmp' width = '100%;'></div><div class = 'column'><img src = 'category4/CS9.png' width = '70%;'></div></div>","null","neg","CS","CS","4","category4/CS9.png","","","","",""
"","html-keyboard-response","60","801951","0.0-6.0-4.0-0.12","t6ev74okbf","one_one","1","indirect_first","0","le05en17","0","38","1","1","3","1","","0","1","0","null","","","<div class = 'row'><div class = 'column'><img src = 'uspos/1440.bmp' width = '100%;'></div><div class = 'column'><img src = 'category2/CS6.png' width = '70%;'></div></div>","null","pos","CS","CS","2","category2/CS6.png","","","","",""
"","html-keyboard-response","61","804455","0.0-6.0-4.0-0.13","t6ev74okbf","one_one","1","indirect_first","0","le05en17","0","38","1","1","3","1","","0","1","0","null","","","<div class = 'row'><div class = 'column'><img src = 'category3/CS10.png' width = '70%;'></div><div class = 'column'><img src = 'uspos/2057.bmp' width = '100%;'></div></div>","null","pos","CS","CS","3","category3/CS10.png","","","","",""
"","html-keyboard-response","62","806974","0.0-6.0-4.0-0.14","t6ev74okbf","one_one","1","indirect_first","0","le05en17","0","38","1","1","3","1","","0","1","0","null","","","<div class = 'row'><div class = 'column'><img src = 'category1/CS6.png' width = '70%;'></div><div class = 'column'><img src = 'usneg/6570.1.bmp' width = '100%;'></div></div>","null","neg","CS","CS","1","category1/CS6.png","","","","",""
"","html-keyboard-response","63","809478","0.0-6.0-4.0-0.15","t6ev74okbf","one_one","1","indirect_first","0","le05en17","0","38","1","1","3","1","","0","1","0","null","","","<div class = 'row'><div class = 'column'><img src = 'category3/CS10.png' width = '70%;'></div><div class = 'column'><img src = 'uspos/2057.bmp' width = '100%;'></div></div>","null","pos","CS","CS","3","category3/CS10.png","","","","",""
"","html-keyboard-response","64","811996","0.0-6.0-4.0-0.16","t6ev74okbf","one_one","1","indirect_first","0","le05en17","0","38","1","1","3","1","","0","1","0","null","","","<div class = 'row'><div class = 'column'><img src = 'category2/CS6.png' width = '70%;'></div><div class = 'column'><img src = 'uspos/1440.bmp' width = '100%;'></div></div>","null","pos","CS","CS","2","category2/CS6.png","","","","",""
"","html-keyboard-response","65","814519","0.0-6.0-4.0-0.17","t6ev74okbf","one_one","1","indirect_first","0","le05en17","0","38","1","1","3","1","","0","1","0","null","","","<div class = 'row'><div class = 'column'><img src = 'category1/CS6.png' width = '70%;'></div><div class = 'column'><img src = 'usneg/6570.1.bmp' width = '100%;'></div></div>","null","neg","CS","CS","1","category1/CS6.png","","","","",""
"","html-keyboard-response","66","817040","0.0-6.0-4.0-0.18","t6ev74okbf","one_one","1","indirect_first","0","le05en17","0","38","1","1","3","1","","0","1","0","null","","","<div class = 'row'><div class = 'column'><img src = 'uspos/2057.bmp' width = '100%;'></div><div class = 'column'><img src = 'category3/CS10.png' width = '70%;'></div></div>","null","pos","CS","CS","3","category3/CS10.png","","","","",""
"","html-keyboard-response","67","819545","0.0-6.0-4.0-0.19","t6ev74okbf","one_one","1","indirect_first","0","le05en17","0","38","1","1","3","1","","0","1","0","null","","","<div class = 'row'><div class = 'column'><img src = 'uspos/1440.bmp' width = '100%;'></div><div class = 'column'><img src = 'category2/CS6.png' width = '70%;'></div></div>","null","pos","CS","CS","2","category2/CS6.png","","","","",""
"","survey-html-form","68","847212","0.0-6.0-5.0","t6ev74okbf","one_one","1","indirect_first","0","le05en17","0","38","1","1","3","1","","0","1","0","27159.02499994263","","{}","","","","","","","","","","","",""
"","html-keyboard-response","69","851236","0.0-6.0-6.0-0.0","t6ev74okbf","one_one","1","indirect_first","0","le05en17","0","38","1","1","3","1","","0","1","0","null","","","<div class = 'row'><div class = 'column'><img src = 'category4/CS9.png' width = '70%;'></div><div class = 'column'><img src = 'usneg/9050.bmp' width = '100%;'></div></div>","null","neg","CS","CS","4","category4/CS9.png","","","","",""
"","html-keyboard-response","70","853744","0.0-6.0-6.0-0.1","t6ev74okbf","one_one","1","indirect_first","0","le05en17","0","38","1","1","3","1","","0","1","0","null","","","<div class = 'row'><div class = 'column'><img src = 'uspos/1440.bmp' width = '100%;'></div><div class = 'column'><img src = 'category2/CS6.png' width = '70%;'></div></div>","null","pos","CS","CS","2","category2/CS6.png","","","","",""
"","html-keyboard-response","71","856259","0.0-6.0-6.0-0.2","t6ev74okbf","one_one","1","indirect_first","0","le05en17","0","38","1","1","3","1","","0","1","0","null","","","<div class = 'row'><div class = 'column'><img src = 'category3/CS10.png' width = '70%;'></div><div class = 'column'><img src = 'uspos/2057.bmp' width = '100%;'></div></div>","null","pos","CS","CS","3","category3/CS10.png","","","","",""
"","html-keyboard-response","72","858780","0.0-6.0-6.0-0.3","t6ev74okbf","one_one","1","indirect_first","0","le05en17","0","38","1","1","3","1","","0","1","0","null","","","<div class = 'row'><div class = 'column'><img src = 'usneg/6570.1.bmp' width = '100%;'></div><div class = 'column'><img src = 'category1/CS6.png' width = '70%;'></div></div>","null","neg","CS","CS","1","category1/CS6.png","","","","",""
"","html-keyboard-response","73","861301","0.0-6.0-6.0-0.4","t6ev74okbf","one_one","1","indirect_first","0","le05en17","0","38","1","1","3","1","","0","1","0","null","","","<div class = 'row'><div class = 'column'><img src = 'category4/CS9.png' width = '70%;'></div><div class = 'column'><img src = 'usneg/9050.bmp' width = '100%;'></div></div>","null","neg","CS","CS","4","category4/CS9.png","","","","",""
"","html-keyboard-response","74","863821","0.0-6.0-6.0-0.5","t6ev74okbf","one_one","1","indirect_first","0","le05en17","0","38","1","1","3","1","","0","1","0","null","","","<div class = 'row'><div class = 'column'><img src = 'category1/CS6.png' width = '70%;'></div><div class = 'column'><img src = 'usneg/6570.1.bmp' width = '100%;'></div></div>","null","neg","CS","CS","1","category1/CS6.png","","","","",""
"","html-keyboard-response","75","866339","0.0-6.0-6.0-0.6","t6ev74okbf","one_one","1","indirect_first","0","le05en17","0","38","1","1","3","1","","0","1","0","null","","","<div class = 'row'><div class = 'column'><img src = 'category2/CS6.png' width = '70%;'></div><div class = 'column'><img src = 'uspos/1440.bmp' width = '100%;'></div></div>","null","pos","CS","CS","2","category2/CS6.png","","","","",""
"","html-keyboard-response","76","868859","0.0-6.0-6.0-0.7","t6ev74okbf","one_one","1","indirect_first","0","le05en17","0","38","1","1","3","1","","0","1","0","null","","","<div class = 'row'><div class = 'column'><img src = 'category3/CS10.png' width = '70%;'></div><div class = 'column'><img src = 'uspos/2057.bmp' width = '100%;'></div></div>","null","pos","CS","CS","3","category3/CS10.png","","","","",""
"","html-keyboard-response","77","871381","0.0-6.0-6.0-0.8","t6ev74okbf","one_one","1","indirect_first","0","le05en17","0","38","1","1","3","1","","0","1","0","null","","","<div class = 'row'><div class = 'column'><img src = 'usneg/9050.bmp' width = '100%;'></div><div class = 'column'><img src = 'category4/CS9.png' width = '70%;'></div></div>","null","neg","CS","CS","4","category4/CS9.png","","","","",""
"","html-keyboard-response","78","873904","0.0-6.0-6.0-0.9","t6ev74okbf","one_one","1","indirect_first","0","le05en17","0","38","1","1","3","1","","0","1","0","null","","","<div class = 'row'><div class = 'column'><img src = 'uspos/1440.bmp' width = '100%;'></div><div class = 'column'><img src = 'category2/CS6.png' width = '70%;'></div></div>","null","pos","CS","CS","2","category2/CS6.png","","","","",""
"","html-keyboard-response","79","876425","0.0-6.0-6.0-0.10","t6ev74okbf","one_one","1","indirect_first","0","le05en17","0","38","1","1","3","1","","0","1","0","null","","","<div class = 'row'><div class = 'column'><img src = 'category4/CS9.png' width = '70%;'></div><div class = 'column'><img src = 'usneg/9050.bmp' width = '100%;'></div></div>","null","neg","CS","CS","4","category4/CS9.png","","","","",""
"","html-keyboard-response","80","878933","0.0-6.0-6.0-0.11","t6ev74okbf","one_one","1","indirect_first","0","le05en17","0","38","1","1","3","1","","0","1","0","null","","","<div class = 'row'><div class = 'column'><img src = 'uspos/2057.bmp' width = '100%;'></div><div class = 'column'><img src = 'category3/CS10.png' width = '70%;'></div></div>","null","pos","CS","CS","3","category3/CS10.png","","","","",""
"","html-keyboard-response","81","881450","0.0-6.0-6.0-0.12","t6ev74okbf","one_one","1","indirect_first","0","le05en17","0","38","1","1","3","1","","0","1","0","null","","","<div class = 'row'><div class = 'column'><img src = 'category2/CS6.png' width = '70%;'></div><div class = 'column'><img src = 'uspos/1440.bmp' width = '100%;'></div></div>","null","pos","CS","CS","2","category2/CS6.png","","","","",""
"","html-keyboard-response","82","883955","0.0-6.0-6.0-0.13","t6ev74okbf","one_one","1","indirect_first","0","le05en17","0","38","1","1","3","1","","0","1","0","null","","","<div class = 'row'><div class = 'column'><img src = 'usneg/6570.1.bmp' width = '100%;'></div><div class = 'column'><img src = 'category1/CS6.png' width = '70%;'></div></div>","null","neg","CS","CS","1","category1/CS6.png","","","","",""
"","html-keyboard-response","83","886462","0.0-6.0-6.0-0.14","t6ev74okbf","one_one","1","indirect_first","0","le05en17","0","38","1","1","3","1","","0","1","0","null","","","<div class = 'row'><div class = 'column'><img src = 'uspos/1440.bmp' width = '100%;'></div><div class = 'column'><img src = 'category2/CS6.png' width = '70%;'></div></div>","null","pos","CS","CS","2","category2/CS6.png","","","","",""
"","html-keyboard-response","84","888982","0.0-6.0-6.0-0.15","t6ev74okbf","one_one","1","indirect_first","0","le05en17","0","38","1","1","3","1","","0","1","0","null","","","<div class = 'row'><div class = 'column'><img src = 'category3/CS10.png' width = '70%;'></div><div class = 'column'><img src = 'uspos/2057.bmp' width = '100%;'></div></div>","null","pos","CS","CS","3","category3/CS10.png","","","","",""
"","html-keyboard-response","85","891502","0.0-6.0-6.0-0.16","t6ev74okbf","one_one","1","indirect_first","0","le05en17","0","38","1","1","3","1","","0","1","0","null","","","<div class = 'row'><div class = 'column'><img src = 'usneg/6570.1.bmp' width = '100%;'></div><div class = 'column'><img src = 'category1/CS6.png' width = '70%;'></div></div>","null","neg","CS","CS","1","category1/CS6.png","","","","",""
"","html-keyboard-response","86","894007","0.0-6.0-6.0-0.17","t6ev74okbf","one_one","1","indirect_first","0","le05en17","0","38","1","1","3","1","","0","1","0","null","","","<div class = 'row'><div class = 'column'><img src = 'uspos/2057.bmp' width = '100%;'></div><div class = 'column'><img src = 'category3/CS10.png' width = '70%;'></div></div>","null","pos","CS","CS","3","category3/CS10.png","","","","",""
"","html-keyboard-response","87","896526","0.0-6.0-6.0-0.18","t6ev74okbf","one_one","1","indirect_first","0","le05en17","0","38","1","1","3","1","","0","1","0","null","","","<div class = 'row'><div class = 'column'><img src = 'usneg/6570.1.bmp' width = '100%;'></div><div class = 'column'><img src = 'category1/CS6.png' width = '70%;'></div></div>","null","neg","CS","CS","1","category1/CS6.png","","","","",""
"","html-keyboard-response","88","899042","0.0-6.0-6.0-0.19","t6ev74okbf","one_one","1","indirect_first","0","le05en17","0","38","1","1","3","1","","0","1","0","null","","","<div class = 'row'><div class = 'column'><img src = 'category4/CS9.png' width = '70%;'></div><div class = 'column'><img src = 'usneg/9050.bmp' width = '100%;'></div></div>","null","neg","CS","CS","4","category4/CS9.png","","","","",""
"","html-keyboard-response","89","1106127","0.0-7.0","t6ev74okbf","one_one","1","indirect_first","0","le05en17","0","38","1","1","3","1","","0","1","0","206577.08499999717","","","<p>Sie sehen nun die chinesischen Zeichen nur ganz kurz. Danach sehen Sie die jeweilige Aussprache der Zeichen als Silbe auf dem Bildschrim. Ihre Aufgabe ist es, für jede Silbe anzugeben, ob diese etwas angenehmes, oder unangenehmes bedeuten könnte. Verlassen Sie sich hier vor allem auf Ihre Intuition.<br><br>Die Zeichen werden nur zur Orientierung dargestellt, beachten Sie sie deshalb nicht. Konzentrieren Sie sich vor allem auf die Silben. <br>Reagieren Sie mit folgenden zwei Tasten: <br><br><b>'D' </b> wenn die Silbe etwas <b>unangenehmes</b> bedeuten könnte. <br><b>'K'</b> wenn die Silbe etwas <b>angenehmes</b> bedeuten könnte. <br><br>Bitte legen Sie nun den Zeigefinger der linken Hand auf die Taste 'D' und den Zeigefinger der rechten Hand auf die Taste 'K'. <br>Reagieren Sie auf jede Silbe so schnell wie möglich. Uns interessiert Ihre spontane Reaktion. <br> <br> <br>Drücken Sie 'D' oder 'K', um die nächste Aufgabe zu starten. </p>","75","","","","","","","","","",""
"","html-keyboard-response","90","1109130","0.0-8.0-0.0","t6ev74okbf","one_one","1","indirect_first","0","le05en17","0","38","1","1","3","1","","0","1","0","null","","","<div style=""font-size:60px;"">+</div>","null","","","","","","","","","",""
"","html-keyboard-response","91","1109222","0.0-8.0-1.0","t6ev74okbf","one_one","1","indirect_first","0","le05en17","0","38","1","1","3","1","","0","1","0","null","","","<img src = 'category2/CS5.png' width = '100%;'>","null","","","","","","","","","",""
"","html-keyboard-response","92","1109476","0.0-8.0-2.0","t6ev74okbf","one_one","1","indirect_first","0","le05en17","0","38","1","1","3","1","","0","1","0","null","","","<img src = 'targets/45.png' width = '100%;'>","null","","","","","","","","","",""
"","html-keyboard-response","93","1114330","0.0-8.0-3.0","t6ev74okbf","one_one","1","indirect_first","0","le05en17","0","38","1","1","3","1","","0","1","0","4852.690000087023","","","<img src = 'targets/mask.png' width = '100%;'>","68","pos","GS","GSold","2","category2/CS5.png","targets/45.png","0","indirect","0",""
"","html-keyboard-response","94","1115840","0.0-8.0-0.1","t6ev74okbf","one_one","1","indirect_first","0","le05en17","0","38","1","1","3","1","","0","1","0","null","","","<div style=""font-size:60px;"">+</div>","null","","","","","","","","","",""
"","html-keyboard-response","95","1115931","0.0-8.0-1.1","t6ev74okbf","one_one","1","indirect_first","0","le05en17","0","38","1","1","3","1","","0","1","0","null","","","<img src = 'category1/CS2.png' width = '100%;'>","null","","","","","","","","","",""
"","html-keyboard-response","96","1116188","0.0-8.0-2.1","t6ev74okbf","one_one","1","indirect_first","0","le05en17","0","38","1","1","3","1","","0","1","0","null","","","<img src = 'targets/40.png' width = '100%;'>","null","","","","","","","","","",""
"","html-keyboard-response","97","1118691","0.0-8.0-3.1","t6ev74okbf","one_one","1","indirect_first","0","le05en17","0","38","1","1","3","1","","0","1","0","2502.570000011474","","","<img src = 'targets/mask.png' width = '100%;'>","68","neg","GS","GSold","1","category1/CS2.png","targets/40.png","0","indirect","1",""
"","html-keyboard-response","98","1120211","0.0-8.0-0.2","t6ev74okbf","one_one","1","indirect_first","0","le05en17","0","38","1","1","3","1","","0","1","0","null","","","<div style=""font-size:60px;"">+</div>","null","","","","","","","","","",""
"","html-keyboard-response","99","1120308","0.0-8.0-1.2","t6ev74okbf","one_one","1","indirect_first","0","le05en17","0","38","1","1","3","1","","0","1","0","null","","","<img src = 'category1/CS3.png' width = '100%;'>","null","","","","","","","","","",""
"","html-keyboard-response","100","1120561","0.0-8.0-2.2","t6ev74okbf","one_one","1","indirect_first","0","le05en17","0","38","1","1","3","1","","0","1","0","null","","","<img src = 'targets/8.png' width = '100%;'>","null","","","","","","","","","",""
"","html-keyboard-response","101","1121066","0.0-8.0-3.2","t6ev74okbf","one_one","1","indirect_first","0","le05en17","0","38","1","1","3","1","","0","1","0","504.56999987363815","","","<img src = 'targets/mask.png' width = '100%;'>","75","neg","GS","GSold","1","category1/CS3.png","targets/8.png","1","indirect","2",""
"","html-keyboard-response","102","1122588","0.0-8.0-0.3","t6ev74okbf","one_one","1","indirect_first","0","le05en17","0","38","1","1","3","1","","0","1","0","null","","","<div style=""font-size:60px;"">+</div>","null","","","","","","","","","",""
"","html-keyboard-response","103","1122680","0.0-8.0-1.3","t6ev74okbf","one_one","1","indirect_first","0","le05en17","0","38","1","1","3","1","","0","1","0","null","","","<img src = 'category1/CS1.png' width = '100%;'>","null","","","","","","","","","",""
"","html-keyboard-response","104","1122937","0.0-8.0-2.3","t6ev74okbf","one_one","1","indirect_first","0","le05en17","0","38","1","1","3","1","","0","1","0","null","","","<img src = 'targets/28.png' width = '100%;'>","null","","","","","","","","","",""
"","html-keyboard-response","105","1124484","0.0-8.0-3.3","t6ev74okbf","one_one","1","indirect_first","0","le05en17","0","38","1","1","3","1","","0","1","0","1545.9349998272955","","","<img src = 'targets/mask.png' width = '100%;'>","75","neg","GS","GSold","1","category1/CS1.png","targets/28.png","1","indirect","3",""
"","html-keyboard-response","106","1126012","0.0-8.0-0.4","t6ev74okbf","one_one","1","indirect_first","0","le05en17","0","38","1","1","3","1","","0","1","0","null","","","<div style=""font-size:60px;"">+</div>","null","","","","","","","","","",""
"","html-keyboard-response","107","1126105","0.0-8.0-1.4","t6ev74okbf","one_one","1","indirect_first","0","le05en17","0","38","1","1","3","1","","0","1","0","null","","","<img src = 'category4/CS3.png' width = '100%;'>","null","","","","","","","","","",""
"","html-keyboard-response","108","1126362","0.0-8.0-2.4","t6ev74okbf","one_one","1","indirect_first","0","le05en17","0","38","1","1","3","1","","0","1","0","null","","","<img src = 'targets/21.png' width = '100%;'>","null","","","","","","","","","",""
"","html-keyboard-response","109","1127107","0.0-8.0-3.4","t6ev74okbf","one_one","1","indirect_first","0","le05en17","0","38","1","1","3","1","","0","1","0","744.3150000181049","","","<img src = 'targets/mask.png' width = '100%;'>","75","neg","GS","GSold","4","category4/CS3.png","targets/21.png","1","indirect","4",""
"","html-keyboard-response","110","1128627","0.0-8.0-0.5","t6ev74okbf","one_one","1","indirect_first","0","le05en17","0","38","1","1","3","1","","0","1","0","null","","","<div style=""font-size:60px;"">+</div>","null","","","","","","","","","",""
"","html-keyboard-response","111","1128719","0.0-8.0-1.5","t6ev74okbf","one_one","1","indirect_first","0","le05en17","0","38","1","1","3","1","","0","1","0","null","","","<img src = 'category2/CS3.png' width = '100%;'>","null","","","","","","","","","",""
"","html-keyboard-response","112","1128975","0.0-8.0-2.5","t6ev74okbf","one_one","1","indirect_first","0","le05en17","0","38","1","1","3","1","","0","1","0","null","","","<img src = 'targets/2.png' width = '100%;'>","null","","","","","","","","","",""
"","html-keyboard-response","113","1129664","0.0-8.0-3.5","t6ev74okbf","one_one","1","indirect_first","0","le05en17","0","38","1","1","3","1","","0","1","0","688.1399999838322","","","<img src = 'targets/mask.png' width = '100%;'>","68","pos","GS","GSold","2","category2/CS3.png","targets/2.png","0","indirect","5",""
"","html-keyboard-response","114","1131179","0.0-8.0-0.6","t6ev74okbf","one_one","1","indirect_first","0","le05en17","0","38","1","1","3","1","","0","1","0","null","","","<div style=""font-size:60px;"">+</div>","null","","","","","","","","","",""
"","html-keyboard-response","115","1131270","0.0-8.0-1.6","t6ev74okbf","one_one","1","indirect_first","0","le05en17","0","38","1","1","3","1","","0","1","0","null","","","<img src = 'category3/CS8.png' width = '100%;'>","null","","","","","","","","","",""
"","html-keyboard-response","116","1131521","0.0-8.0-2.6","t6ev74okbf","one_one","1","indirect_first","0","le05en17","0","38","1","1","3","1","","0","1","0","null","","","<img src = 'targets/9.png' width = '100%;'>","null","","","","","","","","","",""
"","html-keyboard-response","117","1132407","0.0-8.0-3.6","t6ev74okbf","one_one","1","indirect_first","0","le05en17","0","38","1","1","3","1","","0","1","0","885.0950000341982","","","<img src = 'targets/mask.png' width = '100%;'>","75","pos","GS","GSold","3","category3/CS8.png","targets/9.png","1","indirect","6",""
"","html-keyboard-response","118","1133921","0.0-8.0-0.7","t6ev74okbf","one_one","1","indirect_first","0","le05en17","0","38","1","1","3","1","","0","1","0","null","","","<div style=""font-size:60px;"">+</div>","null","","","","","","","","","",""
"","html-keyboard-response","119","1134013","0.0-8.0-1.7","t6ev74okbf","one_one","1","indirect_first","0","le05en17","0","38","1","1","3","1","","0","1","0","null","","","<img src = 'category2/CS6.png' width = '100%;'>","null","","","","","","","","","",""
"","html-keyboard-response","120","1134266","0.0-8.0-2.7","t6ev74okbf","one_one","1","indirect_first","0","le05en17","0","38","1","1","3","1","","0","1","0","null","","","<img src = 'targets/32.png' width = '100%;'>","null","","","","","","","","","",""
"","html-keyboard-response","121","1135021","0.0-8.0-3.7","t6ev74okbf","one_one","1","indirect_first","0","le05en17","0","38","1","1","3","1","","0","1","0","753.654999891296","","","<img src = 'targets/mask.png' width = '100%;'>","75","pos","CS","CS","2","category2/CS6.png","targets/32.png","1","indirect","7",""
"","html-keyboard-response","122","1136546","0.0-8.0-0.8","t6ev74okbf","one_one","1","indirect_first","0","le05en17","0","38","1","1","3","1","","0","1","0","null","","","<div style=""font-size:60px;"">+</div>","null","","","","","","","","","",""
"","html-keyboard-response","123","1136641","0.0-8.0-1.8","t6ev74okbf","one_one","1","indirect_first","0","le05en17","0","38","1","1","3","1","","0","1","0","null","","","<img src = 'category3/CS7.png' width = '100%;'>","null","","","","","","","","","",""
"","html-keyboard-response","124","1136894","0.0-8.0-2.8","t6ev74okbf","one_one","1","indirect_first","0","le05en17","0","38","1","1","3","1","","0","1","0","null","","","<img src = 'targets/29.png' width = '100%;'>","null","","","","","","","","","",""
"","html-keyboard-response","125","1137771","0.0-8.0-3.8","t6ev74okbf","one_one","1","indirect_first","0","le05en17","0","38","1","1","3","1","","0","1","0","876.0850001126528","","","<img src = 'targets/mask.png' width = '100%;'>","75","pos","GS","GSold","3","category3/CS7.png","targets/29.png","1","indirect","8",""
"","html-keyboard-response","126","1139298","0.0-8.0-0.9","t6ev74okbf","one_one","1","indirect_first","0","le05en17","0","38","1","1","3","1","","0","1","0","null","","","<div style=""font-size:60px;"">+</div>","null","","","","","","","","","",""
"","html-keyboard-response","127","1139393","0.0-8.0-1.9","t6ev74okbf","one_one","1","indirect_first","0","le05en17","0","38","1","1","3","1","","0","1","0","null","","","<img src = 'category4/CS6.png' width = '100%;'>","null","","","","","","","","","",""
"","html-keyboard-response","128","1139660","0.0-8.0-2.9","t6ev74okbf","one_one","1","indirect_first","0","le05en17","0","38","1","1","3","1","","0","1","0","null","","","<img src = 'targets/27.png' width = '100%;'>","null","","","","","","","","","",""
"","html-keyboard-response","129","1140804","0.0-8.0-3.9","t6ev74okbf","one_one","1","indirect_first","0","le05en17","0","38","1","1","3","1","","0","1","0","1143.6649998649955","","","<img src = 'targets/mask.png' width = '100%;'>","75","neg","GS","GSold","4","category4/CS6.png","targets/27.png","1","indirect","9",""
"","html-keyboard-response","130","1142324","0.0-8.0-0.10","t6ev74okbf","one_one","1","indirect_first","0","le05en17","0","38","1","1","3","1","","0","1","0","null","","","<div style=""font-size:60px;"">+</div>","null","","","","","","","","","",""
"","html-keyboard-response","131","1142418","0.0-8.0-1.10","t6ev74okbf","one_one","1","indirect_first","0","le05en17","0","38","1","1","3","1","","0","1","0","null","","","<img src = 'category1/CS6.png' width = '100%;'>","null","","","","","","","","","",""
"","html-keyboard-response","132","1142672","0.0-8.0-2.10","t6ev74okbf","one_one","1","indirect_first","0","le05en17","0","38","1","1","3","1","","0","1","0","null","","","<img src = 'targets/18.png' width = '100%;'>","null","","","","","","","","","",""
"","html-keyboard-response","133","1143281","0.0-8.0-3.10","t6ev74okbf","one_one","1","indirect_first","0","le05en17","0","38","1","1","3","1","","0","1","0","608.3649999927729","","","<img src = 'targets/mask.png' width = '100%;'>","68","neg","CS","CS","1","category1/CS6.png","targets/18.png","0","indirect","10",""
"","html-keyboard-response","134","1144784","0.0-8.0-0.11","t6ev74okbf","one_one","1","indirect_first","0","le05en17","0","38","1","1","3","1","","0","1","0","null","","","<div style=""font-size:60px;"">+</div>","null","","","","","","","","","",""
"","html-keyboard-response","135","1144876","0.0-8.0-1.11","t6ev74okbf","one_one","1","indirect_first","0","le05en17","0","38","1","1","3","1","","0","1","0","null","","","<img src = 'category3/CS2.png' width = '100%;'>","null","","","","","","","","","",""
"","html-keyboard-response","136","1145131","0.0-8.0-2.11","t6ev74okbf","one_one","1","indirect_first","0","le05en17","0","38","1","1","3","1","","0","1","0","null","","","<img src = 'targets/30.png' width = '100%;'>","null","","","","","","","","","",""
"","html-keyboard-response","137","1145670","0.0-8.0-3.11","t6ev74okbf","one_one","1","indirect_first","0","le05en17","0","38","1","1","3","1","","0","1","0","538.5199999436736","","","<img src = 'targets/mask.png' width = '100%;'>","68","pos","GS","GSold","3","category3/CS2.png","targets/30.png","0","indirect","11",""
"","html-keyboard-response","138","1147194","0.0-8.0-0.12","t6ev74okbf","one_one","1","indirect_first","0","le05en17","0","38","1","1","3","1","","0","1","0","null","","","<div style=""font-size:60px;"">+</div>","null","","","","","","","","","",""
"","html-keyboard-response","139","1147285","0.0-8.0-1.12","t6ev74okbf","one_one","1","indirect_first","0","le05en17","0","38","1","1","3","1","","0","1","0","null","","","<img src = 'category3/CS10.png' width = '100%;'>","null","","","","","","","","","",""
"","html-keyboard-response","140","1147544","0.0-8.0-2.12","t6ev74okbf","one_one","1","indirect_first","0","le05en17","0","38","1","1","3","1","","0","1","0","null","","","<img src = 'targets/43.png' width = '100%;'>","null","","","","","","","","","",""
"","html-keyboard-response","141","1149541","0.0-8.0-3.12","t6ev74okbf","one_one","1","indirect_first","0","le05en17","0","38","1","1","3","1","","0","1","0","1996.2200000882149","","","<img src = 'targets/mask.png' width = '100%;'>","75","pos","CS","CS","3","category3/CS10.png","targets/43.png","1","indirect","12",""
"","html-keyboard-response","142","1151062","0.0-8.0-0.13","t6ev74okbf","one_one","1","indirect_first","0","le05en17","0","38","1","1","3","1","","0","1","0","null","","","<div style=""font-size:60px;"">+</div>","null","","","","","","","","","",""
"","html-keyboard-response","143","1151154","0.0-8.0-1.13","t6ev74okbf","one_one","1","indirect_first","0","le05en17","0","38","1","1","3","1","","0","1","0","null","","","<img src = 'category4/CS5.png' width = '100%;'>","null","","","","","","","","","",""
"","html-keyboard-response","144","1151406","0.0-8.0-2.13","t6ev74okbf","one_one","1","indirect_first","0","le05en17","0","38","1","1","3","1","","0","1","0","null","","","<img src = 'targets/26.png' width = '100%;'>","null","","","","","","","","","",""
"","html-keyboard-response","145","1151875","0.0-8.0-3.13","t6ev74okbf","one_one","1","indirect_first","0","le05en17","0","38","1","1","3","1","","0","1","0","467.8050000220537","","","<img src = 'targets/mask.png' width = '100%;'>","68","neg","GS","GSold","4","category4/CS5.png","targets/26.png","0","indirect","13",""
"","html-keyboard-response","146","1153396","0.0-8.0-0.14","t6ev74okbf","one_one","1","indirect_first","0","le05en17","0","38","1","1","3","1","","0","1","0","null","","","<div style=""font-size:60px;"">+</div>","null","","","","","","","","","",""
"","html-keyboard-response","147","1153488","0.0-8.0-1.14","t6ev74okbf","one_one","1","indirect_first","0","le05en17","0","38","1","1","3","1","","0","1","0","null","","","<img src = 'category4/CS9.png' width = '100%;'>","null","","","","","","","","","",""
"","html-keyboard-response","148","1153745","0.0-8.0-2.14","t6ev74okbf","one_one","1","indirect_first","0","le05en17","0","38","1","1","3","1","","0","1","0","null","","","<img src = 'targets/3.png' width = '100%;'>","null","","","","","","","","","",""
"","html-keyboard-response","149","1154126","0.0-8.0-3.14","t6ev74okbf","one_one","1","indirect_first","0","le05en17","0","38","1","1","3","1","","0","1","0","380.4150000214577","","","<img src = 'targets/mask.png' width = '100%;'>","68","neg","CS","CS","4","category4/CS9.png","targets/3.png","0","indirect","14",""
"","html-keyboard-response","150","1155643","0.0-8.0-0.15","t6ev74okbf","one_one","1","indirect_first","0","le05en17","0","38","1","1","3","1","","0","1","0","null","","","<div style=""font-size:60px;"">+</div>","null","","","","","","","","","",""
"","html-keyboard-response","151","1155735","0.0-8.0-1.15","t6ev74okbf","one_one","1","indirect_first","0","le05en17","0","38","1","1","3","1","","0","1","0","null","","","<img src = 'category2/CS8.png' width = '100%;'>","null","","","","","","","","","",""
"","html-keyboard-response","152","1155986","0.0-8.0-2.15","t6ev74okbf","one_one","1","indirect_first","0","le05en17","0","38","1","1","3","1","","0","1","0","null","","","<img src = 'targets/16.png' width = '100%;'>","null","","","","","","","","","",""
"","html-keyboard-response","153","1156542","0.0-8.0-3.15","t6ev74okbf","one_one","1","indirect_first","0","le05en17","0","38","1","1","3","1","","0","1","0","555.7949999347329","","","<img src = 'targets/mask.png' width = '100%;'>","75","pos","GS","GSold","2","category2/CS8.png","targets/16.png","1","indirect","15",""
"","survey-html-form","154","1185251","0.0-9.0","t6ev74okbf","one_one","1","indirect_first","0","le05en17","0","38","1","1","3","1","","0","1","0","28196.174999931827","","{}","","","","","","","","","","","",""
"","html-keyboard-response","155","1188277","0.0-10.0-0.0","t6ev74okbf","one_one","1","indirect_first","0","le05en17","0","38","1","1","3","1","","0","1","0","null","","","<div style=""font-size:60px;"">+</div>","null","","","","","","","","","",""
"","html-keyboard-response","156","1188371","0.0-10.0-1.0","t6ev74okbf","one_one","1","indirect_first","0","le05en17","0","38","1","1","3","1","","0","1","0","null","","","<img src = 'category2/GS2.png' width = '100%;'>","null","","","","","","","","","",""
"","html-keyboard-response","157","1188626","0.0-10.0-2.0","t6ev74okbf","one_one","1","indirect_first","0","le05en17","0","38","1","1","3","1","","0","1","0","null","","","<img src = 'targets/12.png' width = '100%;'>","null","","","","","","","","","",""
"","html-keyboard-response","158","1189918","0.0-10.0-3.0","t6ev74okbf","one_one","1","indirect_first","0","le05en17","0","38","1","1","3","1","","0","1","0","1290.1649998966604","","","<img src = 'targets/mask.png' width = '100%;'>","68","pos","GS","GSnew","2","category2/GS2.png","targets/12.png","0","indirect","16",""
"","html-keyboard-response","159","1191445","0.0-10.0-0.1","t6ev74okbf","one_one","1","indirect_first","0","le05en17","0","38","1","1","3","1","","0","1","0","null","","","<div style=""font-size:60px;"">+</div>","null","","","","","","","","","",""
"","html-keyboard-response","160","1191538","0.0-10.0-1.1","t6ev74okbf","one_one","1","indirect_first","0","le05en17","0","38","1","1","3","1","","0","1","0","null","","","<img src = 'category4/GS3.png' width = '100%;'>","null","","","","","","","","","",""
"","html-keyboard-response","161","1191792","0.0-10.0-2.1","t6ev74okbf","one_one","1","indirect_first","0","le05en17","0","38","1","1","3","1","","0","1","0","null","","","<img src = 'targets/14.png' width = '100%;'>","null","","","","","","","","","",""
"","html-keyboard-response","162","1192799","0.0-10.0-3.1","t6ev74okbf","one_one","1","indirect_first","0","le05en17","0","38","1","1","3","1","","0","1","0","1005.5849999189377","","","<img src = 'targets/mask.png' width = '100%;'>","75","neg","GS","GSnew","4","category4/GS3.png","targets/14.png","1","indirect","17",""
"","html-keyboard-response","163","1194301","0.0-10.0-0.2","t6ev74okbf","one_one","1","indirect_first","0","le05en17","0","38","1","1","3","1","","0","1","0","null","","","<div style=""font-size:60px;"">+</div>","null","","","","","","","","","",""
"","html-keyboard-response","164","1194392","0.0-10.0-1.2","t6ev74okbf","one_one","1","indirect_first","0","le05en17","0","38","1","1","3","1","","0","1","0","null","","","<img src = 'category1/GS2.png' width = '100%;'>","null","","","","","","","","","",""
"","html-keyboard-response","165","1194647","0.0-10.0-2.2","t6ev74okbf","one_one","1","indirect_first","0","le05en17","0","38","1","1","3","1","","0","1","0","null","","","<img src = 'targets/38.png' width = '100%;'>","null","","","","","","","","","",""
"","html-keyboard-response","166","1195481","0.0-10.0-3.2","t6ev74okbf","one_one","1","indirect_first","0","le05en17","0","38","1","1","3","1","","0","1","0","833.7950001005083","","","<img src = 'targets/mask.png' width = '100%;'>","75","neg","GS","GSnew","1","category1/GS2.png","targets/38.png","1","indirect","18",""
"","html-keyboard-response","167","1197009","0.0-10.0-0.3","t6ev74okbf","one_one","1","indirect_first","0","le05en17","0","38","1","1","3","1","","0","1","0","null","","","<div style=""font-size:60px;"">+</div>","null","","","","","","","","","",""
"","html-keyboard-response","168","1197100","0.0-10.0-1.3","t6ev74okbf","one_one","1","indirect_first","0","le05en17","0","38","1","1","3","1","","0","1","0","null","","","<img src = 'category2/men.png' width = '100%;'>","null","","","","","","","","","",""
"","html-keyboard-response","169","1197358","0.0-10.0-2.3","t6ev74okbf","one_one","1","indirect_first","0","le05en17","0","38","1","1","3","1","","0","1","0","null","","","<img src = 'targets/19.png' width = '100%;'>","null","","","","","","","","","",""
"","html-keyboard-response","170","1198163","0.0-10.0-3.3","t6ev74okbf","one_one","1","indirect_first","0","le05en17","0","38","1","1","3","1","","0","1","0","804.1199999861419","","","<img src = 'targets/mask.png' width = '100%;'>","75","pos","GS","abstract","2","category2/men.png","targets/19.png","1","indirect","19",""
"","html-keyboard-response","171","1199690","0.0-10.0-0.4","t6ev74okbf","one_one","1","indirect_first","0","le05en17","0","38","1","1","3","1","","0","1","0","null","","","<div style=""font-size:60px;"">+</div>","null","","","","","","","","","",""
"","html-keyboard-response","172","1199784","0.0-10.0-1.4","t6ev74okbf","one_one","1","indirect_first","0","le05en17","0","38","1","1","3","1","","0","1","0","null","","","<img src = 'category4/lin.png' width = '100%;'>","null","","","","","","","","","",""
"","html-keyboard-response","173","1200038","0.0-10.0-2.4","t6ev74okbf","one_one","1","indirect_first","0","le05en17","0","38","1","1","3","1","","0","1","0","null","","","<img src = 'targets/15.png' width = '100%;'>","null","","","","","","","","","",""
"","html-keyboard-response","174","1200446","0.0-10.0-3.4","t6ev74okbf","one_one","1","indirect_first","0","le05en17","0","38","1","1","3","1","","0","1","0","408.1500000320375","","","<img src = 'targets/mask.png' width = '100%;'>","68","neg","GS","abstract","4","category4/lin.png","targets/15.png","0","indirect","20",""
"","html-keyboard-response","175","1201970","0.0-10.0-0.5","t6ev74okbf","one_one","1","indirect_first","0","le05en17","0","38","1","1","3","1","","0","1","0","null","","","<div style=""font-size:60px;"">+</div>","null","","","","","","","","","",""
"","html-keyboard-response","176","1202065","0.0-10.0-1.5","t6ev74okbf","one_one","1","indirect_first","0","le05en17","0","38","1","1","3","1","","0","1","0","null","","","<img src = 'category3/GS2.png' width = '100%;'>","null","","","","","","","","","",""
"","html-keyboard-response","177","1202332","0.0-10.0-2.5","t6ev74okbf","one_one","1","indirect_first","0","le05en17","0","38","1","1","3","1","","0","1","0","null","","","<img src = 'targets/13.png' width = '100%;'>","null","","","","","","","","","",""
"","html-keyboard-response","178","1202737","0.0-10.0-3.5","t6ev74okbf","one_one","1","indirect_first","0","le05en17","0","38","1","1","3","1","","0","1","0","403.8299999665469","","","<img src = 'targets/mask.png' width = '100%;'>","75","pos","GS","GSnew","3","category3/GS2.png","targets/13.png","1","indirect","21",""
"","html-keyboard-response","179","1204261","0.0-10.0-0.6","t6ev74okbf","one_one","1","indirect_first","0","le05en17","0","38","1","1","3","1","","0","1","0","null","","","<div style=""font-size:60px;"">+</div>","null","","","","","","","","","",""
"","html-keyboard-response","180","1204353","0.0-10.0-1.6","t6ev74okbf","one_one","1","indirect_first","0","le05en17","0","38","1","1","3","1","","0","1","0","null","","","<img src = 'category1/GS3.png' width = '100%;'>","null","","","","","","","","","",""
"","html-keyboard-response","181","1204604","0.0-10.0-2.6","t6ev74okbf","one_one","1","indirect_first","0","le05en17","0","38","1","1","3","1","","0","1","0","null","","","<img src = 'targets/20.png' width = '100%;'>","null","","","","","","","","","",""
"","html-keyboard-response","182","1205110","0.0-10.0-3.6","t6ev74okbf","one_one","1","indirect_first","0","le05en17","0","38","1","1","3","1","","0","1","0","504.8749998677522","","","<img src = 'targets/mask.png' width = '100%;'>","68","neg","GS","GSnew","1","category1/GS3.png","targets/20.png","0","indirect","22",""
"","html-keyboard-response","183","1206624","0.0-10.0-0.7","t6ev74okbf","one_one","1","indirect_first","0","le05en17","0","38","1","1","3","1","","0","1","0","null","","","<div style=""font-size:60px;"">+</div>","null","","","","","","","","","",""
"","html-keyboard-response","184","1206730","0.0-10.0-1.7","t6ev74okbf","one_one","1","indirect_first","0","le05en17","0","38","1","1","3","1","","0","1","0","null","","","<img src = 'category1/ma.png' width = '100%;'>","null","","","","","","","","","",""
"","html-keyboard-response","185","1206983","0.0-10.0-2.7","t6ev74okbf","one_one","1","indirect_first","0","le05en17","0","38","1","1","3","1","","0","1","0","null","","","<img src = 'targets/24.png' width = '100%;'>","null","","","","","","","","","",""
"","html-keyboard-response","186","1207553","0.0-10.0-3.7","t6ev74okbf","one_one","1","indirect_first","0","le05en17","0","38","1","1","3","1","","0","1","0","569.334999890998","","","<img src = 'targets/mask.png' width = '100%;'>","68","neg","GS","abstract","1","category1/ma.png","targets/24.png","0","indirect","23",""
"","html-keyboard-response","187","1209065","0.0-10.0-0.8","t6ev74okbf","one_one","1","indirect_first","0","le05en17","0","38","1","1","3","1","","0","1","0","null","","","<div style=""font-size:60px;"">+</div>","null","","","","","","","","","",""
"","html-keyboard-response","188","1209156","0.0-10.0-1.8","t6ev74okbf","one_one","1","indirect_first","0","le05en17","0","38","1","1","3","1","","0","1","0","null","","","<img src = 'category1/GS1.png' width = '100%;'>","null","","","","","","","","","",""
"","html-keyboard-response","189","1209409","0.0-10.0-2.8","t6ev74okbf","one_one","1","indirect_first","0","le05en17","0","38","1","1","3","1","","0","1","0","null","","","<img src = 'targets/31.png' width = '100%;'>","null","","","","","","","","","",""
"","html-keyboard-response","190","1209842","0.0-10.0-3.8","t6ev74okbf","one_one","1","indirect_first","0","le05en17","0","38","1","1","3","1","","0","1","0","431.540000019595","","","<img src = 'targets/mask.png' width = '100%;'>","75","neg","GS","GSnew","1","category1/GS1.png","targets/31.png","1","indirect","24",""
"","html-keyboard-response","191","1211344","0.0-10.0-0.9","t6ev74okbf","one_one","1","indirect_first","0","le05en17","0","38","1","1","3","1","","0","1","0","null","","","<div style=""font-size:60px;"">+</div>","null","","","","","","","","","",""
"","html-keyboard-response","192","1211436","0.0-10.0-1.9","t6ev74okbf","one_one","1","indirect_first","0","le05en17","0","38","1","1","3","1","","0","1","0","null","","","<img src = 'category3/GS3.png' width = '100%;'>","null","","","","","","","","","",""
"","html-keyboard-response","193","1211688","0.0-10.0-2.9","t6ev74okbf","one_one","1","indirect_first","0","le05en17","0","38","1","1","3","1","","0","1","0","null","","","<img src = 'targets/47.png' width = '100%;'>","null","","","","","","","","","",""
"","html-keyboard-response","194","1211974","0.0-10.0-3.9","t6ev74okbf","one_one","1","indirect_first","0","le05en17","0","38","1","1","3","1","","0","1","0","285.5899999849498","","","<img src = 'targets/mask.png' width = '100%;'>","75","pos","GS","GSnew","3","category3/GS3.png","targets/47.png","1","indirect","25",""
"","html-keyboard-response","195","1213497","0.0-10.0-0.10","t6ev74okbf","one_one","1","indirect_first","0","le05en17","0","38","1","1","3","1","","0","1","0","null","","","<div style=""font-size:60px;"">+</div>","null","","","","","","","","","",""
"","html-keyboard-response","196","1213593","0.0-10.0-1.10","t6ev74okbf","one_one","1","indirect_first","0","le05en17","0","38","1","1","3","1","","0","1","0","null","","","<img src = 'category4/GS1.png' width = '100%;'>","null","","","","","","","","","",""
"","html-keyboard-response","197","1213861","0.0-10.0-2.10","t6ev74okbf","one_one","1","indirect_first","0","le05en17","0","38","1","1","3","1","","0","1","0","null","","","<img src = 'targets/44.png' width = '100%;'>","null","","","","","","","","","",""
"","html-keyboard-response","198","1214169","0.0-10.0-3.10","t6ev74okbf","one_one","1","indirect_first","0","le05en17","0","38","1","1","3","1","","0","1","0","307.55500006489456","","","<img src = 'targets/mask.png' width = '100%;'>","68","neg","GS","GSnew","4","category4/GS1.png","targets/44.png","0","indirect","26",""
"","html-keyboard-response","199","1215698","0.0-10.0-0.11","t6ev74okbf","one_one","1","indirect_first","0","le05en17","0","38","1","1","3","1","","0","1","0","null","","","<div style=""font-size:60px;"">+</div>","null","","","","","","","","","",""
"","html-keyboard-response","200","1215794","0.0-10.0-1.11","t6ev74okbf","one_one","1","indirect_first","0","le05en17","0","38","1","1","3","1","","0","1","0","null","","","<img src = 'category3/GS1.png' width = '100%;'>","null","","","","","","","","","",""
"","html-keyboard-response","201","1216045","0.0-10.0-2.11","t6ev74okbf","one_one","1","indirect_first","0","le05en17","0","38","1","1","3","1","","0","1","0","null","","","<img src = 'targets/1.png' width = '100%;'>","null","","","","","","","","","",""
"","html-keyboard-response","202","1216515","0.0-10.0-3.11","t6ev74okbf","one_one","1","indirect_first","0","le05en17","0","38","1","1","3","1","","0","1","0","469.4100001361221","","","<img src = 'targets/mask.png' width = '100%;'>","68","pos","GS","GSnew","3","category3/GS1.png","targets/1.png","0","indirect","27",""
"","html-keyboard-response","203","1218045","0.0-10.0-0.12","t6ev74okbf","one_one","1","indirect_first","0","le05en17","0","38","1","1","3","1","","0","1","0","null","","","<div style=""font-size:60px;"">+</div>","null","","","","","","","","","",""
"","html-keyboard-response","204","1218140","0.0-10.0-1.12","t6ev74okbf","one_one","1","indirect_first","0","le05en17","0","38","1","1","3","1","","0","1","0","null","","","<img src = 'category4/GS2.png' width = '100%;'>","null","","","","","","","","","",""
"","html-keyboard-response","205","1218393","0.0-10.0-2.12","t6ev74okbf","one_one","1","indirect_first","0","le05en17","0","38","1","1","3","1","","0","1","0","null","","","<img src = 'targets/34.png' width = '100%;'>","null","","","","","","","","","",""
"","html-keyboard-response","206","1218732","0.0-10.0-3.12","t6ev74okbf","one_one","1","indirect_first","0","le05en17","0","38","1","1","3","1","","0","1","0","337.65999996103346","","","<img src = 'targets/mask.png' width = '100%;'>","68","neg","GS","GSnew","4","category4/GS2.png","targets/34.png","0","indirect","28",""
"","html-keyboard-response","207","1220245","0.0-10.0-0.13","t6ev74okbf","one_one","1","indirect_first","0","le05en17","0","38","1","1","3","1","","0","1","0","null","","","<div style=""font-size:60px;"">+</div>","null","","","","","","","","","",""
"","html-keyboard-response","208","1220340","0.0-10.0-1.13","t6ev74okbf","one_one","1","indirect_first","0","le05en17","0","38","1","1","3","1","","0","1","0","null","","","<img src = 'category2/GS1.png' width = '100%;'>","null","","","","","","","","","",""
"","html-keyboard-response","209","1220608","0.0-10.0-2.13","t6ev74okbf","one_one","1","indirect_first","0","le05en17","0","38","1","1","3","1","","0","1","0","null","","","<img src = 'targets/6.png' width = '100%;'>","null","","","","","","","","","",""
"","html-keyboard-response","210","1221351","0.0-10.0-3.13","t6ev74okbf","one_one","1","indirect_first","0","le05en17","0","38","1","1","3","1","","0","1","0","742.6149998791516","","","<img src = 'targets/mask.png' width = '100%;'>","68","pos","GS","GSnew","2","category2/GS1.png","targets/6.png","0","indirect","29",""
"","html-keyboard-response","211","1222872","0.0-10.0-0.14","t6ev74okbf","one_one","1","indirect_first","0","le05en17","0","38","1","1","3","1","","0","1","0","null","","","<div style=""font-size:60px;"">+</div>","null","","","","","","","","","",""
"","html-keyboard-response","212","1222963","0.0-10.0-1.14","t6ev74okbf","one_one","1","indirect_first","0","le05en17","0","38","1","1","3","1","","0","1","0","null","","","<img src = 'category3/wang.png' width = '100%;'>","null","","","","","","","","","",""
"","html-keyboard-response","213","1223217","0.0-10.0-2.14","t6ev74okbf","one_one","1","indirect_first","0","le05en17","0","38","1","1","3","1","","0","1","0","null","","","<img src = 'targets/42.png' width = '100%;'>","null","","","","","","","","","",""
"","html-keyboard-response","214","1223525","0.0-10.0-3.14","t6ev74okbf","one_one","1","indirect_first","0","le05en17","0","38","1","1","3","1","","0","1","0","307.6100000180304","","","<img src = 'targets/mask.png' width = '100%;'>","75","pos","GS","abstract","3","category3/wang.png","targets/42.png","1","indirect","30",""
"","html-keyboard-response","215","1225048","0.0-10.0-0.15","t6ev74okbf","one_one","1","indirect_first","0","le05en17","0","38","1","1","3","1","","0","1","0","null","","","<div style=""font-size:60px;"">+</div>","null","","","","","","","","","",""
"","html-keyboard-response","216","1225139","0.0-10.0-1.15","t6ev74okbf","one_one","1","indirect_first","0","le05en17","0","38","1","1","3","1","","0","1","0","null","","","<img src = 'category2/GS3.png' width = '100%;'>","null","","","","","","","","","",""
"","html-keyboard-response","217","1225398","0.0-10.0-2.15","t6ev74okbf","one_one","1","indirect_first","0","le05en17","0","38","1","1","3","1","","0","1","0","null","","","<img src = 'targets/25.png' width = '100%;'>","null","","","","","","","","","",""
"","html-keyboard-response","218","1225673","0.0-10.0-3.15","t6ev74okbf","one_one","1","indirect_first","0","le05en17","0","38","1","1","3","1","","0","1","0","273.78999977372587","","","<img src = 'targets/mask.png' width = '100%;'>","68","pos","GS","GSnew","2","category2/GS3.png","targets/25.png","0","indirect","31",""
"","survey-html-form","219","1233043","0.0-11.0","t6ev74okbf","one_one","1","indirect_first","0","le05en17","0","38","1","1","3","1","","0","1","0","6866.939999861643","","{}","","","","","","","","","","","",""
"","image-slider-response","220","1240571","0.0-12.0-0.0","t6ev74okbf","one_one","1","indirect_first","0","le05en17","0","38","1","1","3","1","","0","1","0","5518.975000130013","","","","","pos","GS","GSnew","3","category3/GS1.png","targets/1.png","","direct","","70"
"","image-slider-response","221","1243067","0.0-12.0-0.1","t6ev74okbf","one_one","1","indirect_first","0","le05en17","0","38","1","1","3","1","","0","1","0","2493.269999977201","","","","","pos","GS","GSnew","2","category2/GS1.png","targets/6.png","","direct","","-52"
"","image-slider-response","222","1246019","0.0-12.0-0.2","t6ev74okbf","one_one","1","indirect_first","0","le05en17","0","38","1","1","3","1","","0","1","0","2950.9300000499934","","","","","neg","GS","GSnew","4","category4/GS2.png","targets/34.png","","direct","","49"
"","image-slider-response","223","1248715","0.0-12.0-0.3","t6ev74okbf","one_one","1","indirect_first","0","le05en17","0","38","1","1","3","1","","0","1","0","2694.0600001253188","","","","","neg","GS","GSnew","1","category1/GS1.png","targets/31.png","","direct","","15"
"","image-slider-response","224","1251027","0.0-12.0-0.4","t6ev74okbf","one_one","1","indirect_first","0","le05en17","0","38","1","1","3","1","","0","1","0","2310.259999940172","","","","","pos","GS","GSold","3","category3/CS8.png","targets/9.png","","direct","","42"
"","image-slider-response","225","1253859","0.0-12.0-0.5","t6ev74okbf","one_one","1","indirect_first","0","le05en17","0","38","1","1","3","1","","0","1","0","2830.9199998620898","","","","","pos","GS","GSold","2","category2/CS8.png","targets/16.png","","direct","","59"
"","image-slider-response","226","1257019","0.0-12.0-0.6","t6ev74okbf","one_one","1","indirect_first","0","le05en17","0","38","1","1","3","1","","0","1","0","3159.049999900162","","","","","pos","GS","GSnew","2","category2/GS2.png","targets/12.png","","direct","","-81"
"","image-slider-response","227","1259307","0.0-12.0-0.7","t6ev74okbf","one_one","1","indirect_first","0","le05en17","0","38","1","1","3","1","","0","1","0","2286.6799999028444","","","","","neg","GS","GSold","4","category4/CS6.png","targets/27.png","","direct","","-98"
"","image-slider-response","228","1261515","0.0-12.0-0.8","t6ev74okbf","one_one","1","indirect_first","0","le05en17","0","38","1","1","3","1","","0","1","0","2206.6999999806285","","","","","pos","CS","CS","2","category2/CS6.png","targets/32.png","","direct","","58"
"","image-slider-response","229","1263643","0.0-12.0-0.9","t6ev74okbf","one_one","1","indirect_first","0","le05en17","0","38","1","1","3","1","","0","1","0","2127.0049999002367","","","","","pos","GS","abstract","2","category2/men.png","targets/19.png","","direct","","45"
"","image-slider-response","230","1265563","0.0-12.0-0.10","t6ev74okbf","one_one","1","indirect_first","0","le05en17","0","38","1","1","3","1","","0","1","0","1918.644999852404","","","","","neg","GS","abstract","4","category4/lin.png","targets/15.png","","direct","","-67"
"","image-slider-response","231","1268163","0.0-12.0-0.11","t6ev74okbf","one_one","1","indirect_first","0","le05en17","0","38","1","1","3","1","","0","1","0","2599.2499999701977","","","","","neg","GS","GSnew","4","category4/GS1.png","targets/44.png","","direct","","-55"
"","image-slider-response","232","1270259","0.0-12.0-0.12","t6ev74okbf","one_one","1","indirect_first","0","le05en17","0","38","1","1","3","1","","0","1","0","2094.315000111237","","","","","pos","GS","GSold","3","category3/CS7.png","targets/29.png","","direct","","-66"
"","image-slider-response","233","1272275","0.0-12.0-0.13","t6ev74okbf","one_one","1","indirect_first","0","le05en17","0","38","1","1","3","1","","0","1","0","2014.8899999912828","","","","","neg","CS","CS","4","category4/CS9.png","targets/3.png","","direct","","-92"
"","image-slider-response","234","1274331","0.0-12.0-0.14","t6ev74okbf","one_one","1","indirect_first","0","le05en17","0","38","1","1","3","1","","0","1","0","2054.170000134036","","","","","pos","GS","abstract","3","category3/wang.png","targets/42.png","","direct","","32"
"","image-slider-response","235","1276179","0.0-12.0-0.15","t6ev74okbf","one_one","1","indirect_first","0","le05en17","0","38","1","1","3","1","","0","1","0","1846.9000000040978","","","","","pos","GS","GSnew","3","category3/GS3.png","targets/47.png","","direct","","35"
"","image-slider-response","236","1278011","0.0-12.0-0.16","t6ev74okbf","one_one","1","indirect_first","0","le05en17","0","38","1","1","3","1","","0","1","0","1830.684999935329","","","","","neg","CS","CS","1","category1/CS6.png","targets/18.png","","direct","","-30"
"","image-slider-response","237","1280131","0.0-12.0-0.17","t6ev74okbf","one_one","1","indirect_first","0","le05en17","0","38","1","1","3","1","","0","1","0","2118.565000128001","","","","","neg","GS","GSold","1","category1/CS2.png","targets/40.png","","direct","","-15"
"","image-slider-response","238","1282371","0.0-12.0-0.18","t6ev74okbf","one_one","1","indirect_first","0","le05en17","0","38","1","1","3","1","","0","1","0","2238.935000030324","","","","","pos","GS","GSnew","3","category3/GS2.png","targets/13.png","","direct","","17"
"","image-slider-response","239","1284659","0.0-12.0-0.19","t6ev74okbf","one_one","1","indirect_first","0","le05en17","0","38","1","1","3","1","","0","1","0","2286.914999829605","","","","","pos","GS","GSnew","2","category2/GS3.png","targets/25.png","","direct","","-36"
"","image-slider-response","240","1286859","0.0-12.0-0.20","t6ev74okbf","one_one","1","indirect_first","0","le05en17","0","38","1","1","3","1","","0","1","0","2198.7099999096245","","","","","neg","GS","GSnew","1","category1/GS2.png","targets/38.png","","direct","","19"
"","image-slider-response","241","1288651","0.0-12.0-0.21","t6ev74okbf","one_one","1","indirect_first","0","le05en17","0","38","1","1","3","1","","0","1","0","1790.7950000371784","","","","","pos","GS","GSold","3","category3/CS2.png","targets/30.png","","direct","","35"
"","image-slider-response","242","1290739","0.0-12.0-0.22","t6ev74okbf","one_one","1","indirect_first","0","le05en17","0","38","1","1","3","1","","0","1","0","2086.6299998015165","","","","","neg","GS","GSold","4","category4/CS5.png","targets/26.png","","direct","","-70"
"","image-slider-response","243","1297403","0.0-12.0-0.23","t6ev74okbf","one_one","1","indirect_first","0","le05en17","0","38","1","1","3","1","","0","1","0","6663.059999933466","","","","","pos","CS","CS","3","category3/CS10.png","targets/43.png","","direct","","93"
"","image-slider-response","244","1300067","0.0-12.0-0.24","t6ev74okbf","one_one","1","indirect_first","0","le05en17","0","38","1","1","3","1","","0","1","0","2661.8599998764694","","","","","neg","GS","GSold","1","category1/CS3.png","targets/8.png","","direct","","-14"
"","image-slider-response","245","1301954","0.0-12.0-0.25","t6ev74okbf","one_one","1","indirect_first","0","le05en17","0","38","1","1","3","1","","0","1","0","1886.2949998583645","","","","","neg","GS","GSold","4","category4/CS3.png","targets/21.png","","direct","","-63"
"","image-slider-response","246","1304258","0.0-12.0-0.26","t6ev74okbf","one_one","1","indirect_first","0","le05en17","0","38","1","1","3","1","","0","1","0","2303.065000101924","","","","","neg","GS","GSnew","1","category1/GS3.png","targets/20.png","","direct","","28"
"","image-slider-response","247","1306362","0.0-12.0-0.27","t6ev74okbf","one_one","1","indirect_first","0","le05en17","0","38","1","1","3","1","","0","1","0","2102.815000107512","","","","","neg","GS","abstract","1","category1/ma.png","targets/24.png","","direct","","-17"
"","image-slider-response","248","1308435","0.0-12.0-0.28","t6ev74okbf","one_one","1","indirect_first","0","le05en17","0","38","1","1","3","1","","0","1","0","2071.0350000299513","","","","","pos","GS","GSold","2","category2/CS3.png","targets/2.png","","direct","","98"
"","image-slider-response","249","1310354","0.0-12.0-0.29","t6ev74okbf","one_one","1","indirect_first","0","le05en17","0","38","1","1","3","1","","0","1","0","1918.5800000559539","","","","","neg","GS","GSnew","4","category4/GS3.png","targets/14.png","","direct","","-25"
"","image-slider-response","250","1314667","0.0-12.0-0.30","t6ev74okbf","one_one","1","indirect_first","0","le05en17","0","38","1","1","3","1","","0","1","0","4311.089999973774","","","","","pos","GS","GSold","2","category2/CS5.png","targets/45.png","","direct","","66"
"","image-slider-response","251","1316650","0.0-12.0-0.31","t6ev74okbf","one_one","1","indirect_first","0","le05en17","0","38","1","1","3","1","","0","1","0","1982.1299999020994","","","","","neg","GS","GSold","1","category1/CS1.png","targets/28.png","","direct","","-18"
"","survey-html-form","252","1321691","0.0-13.0","t6ev74okbf","one_one","1","indirect_first","0","le05en17","0","38","1","1","3","1","","0","1","0","5039.480000035837","","{}","","","","","","","","","","","",""
"","image-slider-response","253","1329707","0.0-14.0-0.0","t6ev74okbf","one_one","1","indirect_first","0","le05en17","0","38","1","1","3","1","","0","1","0","7006.784999975935","","","","","neg","All","all","1","category1/ma_all.png","","","all","","38"
"","image-slider-response","254","1333475","0.0-14.0-0.1","t6ev74okbf","one_one","1","indirect_first","0","le05en17","0","38","1","1","3","1","","0","1","0","3766.3900000043213","","","","","neg","All","all","4","category4/lin_all.png","","","all","","-38"
"","image-slider-response","255","1337018","0.0-14.0-0.2","t6ev74okbf","one_one","1","indirect_first","0","le05en17","0","38","1","1","3","1","","0","1","0","3541.8799999170005","","","","","pos","All","all","3","category3/wang_all.png","","","all","","71"
"","image-slider-response","256","1339723","0.0-14.0-0.3","t6ev74okbf","one_one","1","indirect_first","0","le05en17","0","38","1","1","3","1","","0","1","0","2703.095000004396","","","","","pos","All","all","2","category2/men_all.png","","","all","","90"
"","survey-text","257","1346297","0.0-15.0","t6ev74okbf","one_one","1","indirect_first","0","le05en17","0","38","1","1","3","1","","0","1","0","6534.754999913275","","{""comment"":""""}","","","","","","","","","","","",""
"","survey-html-form","258","1357355","0.0-16.0","t6ev74okbf","one_one","1","indirect_first","0","le05en17","0","38","1","1","3","1","","0","1","0","11056.280000135303","","{""hinschauen"":""0"",""ablenkung"":""1"",""gewissenhaft"":""0""}","","","","","","","","","","","",""
