"success","trial_type","trial_index","time_elapsed","internal_node_id","subject","condition","condition_code","measure","measure_code","codeword","gender","age","education","chinese","fach","handedness","comment","hinschauen","ablenkung","gewissenhaft","rt","url","responses","stimulus","key_press","val","type","type_specific","category","cs_selected","target","indirect","task","nr_pres","response"
"true","fullscreen","0","5710","0.0-0.0","48wr3g197w","one_one","1","indirect_first","0","mm05el08","3","24","1","1","3","1","","0","1","0","","","","","","","","","","","","","","",""
"","external-html","1","103530","0.0-1.0","48wr3g197w","one_one","1","indirect_first","0","mm05el08","3","24","1","1","3","1","","0","1","0","97729","text/information.html","","","","","","","","","","","","",""
"","external-html","2","120377","0.0-2.0","48wr3g197w","one_one","1","indirect_first","0","mm05el08","3","24","1","1","3","1","","0","1","0","16738","text/consent.html","","","","","","","","","","","","",""
"","survey-html-form","3","202501","0.0-3.0","48wr3g197w","one_one","1","indirect_first","0","mm05el08","3","24","1","1","3","1","","0","1","0","82119","","{""codeword_enter"":""mm05el08""}","","","","","","","","","","","",""
"","survey-html-form","4","224827","0.0-4.0","48wr3g197w","one_one","1","indirect_first","0","mm05el08","3","24","1","1","3","1","","0","1","0","22322","","{""age"":""24"",""education"":""1"",""subject"":""3"",""gender"":""3"",""handedness"":""1"",""chinese"":""1""}","","","","","","","","","","","",""
"","survey-html-form","5","256870","0.0-5.0","48wr3g197w","one_one","1","indirect_first","0","mm05el08","3","24","1","1","3","1","","0","1","0","32041","","{}","","","","","","","","","","","",""
"","html-keyboard-response","6","260879","0.0-6.0-0.0-0.0","48wr3g197w","one_one","1","indirect_first","0","mm05el08","3","24","1","1","3","1","","0","1","0","null","","","<div class = 'row'><div class = 'column'><img src = 'category3/CS7.png' width = '70%;'></div><div class = 'column'><img src = 'uspos/8490.bmp' width = '100%;'></div></div>","null","pos","CS","CS","3","category3/CS7.png","","","","",""
"","html-keyboard-response","7","263384","0.0-6.0-0.0-0.1","48wr3g197w","one_one","1","indirect_first","0","mm05el08","3","24","1","1","3","1","","0","1","0","null","","","<div class = 'row'><div class = 'column'><img src = 'usneg/3160.bmp' width = '100%;'></div><div class = 'column'><img src = 'category4/CS7.png' width = '70%;'></div></div>","null","neg","CS","CS","4","category4/CS7.png","","","","",""
"","html-keyboard-response","8","265891","0.0-6.0-0.0-0.2","48wr3g197w","one_one","1","indirect_first","0","mm05el08","3","24","1","1","3","1","","0","1","0","null","","","<div class = 'row'><div class = 'column'><img src = 'category3/CS7.png' width = '70%;'></div><div class = 'column'><img src = 'uspos/8490.bmp' width = '100%;'></div></div>","null","pos","CS","CS","3","category3/CS7.png","","","","",""
"","html-keyboard-response","9","268395","0.0-6.0-0.0-0.3","48wr3g197w","one_one","1","indirect_first","0","mm05el08","3","24","1","1","3","1","","0","1","0","null","","","<div class = 'row'><div class = 'column'><img src = 'usneg/6212.bmp' width = '100%;'></div><div class = 'column'><img src = 'category2/CS5.png' width = '70%;'></div></div>","null","neg","CS","CS","2","category2/CS5.png","","","","",""
"","html-keyboard-response","10","270950","0.0-6.0-0.0-0.4","48wr3g197w","one_one","1","indirect_first","0","mm05el08","3","24","1","1","3","1","","0","1","0","null","","","<div class = 'row'><div class = 'column'><img src = 'category1/CS10.png' width = '70%;'></div><div class = 'column'><img src = 'uspos/1340.bmp' width = '100%;'></div></div>","null","pos","CS","CS","1","category1/CS10.png","","","","",""
"","html-keyboard-response","11","273454","0.0-6.0-0.0-0.5","48wr3g197w","one_one","1","indirect_first","0","mm05el08","3","24","1","1","3","1","","0","1","0","null","","","<div class = 'row'><div class = 'column'><img src = 'category2/CS5.png' width = '70%;'></div><div class = 'column'><img src = 'usneg/6212.bmp' width = '100%;'></div></div>","null","neg","CS","CS","2","category2/CS5.png","","","","",""
"","html-keyboard-response","12","275957","0.0-6.0-0.0-0.6","48wr3g197w","one_one","1","indirect_first","0","mm05el08","3","24","1","1","3","1","","0","1","0","null","","","<div class = 'row'><div class = 'column'><img src = 'category1/CS10.png' width = '70%;'></div><div class = 'column'><img src = 'uspos/1340.bmp' width = '100%;'></div></div>","null","pos","CS","CS","1","category1/CS10.png","","","","",""
"","html-keyboard-response","13","278461","0.0-6.0-0.0-0.7","48wr3g197w","one_one","1","indirect_first","0","mm05el08","3","24","1","1","3","1","","0","1","0","null","","","<div class = 'row'><div class = 'column'><img src = 'usneg/3160.bmp' width = '100%;'></div><div class = 'column'><img src = 'category4/CS7.png' width = '70%;'></div></div>","null","neg","CS","CS","4","category4/CS7.png","","","","",""
"","html-keyboard-response","14","280967","0.0-6.0-0.0-0.8","48wr3g197w","one_one","1","indirect_first","0","mm05el08","3","24","1","1","3","1","","0","1","0","null","","","<div class = 'row'><div class = 'column'><img src = 'category2/CS5.png' width = '70%;'></div><div class = 'column'><img src = 'usneg/6212.bmp' width = '100%;'></div></div>","null","neg","CS","CS","2","category2/CS5.png","","","","",""
"","html-keyboard-response","15","283470","0.0-6.0-0.0-0.9","48wr3g197w","one_one","1","indirect_first","0","mm05el08","3","24","1","1","3","1","","0","1","0","null","","","<div class = 'row'><div class = 'column'><img src = 'category4/CS7.png' width = '70%;'></div><div class = 'column'><img src = 'usneg/3160.bmp' width = '100%;'></div></div>","null","neg","CS","CS","4","category4/CS7.png","","","","",""
"","html-keyboard-response","16","285974","0.0-6.0-0.0-0.10","48wr3g197w","one_one","1","indirect_first","0","mm05el08","3","24","1","1","3","1","","0","1","0","null","","","<div class = 'row'><div class = 'column'><img src = 'category3/CS7.png' width = '70%;'></div><div class = 'column'><img src = 'uspos/8490.bmp' width = '100%;'></div></div>","null","pos","CS","CS","3","category3/CS7.png","","","","",""
"","html-keyboard-response","17","288476","0.0-6.0-0.0-0.11","48wr3g197w","one_one","1","indirect_first","0","mm05el08","3","24","1","1","3","1","","0","1","0","null","","","<div class = 'row'><div class = 'column'><img src = 'usneg/3160.bmp' width = '100%;'></div><div class = 'column'><img src = 'category4/CS7.png' width = '70%;'></div></div>","null","neg","CS","CS","4","category4/CS7.png","","","","",""
"","html-keyboard-response","18","290982","0.0-6.0-0.0-0.12","48wr3g197w","one_one","1","indirect_first","0","mm05el08","3","24","1","1","3","1","","0","1","0","null","","","<div class = 'row'><div class = 'column'><img src = 'category3/CS7.png' width = '70%;'></div><div class = 'column'><img src = 'uspos/8490.bmp' width = '100%;'></div></div>","null","pos","CS","CS","3","category3/CS7.png","","","","",""
"","html-keyboard-response","19","293488","0.0-6.0-0.0-0.13","48wr3g197w","one_one","1","indirect_first","0","mm05el08","3","24","1","1","3","1","","0","1","0","null","","","<div class = 'row'><div class = 'column'><img src = 'uspos/1340.bmp' width = '100%;'></div><div class = 'column'><img src = 'category1/CS10.png' width = '70%;'></div></div>","null","pos","CS","CS","1","category1/CS10.png","","","","",""
"","html-keyboard-response","20","295990","0.0-6.0-0.0-0.14","48wr3g197w","one_one","1","indirect_first","0","mm05el08","3","24","1","1","3","1","","0","1","0","null","","","<div class = 'row'><div class = 'column'><img src = 'usneg/6212.bmp' width = '100%;'></div><div class = 'column'><img src = 'category2/CS5.png' width = '70%;'></div></div>","null","neg","CS","CS","2","category2/CS5.png","","","","",""
"","html-keyboard-response","21","298496","0.0-6.0-0.0-0.15","48wr3g197w","one_one","1","indirect_first","0","mm05el08","3","24","1","1","3","1","","0","1","0","null","","","<div class = 'row'><div class = 'column'><img src = 'usneg/3160.bmp' width = '100%;'></div><div class = 'column'><img src = 'category4/CS7.png' width = '70%;'></div></div>","null","neg","CS","CS","4","category4/CS7.png","","","","",""
"","html-keyboard-response","22","301000","0.0-6.0-0.0-0.16","48wr3g197w","one_one","1","indirect_first","0","mm05el08","3","24","1","1","3","1","","0","1","0","null","","","<div class = 'row'><div class = 'column'><img src = 'usneg/6212.bmp' width = '100%;'></div><div class = 'column'><img src = 'category2/CS5.png' width = '70%;'></div></div>","null","neg","CS","CS","2","category2/CS5.png","","","","",""
"","html-keyboard-response","23","303503","0.0-6.0-0.0-0.17","48wr3g197w","one_one","1","indirect_first","0","mm05el08","3","24","1","1","3","1","","0","1","0","null","","","<div class = 'row'><div class = 'column'><img src = 'uspos/1340.bmp' width = '100%;'></div><div class = 'column'><img src = 'category1/CS10.png' width = '70%;'></div></div>","null","pos","CS","CS","1","category1/CS10.png","","","","",""
"","html-keyboard-response","24","306007","0.0-6.0-0.0-0.18","48wr3g197w","one_one","1","indirect_first","0","mm05el08","3","24","1","1","3","1","","0","1","0","null","","","<div class = 'row'><div class = 'column'><img src = 'category3/CS7.png' width = '70%;'></div><div class = 'column'><img src = 'uspos/8490.bmp' width = '100%;'></div></div>","null","pos","CS","CS","3","category3/CS7.png","","","","",""
"","html-keyboard-response","25","308512","0.0-6.0-0.0-0.19","48wr3g197w","one_one","1","indirect_first","0","mm05el08","3","24","1","1","3","1","","0","1","0","null","","","<div class = 'row'><div class = 'column'><img src = 'category1/CS10.png' width = '70%;'></div><div class = 'column'><img src = 'uspos/1340.bmp' width = '100%;'></div></div>","null","pos","CS","CS","1","category1/CS10.png","","","","",""
"","survey-html-form","26","315812","0.0-6.0-1.0","48wr3g197w","one_one","1","indirect_first","0","mm05el08","3","24","1","1","3","1","","0","1","0","6796","","{}","","","","","","","","","","","",""
"","html-keyboard-response","27","319817","0.0-6.0-2.0-0.0","48wr3g197w","one_one","1","indirect_first","0","mm05el08","3","24","1","1","3","1","","0","1","0","null","","","<div class = 'row'><div class = 'column'><img src = 'category4/CS7.png' width = '70%;'></div><div class = 'column'><img src = 'usneg/3160.bmp' width = '100%;'></div></div>","null","neg","CS","CS","4","category4/CS7.png","","","","",""
"","html-keyboard-response","28","322321","0.0-6.0-2.0-0.1","48wr3g197w","one_one","1","indirect_first","0","mm05el08","3","24","1","1","3","1","","0","1","0","null","","","<div class = 'row'><div class = 'column'><img src = 'uspos/1340.bmp' width = '100%;'></div><div class = 'column'><img src = 'category1/CS10.png' width = '70%;'></div></div>","null","pos","CS","CS","1","category1/CS10.png","","","","",""
"","html-keyboard-response","29","324823","0.0-6.0-2.0-0.2","48wr3g197w","one_one","1","indirect_first","0","mm05el08","3","24","1","1","3","1","","0","1","0","null","","","<div class = 'row'><div class = 'column'><img src = 'usneg/3160.bmp' width = '100%;'></div><div class = 'column'><img src = 'category4/CS7.png' width = '70%;'></div></div>","null","neg","CS","CS","4","category4/CS7.png","","","","",""
"","html-keyboard-response","30","327326","0.0-6.0-2.0-0.3","48wr3g197w","one_one","1","indirect_first","0","mm05el08","3","24","1","1","3","1","","0","1","0","null","","","<div class = 'row'><div class = 'column'><img src = 'usneg/6212.bmp' width = '100%;'></div><div class = 'column'><img src = 'category2/CS5.png' width = '70%;'></div></div>","null","neg","CS","CS","2","category2/CS5.png","","","","",""
"","html-keyboard-response","31","329830","0.0-6.0-2.0-0.4","48wr3g197w","one_one","1","indirect_first","0","mm05el08","3","24","1","1","3","1","","0","1","0","null","","","<div class = 'row'><div class = 'column'><img src = 'usneg/3160.bmp' width = '100%;'></div><div class = 'column'><img src = 'category4/CS7.png' width = '70%;'></div></div>","null","neg","CS","CS","4","category4/CS7.png","","","","",""
"","html-keyboard-response","32","332334","0.0-6.0-2.0-0.5","48wr3g197w","one_one","1","indirect_first","0","mm05el08","3","24","1","1","3","1","","0","1","0","null","","","<div class = 'row'><div class = 'column'><img src = 'category3/CS7.png' width = '70%;'></div><div class = 'column'><img src = 'uspos/8490.bmp' width = '100%;'></div></div>","null","pos","CS","CS","3","category3/CS7.png","","","","",""
"","html-keyboard-response","33","334837","0.0-6.0-2.0-0.6","48wr3g197w","one_one","1","indirect_first","0","mm05el08","3","24","1","1","3","1","","0","1","0","null","","","<div class = 'row'><div class = 'column'><img src = 'usneg/6212.bmp' width = '100%;'></div><div class = 'column'><img src = 'category2/CS5.png' width = '70%;'></div></div>","null","neg","CS","CS","2","category2/CS5.png","","","","",""
"","html-keyboard-response","34","337340","0.0-6.0-2.0-0.7","48wr3g197w","one_one","1","indirect_first","0","mm05el08","3","24","1","1","3","1","","0","1","0","null","","","<div class = 'row'><div class = 'column'><img src = 'usneg/3160.bmp' width = '100%;'></div><div class = 'column'><img src = 'category4/CS7.png' width = '70%;'></div></div>","null","neg","CS","CS","4","category4/CS7.png","","","","",""
"","html-keyboard-response","35","339844","0.0-6.0-2.0-0.8","48wr3g197w","one_one","1","indirect_first","0","mm05el08","3","24","1","1","3","1","","0","1","0","null","","","<div class = 'row'><div class = 'column'><img src = 'uspos/8490.bmp' width = '100%;'></div><div class = 'column'><img src = 'category3/CS7.png' width = '70%;'></div></div>","null","pos","CS","CS","3","category3/CS7.png","","","","",""
"","html-keyboard-response","36","342347","0.0-6.0-2.0-0.9","48wr3g197w","one_one","1","indirect_first","0","mm05el08","3","24","1","1","3","1","","0","1","0","null","","","<div class = 'row'><div class = 'column'><img src = 'category2/CS5.png' width = '70%;'></div><div class = 'column'><img src = 'usneg/6212.bmp' width = '100%;'></div></div>","null","neg","CS","CS","2","category2/CS5.png","","","","",""
"","html-keyboard-response","37","344853","0.0-6.0-2.0-0.10","48wr3g197w","one_one","1","indirect_first","0","mm05el08","3","24","1","1","3","1","","0","1","0","null","","","<div class = 'row'><div class = 'column'><img src = 'category3/CS7.png' width = '70%;'></div><div class = 'column'><img src = 'uspos/8490.bmp' width = '100%;'></div></div>","null","pos","CS","CS","3","category3/CS7.png","","","","",""
"","html-keyboard-response","38","347358","0.0-6.0-2.0-0.11","48wr3g197w","one_one","1","indirect_first","0","mm05el08","3","24","1","1","3","1","","0","1","0","null","","","<div class = 'row'><div class = 'column'><img src = 'category2/CS5.png' width = '70%;'></div><div class = 'column'><img src = 'usneg/6212.bmp' width = '100%;'></div></div>","null","neg","CS","CS","2","category2/CS5.png","","","","",""
"","html-keyboard-response","39","349859","0.0-6.0-2.0-0.12","48wr3g197w","one_one","1","indirect_first","0","mm05el08","3","24","1","1","3","1","","0","1","0","null","","","<div class = 'row'><div class = 'column'><img src = 'category3/CS7.png' width = '70%;'></div><div class = 'column'><img src = 'uspos/8490.bmp' width = '100%;'></div></div>","null","pos","CS","CS","3","category3/CS7.png","","","","",""
"","html-keyboard-response","40","352361","0.0-6.0-2.0-0.13","48wr3g197w","one_one","1","indirect_first","0","mm05el08","3","24","1","1","3","1","","0","1","0","null","","","<div class = 'row'><div class = 'column'><img src = 'uspos/1340.bmp' width = '100%;'></div><div class = 'column'><img src = 'category1/CS10.png' width = '70%;'></div></div>","null","pos","CS","CS","1","category1/CS10.png","","","","",""
"","html-keyboard-response","41","354865","0.0-6.0-2.0-0.14","48wr3g197w","one_one","1","indirect_first","0","mm05el08","3","24","1","1","3","1","","0","1","0","null","","","<div class = 'row'><div class = 'column'><img src = 'category4/CS7.png' width = '70%;'></div><div class = 'column'><img src = 'usneg/3160.bmp' width = '100%;'></div></div>","null","neg","CS","CS","4","category4/CS7.png","","","","",""
"","html-keyboard-response","42","357368","0.0-6.0-2.0-0.15","48wr3g197w","one_one","1","indirect_first","0","mm05el08","3","24","1","1","3","1","","0","1","0","null","","","<div class = 'row'><div class = 'column'><img src = 'uspos/1340.bmp' width = '100%;'></div><div class = 'column'><img src = 'category1/CS10.png' width = '70%;'></div></div>","null","pos","CS","CS","1","category1/CS10.png","","","","",""
"","html-keyboard-response","43","359871","0.0-6.0-2.0-0.16","48wr3g197w","one_one","1","indirect_first","0","mm05el08","3","24","1","1","3","1","","0","1","0","null","","","<div class = 'row'><div class = 'column'><img src = 'category3/CS7.png' width = '70%;'></div><div class = 'column'><img src = 'uspos/8490.bmp' width = '100%;'></div></div>","null","pos","CS","CS","3","category3/CS7.png","","","","",""
"","html-keyboard-response","44","362373","0.0-6.0-2.0-0.17","48wr3g197w","one_one","1","indirect_first","0","mm05el08","3","24","1","1","3","1","","0","1","0","null","","","<div class = 'row'><div class = 'column'><img src = 'category1/CS10.png' width = '70%;'></div><div class = 'column'><img src = 'uspos/1340.bmp' width = '100%;'></div></div>","null","pos","CS","CS","1","category1/CS10.png","","","","",""
"","html-keyboard-response","45","364875","0.0-6.0-2.0-0.18","48wr3g197w","one_one","1","indirect_first","0","mm05el08","3","24","1","1","3","1","","0","1","0","null","","","<div class = 'row'><div class = 'column'><img src = 'category2/CS5.png' width = '70%;'></div><div class = 'column'><img src = 'usneg/6212.bmp' width = '100%;'></div></div>","null","neg","CS","CS","2","category2/CS5.png","","","","",""
"","html-keyboard-response","46","367377","0.0-6.0-2.0-0.19","48wr3g197w","one_one","1","indirect_first","0","mm05el08","3","24","1","1","3","1","","0","1","0","null","","","<div class = 'row'><div class = 'column'><img src = 'uspos/1340.bmp' width = '100%;'></div><div class = 'column'><img src = 'category1/CS10.png' width = '70%;'></div></div>","null","pos","CS","CS","1","category1/CS10.png","","","","",""
"","survey-html-form","47","527411","0.0-6.0-3.0","48wr3g197w","one_one","1","indirect_first","0","mm05el08","3","24","1","1","3","1","","0","1","0","159531","","{}","","","","","","","","","","","",""
"","html-keyboard-response","48","531414","0.0-6.0-4.0-0.0","48wr3g197w","one_one","1","indirect_first","0","mm05el08","3","24","1","1","3","1","","0","1","0","null","","","<div class = 'row'><div class = 'column'><img src = 'category3/CS7.png' width = '70%;'></div><div class = 'column'><img src = 'uspos/8490.bmp' width = '100%;'></div></div>","null","pos","CS","CS","3","category3/CS7.png","","","","",""
"","html-keyboard-response","49","533918","0.0-6.0-4.0-0.1","48wr3g197w","one_one","1","indirect_first","0","mm05el08","3","24","1","1","3","1","","0","1","0","null","","","<div class = 'row'><div class = 'column'><img src = 'category1/CS10.png' width = '70%;'></div><div class = 'column'><img src = 'uspos/1340.bmp' width = '100%;'></div></div>","null","pos","CS","CS","1","category1/CS10.png","","","","",""
"","html-keyboard-response","50","536420","0.0-6.0-4.0-0.2","48wr3g197w","one_one","1","indirect_first","0","mm05el08","3","24","1","1","3","1","","0","1","0","null","","","<div class = 'row'><div class = 'column'><img src = 'uspos/8490.bmp' width = '100%;'></div><div class = 'column'><img src = 'category3/CS7.png' width = '70%;'></div></div>","null","pos","CS","CS","3","category3/CS7.png","","","","",""
"","html-keyboard-response","51","538922","0.0-6.0-4.0-0.3","48wr3g197w","one_one","1","indirect_first","0","mm05el08","3","24","1","1","3","1","","0","1","0","null","","","<div class = 'row'><div class = 'column'><img src = 'category1/CS10.png' width = '70%;'></div><div class = 'column'><img src = 'uspos/1340.bmp' width = '100%;'></div></div>","null","pos","CS","CS","1","category1/CS10.png","","","","",""
"","html-keyboard-response","52","541426","0.0-6.0-4.0-0.4","48wr3g197w","one_one","1","indirect_first","0","mm05el08","3","24","1","1","3","1","","0","1","0","null","","","<div class = 'row'><div class = 'column'><img src = 'category4/CS7.png' width = '70%;'></div><div class = 'column'><img src = 'usneg/3160.bmp' width = '100%;'></div></div>","null","neg","CS","CS","4","category4/CS7.png","","","","",""
"","html-keyboard-response","53","543929","0.0-6.0-4.0-0.5","48wr3g197w","one_one","1","indirect_first","0","mm05el08","3","24","1","1","3","1","","0","1","0","null","","","<div class = 'row'><div class = 'column'><img src = 'usneg/6212.bmp' width = '100%;'></div><div class = 'column'><img src = 'category2/CS5.png' width = '70%;'></div></div>","null","neg","CS","CS","2","category2/CS5.png","","","","",""
"","html-keyboard-response","54","546433","0.0-6.0-4.0-0.6","48wr3g197w","one_one","1","indirect_first","0","mm05el08","3","24","1","1","3","1","","0","1","0","null","","","<div class = 'row'><div class = 'column'><img src = 'category4/CS7.png' width = '70%;'></div><div class = 'column'><img src = 'usneg/3160.bmp' width = '100%;'></div></div>","null","neg","CS","CS","4","category4/CS7.png","","","","",""
"","html-keyboard-response","55","548937","0.0-6.0-4.0-0.7","48wr3g197w","one_one","1","indirect_first","0","mm05el08","3","24","1","1","3","1","","0","1","0","null","","","<div class = 'row'><div class = 'column'><img src = 'category2/CS5.png' width = '70%;'></div><div class = 'column'><img src = 'usneg/6212.bmp' width = '100%;'></div></div>","null","neg","CS","CS","2","category2/CS5.png","","","","",""
"","html-keyboard-response","56","551439","0.0-6.0-4.0-0.8","48wr3g197w","one_one","1","indirect_first","0","mm05el08","3","24","1","1","3","1","","0","1","0","null","","","<div class = 'row'><div class = 'column'><img src = 'uspos/1340.bmp' width = '100%;'></div><div class = 'column'><img src = 'category1/CS10.png' width = '70%;'></div></div>","null","pos","CS","CS","1","category1/CS10.png","","","","",""
"","html-keyboard-response","57","553942","0.0-6.0-4.0-0.9","48wr3g197w","one_one","1","indirect_first","0","mm05el08","3","24","1","1","3","1","","0","1","0","null","","","<div class = 'row'><div class = 'column'><img src = 'uspos/8490.bmp' width = '100%;'></div><div class = 'column'><img src = 'category3/CS7.png' width = '70%;'></div></div>","null","pos","CS","CS","3","category3/CS7.png","","","","",""
"","html-keyboard-response","58","556448","0.0-6.0-4.0-0.10","48wr3g197w","one_one","1","indirect_first","0","mm05el08","3","24","1","1","3","1","","0","1","0","null","","","<div class = 'row'><div class = 'column'><img src = 'category4/CS7.png' width = '70%;'></div><div class = 'column'><img src = 'usneg/3160.bmp' width = '100%;'></div></div>","null","neg","CS","CS","4","category4/CS7.png","","","","",""
"","html-keyboard-response","59","558951","0.0-6.0-4.0-0.11","48wr3g197w","one_one","1","indirect_first","0","mm05el08","3","24","1","1","3","1","","0","1","0","null","","","<div class = 'row'><div class = 'column'><img src = 'category2/CS5.png' width = '70%;'></div><div class = 'column'><img src = 'usneg/6212.bmp' width = '100%;'></div></div>","null","neg","CS","CS","2","category2/CS5.png","","","","",""
"","html-keyboard-response","60","561454","0.0-6.0-4.0-0.12","48wr3g197w","one_one","1","indirect_first","0","mm05el08","3","24","1","1","3","1","","0","1","0","null","","","<div class = 'row'><div class = 'column'><img src = 'category3/CS7.png' width = '70%;'></div><div class = 'column'><img src = 'uspos/8490.bmp' width = '100%;'></div></div>","null","pos","CS","CS","3","category3/CS7.png","","","","",""
"","html-keyboard-response","61","563956","0.0-6.0-4.0-0.13","48wr3g197w","one_one","1","indirect_first","0","mm05el08","3","24","1","1","3","1","","0","1","0","null","","","<div class = 'row'><div class = 'column'><img src = 'category4/CS7.png' width = '70%;'></div><div class = 'column'><img src = 'usneg/3160.bmp' width = '100%;'></div></div>","null","neg","CS","CS","4","category4/CS7.png","","","","",""
"","html-keyboard-response","62","566460","0.0-6.0-4.0-0.14","48wr3g197w","one_one","1","indirect_first","0","mm05el08","3","24","1","1","3","1","","0","1","0","null","","","<div class = 'row'><div class = 'column'><img src = 'category3/CS7.png' width = '70%;'></div><div class = 'column'><img src = 'uspos/8490.bmp' width = '100%;'></div></div>","null","pos","CS","CS","3","category3/CS7.png","","","","",""
"","html-keyboard-response","63","568964","0.0-6.0-4.0-0.15","48wr3g197w","one_one","1","indirect_first","0","mm05el08","3","24","1","1","3","1","","0","1","0","null","","","<div class = 'row'><div class = 'column'><img src = 'category2/CS5.png' width = '70%;'></div><div class = 'column'><img src = 'usneg/6212.bmp' width = '100%;'></div></div>","null","neg","CS","CS","2","category2/CS5.png","","","","",""
"","html-keyboard-response","64","571467","0.0-6.0-4.0-0.16","48wr3g197w","one_one","1","indirect_first","0","mm05el08","3","24","1","1","3","1","","0","1","0","null","","","<div class = 'row'><div class = 'column'><img src = 'uspos/1340.bmp' width = '100%;'></div><div class = 'column'><img src = 'category1/CS10.png' width = '70%;'></div></div>","null","pos","CS","CS","1","category1/CS10.png","","","","",""
"","html-keyboard-response","65","573970","0.0-6.0-4.0-0.17","48wr3g197w","one_one","1","indirect_first","0","mm05el08","3","24","1","1","3","1","","0","1","0","null","","","<div class = 'row'><div class = 'column'><img src = 'usneg/6212.bmp' width = '100%;'></div><div class = 'column'><img src = 'category2/CS5.png' width = '70%;'></div></div>","null","neg","CS","CS","2","category2/CS5.png","","","","",""
"","html-keyboard-response","66","576474","0.0-6.0-4.0-0.18","48wr3g197w","one_one","1","indirect_first","0","mm05el08","3","24","1","1","3","1","","0","1","0","null","","","<div class = 'row'><div class = 'column'><img src = 'uspos/1340.bmp' width = '100%;'></div><div class = 'column'><img src = 'category1/CS10.png' width = '70%;'></div></div>","null","pos","CS","CS","1","category1/CS10.png","","","","",""
"","html-keyboard-response","67","578981","0.0-6.0-4.0-0.19","48wr3g197w","one_one","1","indirect_first","0","mm05el08","3","24","1","1","3","1","","0","1","0","null","","","<div class = 'row'><div class = 'column'><img src = 'usneg/3160.bmp' width = '100%;'></div><div class = 'column'><img src = 'category4/CS7.png' width = '70%;'></div></div>","null","neg","CS","CS","4","category4/CS7.png","","","","",""
"","survey-html-form","68","581868","0.0-6.0-5.0","48wr3g197w","one_one","1","indirect_first","0","mm05el08","3","24","1","1","3","1","","0","1","0","2386","","{}","","","","","","","","","","","",""
"","html-keyboard-response","69","585874","0.0-6.0-6.0-0.0","48wr3g197w","one_one","1","indirect_first","0","mm05el08","3","24","1","1","3","1","","0","1","0","null","","","<div class = 'row'><div class = 'column'><img src = 'usneg/6212.bmp' width = '100%;'></div><div class = 'column'><img src = 'category2/CS5.png' width = '70%;'></div></div>","null","neg","CS","CS","2","category2/CS5.png","","","","",""
"","html-keyboard-response","70","588379","0.0-6.0-6.0-0.1","48wr3g197w","one_one","1","indirect_first","0","mm05el08","3","24","1","1","3","1","","0","1","0","null","","","<div class = 'row'><div class = 'column'><img src = 'usneg/3160.bmp' width = '100%;'></div><div class = 'column'><img src = 'category4/CS7.png' width = '70%;'></div></div>","null","neg","CS","CS","4","category4/CS7.png","","","","",""
"","html-keyboard-response","71","590882","0.0-6.0-6.0-0.2","48wr3g197w","one_one","1","indirect_first","0","mm05el08","3","24","1","1","3","1","","0","1","0","null","","","<div class = 'row'><div class = 'column'><img src = 'category3/CS7.png' width = '70%;'></div><div class = 'column'><img src = 'uspos/8490.bmp' width = '100%;'></div></div>","null","pos","CS","CS","3","category3/CS7.png","","","","",""
"","html-keyboard-response","72","593386","0.0-6.0-6.0-0.3","48wr3g197w","one_one","1","indirect_first","0","mm05el08","3","24","1","1","3","1","","0","1","0","null","","","<div class = 'row'><div class = 'column'><img src = 'uspos/1340.bmp' width = '100%;'></div><div class = 'column'><img src = 'category1/CS10.png' width = '70%;'></div></div>","null","pos","CS","CS","1","category1/CS10.png","","","","",""
"","html-keyboard-response","73","595890","0.0-6.0-6.0-0.4","48wr3g197w","one_one","1","indirect_first","0","mm05el08","3","24","1","1","3","1","","0","1","0","null","","","<div class = 'row'><div class = 'column'><img src = 'category4/CS7.png' width = '70%;'></div><div class = 'column'><img src = 'usneg/3160.bmp' width = '100%;'></div></div>","null","neg","CS","CS","4","category4/CS7.png","","","","",""
"","html-keyboard-response","74","598394","0.0-6.0-6.0-0.5","48wr3g197w","one_one","1","indirect_first","0","mm05el08","3","24","1","1","3","1","","0","1","0","null","","","<div class = 'row'><div class = 'column'><img src = 'category2/CS5.png' width = '70%;'></div><div class = 'column'><img src = 'usneg/6212.bmp' width = '100%;'></div></div>","null","neg","CS","CS","2","category2/CS5.png","","","","",""
"","html-keyboard-response","75","600899","0.0-6.0-6.0-0.6","48wr3g197w","one_one","1","indirect_first","0","mm05el08","3","24","1","1","3","1","","0","1","0","null","","","<div class = 'row'><div class = 'column'><img src = 'uspos/8490.bmp' width = '100%;'></div><div class = 'column'><img src = 'category3/CS7.png' width = '70%;'></div></div>","null","pos","CS","CS","3","category3/CS7.png","","","","",""
"","html-keyboard-response","76","603401","0.0-6.0-6.0-0.7","48wr3g197w","one_one","1","indirect_first","0","mm05el08","3","24","1","1","3","1","","0","1","0","null","","","<div class = 'row'><div class = 'column'><img src = 'usneg/3160.bmp' width = '100%;'></div><div class = 'column'><img src = 'category4/CS7.png' width = '70%;'></div></div>","null","neg","CS","CS","4","category4/CS7.png","","","","",""
"","html-keyboard-response","77","605905","0.0-6.0-6.0-0.8","48wr3g197w","one_one","1","indirect_first","0","mm05el08","3","24","1","1","3","1","","0","1","0","null","","","<div class = 'row'><div class = 'column'><img src = 'uspos/8490.bmp' width = '100%;'></div><div class = 'column'><img src = 'category3/CS7.png' width = '70%;'></div></div>","null","pos","CS","CS","3","category3/CS7.png","","","","",""
"","html-keyboard-response","78","608409","0.0-6.0-6.0-0.9","48wr3g197w","one_one","1","indirect_first","0","mm05el08","3","24","1","1","3","1","","0","1","0","null","","","<div class = 'row'><div class = 'column'><img src = 'usneg/6212.bmp' width = '100%;'></div><div class = 'column'><img src = 'category2/CS5.png' width = '70%;'></div></div>","null","neg","CS","CS","2","category2/CS5.png","","","","",""
"","html-keyboard-response","79","610912","0.0-6.0-6.0-0.10","48wr3g197w","one_one","1","indirect_first","0","mm05el08","3","24","1","1","3","1","","0","1","0","null","","","<div class = 'row'><div class = 'column'><img src = 'category1/CS10.png' width = '70%;'></div><div class = 'column'><img src = 'uspos/1340.bmp' width = '100%;'></div></div>","null","pos","CS","CS","1","category1/CS10.png","","","","",""
"","html-keyboard-response","80","613414","0.0-6.0-6.0-0.11","48wr3g197w","one_one","1","indirect_first","0","mm05el08","3","24","1","1","3","1","","0","1","0","null","","","<div class = 'row'><div class = 'column'><img src = 'category4/CS7.png' width = '70%;'></div><div class = 'column'><img src = 'usneg/3160.bmp' width = '100%;'></div></div>","null","neg","CS","CS","4","category4/CS7.png","","","","",""
"","html-keyboard-response","81","615917","0.0-6.0-6.0-0.12","48wr3g197w","one_one","1","indirect_first","0","mm05el08","3","24","1","1","3","1","","0","1","0","null","","","<div class = 'row'><div class = 'column'><img src = 'category1/CS10.png' width = '70%;'></div><div class = 'column'><img src = 'uspos/1340.bmp' width = '100%;'></div></div>","null","pos","CS","CS","1","category1/CS10.png","","","","",""
"","html-keyboard-response","82","618420","0.0-6.0-6.0-0.13","48wr3g197w","one_one","1","indirect_first","0","mm05el08","3","24","1","1","3","1","","0","1","0","null","","","<div class = 'row'><div class = 'column'><img src = 'usneg/3160.bmp' width = '100%;'></div><div class = 'column'><img src = 'category4/CS7.png' width = '70%;'></div></div>","null","neg","CS","CS","4","category4/CS7.png","","","","",""
"","html-keyboard-response","83","620923","0.0-6.0-6.0-0.14","48wr3g197w","one_one","1","indirect_first","0","mm05el08","3","24","1","1","3","1","","0","1","0","null","","","<div class = 'row'><div class = 'column'><img src = 'category3/CS7.png' width = '70%;'></div><div class = 'column'><img src = 'uspos/8490.bmp' width = '100%;'></div></div>","null","pos","CS","CS","3","category3/CS7.png","","","","",""
"","html-keyboard-response","84","623426","0.0-6.0-6.0-0.15","48wr3g197w","one_one","1","indirect_first","0","mm05el08","3","24","1","1","3","1","","0","1","0","null","","","<div class = 'row'><div class = 'column'><img src = 'usneg/6212.bmp' width = '100%;'></div><div class = 'column'><img src = 'category2/CS5.png' width = '70%;'></div></div>","null","neg","CS","CS","2","category2/CS5.png","","","","",""
"","html-keyboard-response","85","625931","0.0-6.0-6.0-0.16","48wr3g197w","one_one","1","indirect_first","0","mm05el08","3","24","1","1","3","1","","0","1","0","null","","","<div class = 'row'><div class = 'column'><img src = 'category1/CS10.png' width = '70%;'></div><div class = 'column'><img src = 'uspos/1340.bmp' width = '100%;'></div></div>","null","pos","CS","CS","1","category1/CS10.png","","","","",""
"","html-keyboard-response","86","628434","0.0-6.0-6.0-0.17","48wr3g197w","one_one","1","indirect_first","0","mm05el08","3","24","1","1","3","1","","0","1","0","null","","","<div class = 'row'><div class = 'column'><img src = 'uspos/8490.bmp' width = '100%;'></div><div class = 'column'><img src = 'category3/CS7.png' width = '70%;'></div></div>","null","pos","CS","CS","3","category3/CS7.png","","","","",""
"","html-keyboard-response","87","630940","0.0-6.0-6.0-0.18","48wr3g197w","one_one","1","indirect_first","0","mm05el08","3","24","1","1","3","1","","0","1","0","null","","","<div class = 'row'><div class = 'column'><img src = 'category2/CS5.png' width = '70%;'></div><div class = 'column'><img src = 'usneg/6212.bmp' width = '100%;'></div></div>","null","neg","CS","CS","2","category2/CS5.png","","","","",""
"","html-keyboard-response","88","633442","0.0-6.0-6.0-0.19","48wr3g197w","one_one","1","indirect_first","0","mm05el08","3","24","1","1","3","1","","0","1","0","null","","","<div class = 'row'><div class = 'column'><img src = 'uspos/1340.bmp' width = '100%;'></div><div class = 'column'><img src = 'category1/CS10.png' width = '70%;'></div></div>","null","pos","CS","CS","1","category1/CS10.png","","","","",""
"","html-keyboard-response","89","690873","0.0-7.0","48wr3g197w","one_one","1","indirect_first","0","mm05el08","3","24","1","1","3","1","","0","1","0","56924","","","<p>Sie sehen nun die chinesischen Zeichen nur ganz kurz. Danach sehen Sie die jeweilige Aussprache der Zeichen als Silbe auf dem Bildschrim. Ihre Aufgabe ist es, für jede Silbe anzugeben, ob diese etwas angenehmes, oder unangenehmes bedeuten könnte. Verlassen Sie sich hier vor allem auf Ihre Intuition.<br><br>Die Zeichen werden nur zur Orientierung dargestellt, beachten Sie sie deshalb nicht. Konzentrieren Sie sich vor allem auf die Silben. <br>Reagieren Sie mit folgenden zwei Tasten: <br><br><b>'D' </b> wenn die Silbe etwas <b>unangenehmes</b> bedeuten könnte. <br><b>'K'</b> wenn die Silbe etwas <b>angenehmes</b> bedeuten könnte. <br><br>Bitte legen Sie nun den Zeigefinger der linken Hand auf die Taste 'D' und den Zeigefinger der rechten Hand auf die Taste 'K'. <br>Reagieren Sie auf jede Silbe so schnell wie möglich. Uns interessiert Ihre spontane Reaktion. <br> <br> <br>Drücken Sie 'D' oder 'K', um die nächste Aufgabe zu starten. </p>","68","","","","","","","","","",""
"","html-keyboard-response","90","693874","0.0-8.0-0.0","48wr3g197w","one_one","1","indirect_first","0","mm05el08","3","24","1","1","3","1","","0","1","0","null","","","<div style=""font-size:60px;"">+</div>","null","","","","","","","","","",""
"","html-keyboard-response","91","693967","0.0-8.0-1.0","48wr3g197w","one_one","1","indirect_first","0","mm05el08","3","24","1","1","3","1","","0","1","0","null","","","<img src = 'category1/CS6.png' width = '100%;'>","null","","","","","","","","","",""
"","html-keyboard-response","92","694222","0.0-8.0-2.0","48wr3g197w","one_one","1","indirect_first","0","mm05el08","3","24","1","1","3","1","","0","1","0","null","","","<img src = 'targets/42.png' width = '100%;'>","null","","","","","","","","","",""
"","html-keyboard-response","93","697162","0.0-8.0-3.0","48wr3g197w","one_one","1","indirect_first","0","mm05el08","3","24","1","1","3","1","","0","1","0","2938","","","<img src = 'targets/mask.png' width = '100%;'>","68","pos","GS","GSold","1","category1/CS6.png","targets/42.png","0","indirect","0",""
"","html-keyboard-response","94","698665","0.0-8.0-0.1","48wr3g197w","one_one","1","indirect_first","0","mm05el08","3","24","1","1","3","1","","0","1","0","null","","","<div style=""font-size:60px;"">+</div>","null","","","","","","","","","",""
"","html-keyboard-response","95","698759","0.0-8.0-1.1","48wr3g197w","one_one","1","indirect_first","0","mm05el08","3","24","1","1","3","1","","0","1","0","null","","","<img src = 'category2/CS5.png' width = '100%;'>","null","","","","","","","","","",""
"","html-keyboard-response","96","699012","0.0-8.0-2.1","48wr3g197w","one_one","1","indirect_first","0","mm05el08","3","24","1","1","3","1","","0","1","0","null","","","<img src = 'targets/41.png' width = '100%;'>","null","","","","","","","","","",""
"","html-keyboard-response","97","701838","0.0-8.0-3.1","48wr3g197w","one_one","1","indirect_first","0","mm05el08","3","24","1","1","3","1","","0","1","0","2825","","","<img src = 'targets/mask.png' width = '100%;'>","75","neg","CS","CS","2","category2/CS5.png","targets/41.png","1","indirect","1",""
"","html-keyboard-response","98","703341","0.0-8.0-0.2","48wr3g197w","one_one","1","indirect_first","0","mm05el08","3","24","1","1","3","1","","0","1","0","null","","","<div style=""font-size:60px;"">+</div>","null","","","","","","","","","",""
"","html-keyboard-response","99","703434","0.0-8.0-1.2","48wr3g197w","one_one","1","indirect_first","0","mm05el08","3","24","1","1","3","1","","0","1","0","null","","","<img src = 'category1/CS10.png' width = '100%;'>","null","","","","","","","","","",""
"","html-keyboard-response","100","703686","0.0-8.0-2.2","48wr3g197w","one_one","1","indirect_first","0","mm05el08","3","24","1","1","3","1","","0","1","0","null","","","<img src = 'targets/48.png' width = '100%;'>","null","","","","","","","","","",""
"","html-keyboard-response","101","707597","0.0-8.0-3.2","48wr3g197w","one_one","1","indirect_first","0","mm05el08","3","24","1","1","3","1","","0","1","0","3910","","","<img src = 'targets/mask.png' width = '100%;'>","68","pos","CS","CS","1","category1/CS10.png","targets/48.png","0","indirect","2",""
"","html-keyboard-response","102","709100","0.0-8.0-0.3","48wr3g197w","one_one","1","indirect_first","0","mm05el08","3","24","1","1","3","1","","0","1","0","null","","","<div style=""font-size:60px;"">+</div>","null","","","","","","","","","",""
"","html-keyboard-response","103","709193","0.0-8.0-1.3","48wr3g197w","one_one","1","indirect_first","0","mm05el08","3","24","1","1","3","1","","0","1","0","null","","","<img src = 'category4/CS2.png' width = '100%;'>","null","","","","","","","","","",""
"","html-keyboard-response","104","709447","0.0-8.0-2.3","48wr3g197w","one_one","1","indirect_first","0","mm05el08","3","24","1","1","3","1","","0","1","0","null","","","<img src = 'targets/15.png' width = '100%;'>","null","","","","","","","","","",""
"","html-keyboard-response","105","712269","0.0-8.0-3.3","48wr3g197w","one_one","1","indirect_first","0","mm05el08","3","24","1","1","3","1","","0","1","0","2819","","","<img src = 'targets/mask.png' width = '100%;'>","75","neg","GS","GSold","4","category4/CS2.png","targets/15.png","1","indirect","3",""
"","html-keyboard-response","106","713773","0.0-8.0-0.4","48wr3g197w","one_one","1","indirect_first","0","mm05el08","3","24","1","1","3","1","","0","1","0","null","","","<div style=""font-size:60px;"">+</div>","null","","","","","","","","","",""
"","html-keyboard-response","107","713864","0.0-8.0-1.4","48wr3g197w","one_one","1","indirect_first","0","mm05el08","3","24","1","1","3","1","","0","1","0","null","","","<img src = 'category1/CS4.png' width = '100%;'>","null","","","","","","","","","",""
"","html-keyboard-response","108","714117","0.0-8.0-2.4","48wr3g197w","one_one","1","indirect_first","0","mm05el08","3","24","1","1","3","1","","0","1","0","null","","","<img src = 'targets/35.png' width = '100%;'>","null","","","","","","","","","",""
"","html-keyboard-response","109","716984","0.0-8.0-3.4","48wr3g197w","one_one","1","indirect_first","0","mm05el08","3","24","1","1","3","1","","0","1","0","2865","","","<img src = 'targets/mask.png' width = '100%;'>","68","pos","GS","GSold","1","category1/CS4.png","targets/35.png","0","indirect","4",""
"","html-keyboard-response","110","718487","0.0-8.0-0.5","48wr3g197w","one_one","1","indirect_first","0","mm05el08","3","24","1","1","3","1","","0","1","0","null","","","<div style=""font-size:60px;"">+</div>","null","","","","","","","","","",""
"","html-keyboard-response","111","718580","0.0-8.0-1.5","48wr3g197w","one_one","1","indirect_first","0","mm05el08","3","24","1","1","3","1","","0","1","0","null","","","<img src = 'category2/CS4.png' width = '100%;'>","null","","","","","","","","","",""
"","html-keyboard-response","112","718832","0.0-8.0-2.5","48wr3g197w","one_one","1","indirect_first","0","mm05el08","3","24","1","1","3","1","","0","1","0","null","","","<img src = 'targets/33.png' width = '100%;'>","null","","","","","","","","","",""
"","html-keyboard-response","113","721560","0.0-8.0-3.5","48wr3g197w","one_one","1","indirect_first","0","mm05el08","3","24","1","1","3","1","","0","1","0","2726","","","<img src = 'targets/mask.png' width = '100%;'>","68","neg","GS","GSold","2","category2/CS4.png","targets/33.png","0","indirect","5",""
"","html-keyboard-response","114","723061","0.0-8.0-0.6","48wr3g197w","one_one","1","indirect_first","0","mm05el08","3","24","1","1","3","1","","0","1","0","null","","","<div style=""font-size:60px;"">+</div>","null","","","","","","","","","",""
"","html-keyboard-response","115","723153","0.0-8.0-1.6","48wr3g197w","one_one","1","indirect_first","0","mm05el08","3","24","1","1","3","1","","0","1","0","null","","","<img src = 'category4/CS3.png' width = '100%;'>","null","","","","","","","","","",""
"","html-keyboard-response","116","723406","0.0-8.0-2.6","48wr3g197w","one_one","1","indirect_first","0","mm05el08","3","24","1","1","3","1","","0","1","0","null","","","<img src = 'targets/1.png' width = '100%;'>","null","","","","","","","","","",""
"","html-keyboard-response","117","724950","0.0-8.0-3.6","48wr3g197w","one_one","1","indirect_first","0","mm05el08","3","24","1","1","3","1","","0","1","0","1541","","","<img src = 'targets/mask.png' width = '100%;'>","75","neg","GS","GSold","4","category4/CS3.png","targets/1.png","1","indirect","6",""
"","html-keyboard-response","118","726453","0.0-8.0-0.7","48wr3g197w","one_one","1","indirect_first","0","mm05el08","3","24","1","1","3","1","","0","1","0","null","","","<div style=""font-size:60px;"">+</div>","null","","","","","","","","","",""
"","html-keyboard-response","119","726544","0.0-8.0-1.7","48wr3g197w","one_one","1","indirect_first","0","mm05el08","3","24","1","1","3","1","","0","1","0","null","","","<img src = 'category1/CS7.png' width = '100%;'>","null","","","","","","","","","",""
"","html-keyboard-response","120","726797","0.0-8.0-2.7","48wr3g197w","one_one","1","indirect_first","0","mm05el08","3","24","1","1","3","1","","0","1","0","null","","","<img src = 'targets/4.png' width = '100%;'>","null","","","","","","","","","",""
"","html-keyboard-response","121","728048","0.0-8.0-3.7","48wr3g197w","one_one","1","indirect_first","0","mm05el08","3","24","1","1","3","1","","0","1","0","1248","","","<img src = 'targets/mask.png' width = '100%;'>","75","pos","GS","GSold","1","category1/CS7.png","targets/4.png","1","indirect","7",""
"","html-keyboard-response","122","729551","0.0-8.0-0.8","48wr3g197w","one_one","1","indirect_first","0","mm05el08","3","24","1","1","3","1","","0","1","0","null","","","<div style=""font-size:60px;"">+</div>","null","","","","","","","","","",""
"","html-keyboard-response","123","729641","0.0-8.0-1.8","48wr3g197w","one_one","1","indirect_first","0","mm05el08","3","24","1","1","3","1","","0","1","0","null","","","<img src = 'category2/CS3.png' width = '100%;'>","null","","","","","","","","","",""
"","html-keyboard-response","124","729893","0.0-8.0-2.8","48wr3g197w","one_one","1","indirect_first","0","mm05el08","3","24","1","1","3","1","","0","1","0","null","","","<img src = 'targets/40.png' width = '100%;'>","null","","","","","","","","","",""
"","html-keyboard-response","125","731647","0.0-8.0-3.8","48wr3g197w","one_one","1","indirect_first","0","mm05el08","3","24","1","1","3","1","","0","1","0","1750","","","<img src = 'targets/mask.png' width = '100%;'>","75","neg","GS","GSold","2","category2/CS3.png","targets/40.png","1","indirect","8",""
"","html-keyboard-response","126","733150","0.0-8.0-0.9","48wr3g197w","one_one","1","indirect_first","0","mm05el08","3","24","1","1","3","1","","0","1","0","null","","","<div style=""font-size:60px;"">+</div>","null","","","","","","","","","",""
"","html-keyboard-response","127","733241","0.0-8.0-1.9","48wr3g197w","one_one","1","indirect_first","0","mm05el08","3","24","1","1","3","1","","0","1","0","null","","","<img src = 'category3/CS7.png' width = '100%;'>","null","","","","","","","","","",""
"","html-keyboard-response","128","733495","0.0-8.0-2.9","48wr3g197w","one_one","1","indirect_first","0","mm05el08","3","24","1","1","3","1","","0","1","0","null","","","<img src = 'targets/12.png' width = '100%;'>","null","","","","","","","","","",""
"","html-keyboard-response","129","735112","0.0-8.0-3.9","48wr3g197w","one_one","1","indirect_first","0","mm05el08","3","24","1","1","3","1","","0","1","0","1615","","","<img src = 'targets/mask.png' width = '100%;'>","75","pos","CS","CS","3","category3/CS7.png","targets/12.png","1","indirect","9",""
"","html-keyboard-response","130","736613","0.0-8.0-0.10","48wr3g197w","one_one","1","indirect_first","0","mm05el08","3","24","1","1","3","1","","0","1","0","null","","","<div style=""font-size:60px;"">+</div>","null","","","","","","","","","",""
"","html-keyboard-response","131","736704","0.0-8.0-1.10","48wr3g197w","one_one","1","indirect_first","0","mm05el08","3","24","1","1","3","1","","0","1","0","null","","","<img src = 'category3/CS10.png' width = '100%;'>","null","","","","","","","","","",""
"","html-keyboard-response","132","736956","0.0-8.0-2.10","48wr3g197w","one_one","1","indirect_first","0","mm05el08","3","24","1","1","3","1","","0","1","0","null","","","<img src = 'targets/20.png' width = '100%;'>","null","","","","","","","","","",""
"","html-keyboard-response","133","738172","0.0-8.0-3.10","48wr3g197w","one_one","1","indirect_first","0","mm05el08","3","24","1","1","3","1","","0","1","0","1214","","","<img src = 'targets/mask.png' width = '100%;'>","68","pos","GS","GSold","3","category3/CS10.png","targets/20.png","0","indirect","10",""
"","html-keyboard-response","134","739673","0.0-8.0-0.11","48wr3g197w","one_one","1","indirect_first","0","mm05el08","3","24","1","1","3","1","","0","1","0","null","","","<div style=""font-size:60px;"">+</div>","null","","","","","","","","","",""
"","html-keyboard-response","135","739766","0.0-8.0-1.11","48wr3g197w","one_one","1","indirect_first","0","mm05el08","3","24","1","1","3","1","","0","1","0","null","","","<img src = 'category4/CS5.png' width = '100%;'>","null","","","","","","","","","",""
"","html-keyboard-response","136","740019","0.0-8.0-2.11","48wr3g197w","one_one","1","indirect_first","0","mm05el08","3","24","1","1","3","1","","0","1","0","null","","","<img src = 'targets/2.png' width = '100%;'>","null","","","","","","","","","",""
"","html-keyboard-response","137","742173","0.0-8.0-3.11","48wr3g197w","one_one","1","indirect_first","0","mm05el08","3","24","1","1","3","1","","0","1","0","2152","","","<img src = 'targets/mask.png' width = '100%;'>","68","neg","GS","GSold","4","category4/CS5.png","targets/2.png","0","indirect","11",""
"","html-keyboard-response","138","743675","0.0-8.0-0.12","48wr3g197w","one_one","1","indirect_first","0","mm05el08","3","24","1","1","3","1","","0","1","0","null","","","<div style=""font-size:60px;"">+</div>","null","","","","","","","","","",""
"","html-keyboard-response","139","743767","0.0-8.0-1.12","48wr3g197w","one_one","1","indirect_first","0","mm05el08","3","24","1","1","3","1","","0","1","0","null","","","<img src = 'category4/CS7.png' width = '100%;'>","null","","","","","","","","","",""
"","html-keyboard-response","140","744020","0.0-8.0-2.12","48wr3g197w","one_one","1","indirect_first","0","mm05el08","3","24","1","1","3","1","","0","1","0","null","","","<img src = 'targets/39.png' width = '100%;'>","null","","","","","","","","","",""
"","html-keyboard-response","141","745757","0.0-8.0-3.12","48wr3g197w","one_one","1","indirect_first","0","mm05el08","3","24","1","1","3","1","","0","1","0","1735","","","<img src = 'targets/mask.png' width = '100%;'>","75","neg","CS","CS","4","category4/CS7.png","targets/39.png","1","indirect","12",""
"","html-keyboard-response","142","747259","0.0-8.0-0.13","48wr3g197w","one_one","1","indirect_first","0","mm05el08","3","24","1","1","3","1","","0","1","0","null","","","<div style=""font-size:60px;"">+</div>","null","","","","","","","","","",""
"","html-keyboard-response","143","747350","0.0-8.0-1.13","48wr3g197w","one_one","1","indirect_first","0","mm05el08","3","24","1","1","3","1","","0","1","0","null","","","<img src = 'category3/CS2.png' width = '100%;'>","null","","","","","","","","","",""
"","html-keyboard-response","144","747603","0.0-8.0-2.13","48wr3g197w","one_one","1","indirect_first","0","mm05el08","3","24","1","1","3","1","","0","1","0","null","","","<img src = 'targets/10.png' width = '100%;'>","null","","","","","","","","","",""
"","html-keyboard-response","145","749028","0.0-8.0-3.13","48wr3g197w","one_one","1","indirect_first","0","mm05el08","3","24","1","1","3","1","","0","1","0","1423","","","<img src = 'targets/mask.png' width = '100%;'>","68","pos","GS","GSold","3","category3/CS2.png","targets/10.png","0","indirect","13",""
"","html-keyboard-response","146","750531","0.0-8.0-0.14","48wr3g197w","one_one","1","indirect_first","0","mm05el08","3","24","1","1","3","1","","0","1","0","null","","","<div style=""font-size:60px;"">+</div>","null","","","","","","","","","",""
"","html-keyboard-response","147","750623","0.0-8.0-1.14","48wr3g197w","one_one","1","indirect_first","0","mm05el08","3","24","1","1","3","1","","0","1","0","null","","","<img src = 'category3/CS6.png' width = '100%;'>","null","","","","","","","","","",""
"","html-keyboard-response","148","750877","0.0-8.0-2.14","48wr3g197w","one_one","1","indirect_first","0","mm05el08","3","24","1","1","3","1","","0","1","0","null","","","<img src = 'targets/29.png' width = '100%;'>","null","","","","","","","","","",""
"","html-keyboard-response","149","751998","0.0-8.0-3.14","48wr3g197w","one_one","1","indirect_first","0","mm05el08","3","24","1","1","3","1","","0","1","0","1120","","","<img src = 'targets/mask.png' width = '100%;'>","75","pos","GS","GSold","3","category3/CS6.png","targets/29.png","1","indirect","14",""
"","html-keyboard-response","150","753499","0.0-8.0-0.15","48wr3g197w","one_one","1","indirect_first","0","mm05el08","3","24","1","1","3","1","","0","1","0","null","","","<div style=""font-size:60px;"">+</div>","null","","","","","","","","","",""
"","html-keyboard-response","151","753592","0.0-8.0-1.15","48wr3g197w","one_one","1","indirect_first","0","mm05el08","3","24","1","1","3","1","","0","1","0","null","","","<img src = 'category2/CS9.png' width = '100%;'>","null","","","","","","","","","",""
"","html-keyboard-response","152","753846","0.0-8.0-2.15","48wr3g197w","one_one","1","indirect_first","0","mm05el08","3","24","1","1","3","1","","0","1","0","null","","","<img src = 'targets/22.png' width = '100%;'>","null","","","","","","","","","",""
"","html-keyboard-response","153","757927","0.0-8.0-3.15","48wr3g197w","one_one","1","indirect_first","0","mm05el08","3","24","1","1","3","1","","0","1","0","4076","","","<img src = 'targets/mask.png' width = '100%;'>","75","neg","GS","GSold","2","category2/CS9.png","targets/22.png","1","indirect","15",""
"","survey-html-form","154","761122","0.0-9.0","48wr3g197w","one_one","1","indirect_first","0","mm05el08","3","24","1","1","3","1","","0","1","0","2695","","{}","","","","","","","","","","","",""
"","html-keyboard-response","155","764126","0.0-10.0-0.0","48wr3g197w","one_one","1","indirect_first","0","mm05el08","3","24","1","1","3","1","","0","1","0","null","","","<div style=""font-size:60px;"">+</div>","null","","","","","","","","","",""
"","html-keyboard-response","156","764219","0.0-10.0-1.0","48wr3g197w","one_one","1","indirect_first","0","mm05el08","3","24","1","1","3","1","","0","1","0","null","","","<img src = 'category3/GS3.png' width = '100%;'>","null","","","","","","","","","",""
"","html-keyboard-response","157","764472","0.0-10.0-2.0","48wr3g197w","one_one","1","indirect_first","0","mm05el08","3","24","1","1","3","1","","0","1","0","null","","","<img src = 'targets/34.png' width = '100%;'>","null","","","","","","","","","",""
"","html-keyboard-response","158","767453","0.0-10.0-3.0","48wr3g197w","one_one","1","indirect_first","0","mm05el08","3","24","1","1","3","1","","0","1","0","2979","","","<img src = 'targets/mask.png' width = '100%;'>","75","pos","GS","GSnew","3","category3/GS3.png","targets/34.png","1","indirect","16",""
"","html-keyboard-response","159","768957","0.0-10.0-0.1","48wr3g197w","one_one","1","indirect_first","0","mm05el08","3","24","1","1","3","1","","0","1","0","null","","","<div style=""font-size:60px;"">+</div>","null","","","","","","","","","",""
"","html-keyboard-response","160","769050","0.0-10.0-1.1","48wr3g197w","one_one","1","indirect_first","0","mm05el08","3","24","1","1","3","1","","0","1","0","null","","","<img src = 'category3/GS2.png' width = '100%;'>","null","","","","","","","","","",""
"","html-keyboard-response","161","769302","0.0-10.0-2.1","48wr3g197w","one_one","1","indirect_first","0","mm05el08","3","24","1","1","3","1","","0","1","0","null","","","<img src = 'targets/45.png' width = '100%;'>","null","","","","","","","","","",""
"","html-keyboard-response","162","770400","0.0-10.0-3.1","48wr3g197w","one_one","1","indirect_first","0","mm05el08","3","24","1","1","3","1","","0","1","0","1096","","","<img src = 'targets/mask.png' width = '100%;'>","68","pos","GS","GSnew","3","category3/GS2.png","targets/45.png","0","indirect","17",""
"","html-keyboard-response","163","771900","0.0-10.0-0.2","48wr3g197w","one_one","1","indirect_first","0","mm05el08","3","24","1","1","3","1","","0","1","0","null","","","<div style=""font-size:60px;"">+</div>","null","","","","","","","","","",""
"","html-keyboard-response","164","771996","0.0-10.0-1.2","48wr3g197w","one_one","1","indirect_first","0","mm05el08","3","24","1","1","3","1","","0","1","0","null","","","<img src = 'category1/ma.png' width = '100%;'>","null","","","","","","","","","",""
"","html-keyboard-response","165","772248","0.0-10.0-2.2","48wr3g197w","one_one","1","indirect_first","0","mm05el08","3","24","1","1","3","1","","0","1","0","null","","","<img src = 'targets/13.png' width = '100%;'>","null","","","","","","","","","",""
"","html-keyboard-response","166","773151","0.0-10.0-3.2","48wr3g197w","one_one","1","indirect_first","0","mm05el08","3","24","1","1","3","1","","0","1","0","902","","","<img src = 'targets/mask.png' width = '100%;'>","75","pos","GS","abstract","1","category1/ma.png","targets/13.png","1","indirect","18",""
"","html-keyboard-response","167","774653","0.0-10.0-0.3","48wr3g197w","one_one","1","indirect_first","0","mm05el08","3","24","1","1","3","1","","0","1","0","null","","","<div style=""font-size:60px;"">+</div>","null","","","","","","","","","",""
"","html-keyboard-response","168","774747","0.0-10.0-1.3","48wr3g197w","one_one","1","indirect_first","0","mm05el08","3","24","1","1","3","1","","0","1","0","null","","","<img src = 'category2/GS3.png' width = '100%;'>","null","","","","","","","","","",""
"","html-keyboard-response","169","775000","0.0-10.0-2.3","48wr3g197w","one_one","1","indirect_first","0","mm05el08","3","24","1","1","3","1","","0","1","0","null","","","<img src = 'targets/37.png' width = '100%;'>","null","","","","","","","","","",""
"","html-keyboard-response","170","777088","0.0-10.0-3.3","48wr3g197w","one_one","1","indirect_first","0","mm05el08","3","24","1","1","3","1","","0","1","0","2086","","","<img src = 'targets/mask.png' width = '100%;'>","75","neg","GS","GSnew","2","category2/GS3.png","targets/37.png","1","indirect","19",""
"","html-keyboard-response","171","778591","0.0-10.0-0.4","48wr3g197w","one_one","1","indirect_first","0","mm05el08","3","24","1","1","3","1","","0","1","0","null","","","<div style=""font-size:60px;"">+</div>","null","","","","","","","","","",""
"","html-keyboard-response","172","778687","0.0-10.0-1.4","48wr3g197w","one_one","1","indirect_first","0","mm05el08","3","24","1","1","3","1","","0","1","0","null","","","<img src = 'category2/men.png' width = '100%;'>","null","","","","","","","","","",""
"","html-keyboard-response","173","778939","0.0-10.0-2.4","48wr3g197w","one_one","1","indirect_first","0","mm05el08","3","24","1","1","3","1","","0","1","0","null","","","<img src = 'targets/21.png' width = '100%;'>","null","","","","","","","","","",""
"","html-keyboard-response","174","779888","0.0-10.0-3.4","48wr3g197w","one_one","1","indirect_first","0","mm05el08","3","24","1","1","3","1","","0","1","0","947","","","<img src = 'targets/mask.png' width = '100%;'>","68","neg","GS","abstract","2","category2/men.png","targets/21.png","0","indirect","20",""
"","html-keyboard-response","175","781392","0.0-10.0-0.5","48wr3g197w","one_one","1","indirect_first","0","mm05el08","3","24","1","1","3","1","","0","1","0","null","","","<div style=""font-size:60px;"">+</div>","null","","","","","","","","","",""
"","html-keyboard-response","176","781487","0.0-10.0-1.5","48wr3g197w","one_one","1","indirect_first","0","mm05el08","3","24","1","1","3","1","","0","1","0","null","","","<img src = 'category4/lin.png' width = '100%;'>","null","","","","","","","","","",""
"","html-keyboard-response","177","781740","0.0-10.0-2.5","48wr3g197w","one_one","1","indirect_first","0","mm05el08","3","24","1","1","3","1","","0","1","0","null","","","<img src = 'targets/24.png' width = '100%;'>","null","","","","","","","","","",""
"","html-keyboard-response","178","783014","0.0-10.0-3.5","48wr3g197w","one_one","1","indirect_first","0","mm05el08","3","24","1","1","3","1","","0","1","0","1273","","","<img src = 'targets/mask.png' width = '100%;'>","75","neg","GS","abstract","4","category4/lin.png","targets/24.png","1","indirect","21",""
"","html-keyboard-response","179","784515","0.0-10.0-0.6","48wr3g197w","one_one","1","indirect_first","0","mm05el08","3","24","1","1","3","1","","0","1","0","null","","","<div style=""font-size:60px;"">+</div>","null","","","","","","","","","",""
"","html-keyboard-response","180","784608","0.0-10.0-1.6","48wr3g197w","one_one","1","indirect_first","0","mm05el08","3","24","1","1","3","1","","0","1","0","null","","","<img src = 'category2/GS1.png' width = '100%;'>","null","","","","","","","","","",""
"","html-keyboard-response","181","784859","0.0-10.0-2.6","48wr3g197w","one_one","1","indirect_first","0","mm05el08","3","24","1","1","3","1","","0","1","0","null","","","<img src = 'targets/17.png' width = '100%;'>","null","","","","","","","","","",""
"","html-keyboard-response","182","786279","0.0-10.0-3.6","48wr3g197w","one_one","1","indirect_first","0","mm05el08","3","24","1","1","3","1","","0","1","0","1419","","","<img src = 'targets/mask.png' width = '100%;'>","75","neg","GS","GSnew","2","category2/GS1.png","targets/17.png","1","indirect","22",""
"","html-keyboard-response","183","787782","0.0-10.0-0.7","48wr3g197w","one_one","1","indirect_first","0","mm05el08","3","24","1","1","3","1","","0","1","0","null","","","<div style=""font-size:60px;"">+</div>","null","","","","","","","","","",""
"","html-keyboard-response","184","787874","0.0-10.0-1.7","48wr3g197w","one_one","1","indirect_first","0","mm05el08","3","24","1","1","3","1","","0","1","0","null","","","<img src = 'category3/GS1.png' width = '100%;'>","null","","","","","","","","","",""
"","html-keyboard-response","185","788127","0.0-10.0-2.7","48wr3g197w","one_one","1","indirect_first","0","mm05el08","3","24","1","1","3","1","","0","1","0","null","","","<img src = 'targets/5.png' width = '100%;'>","null","","","","","","","","","",""
"","html-keyboard-response","186","789427","0.0-10.0-3.7","48wr3g197w","one_one","1","indirect_first","0","mm05el08","3","24","1","1","3","1","","0","1","0","1298","","","<img src = 'targets/mask.png' width = '100%;'>","75","pos","GS","GSnew","3","category3/GS1.png","targets/5.png","1","indirect","23",""
"","html-keyboard-response","187","790931","0.0-10.0-0.8","48wr3g197w","one_one","1","indirect_first","0","mm05el08","3","24","1","1","3","1","","0","1","0","null","","","<div style=""font-size:60px;"">+</div>","null","","","","","","","","","",""
"","html-keyboard-response","188","791022","0.0-10.0-1.8","48wr3g197w","one_one","1","indirect_first","0","mm05el08","3","24","1","1","3","1","","0","1","0","null","","","<img src = 'category2/GS2.png' width = '100%;'>","null","","","","","","","","","",""
"","html-keyboard-response","189","791275","0.0-10.0-2.8","48wr3g197w","one_one","1","indirect_first","0","mm05el08","3","24","1","1","3","1","","0","1","0","null","","","<img src = 'targets/30.png' width = '100%;'>","null","","","","","","","","","",""
"","html-keyboard-response","190","792068","0.0-10.0-3.8","48wr3g197w","one_one","1","indirect_first","0","mm05el08","3","24","1","1","3","1","","0","1","0","792","","","<img src = 'targets/mask.png' width = '100%;'>","68","neg","GS","GSnew","2","category2/GS2.png","targets/30.png","0","indirect","24",""
"","html-keyboard-response","191","793570","0.0-10.0-0.9","48wr3g197w","one_one","1","indirect_first","0","mm05el08","3","24","1","1","3","1","","0","1","0","null","","","<div style=""font-size:60px;"">+</div>","null","","","","","","","","","",""
"","html-keyboard-response","192","793664","0.0-10.0-1.9","48wr3g197w","one_one","1","indirect_first","0","mm05el08","3","24","1","1","3","1","","0","1","0","null","","","<img src = 'category4/GS3.png' width = '100%;'>","null","","","","","","","","","",""
"","html-keyboard-response","193","793918","0.0-10.0-2.9","48wr3g197w","one_one","1","indirect_first","0","mm05el08","3","24","1","1","3","1","","0","1","0","null","","","<img src = 'targets/36.png' width = '100%;'>","null","","","","","","","","","",""
"","html-keyboard-response","194","796148","0.0-10.0-3.9","48wr3g197w","one_one","1","indirect_first","0","mm05el08","3","24","1","1","3","1","","0","1","0","2228","","","<img src = 'targets/mask.png' width = '100%;'>","68","neg","GS","GSnew","4","category4/GS3.png","targets/36.png","0","indirect","25",""
"","html-keyboard-response","195","797651","0.0-10.0-0.10","48wr3g197w","one_one","1","indirect_first","0","mm05el08","3","24","1","1","3","1","","0","1","0","null","","","<div style=""font-size:60px;"">+</div>","null","","","","","","","","","",""
"","html-keyboard-response","196","797744","0.0-10.0-1.10","48wr3g197w","one_one","1","indirect_first","0","mm05el08","3","24","1","1","3","1","","0","1","0","null","","","<img src = 'category3/wang.png' width = '100%;'>","null","","","","","","","","","",""
"","html-keyboard-response","197","797996","0.0-10.0-2.10","48wr3g197w","one_one","1","indirect_first","0","mm05el08","3","24","1","1","3","1","","0","1","0","null","","","<img src = 'targets/3.png' width = '100%;'>","null","","","","","","","","","",""
"","html-keyboard-response","198","799443","0.0-10.0-3.10","48wr3g197w","one_one","1","indirect_first","0","mm05el08","3","24","1","1","3","1","","0","1","0","1445","","","<img src = 'targets/mask.png' width = '100%;'>","75","pos","GS","abstract","3","category3/wang.png","targets/3.png","1","indirect","26",""
"","html-keyboard-response","199","800947","0.0-10.0-0.11","48wr3g197w","one_one","1","indirect_first","0","mm05el08","3","24","1","1","3","1","","0","1","0","null","","","<div style=""font-size:60px;"">+</div>","null","","","","","","","","","",""
"","html-keyboard-response","200","801041","0.0-10.0-1.11","48wr3g197w","one_one","1","indirect_first","0","mm05el08","3","24","1","1","3","1","","0","1","0","null","","","<img src = 'category1/GS1.png' width = '100%;'>","null","","","","","","","","","",""
"","html-keyboard-response","201","801292","0.0-10.0-2.11","48wr3g197w","one_one","1","indirect_first","0","mm05el08","3","24","1","1","3","1","","0","1","0","null","","","<img src = 'targets/7.png' width = '100%;'>","null","","","","","","","","","",""
"","html-keyboard-response","202","802732","0.0-10.0-3.11","48wr3g197w","one_one","1","indirect_first","0","mm05el08","3","24","1","1","3","1","","0","1","0","1436","","","<img src = 'targets/mask.png' width = '100%;'>","75","pos","GS","GSnew","1","category1/GS1.png","targets/7.png","1","indirect","27",""
"","html-keyboard-response","203","804233","0.0-10.0-0.12","48wr3g197w","one_one","1","indirect_first","0","mm05el08","3","24","1","1","3","1","","0","1","0","null","","","<div style=""font-size:60px;"">+</div>","null","","","","","","","","","",""
"","html-keyboard-response","204","804326","0.0-10.0-1.12","48wr3g197w","one_one","1","indirect_first","0","mm05el08","3","24","1","1","3","1","","0","1","0","null","","","<img src = 'category4/GS2.png' width = '100%;'>","null","","","","","","","","","",""
"","html-keyboard-response","205","804577","0.0-10.0-2.12","48wr3g197w","one_one","1","indirect_first","0","mm05el08","3","24","1","1","3","1","","0","1","0","null","","","<img src = 'targets/44.png' width = '100%;'>","null","","","","","","","","","",""
"","html-keyboard-response","206","805923","0.0-10.0-3.12","48wr3g197w","one_one","1","indirect_first","0","mm05el08","3","24","1","1","3","1","","0","1","0","1344","","","<img src = 'targets/mask.png' width = '100%;'>","75","neg","GS","GSnew","4","category4/GS2.png","targets/44.png","1","indirect","28",""
"","html-keyboard-response","207","807426","0.0-10.0-0.13","48wr3g197w","one_one","1","indirect_first","0","mm05el08","3","24","1","1","3","1","","0","1","0","null","","","<div style=""font-size:60px;"">+</div>","null","","","","","","","","","",""
"","html-keyboard-response","208","807520","0.0-10.0-1.13","48wr3g197w","one_one","1","indirect_first","0","mm05el08","3","24","1","1","3","1","","0","1","0","null","","","<img src = 'category1/GS3.png' width = '100%;'>","null","","","","","","","","","",""
"","html-keyboard-response","209","807772","0.0-10.0-2.13","48wr3g197w","one_one","1","indirect_first","0","mm05el08","3","24","1","1","3","1","","0","1","0","null","","","<img src = 'targets/46.png' width = '100%;'>","null","","","","","","","","","",""
"","html-keyboard-response","210","808688","0.0-10.0-3.13","48wr3g197w","one_one","1","indirect_first","0","mm05el08","3","24","1","1","3","1","","0","1","0","914","","","<img src = 'targets/mask.png' width = '100%;'>","68","pos","GS","GSnew","1","category1/GS3.png","targets/46.png","0","indirect","29",""
"","html-keyboard-response","211","810190","0.0-10.0-0.14","48wr3g197w","one_one","1","indirect_first","0","mm05el08","3","24","1","1","3","1","","0","1","0","null","","","<div style=""font-size:60px;"">+</div>","null","","","","","","","","","",""
"","html-keyboard-response","212","810283","0.0-10.0-1.14","48wr3g197w","one_one","1","indirect_first","0","mm05el08","3","24","1","1","3","1","","0","1","0","null","","","<img src = 'category1/GS2.png' width = '100%;'>","null","","","","","","","","","",""
"","html-keyboard-response","213","810536","0.0-10.0-2.14","48wr3g197w","one_one","1","indirect_first","0","mm05el08","3","24","1","1","3","1","","0","1","0","null","","","<img src = 'targets/9.png' width = '100%;'>","null","","","","","","","","","",""
"","html-keyboard-response","214","811560","0.0-10.0-3.14","48wr3g197w","one_one","1","indirect_first","0","mm05el08","3","24","1","1","3","1","","0","1","0","1022","","","<img src = 'targets/mask.png' width = '100%;'>","68","pos","GS","GSnew","1","category1/GS2.png","targets/9.png","0","indirect","30",""
"","html-keyboard-response","215","813063","0.0-10.0-0.15","48wr3g197w","one_one","1","indirect_first","0","mm05el08","3","24","1","1","3","1","","0","1","0","null","","","<div style=""font-size:60px;"">+</div>","null","","","","","","","","","",""
"","html-keyboard-response","216","813155","0.0-10.0-1.15","48wr3g197w","one_one","1","indirect_first","0","mm05el08","3","24","1","1","3","1","","0","1","0","null","","","<img src = 'category4/GS1.png' width = '100%;'>","null","","","","","","","","","",""
"","html-keyboard-response","217","813407","0.0-10.0-2.15","48wr3g197w","one_one","1","indirect_first","0","mm05el08","3","24","1","1","3","1","","0","1","0","null","","","<img src = 'targets/19.png' width = '100%;'>","null","","","","","","","","","",""
"","html-keyboard-response","218","813944","0.0-10.0-3.15","48wr3g197w","one_one","1","indirect_first","0","mm05el08","3","24","1","1","3","1","","0","1","0","536","","","<img src = 'targets/mask.png' width = '100%;'>","68","neg","GS","GSnew","4","category4/GS1.png","targets/19.png","0","indirect","31",""
"","survey-html-form","219","829471","0.0-11.0","48wr3g197w","one_one","1","indirect_first","0","mm05el08","3","24","1","1","3","1","","0","1","0","15024","","{}","","","","","","","","","","","",""
"","image-slider-response","220","838104","0.0-12.0-0.0","48wr3g197w","one_one","1","indirect_first","0","mm05el08","3","24","1","1","3","1","","0","1","0","6624","","","","","neg","GS","GSold","2","category2/CS3.png","targets/40.png","","direct","","6"
"","image-slider-response","221","841360","0.0-12.0-0.1","48wr3g197w","one_one","1","indirect_first","0","mm05el08","3","24","1","1","3","1","","0","1","0","3252","","","","","pos","GS","GSnew","1","category1/GS3.png","targets/46.png","","direct","","-48"
"","image-slider-response","222","844392","0.0-12.0-0.2","48wr3g197w","one_one","1","indirect_first","0","mm05el08","3","24","1","1","3","1","","0","1","0","3028","","","","","neg","CS","CS","4","category4/CS7.png","targets/39.png","","direct","","-47"
"","image-slider-response","223","846942","0.0-12.0-0.3","48wr3g197w","one_one","1","indirect_first","0","mm05el08","3","24","1","1","3","1","","0","1","0","2546","","","","","neg","GS","GSold","2","category2/CS9.png","targets/22.png","","direct","","35"
"","image-slider-response","224","850353","0.0-12.0-0.4","48wr3g197w","one_one","1","indirect_first","0","mm05el08","3","24","1","1","3","1","","0","1","0","3406","","","","","neg","GS","GSold","4","category4/CS2.png","targets/15.png","","direct","","8"
"","image-slider-response","225","853816","0.0-12.0-0.5","48wr3g197w","one_one","1","indirect_first","0","mm05el08","3","24","1","1","3","1","","0","1","0","3459","","","","","pos","GS","GSold","1","category1/CS7.png","targets/4.png","","direct","","-83"
"","image-slider-response","226","857102","0.0-12.0-0.6","48wr3g197w","one_one","1","indirect_first","0","mm05el08","3","24","1","1","3","1","","0","1","0","3282","","","","","pos","GS","GSold","3","category3/CS10.png","targets/20.png","","direct","","78"
"","image-slider-response","227","862205","0.0-12.0-0.7","48wr3g197w","one_one","1","indirect_first","0","mm05el08","3","24","1","1","3","1","","0","1","0","5097","","","","","neg","GS","GSold","4","category4/CS3.png","targets/1.png","","direct","","2"
"","image-slider-response","228","865405","0.0-12.0-0.8","48wr3g197w","one_one","1","indirect_first","0","mm05el08","3","24","1","1","3","1","","0","1","0","3196","","","","","neg","GS","GSnew","4","category4/GS3.png","targets/36.png","","direct","","-3"
"","image-slider-response","229","868596","0.0-12.0-0.9","48wr3g197w","one_one","1","indirect_first","0","mm05el08","3","24","1","1","3","1","","0","1","0","3189","","","","","pos","GS","GSold","1","category1/CS6.png","targets/42.png","","direct","","-5"
"","image-slider-response","230","876344","0.0-12.0-0.10","48wr3g197w","one_one","1","indirect_first","0","mm05el08","3","24","1","1","3","1","","0","1","0","7744","","","","","neg","GS","abstract","4","category4/lin.png","targets/24.png","","direct","","1"
"","image-slider-response","231","883196","0.0-12.0-0.11","48wr3g197w","one_one","1","indirect_first","0","mm05el08","3","24","1","1","3","1","","0","1","0","6848","","","","","pos","GS","GSold","1","category1/CS4.png","targets/35.png","","direct","","1"
"","image-slider-response","232","888481","0.0-12.0-0.12","48wr3g197w","one_one","1","indirect_first","0","mm05el08","3","24","1","1","3","1","","0","1","0","5282","","","","","neg","GS","GSold","4","category4/CS5.png","targets/2.png","","direct","","-2"
"","image-slider-response","233","892199","0.0-12.0-0.13","48wr3g197w","one_one","1","indirect_first","0","mm05el08","3","24","1","1","3","1","","0","1","0","3715","","","","","pos","GS","abstract","3","category3/wang.png","targets/3.png","","direct","","85"
"","image-slider-response","234","894906","0.0-12.0-0.14","48wr3g197w","one_one","1","indirect_first","0","mm05el08","3","24","1","1","3","1","","0","1","0","2703","","","","","pos","GS","GSold","3","category3/CS2.png","targets/10.png","","direct","","28"
"","image-slider-response","235","897379","0.0-12.0-0.15","48wr3g197w","one_one","1","indirect_first","0","mm05el08","3","24","1","1","3","1","","0","1","0","2471","","","","","pos","GS","GSnew","1","category1/GS2.png","targets/9.png","","direct","","-32"
"","image-slider-response","236","900558","0.0-12.0-0.16","48wr3g197w","one_one","1","indirect_first","0","mm05el08","3","24","1","1","3","1","","0","1","0","3176","","","","","pos","GS","GSnew","3","category3/GS2.png","targets/45.png","","direct","","-3"
"","image-slider-response","237","902815","0.0-12.0-0.17","48wr3g197w","one_one","1","indirect_first","0","mm05el08","3","24","1","1","3","1","","0","1","0","2252","","","","","pos","GS","GSnew","1","category1/GS1.png","targets/7.png","","direct","","-9"
"","image-slider-response","238","906301","0.0-12.0-0.18","48wr3g197w","one_one","1","indirect_first","0","mm05el08","3","24","1","1","3","1","","0","1","0","3482","","","","","neg","GS","abstract","2","category2/men.png","targets/21.png","","direct","","-2"
"","image-slider-response","239","909789","0.0-12.0-0.19","48wr3g197w","one_one","1","indirect_first","0","mm05el08","3","24","1","1","3","1","","0","1","0","3484","","","","","pos","CS","CS","3","category3/CS7.png","targets/12.png","","direct","","40"
"","image-slider-response","240","911938","0.0-12.0-0.20","48wr3g197w","one_one","1","indirect_first","0","mm05el08","3","24","1","1","3","1","","0","1","0","2144","","","","","pos","GS","GSnew","3","category3/GS3.png","targets/34.png","","direct","","36"
"","image-slider-response","241","915277","0.0-12.0-0.21","48wr3g197w","one_one","1","indirect_first","0","mm05el08","3","24","1","1","3","1","","0","1","0","3338","","","","","pos","GS","GSnew","3","category3/GS1.png","targets/5.png","","direct","","-8"
"","image-slider-response","242","918378","0.0-12.0-0.22","48wr3g197w","one_one","1","indirect_first","0","mm05el08","3","24","1","1","3","1","","0","1","0","3098","","","","","neg","GS","GSnew","4","category4/GS2.png","targets/44.png","","direct","","5"
"","image-slider-response","243","921632","0.0-12.0-0.23","48wr3g197w","one_one","1","indirect_first","0","mm05el08","3","24","1","1","3","1","","0","1","0","3250","","","","","neg","CS","CS","2","category2/CS5.png","targets/41.png","","direct","","85"
"","image-slider-response","244","924918","0.0-12.0-0.24","48wr3g197w","one_one","1","indirect_first","0","mm05el08","3","24","1","1","3","1","","0","1","0","3282","","","","","neg","GS","GSnew","2","category2/GS3.png","targets/37.png","","direct","","-2"
"","image-slider-response","245","927600","0.0-12.0-0.25","48wr3g197w","one_one","1","indirect_first","0","mm05el08","3","24","1","1","3","1","","0","1","0","2679","","","","","pos","GS","abstract","1","category1/ma.png","targets/13.png","","direct","","7"
"","image-slider-response","246","930059","0.0-12.0-0.26","48wr3g197w","one_one","1","indirect_first","0","mm05el08","3","24","1","1","3","1","","0","1","0","2456","","","","","neg","GS","GSnew","4","category4/GS1.png","targets/19.png","","direct","","-1"
"","image-slider-response","247","931838","0.0-12.0-0.27","48wr3g197w","one_one","1","indirect_first","0","mm05el08","3","24","1","1","3","1","","0","1","0","1775","","","","","neg","GS","GSnew","2","category2/GS1.png","targets/17.png","","direct","","1"
"","image-slider-response","248","934507","0.0-12.0-0.28","48wr3g197w","one_one","1","indirect_first","0","mm05el08","3","24","1","1","3","1","","0","1","0","2666","","","","","neg","GS","GSnew","2","category2/GS2.png","targets/30.png","","direct","","1"
"","image-slider-response","249","936747","0.0-12.0-0.29","48wr3g197w","one_one","1","indirect_first","0","mm05el08","3","24","1","1","3","1","","0","1","0","2237","","","","","neg","GS","GSold","2","category2/CS4.png","targets/33.png","","direct","","25"
"","image-slider-response","250","939190","0.0-12.0-0.30","48wr3g197w","one_one","1","indirect_first","0","mm05el08","3","24","1","1","3","1","","0","1","0","2439","","","","","pos","GS","GSold","3","category3/CS6.png","targets/29.png","","direct","","62"
"","image-slider-response","251","942190","0.0-12.0-0.31","48wr3g197w","one_one","1","indirect_first","0","mm05el08","3","24","1","1","3","1","","0","1","0","2998","","","","","pos","CS","CS","1","category1/CS10.png","targets/48.png","","direct","","-5"
"","survey-html-form","252","947338","0.0-13.0","48wr3g197w","one_one","1","indirect_first","0","mm05el08","3","24","1","1","3","1","","0","1","0","5146","","{}","","","","","","","","","","","",""
"","image-slider-response","253","954677","0.0-14.0-0.0","48wr3g197w","one_one","1","indirect_first","0","mm05el08","3","24","1","1","3","1","","0","1","0","6330","","","","","neg","All","all","4","category4/lin_all.png","","","all","","-13"
"","image-slider-response","254","958324","0.0-14.0-0.1","48wr3g197w","one_one","1","indirect_first","0","mm05el08","3","24","1","1","3","1","","0","1","0","3641","","","","","neg","All","all","2","category2/men_all.png","","","all","","-54"
"","image-slider-response","255","962568","0.0-14.0-0.2","48wr3g197w","one_one","1","indirect_first","0","mm05el08","3","24","1","1","3","1","","0","1","0","4239","","","","","pos","All","all","1","category1/ma_all.png","","","all","","-84"
"","image-slider-response","256","966541","0.0-14.0-0.3","48wr3g197w","one_one","1","indirect_first","0","mm05el08","3","24","1","1","3","1","","0","1","0","3969","","","","","pos","All","all","3","category3/wang_all.png","","","all","","10"
"","survey-text","257","969296","0.0-15.0","48wr3g197w","one_one","1","indirect_first","0","mm05el08","3","24","1","1","3","1","","0","1","0","2745","","{""comment"":""""}","","","","","","","","","","","",""
"","survey-html-form","258","992400","0.0-16.0","48wr3g197w","one_one","1","indirect_first","0","mm05el08","3","24","1","1","3","1","","0","1","0","23100","","{""hinschauen"":""0"",""ablenkung"":""1"",""gewissenhaft"":""0""}","","","","","","","","","","","",""
