"success","trial_type","trial_index","time_elapsed","internal_node_id","subject","condition","condition_code","measure","measure_code","codeword","gender","age","education","chinese","fach","handedness","comment","hinschauen","ablenkung","gewissenhaft","rt","url","responses","stimulus","key_press","val","type","type_specific","category","cs_selected","response","target","task","indirect","nr_pres"
"true","fullscreen","0","18355","0.0-0.0","mhwuacmfnr","many_one","0","direct_first","1","NZ05EF25","0","38","1","1","3","1","","0","1","0","","","","","","","","","","","","","","",""
"","external-html","1","139565","0.0-1.0","mhwuacmfnr","many_one","0","direct_first","1","NZ05EF25","0","38","1","1","3","1","","0","1","0","121121","text/information.html","","","","","","","","","","","","",""
"","external-html","2","149504","0.0-2.0","mhwuacmfnr","many_one","0","direct_first","1","NZ05EF25","0","38","1","1","3","1","","0","1","0","9854","text/consent.html","","","","","","","","","","","","",""
"","survey-html-form","3","206807","0.0-3.0","mhwuacmfnr","many_one","0","direct_first","1","NZ05EF25","0","38","1","1","3","1","","0","1","0","57294","","{""codeword_enter"":""NZ05EF25""}","","","","","","","","","","","",""
"","survey-html-form","4","244527","0.0-4.0","mhwuacmfnr","many_one","0","direct_first","1","NZ05EF25","0","38","1","1","3","1","","0","1","0","37714","","{""age"":""38"",""education"":""1"",""subject"":""3"",""gender"":""0"",""handedness"":""1"",""chinese"":""1""}","","","","","","","","","","","",""
"","survey-html-form","5","268201","0.0-5.0","mhwuacmfnr","many_one","0","direct_first","1","NZ05EF25","0","38","1","1","3","1","","0","1","0","23671","","{}","","","","","","","","","","","",""
"","html-keyboard-response","6","272219","0.0-6.0-0.0-0.0","mhwuacmfnr","many_one","0","direct_first","1","NZ05EF25","0","38","1","1","3","1","","0","1","0","null","","","<div class = 'row'><div class = 'column'><img src = 'category3/CS2.png' width = '70%;'></div><div class = 'column'><img src = 'uspos/2150.bmp' width = '100%;'></div></div>","null","pos","CS","CS","3","category3/CS2.png","","","","",""
"","html-keyboard-response","7","274738","0.0-6.0-0.0-0.1","mhwuacmfnr","many_one","0","direct_first","1","NZ05EF25","0","38","1","1","3","1","","0","1","0","null","","","<div class = 'row'><div class = 'column'><img src = 'category3/CS7.png' width = '70%;'></div><div class = 'column'><img src = 'uspos/1460.bmp' width = '100%;'></div></div>","null","pos","CS","CS","3","category3/CS7.png","","","","",""
"","html-keyboard-response","8","277257","0.0-6.0-0.0-0.2","mhwuacmfnr","many_one","0","direct_first","1","NZ05EF25","0","38","1","1","3","1","","0","1","0","null","","","<div class = 'row'><div class = 'column'><img src = 'category1/CS9.png' width = '70%;'></div><div class = 'column'><img src = 'usneg/9584.bmp' width = '100%;'></div></div>","null","neg","CS","CS","1","category1/CS9.png","","","","",""
"","html-keyboard-response","9","279778","0.0-6.0-0.0-0.3","mhwuacmfnr","many_one","0","direct_first","1","NZ05EF25","0","38","1","1","3","1","","0","1","0","null","","","<div class = 'row'><div class = 'column'><img src = 'usneg/9330.bmp' width = '100%;'></div><div class = 'column'><img src = 'category1/CS1.png' width = '70%;'></div></div>","null","neg","CS","CS","1","category1/CS1.png","","","","",""
"","html-keyboard-response","10","282298","0.0-6.0-0.0-0.4","mhwuacmfnr","many_one","0","direct_first","1","NZ05EF25","0","38","1","1","3","1","","0","1","0","null","","","<div class = 'row'><div class = 'column'><img src = 'category4/CS7.png' width = '70%;'></div><div class = 'column'><img src = 'usneg/9000.bmp' width = '100%;'></div></div>","null","neg","CS","CS","4","category4/CS7.png","","","","",""
"","html-keyboard-response","11","284817","0.0-6.0-0.0-0.5","mhwuacmfnr","many_one","0","direct_first","1","NZ05EF25","0","38","1","1","3","1","","0","1","0","null","","","<div class = 'row'><div class = 'column'><img src = 'uspos/4599.bmp' width = '100%;'></div><div class = 'column'><img src = 'category2/CS6.png' width = '70%;'></div></div>","null","pos","CS","CS","2","category2/CS6.png","","","","",""
"","html-keyboard-response","12","287337","0.0-6.0-0.0-0.6","mhwuacmfnr","many_one","0","direct_first","1","NZ05EF25","0","38","1","1","3","1","","0","1","0","null","","","<div class = 'row'><div class = 'column'><img src = 'uspos/5621.bmp' width = '100%;'></div><div class = 'column'><img src = 'category2/CS4.png' width = '70%;'></div></div>","null","pos","CS","CS","2","category2/CS4.png","","","","",""
"","html-keyboard-response","13","289857","0.0-6.0-0.0-0.7","mhwuacmfnr","many_one","0","direct_first","1","NZ05EF25","0","38","1","1","3","1","","0","1","0","null","","","<div class = 'row'><div class = 'column'><img src = 'uspos/2341.bmp' width = '100%;'></div><div class = 'column'><img src = 'category3/CS9.png' width = '70%;'></div></div>","null","pos","CS","CS","3","category3/CS9.png","","","","",""
"","html-keyboard-response","14","292377","0.0-6.0-0.0-0.8","mhwuacmfnr","many_one","0","direct_first","1","NZ05EF25","0","38","1","1","3","1","","0","1","0","null","","","<div class = 'row'><div class = 'column'><img src = 'category4/CS4.png' width = '70%;'></div><div class = 'column'><img src = 'usneg/6212.bmp' width = '100%;'></div></div>","null","neg","CS","CS","4","category4/CS4.png","","","","",""
"","html-keyboard-response","15","294897","0.0-6.0-0.0-0.9","mhwuacmfnr","many_one","0","direct_first","1","NZ05EF25","0","38","1","1","3","1","","0","1","0","null","","","<div class = 'row'><div class = 'column'><img src = 'usneg/3181.bmp' width = '100%;'></div><div class = 'column'><img src = 'category4/CS6.png' width = '70%;'></div></div>","null","neg","CS","CS","4","category4/CS6.png","","","","",""
"","html-keyboard-response","16","297417","0.0-6.0-0.0-0.10","mhwuacmfnr","many_one","0","direct_first","1","NZ05EF25","0","38","1","1","3","1","","0","1","0","null","","","<div class = 'row'><div class = 'column'><img src = 'uspos/5700.bmp' width = '100%;'></div><div class = 'column'><img src = 'category2/CS8.png' width = '70%;'></div></div>","null","pos","CS","CS","2","category2/CS8.png","","","","",""
"","html-keyboard-response","17","299937","0.0-6.0-0.0-0.11","mhwuacmfnr","many_one","0","direct_first","1","NZ05EF25","0","38","1","1","3","1","","0","1","0","null","","","<div class = 'row'><div class = 'column'><img src = 'category1/CS4.png' width = '70%;'></div><div class = 'column'><img src = 'usneg/9342.bmp' width = '100%;'></div></div>","null","neg","CS","CS","1","category1/CS4.png","","","","",""
"","html-keyboard-response","18","302457","0.0-6.0-0.0-0.12","mhwuacmfnr","many_one","0","direct_first","1","NZ05EF25","0","38","1","1","3","1","","0","1","0","null","","","<div class = 'row'><div class = 'column'><img src = 'uspos/5600.bmp' width = '100%;'></div><div class = 'column'><img src = 'category3/CS6.png' width = '70%;'></div></div>","null","pos","CS","CS","3","category3/CS6.png","","","","",""
"","html-keyboard-response","19","304976","0.0-6.0-0.0-0.13","mhwuacmfnr","many_one","0","direct_first","1","NZ05EF25","0","38","1","1","3","1","","0","1","0","null","","","<div class = 'row'><div class = 'column'><img src = 'usneg/7380.bmp' width = '100%;'></div><div class = 'column'><img src = 'category4/CS5.png' width = '70%;'></div></div>","null","neg","CS","CS","4","category4/CS5.png","","","","",""
"","html-keyboard-response","20","307496","0.0-6.0-0.0-0.14","mhwuacmfnr","many_one","0","direct_first","1","NZ05EF25","0","38","1","1","3","1","","0","1","0","null","","","<div class = 'row'><div class = 'column'><img src = 'category2/CS7.png' width = '70%;'></div><div class = 'column'><img src = 'uspos/1340.bmp' width = '100%;'></div></div>","null","pos","CS","CS","2","category2/CS7.png","","","","",""
"","html-keyboard-response","21","310017","0.0-6.0-0.0-0.15","mhwuacmfnr","many_one","0","direct_first","1","NZ05EF25","0","38","1","1","3","1","","0","1","0","null","","","<div class = 'row'><div class = 'column'><img src = 'uspos/5470.bmp' width = '100%;'></div><div class = 'column'><img src = 'category3/CS3.png' width = '70%;'></div></div>","null","pos","CS","CS","3","category3/CS3.png","","","","",""
"","html-keyboard-response","22","312536","0.0-6.0-0.0-0.16","mhwuacmfnr","many_one","0","direct_first","1","NZ05EF25","0","38","1","1","3","1","","0","1","0","null","","","<div class = 'row'><div class = 'column'><img src = 'usneg/8485.bmp' width = '100%;'></div><div class = 'column'><img src = 'category1/CS3.png' width = '70%;'></div></div>","null","neg","CS","CS","1","category1/CS3.png","","","","",""
"","html-keyboard-response","23","315056","0.0-6.0-0.0-0.17","mhwuacmfnr","many_one","0","direct_first","1","NZ05EF25","0","38","1","1","3","1","","0","1","0","null","","","<div class = 'row'><div class = 'column'><img src = 'category4/CS2.png' width = '70%;'></div><div class = 'column'><img src = 'usneg/3300.bmp' width = '100%;'></div></div>","null","neg","CS","CS","4","category4/CS2.png","","","","",""
"","html-keyboard-response","24","317576","0.0-6.0-0.0-0.18","mhwuacmfnr","many_one","0","direct_first","1","NZ05EF25","0","38","1","1","3","1","","0","1","0","null","","","<div class = 'row'><div class = 'column'><img src = 'category1/CS7.png' width = '70%;'></div><div class = 'column'><img src = 'usneg/9182.bmp' width = '100%;'></div></div>","null","neg","CS","CS","1","category1/CS7.png","","","","",""
"","html-keyboard-response","25","320096","0.0-6.0-0.0-0.19","mhwuacmfnr","many_one","0","direct_first","1","NZ05EF25","0","38","1","1","3","1","","0","1","0","null","","","<div class = 'row'><div class = 'column'><img src = 'category2/CS2.png' width = '70%;'></div><div class = 'column'><img src = 'uspos/7580.bmp' width = '100%;'></div></div>","null","pos","CS","CS","2","category2/CS2.png","","","","",""
"","survey-html-form","26","330540","0.0-6.0-1.0","mhwuacmfnr","many_one","0","direct_first","1","NZ05EF25","0","38","1","1","3","1","","0","1","0","9932","","{}","","","","","","","","","","","",""
"","html-keyboard-response","27","334556","0.0-6.0-2.0-0.0","mhwuacmfnr","many_one","0","direct_first","1","NZ05EF25","0","38","1","1","3","1","","0","1","0","null","","","<div class = 'row'><div class = 'column'><img src = 'category4/CS6.png' width = '70%;'></div><div class = 'column'><img src = 'usneg/3181.bmp' width = '100%;'></div></div>","null","neg","CS","CS","4","category4/CS6.png","","","","",""
"","html-keyboard-response","28","337075","0.0-6.0-2.0-0.1","mhwuacmfnr","many_one","0","direct_first","1","NZ05EF25","0","38","1","1","3","1","","0","1","0","null","","","<div class = 'row'><div class = 'column'><img src = 'uspos/2341.bmp' width = '100%;'></div><div class = 'column'><img src = 'category3/CS9.png' width = '70%;'></div></div>","null","pos","CS","CS","3","category3/CS9.png","","","","",""
"","html-keyboard-response","29","339595","0.0-6.0-2.0-0.2","mhwuacmfnr","many_one","0","direct_first","1","NZ05EF25","0","38","1","1","3","1","","0","1","0","null","","","<div class = 'row'><div class = 'column'><img src = 'uspos/5600.bmp' width = '100%;'></div><div class = 'column'><img src = 'category3/CS6.png' width = '70%;'></div></div>","null","pos","CS","CS","3","category3/CS6.png","","","","",""
"","html-keyboard-response","30","342115","0.0-6.0-2.0-0.3","mhwuacmfnr","many_one","0","direct_first","1","NZ05EF25","0","38","1","1","3","1","","0","1","0","null","","","<div class = 'row'><div class = 'column'><img src = 'category3/CS2.png' width = '70%;'></div><div class = 'column'><img src = 'uspos/2150.bmp' width = '100%;'></div></div>","null","pos","CS","CS","3","category3/CS2.png","","","","",""
"","html-keyboard-response","31","344635","0.0-6.0-2.0-0.4","mhwuacmfnr","many_one","0","direct_first","1","NZ05EF25","0","38","1","1","3","1","","0","1","0","null","","","<div class = 'row'><div class = 'column'><img src = 'category4/CS5.png' width = '70%;'></div><div class = 'column'><img src = 'usneg/7380.bmp' width = '100%;'></div></div>","null","neg","CS","CS","4","category4/CS5.png","","","","",""
"","html-keyboard-response","32","347155","0.0-6.0-2.0-0.5","mhwuacmfnr","many_one","0","direct_first","1","NZ05EF25","0","38","1","1","3","1","","0","1","0","null","","","<div class = 'row'><div class = 'column'><img src = 'category2/CS8.png' width = '70%;'></div><div class = 'column'><img src = 'uspos/5700.bmp' width = '100%;'></div></div>","null","pos","CS","CS","2","category2/CS8.png","","","","",""
"","html-keyboard-response","33","349675","0.0-6.0-2.0-0.6","mhwuacmfnr","many_one","0","direct_first","1","NZ05EF25","0","38","1","1","3","1","","0","1","0","null","","","<div class = 'row'><div class = 'column'><img src = 'category1/CS3.png' width = '70%;'></div><div class = 'column'><img src = 'usneg/8485.bmp' width = '100%;'></div></div>","null","neg","CS","CS","1","category1/CS3.png","","","","",""
"","html-keyboard-response","34","352196","0.0-6.0-2.0-0.7","mhwuacmfnr","many_one","0","direct_first","1","NZ05EF25","0","38","1","1","3","1","","0","1","0","null","","","<div class = 'row'><div class = 'column'><img src = 'category4/CS7.png' width = '70%;'></div><div class = 'column'><img src = 'usneg/9000.bmp' width = '100%;'></div></div>","null","neg","CS","CS","4","category4/CS7.png","","","","",""
"","html-keyboard-response","35","354715","0.0-6.0-2.0-0.8","mhwuacmfnr","many_one","0","direct_first","1","NZ05EF25","0","38","1","1","3","1","","0","1","0","null","","","<div class = 'row'><div class = 'column'><img src = 'category4/CS2.png' width = '70%;'></div><div class = 'column'><img src = 'usneg/3300.bmp' width = '100%;'></div></div>","null","neg","CS","CS","4","category4/CS2.png","","","","",""
"","html-keyboard-response","36","357235","0.0-6.0-2.0-0.9","mhwuacmfnr","many_one","0","direct_first","1","NZ05EF25","0","38","1","1","3","1","","0","1","0","null","","","<div class = 'row'><div class = 'column'><img src = 'category3/CS7.png' width = '70%;'></div><div class = 'column'><img src = 'uspos/1460.bmp' width = '100%;'></div></div>","null","pos","CS","CS","3","category3/CS7.png","","","","",""
"","html-keyboard-response","37","359754","0.0-6.0-2.0-0.10","mhwuacmfnr","many_one","0","direct_first","1","NZ05EF25","0","38","1","1","3","1","","0","1","0","null","","","<div class = 'row'><div class = 'column'><img src = 'category2/CS6.png' width = '70%;'></div><div class = 'column'><img src = 'uspos/4599.bmp' width = '100%;'></div></div>","null","pos","CS","CS","2","category2/CS6.png","","","","",""
"","html-keyboard-response","38","362275","0.0-6.0-2.0-0.11","mhwuacmfnr","many_one","0","direct_first","1","NZ05EF25","0","38","1","1","3","1","","0","1","0","null","","","<div class = 'row'><div class = 'column'><img src = 'usneg/6212.bmp' width = '100%;'></div><div class = 'column'><img src = 'category4/CS4.png' width = '70%;'></div></div>","null","neg","CS","CS","4","category4/CS4.png","","","","",""
"","html-keyboard-response","39","364795","0.0-6.0-2.0-0.12","mhwuacmfnr","many_one","0","direct_first","1","NZ05EF25","0","38","1","1","3","1","","0","1","0","null","","","<div class = 'row'><div class = 'column'><img src = 'category1/CS4.png' width = '70%;'></div><div class = 'column'><img src = 'usneg/9342.bmp' width = '100%;'></div></div>","null","neg","CS","CS","1","category1/CS4.png","","","","",""
"","html-keyboard-response","40","367315","0.0-6.0-2.0-0.13","mhwuacmfnr","many_one","0","direct_first","1","NZ05EF25","0","38","1","1","3","1","","0","1","0","null","","","<div class = 'row'><div class = 'column'><img src = 'category1/CS7.png' width = '70%;'></div><div class = 'column'><img src = 'usneg/9182.bmp' width = '100%;'></div></div>","null","neg","CS","CS","1","category1/CS7.png","","","","",""
"","html-keyboard-response","41","369834","0.0-6.0-2.0-0.14","mhwuacmfnr","many_one","0","direct_first","1","NZ05EF25","0","38","1","1","3","1","","0","1","0","null","","","<div class = 'row'><div class = 'column'><img src = 'category2/CS4.png' width = '70%;'></div><div class = 'column'><img src = 'uspos/5621.bmp' width = '100%;'></div></div>","null","pos","CS","CS","2","category2/CS4.png","","","","",""
"","html-keyboard-response","42","372355","0.0-6.0-2.0-0.15","mhwuacmfnr","many_one","0","direct_first","1","NZ05EF25","0","38","1","1","3","1","","0","1","0","null","","","<div class = 'row'><div class = 'column'><img src = 'uspos/5470.bmp' width = '100%;'></div><div class = 'column'><img src = 'category3/CS3.png' width = '70%;'></div></div>","null","pos","CS","CS","3","category3/CS3.png","","","","",""
"","html-keyboard-response","43","374875","0.0-6.0-2.0-0.16","mhwuacmfnr","many_one","0","direct_first","1","NZ05EF25","0","38","1","1","3","1","","0","1","0","null","","","<div class = 'row'><div class = 'column'><img src = 'uspos/7580.bmp' width = '100%;'></div><div class = 'column'><img src = 'category2/CS2.png' width = '70%;'></div></div>","null","pos","CS","CS","2","category2/CS2.png","","","","",""
"","html-keyboard-response","44","377395","0.0-6.0-2.0-0.17","mhwuacmfnr","many_one","0","direct_first","1","NZ05EF25","0","38","1","1","3","1","","0","1","0","null","","","<div class = 'row'><div class = 'column'><img src = 'usneg/9584.bmp' width = '100%;'></div><div class = 'column'><img src = 'category1/CS9.png' width = '70%;'></div></div>","null","neg","CS","CS","1","category1/CS9.png","","","","",""
"","html-keyboard-response","45","379915","0.0-6.0-2.0-0.18","mhwuacmfnr","many_one","0","direct_first","1","NZ05EF25","0","38","1","1","3","1","","0","1","0","null","","","<div class = 'row'><div class = 'column'><img src = 'uspos/1340.bmp' width = '100%;'></div><div class = 'column'><img src = 'category2/CS7.png' width = '70%;'></div></div>","null","pos","CS","CS","2","category2/CS7.png","","","","",""
"","html-keyboard-response","46","382434","0.0-6.0-2.0-0.19","mhwuacmfnr","many_one","0","direct_first","1","NZ05EF25","0","38","1","1","3","1","","0","1","0","null","","","<div class = 'row'><div class = 'column'><img src = 'category1/CS1.png' width = '70%;'></div><div class = 'column'><img src = 'usneg/9330.bmp' width = '100%;'></div></div>","null","neg","CS","CS","1","category1/CS1.png","","","","",""
"","survey-html-form","47","391848","0.0-6.0-3.0","mhwuacmfnr","many_one","0","direct_first","1","NZ05EF25","0","38","1","1","3","1","","0","1","0","8903","","{}","","","","","","","","","","","",""
"","html-keyboard-response","48","395864","0.0-6.0-4.0-0.0","mhwuacmfnr","many_one","0","direct_first","1","NZ05EF25","0","38","1","1","3","1","","0","1","0","null","","","<div class = 'row'><div class = 'column'><img src = 'category2/CS2.png' width = '70%;'></div><div class = 'column'><img src = 'uspos/7580.bmp' width = '100%;'></div></div>","null","pos","CS","CS","2","category2/CS2.png","","","","",""
"","html-keyboard-response","49","398384","0.0-6.0-4.0-0.1","mhwuacmfnr","many_one","0","direct_first","1","NZ05EF25","0","38","1","1","3","1","","0","1","0","null","","","<div class = 'row'><div class = 'column'><img src = 'category3/CS7.png' width = '70%;'></div><div class = 'column'><img src = 'uspos/1460.bmp' width = '100%;'></div></div>","null","pos","CS","CS","3","category3/CS7.png","","","","",""
"","html-keyboard-response","50","400904","0.0-6.0-4.0-0.2","mhwuacmfnr","many_one","0","direct_first","1","NZ05EF25","0","38","1","1","3","1","","0","1","0","null","","","<div class = 'row'><div class = 'column'><img src = 'category2/CS8.png' width = '70%;'></div><div class = 'column'><img src = 'uspos/5700.bmp' width = '100%;'></div></div>","null","pos","CS","CS","2","category2/CS8.png","","","","",""
"","html-keyboard-response","51","403424","0.0-6.0-4.0-0.3","mhwuacmfnr","many_one","0","direct_first","1","NZ05EF25","0","38","1","1","3","1","","0","1","0","null","","","<div class = 'row'><div class = 'column'><img src = 'uspos/5470.bmp' width = '100%;'></div><div class = 'column'><img src = 'category3/CS3.png' width = '70%;'></div></div>","null","pos","CS","CS","3","category3/CS3.png","","","","",""
"","html-keyboard-response","52","405944","0.0-6.0-4.0-0.4","mhwuacmfnr","many_one","0","direct_first","1","NZ05EF25","0","38","1","1","3","1","","0","1","0","null","","","<div class = 'row'><div class = 'column'><img src = 'category1/CS9.png' width = '70%;'></div><div class = 'column'><img src = 'usneg/9584.bmp' width = '100%;'></div></div>","null","neg","CS","CS","1","category1/CS9.png","","","","",""
"","html-keyboard-response","53","408464","0.0-6.0-4.0-0.5","mhwuacmfnr","many_one","0","direct_first","1","NZ05EF25","0","38","1","1","3","1","","0","1","0","null","","","<div class = 'row'><div class = 'column'><img src = 'category2/CS6.png' width = '70%;'></div><div class = 'column'><img src = 'uspos/4599.bmp' width = '100%;'></div></div>","null","pos","CS","CS","2","category2/CS6.png","","","","",""
"","html-keyboard-response","54","410984","0.0-6.0-4.0-0.6","mhwuacmfnr","many_one","0","direct_first","1","NZ05EF25","0","38","1","1","3","1","","0","1","0","null","","","<div class = 'row'><div class = 'column'><img src = 'category1/CS4.png' width = '70%;'></div><div class = 'column'><img src = 'usneg/9342.bmp' width = '100%;'></div></div>","null","neg","CS","CS","1","category1/CS4.png","","","","",""
"","html-keyboard-response","55","413503","0.0-6.0-4.0-0.7","mhwuacmfnr","many_one","0","direct_first","1","NZ05EF25","0","38","1","1","3","1","","0","1","0","null","","","<div class = 'row'><div class = 'column'><img src = 'uspos/5621.bmp' width = '100%;'></div><div class = 'column'><img src = 'category2/CS4.png' width = '70%;'></div></div>","null","pos","CS","CS","2","category2/CS4.png","","","","",""
"","html-keyboard-response","56","416023","0.0-6.0-4.0-0.8","mhwuacmfnr","many_one","0","direct_first","1","NZ05EF25","0","38","1","1","3","1","","0","1","0","null","","","<div class = 'row'><div class = 'column'><img src = 'category4/CS4.png' width = '70%;'></div><div class = 'column'><img src = 'usneg/6212.bmp' width = '100%;'></div></div>","null","neg","CS","CS","4","category4/CS4.png","","","","",""
"","html-keyboard-response","57","418543","0.0-6.0-4.0-0.9","mhwuacmfnr","many_one","0","direct_first","1","NZ05EF25","0","38","1","1","3","1","","0","1","0","null","","","<div class = 'row'><div class = 'column'><img src = 'uspos/2150.bmp' width = '100%;'></div><div class = 'column'><img src = 'category3/CS2.png' width = '70%;'></div></div>","null","pos","CS","CS","3","category3/CS2.png","","","","",""
"","html-keyboard-response","58","421063","0.0-6.0-4.0-0.10","mhwuacmfnr","many_one","0","direct_first","1","NZ05EF25","0","38","1","1","3","1","","0","1","0","null","","","<div class = 'row'><div class = 'column'><img src = 'usneg/3181.bmp' width = '100%;'></div><div class = 'column'><img src = 'category4/CS6.png' width = '70%;'></div></div>","null","neg","CS","CS","4","category4/CS6.png","","","","",""
"","html-keyboard-response","59","423583","0.0-6.0-4.0-0.11","mhwuacmfnr","many_one","0","direct_first","1","NZ05EF25","0","38","1","1","3","1","","0","1","0","null","","","<div class = 'row'><div class = 'column'><img src = 'category2/CS7.png' width = '70%;'></div><div class = 'column'><img src = 'uspos/1340.bmp' width = '100%;'></div></div>","null","pos","CS","CS","2","category2/CS7.png","","","","",""
"","html-keyboard-response","60","426103","0.0-6.0-4.0-0.12","mhwuacmfnr","many_one","0","direct_first","1","NZ05EF25","0","38","1","1","3","1","","0","1","0","null","","","<div class = 'row'><div class = 'column'><img src = 'category1/CS7.png' width = '70%;'></div><div class = 'column'><img src = 'usneg/9182.bmp' width = '100%;'></div></div>","null","neg","CS","CS","1","category1/CS7.png","","","","",""
"","html-keyboard-response","61","428623","0.0-6.0-4.0-0.13","mhwuacmfnr","many_one","0","direct_first","1","NZ05EF25","0","38","1","1","3","1","","0","1","0","null","","","<div class = 'row'><div class = 'column'><img src = 'category3/CS6.png' width = '70%;'></div><div class = 'column'><img src = 'uspos/5600.bmp' width = '100%;'></div></div>","null","pos","CS","CS","3","category3/CS6.png","","","","",""
"","html-keyboard-response","62","431143","0.0-6.0-4.0-0.14","mhwuacmfnr","many_one","0","direct_first","1","NZ05EF25","0","38","1","1","3","1","","0","1","0","null","","","<div class = 'row'><div class = 'column'><img src = 'category1/CS3.png' width = '70%;'></div><div class = 'column'><img src = 'usneg/8485.bmp' width = '100%;'></div></div>","null","neg","CS","CS","1","category1/CS3.png","","","","",""
"","html-keyboard-response","63","433663","0.0-6.0-4.0-0.15","mhwuacmfnr","many_one","0","direct_first","1","NZ05EF25","0","38","1","1","3","1","","0","1","0","null","","","<div class = 'row'><div class = 'column'><img src = 'usneg/3300.bmp' width = '100%;'></div><div class = 'column'><img src = 'category4/CS2.png' width = '70%;'></div></div>","null","neg","CS","CS","4","category4/CS2.png","","","","",""
"","html-keyboard-response","64","436183","0.0-6.0-4.0-0.16","mhwuacmfnr","many_one","0","direct_first","1","NZ05EF25","0","38","1","1","3","1","","0","1","0","null","","","<div class = 'row'><div class = 'column'><img src = 'category3/CS9.png' width = '70%;'></div><div class = 'column'><img src = 'uspos/2341.bmp' width = '100%;'></div></div>","null","pos","CS","CS","3","category3/CS9.png","","","","",""
"","html-keyboard-response","65","438703","0.0-6.0-4.0-0.17","mhwuacmfnr","many_one","0","direct_first","1","NZ05EF25","0","38","1","1","3","1","","0","1","0","null","","","<div class = 'row'><div class = 'column'><img src = 'usneg/7380.bmp' width = '100%;'></div><div class = 'column'><img src = 'category4/CS5.png' width = '70%;'></div></div>","null","neg","CS","CS","4","category4/CS5.png","","","","",""
"","html-keyboard-response","66","441223","0.0-6.0-4.0-0.18","mhwuacmfnr","many_one","0","direct_first","1","NZ05EF25","0","38","1","1","3","1","","0","1","0","null","","","<div class = 'row'><div class = 'column'><img src = 'usneg/9330.bmp' width = '100%;'></div><div class = 'column'><img src = 'category1/CS1.png' width = '70%;'></div></div>","null","neg","CS","CS","1","category1/CS1.png","","","","",""
"","html-keyboard-response","67","443743","0.0-6.0-4.0-0.19","mhwuacmfnr","many_one","0","direct_first","1","NZ05EF25","0","38","1","1","3","1","","0","1","0","null","","","<div class = 'row'><div class = 'column'><img src = 'usneg/9000.bmp' width = '100%;'></div><div class = 'column'><img src = 'category4/CS7.png' width = '70%;'></div></div>","null","neg","CS","CS","4","category4/CS7.png","","","","",""
"","survey-html-form","68","459886","0.0-6.0-5.0","mhwuacmfnr","many_one","0","direct_first","1","NZ05EF25","0","38","1","1","3","1","","0","1","0","15633","","{}","","","","","","","","","","","",""
"","html-keyboard-response","69","463903","0.0-6.0-6.0-0.0","mhwuacmfnr","many_one","0","direct_first","1","NZ05EF25","0","38","1","1","3","1","","0","1","0","null","","","<div class = 'row'><div class = 'column'><img src = 'uspos/5470.bmp' width = '100%;'></div><div class = 'column'><img src = 'category3/CS3.png' width = '70%;'></div></div>","null","pos","CS","CS","3","category3/CS3.png","","","","",""
"","html-keyboard-response","70","466423","0.0-6.0-6.0-0.1","mhwuacmfnr","many_one","0","direct_first","1","NZ05EF25","0","38","1","1","3","1","","0","1","0","null","","","<div class = 'row'><div class = 'column'><img src = 'uspos/4599.bmp' width = '100%;'></div><div class = 'column'><img src = 'category2/CS6.png' width = '70%;'></div></div>","null","pos","CS","CS","2","category2/CS6.png","","","","",""
"","html-keyboard-response","71","468942","0.0-6.0-6.0-0.2","mhwuacmfnr","many_one","0","direct_first","1","NZ05EF25","0","38","1","1","3","1","","0","1","0","null","","","<div class = 'row'><div class = 'column'><img src = 'category4/CS5.png' width = '70%;'></div><div class = 'column'><img src = 'usneg/7380.bmp' width = '100%;'></div></div>","null","neg","CS","CS","4","category4/CS5.png","","","","",""
"","html-keyboard-response","72","471462","0.0-6.0-6.0-0.3","mhwuacmfnr","many_one","0","direct_first","1","NZ05EF25","0","38","1","1","3","1","","0","1","0","null","","","<div class = 'row'><div class = 'column'><img src = 'category2/CS2.png' width = '70%;'></div><div class = 'column'><img src = 'uspos/7580.bmp' width = '100%;'></div></div>","null","pos","CS","CS","2","category2/CS2.png","","","","",""
"","html-keyboard-response","73","473982","0.0-6.0-6.0-0.4","mhwuacmfnr","many_one","0","direct_first","1","NZ05EF25","0","38","1","1","3","1","","0","1","0","null","","","<div class = 'row'><div class = 'column'><img src = 'usneg/8485.bmp' width = '100%;'></div><div class = 'column'><img src = 'category1/CS3.png' width = '70%;'></div></div>","null","neg","CS","CS","1","category1/CS3.png","","","","",""
"","html-keyboard-response","74","476502","0.0-6.0-6.0-0.5","mhwuacmfnr","many_one","0","direct_first","1","NZ05EF25","0","38","1","1","3","1","","0","1","0","null","","","<div class = 'row'><div class = 'column'><img src = 'usneg/9330.bmp' width = '100%;'></div><div class = 'column'><img src = 'category1/CS1.png' width = '70%;'></div></div>","null","neg","CS","CS","1","category1/CS1.png","","","","",""
"","html-keyboard-response","75","479022","0.0-6.0-6.0-0.6","mhwuacmfnr","many_one","0","direct_first","1","NZ05EF25","0","38","1","1","3","1","","0","1","0","null","","","<div class = 'row'><div class = 'column'><img src = 'usneg/9000.bmp' width = '100%;'></div><div class = 'column'><img src = 'category4/CS7.png' width = '70%;'></div></div>","null","neg","CS","CS","4","category4/CS7.png","","","","",""
"","html-keyboard-response","76","481542","0.0-6.0-6.0-0.7","mhwuacmfnr","many_one","0","direct_first","1","NZ05EF25","0","38","1","1","3","1","","0","1","0","null","","","<div class = 'row'><div class = 'column'><img src = 'category3/CS7.png' width = '70%;'></div><div class = 'column'><img src = 'uspos/1460.bmp' width = '100%;'></div></div>","null","pos","CS","CS","3","category3/CS7.png","","","","",""
"","html-keyboard-response","77","484062","0.0-6.0-6.0-0.8","mhwuacmfnr","many_one","0","direct_first","1","NZ05EF25","0","38","1","1","3","1","","0","1","0","null","","","<div class = 'row'><div class = 'column'><img src = 'uspos/2150.bmp' width = '100%;'></div><div class = 'column'><img src = 'category3/CS2.png' width = '70%;'></div></div>","null","pos","CS","CS","3","category3/CS2.png","","","","",""
"","html-keyboard-response","78","486581","0.0-6.0-6.0-0.9","mhwuacmfnr","many_one","0","direct_first","1","NZ05EF25","0","38","1","1","3","1","","0","1","0","null","","","<div class = 'row'><div class = 'column'><img src = 'uspos/1340.bmp' width = '100%;'></div><div class = 'column'><img src = 'category2/CS7.png' width = '70%;'></div></div>","null","pos","CS","CS","2","category2/CS7.png","","","","",""
"","html-keyboard-response","79","489102","0.0-6.0-6.0-0.10","mhwuacmfnr","many_one","0","direct_first","1","NZ05EF25","0","38","1","1","3","1","","0","1","0","null","","","<div class = 'row'><div class = 'column'><img src = 'uspos/5621.bmp' width = '100%;'></div><div class = 'column'><img src = 'category2/CS4.png' width = '70%;'></div></div>","null","pos","CS","CS","2","category2/CS4.png","","","","",""
"","html-keyboard-response","80","491621","0.0-6.0-6.0-0.11","mhwuacmfnr","many_one","0","direct_first","1","NZ05EF25","0","38","1","1","3","1","","0","1","0","null","","","<div class = 'row'><div class = 'column'><img src = 'usneg/9584.bmp' width = '100%;'></div><div class = 'column'><img src = 'category1/CS9.png' width = '70%;'></div></div>","null","neg","CS","CS","1","category1/CS9.png","","","","",""
"","html-keyboard-response","81","494141","0.0-6.0-6.0-0.12","mhwuacmfnr","many_one","0","direct_first","1","NZ05EF25","0","38","1","1","3","1","","0","1","0","null","","","<div class = 'row'><div class = 'column'><img src = 'category3/CS9.png' width = '70%;'></div><div class = 'column'><img src = 'uspos/2341.bmp' width = '100%;'></div></div>","null","pos","CS","CS","3","category3/CS9.png","","","","",""
"","html-keyboard-response","82","496661","0.0-6.0-6.0-0.13","mhwuacmfnr","many_one","0","direct_first","1","NZ05EF25","0","38","1","1","3","1","","0","1","0","null","","","<div class = 'row'><div class = 'column'><img src = 'category3/CS6.png' width = '70%;'></div><div class = 'column'><img src = 'uspos/5600.bmp' width = '100%;'></div></div>","null","pos","CS","CS","3","category3/CS6.png","","","","",""
"","html-keyboard-response","83","499181","0.0-6.0-6.0-0.14","mhwuacmfnr","many_one","0","direct_first","1","NZ05EF25","0","38","1","1","3","1","","0","1","0","null","","","<div class = 'row'><div class = 'column'><img src = 'usneg/3181.bmp' width = '100%;'></div><div class = 'column'><img src = 'category4/CS6.png' width = '70%;'></div></div>","null","neg","CS","CS","4","category4/CS6.png","","","","",""
"","html-keyboard-response","84","501702","0.0-6.0-6.0-0.15","mhwuacmfnr","many_one","0","direct_first","1","NZ05EF25","0","38","1","1","3","1","","0","1","0","null","","","<div class = 'row'><div class = 'column'><img src = 'category1/CS4.png' width = '70%;'></div><div class = 'column'><img src = 'usneg/9342.bmp' width = '100%;'></div></div>","null","neg","CS","CS","1","category1/CS4.png","","","","",""
"","html-keyboard-response","85","504221","0.0-6.0-6.0-0.16","mhwuacmfnr","many_one","0","direct_first","1","NZ05EF25","0","38","1","1","3","1","","0","1","0","null","","","<div class = 'row'><div class = 'column'><img src = 'usneg/6212.bmp' width = '100%;'></div><div class = 'column'><img src = 'category4/CS4.png' width = '70%;'></div></div>","null","neg","CS","CS","4","category4/CS4.png","","","","",""
"","html-keyboard-response","86","506741","0.0-6.0-6.0-0.17","mhwuacmfnr","many_one","0","direct_first","1","NZ05EF25","0","38","1","1","3","1","","0","1","0","null","","","<div class = 'row'><div class = 'column'><img src = 'usneg/9182.bmp' width = '100%;'></div><div class = 'column'><img src = 'category1/CS7.png' width = '70%;'></div></div>","null","neg","CS","CS","1","category1/CS7.png","","","","",""
"","html-keyboard-response","87","509261","0.0-6.0-6.0-0.18","mhwuacmfnr","many_one","0","direct_first","1","NZ05EF25","0","38","1","1","3","1","","0","1","0","null","","","<div class = 'row'><div class = 'column'><img src = 'usneg/3300.bmp' width = '100%;'></div><div class = 'column'><img src = 'category4/CS2.png' width = '70%;'></div></div>","null","neg","CS","CS","4","category4/CS2.png","","","","",""
"","html-keyboard-response","88","511781","0.0-6.0-6.0-0.19","mhwuacmfnr","many_one","0","direct_first","1","NZ05EF25","0","38","1","1","3","1","","0","1","0","null","","","<div class = 'row'><div class = 'column'><img src = 'category2/CS8.png' width = '70%;'></div><div class = 'column'><img src = 'uspos/5700.bmp' width = '100%;'></div></div>","null","pos","CS","CS","2","category2/CS8.png","","","","",""
"","survey-html-form","89","531464","0.0-7.0","mhwuacmfnr","many_one","0","direct_first","1","NZ05EF25","0","38","1","1","3","1","","0","1","0","19173","","{}","","","","","","","","","","","",""
"","image-slider-response","90","547162","0.0-8.0-0.0","mhwuacmfnr","many_one","0","direct_first","1","NZ05EF25","0","38","1","1","3","1","","0","1","0","13677","","","","","pos","GS","abstract","2","category2/men.png","-19","targets/36.png","direct","",""
"","image-slider-response","91","555121","0.0-8.0-0.1","mhwuacmfnr","many_one","0","direct_first","1","NZ05EF25","0","38","1","1","3","1","","0","1","0","7952","","","","","pos","CS","CS","2","category2/CS8.png","14","targets/41.png","direct","",""
"","image-slider-response","92","561641","0.0-8.0-0.2","mhwuacmfnr","many_one","0","direct_first","1","NZ05EF25","0","38","1","1","3","1","","0","1","0","6513","","","","","neg","GS","GSold","4","category4/CS3.png","-25","targets/19.png","direct","",""
"","image-slider-response","93","567281","0.0-8.0-0.3","mhwuacmfnr","many_one","0","direct_first","1","NZ05EF25","0","38","1","1","3","1","","0","1","0","5634","","","","","pos","GS","GSold","3","category3/CS10.png","-27","targets/24.png","direct","",""
"","image-slider-response","94","574671","0.0-8.0-0.4","mhwuacmfnr","many_one","0","direct_first","1","NZ05EF25","0","38","1","1","3","1","","0","1","0","7383","","","","","neg","GS","GSnew","4","category4/GS1.png","-38","targets/11.png","direct","",""
"","image-slider-response","95","583761","0.0-8.0-0.5","mhwuacmfnr","many_one","0","direct_first","1","NZ05EF25","0","38","1","1","3","1","","0","1","0","9081","","","","","neg","CS","CS","1","category1/CS9.png","0","targets/35.png","direct","",""
"","image-slider-response","96","590660","0.0-8.0-0.6","mhwuacmfnr","many_one","0","direct_first","1","NZ05EF25","0","38","1","1","3","1","","0","1","0","6892","","","","","pos","GS","GSnew","2","category2/GS1.png","-1","targets/46.png","direct","",""
"","image-slider-response","97","599489","0.0-8.0-0.7","mhwuacmfnr","many_one","0","direct_first","1","NZ05EF25","0","38","1","1","3","1","","0","1","0","8823","","","","","neg","CS","CS","1","category1/CS4.png","-20","targets/42.png","direct","",""
"","image-slider-response","98","604620","0.0-8.0-0.8","mhwuacmfnr","many_one","0","direct_first","1","NZ05EF25","0","38","1","1","3","1","","0","1","0","5123","","","","","pos","GS","GSnew","2","category2/GS3.png","-23","targets/43.png","direct","",""
"","image-slider-response","99","611340","0.0-8.0-0.9","mhwuacmfnr","many_one","0","direct_first","1","NZ05EF25","0","38","1","1","3","1","","0","1","0","6713","","","","","neg","CS","CS","1","category1/CS1.png","-9","targets/8.png","direct","",""
"","image-slider-response","100","617400","0.0-8.0-0.10","mhwuacmfnr","many_one","0","direct_first","1","NZ05EF25","0","38","1","1","3","1","","0","1","0","6053","","","","","neg","GS","GSold","4","category4/CS9.png","6","targets/45.png","direct","",""
"","image-slider-response","101","621749","0.0-8.0-0.11","mhwuacmfnr","many_one","0","direct_first","1","NZ05EF25","0","38","1","1","3","1","","0","1","0","4342","","","","","neg","CS","CS","4","category4/CS7.png","-35","targets/37.png","direct","",""
"","image-slider-response","102","625699","0.0-8.0-0.12","mhwuacmfnr","many_one","0","direct_first","1","NZ05EF25","0","38","1","1","3","1","","0","1","0","3943","","","","","pos","CS","CS","3","category3/CS9.png","25","targets/23.png","direct","",""
"","image-slider-response","103","630309","0.0-8.0-0.13","mhwuacmfnr","many_one","0","direct_first","1","NZ05EF25","0","38","1","1","3","1","","0","1","0","4603","","","","","pos","CS","CS","2","category2/CS7.png","7","targets/22.png","direct","",""
"","image-slider-response","104","634478","0.0-8.0-0.14","mhwuacmfnr","many_one","0","direct_first","1","NZ05EF25","0","38","1","1","3","1","","0","1","0","4163","","","","","pos","GS","GSnew","2","category2/GS2.png","-11","targets/44.png","direct","",""
"","image-slider-response","105","640928","0.0-8.0-0.15","mhwuacmfnr","many_one","0","direct_first","1","NZ05EF25","0","38","1","1","3","1","","0","1","0","6442","","","","","pos","CS","CS","2","category2/CS6.png","-8","targets/40.png","direct","",""
"","image-slider-response","106","646619","0.0-8.0-0.16","mhwuacmfnr","many_one","0","direct_first","1","NZ05EF25","0","38","1","1","3","1","","0","1","0","5684","","","","","neg","GS","GSold","4","category4/CS1.png","-17","targets/1.png","direct","",""
"","image-slider-response","107","652019","0.0-8.0-0.17","mhwuacmfnr","many_one","0","direct_first","1","NZ05EF25","0","38","1","1","3","1","","0","1","0","5394","","","","","neg","GS","GSnew","1","category1/GS3.png","-21","targets/31.png","direct","",""
"","image-slider-response","108","656378","0.0-8.0-0.18","mhwuacmfnr","many_one","0","direct_first","1","NZ05EF25","0","38","1","1","3","1","","0","1","0","4353","","","","","neg","GS","GSnew","4","category4/GS3.png","-25","targets/32.png","direct","",""
"","image-slider-response","109","660588","0.0-8.0-0.19","mhwuacmfnr","many_one","0","direct_first","1","NZ05EF25","0","38","1","1","3","1","","0","1","0","4204","","","","","neg","GS","GSold","1","category1/CS5.png","-19","targets/16.png","direct","",""
"","image-slider-response","110","663948","0.0-8.0-0.20","mhwuacmfnr","many_one","0","direct_first","1","NZ05EF25","0","38","1","1","3","1","","0","1","0","3353","","","","","pos","GS","GSnew","3","category3/GS3.png","10","targets/48.png","direct","",""
"","image-slider-response","111","668288","0.0-8.0-0.21","mhwuacmfnr","many_one","0","direct_first","1","NZ05EF25","0","38","1","1","3","1","","0","1","0","4334","","","","","neg","GS","GSold","1","category1/CS6.png","13","targets/2.png","direct","",""
"","image-slider-response","112","673588","0.0-8.0-0.22","mhwuacmfnr","many_one","0","direct_first","1","NZ05EF25","0","38","1","1","3","1","","0","1","0","5293","","","","","pos","CS","CS","3","category3/CS2.png","-1","targets/38.png","direct","",""
"","image-slider-response","113","677017","0.0-8.0-0.23","mhwuacmfnr","many_one","0","direct_first","1","NZ05EF25","0","38","1","1","3","1","","0","1","0","3424","","","","","pos","GS","GSold","2","category2/CS10.png","9","targets/12.png","direct","",""
"","image-slider-response","114","680788","0.0-8.0-0.24","mhwuacmfnr","many_one","0","direct_first","1","NZ05EF25","0","38","1","1","3","1","","0","1","0","3763","","","","","neg","GS","GSnew","1","category1/GS2.png","-5","targets/30.png","direct","",""
"","image-slider-response","115","684567","0.0-8.0-0.25","mhwuacmfnr","many_one","0","direct_first","1","NZ05EF25","0","38","1","1","3","1","","0","1","0","3774","","","","","pos","CS","CS","2","category2/CS4.png","-18","targets/3.png","direct","",""
"","image-slider-response","116","688087","0.0-8.0-0.26","mhwuacmfnr","many_one","0","direct_first","1","NZ05EF25","0","38","1","1","3","1","","0","1","0","3515","","","","","pos","GS","GSold","2","category2/CS3.png","9","targets/39.png","direct","",""
"","image-slider-response","117","691797","0.0-8.0-0.27","mhwuacmfnr","many_one","0","direct_first","1","NZ05EF25","0","38","1","1","3","1","","0","1","0","3704","","","","","pos","CS","CS","3","category3/CS3.png","12","targets/17.png","direct","",""
"","image-slider-response","118","695498","0.0-8.0-0.28","mhwuacmfnr","many_one","0","direct_first","1","NZ05EF25","0","38","1","1","3","1","","0","1","0","3694","","","","","pos","GS","GSold","3","category3/CS4.png","-6","targets/9.png","direct","",""
"","image-slider-response","119","700507","0.0-8.0-0.29","mhwuacmfnr","many_one","0","direct_first","1","NZ05EF25","0","38","1","1","3","1","","0","1","0","5004","","","","","pos","GS","GSnew","3","category3/GS1.png","5","targets/5.png","direct","",""
"","image-slider-response","120","704167","0.0-8.0-0.30","mhwuacmfnr","many_one","0","direct_first","1","NZ05EF25","0","38","1","1","3","1","","0","1","0","3654","","","","","pos","CS","CS","2","category2/CS2.png","-17","targets/21.png","direct","",""
"","image-slider-response","121","707348","0.0-8.0-0.31","mhwuacmfnr","many_one","0","direct_first","1","NZ05EF25","0","38","1","1","3","1","","0","1","0","3174","","","","","pos","CS","CS","3","category3/CS7.png","-21","targets/10.png","direct","",""
"","image-slider-response","122","710977","0.0-8.0-0.32","mhwuacmfnr","many_one","0","direct_first","1","NZ05EF25","0","38","1","1","3","1","","0","1","0","3623","","","","","pos","GS","GSnew","3","category3/GS2.png","-13","targets/14.png","direct","",""
"","image-slider-response","123","714756","0.0-8.0-0.33","mhwuacmfnr","many_one","0","direct_first","1","NZ05EF25","0","38","1","1","3","1","","0","1","0","3772","","","","","neg","GS","abstract","4","category4/lin.png","-11","targets/34.png","direct","",""
"","image-slider-response","124","718596","0.0-8.0-0.34","mhwuacmfnr","many_one","0","direct_first","1","NZ05EF25","0","38","1","1","3","1","","0","1","0","3834","","","","","pos","CS","CS","3","category3/CS6.png","-8","targets/7.png","direct","",""
"","image-slider-response","125","721947","0.0-8.0-0.35","mhwuacmfnr","many_one","0","direct_first","1","NZ05EF25","0","38","1","1","3","1","","0","1","0","3343","","","","","neg","CS","CS","1","category1/CS7.png","-15","targets/47.png","direct","",""
"","image-slider-response","126","725546","0.0-8.0-0.36","mhwuacmfnr","many_one","0","direct_first","1","NZ05EF25","0","38","1","1","3","1","","0","1","0","3592","","","","","neg","CS","CS","4","category4/CS5.png","-16","targets/33.png","direct","",""
"","image-slider-response","127","729766","0.0-8.0-0.37","mhwuacmfnr","many_one","0","direct_first","1","NZ05EF25","0","38","1","1","3","1","","0","1","0","4213","","","","","neg","GS","GSnew","1","category1/GS1.png","-8","targets/29.png","direct","",""
"","image-slider-response","128","733027","0.0-8.0-0.38","mhwuacmfnr","many_one","0","direct_first","1","NZ05EF25","0","38","1","1","3","1","","0","1","0","3253","","","","","neg","CS","CS","1","category1/CS3.png","-1","targets/18.png","direct","",""
"","image-slider-response","129","737696","0.0-8.0-0.39","mhwuacmfnr","many_one","0","direct_first","1","NZ05EF25","0","38","1","1","3","1","","0","1","0","4664","","","","","pos","GS","GSold","2","category2/CS5.png","5","targets/15.png","direct","",""
"","image-slider-response","130","741616","0.0-8.0-0.40","mhwuacmfnr","many_one","0","direct_first","1","NZ05EF25","0","38","1","1","3","1","","0","1","0","3913","","","","","neg","CS","CS","4","category4/CS2.png","-11","targets/13.png","direct","",""
"","image-slider-response","131","745325","0.0-8.0-0.41","mhwuacmfnr","many_one","0","direct_first","1","NZ05EF25","0","38","1","1","3","1","","0","1","0","3704","","","","","neg","CS","CS","4","category4/CS6.png","-15","targets/26.png","direct","",""
"","image-slider-response","132","749806","0.0-8.0-0.42","mhwuacmfnr","many_one","0","direct_first","1","NZ05EF25","0","38","1","1","3","1","","0","1","0","4473","","","","","neg","GS","GSold","1","category1/CS2.png","-6","targets/28.png","direct","",""
"","image-slider-response","133","753155","0.0-8.0-0.43","mhwuacmfnr","many_one","0","direct_first","1","NZ05EF25","0","38","1","1","3","1","","0","1","0","3343","","","","","neg","GS","GSnew","4","category4/GS2.png","-15","targets/6.png","direct","",""
"","image-slider-response","134","761365","0.0-8.0-0.44","mhwuacmfnr","many_one","0","direct_first","1","NZ05EF25","0","38","1","1","3","1","","0","1","0","8203","","","","","pos","GS","GSold","3","category3/CS1.png","1","targets/20.png","direct","",""
"","image-slider-response","135","765015","0.0-8.0-0.45","mhwuacmfnr","many_one","0","direct_first","1","NZ05EF25","0","38","1","1","3","1","","0","1","0","3643","","","","","neg","CS","CS","4","category4/CS4.png","-10","targets/4.png","direct","",""
"","image-slider-response","136","769855","0.0-8.0-0.46","mhwuacmfnr","many_one","0","direct_first","1","NZ05EF25","0","38","1","1","3","1","","0","1","0","4832","","","","","neg","GS","abstract","1","category1/ma.png","7","targets/27.png","direct","",""
"","image-slider-response","137","776175","0.0-8.0-0.47","mhwuacmfnr","many_one","0","direct_first","1","NZ05EF25","0","38","1","1","3","1","","0","1","0","6313","","","","","pos","GS","abstract","3","category3/wang.png","13","targets/25.png","direct","",""
"","html-keyboard-response","138","840406","0.0-9.0","mhwuacmfnr","many_one","0","direct_first","1","NZ05EF25","0","38","1","1","3","1","","0","1","0","64224","","","<p>Sie sehen nun die chinesischen Zeichen nur ganz kurz. Danach sehen Sie die jeweilige Aussprache der Zeichen als Silbe auf dem Bildschrim. Ihre Aufgabe ist es, für jede Silbe anzugeben, ob diese etwas angenehmes, oder unangenehmes bedeuten könnte. Verlassen Sie sich hier vor allem auf Ihre Intuition.<br><br>Die Zeichen werden nur zur Orientierung dargestellt, beachten Sie sie deshalb nicht. Konzentrieren Sie sich vor allem auf die Silben. <br>Reagieren Sie mit folgenden zwei Tasten: <br><br><b>'D' </b> wenn die Silbe etwas <b>unangenehmes</b> bedeuten könnte. <br><b>'K'</b> wenn die Silbe etwas <b>angenehmes</b> bedeuten könnte. <br><br>Bitte legen Sie nun den Zeigefinger der linken Hand auf die Taste 'D' und den Zeigefinger der rechten Hand auf die Taste 'K'. <br>Reagieren Sie auf jede Silbe so schnell wie möglich. Uns interessiert Ihre spontane Reaktion. <br> <br> <br>Drücken Sie 'D' oder 'K', um die nächste Aufgabe zu starten. </p>","68","","","","","","","","","",""
"","html-keyboard-response","139","843421","0.0-10.0-0.0","mhwuacmfnr","many_one","0","direct_first","1","NZ05EF25","0","38","1","1","3","1","","0","1","0","null","","","<div style=""font-size:60px;"">+</div>","null","","","","","","","","","",""
"","html-keyboard-response","140","843521","0.0-10.0-1.0","mhwuacmfnr","many_one","0","direct_first","1","NZ05EF25","0","38","1","1","3","1","","0","1","0","null","","","<img src = 'category2/CS2.png' width = '100%;'>","null","","","","","","","","","",""
"","html-keyboard-response","141","843781","0.0-10.0-2.0","mhwuacmfnr","many_one","0","direct_first","1","NZ05EF25","0","38","1","1","3","1","","0","1","0","null","","","<img src = 'targets/21.png' width = '100%;'>","null","","","","","","","","","",""
"","html-keyboard-response","142","848755","0.0-10.0-3.0","mhwuacmfnr","many_one","0","direct_first","1","NZ05EF25","0","38","1","1","3","1","","0","1","0","4970","","","<img src = 'targets/mask.png' width = '100%;'>","75","pos","CS","CS","2","category2/CS2.png","","targets/21.png","indirect","1","0"
"","html-keyboard-response","143","850270","0.0-10.0-0.1","mhwuacmfnr","many_one","0","direct_first","1","NZ05EF25","0","38","1","1","3","1","","0","1","0","null","","","<div style=""font-size:60px;"">+</div>","null","","","","","","","","","",""
"","html-keyboard-response","144","850370","0.0-10.0-1.1","mhwuacmfnr","many_one","0","direct_first","1","NZ05EF25","0","38","1","1","3","1","","0","1","0","null","","","<img src = 'category1/CS1.png' width = '100%;'>","null","","","","","","","","","",""
"","html-keyboard-response","145","850631","0.0-10.0-2.1","mhwuacmfnr","many_one","0","direct_first","1","NZ05EF25","0","38","1","1","3","1","","0","1","0","null","","","<img src = 'targets/8.png' width = '100%;'>","null","","","","","","","","","",""
"","html-keyboard-response","146","852927","0.0-10.0-3.1","mhwuacmfnr","many_one","0","direct_first","1","NZ05EF25","0","38","1","1","3","1","","0","1","0","2295","","","<img src = 'targets/mask.png' width = '100%;'>","68","neg","CS","CS","1","category1/CS1.png","","targets/8.png","indirect","0","1"
"","html-keyboard-response","147","854441","0.0-10.0-0.2","mhwuacmfnr","many_one","0","direct_first","1","NZ05EF25","0","38","1","1","3","1","","0","1","0","null","","","<div style=""font-size:60px;"">+</div>","null","","","","","","","","","",""
"","html-keyboard-response","148","854540","0.0-10.0-1.2","mhwuacmfnr","many_one","0","direct_first","1","NZ05EF25","0","38","1","1","3","1","","0","1","0","null","","","<img src = 'category3/CS2.png' width = '100%;'>","null","","","","","","","","","",""
"","html-keyboard-response","149","854801","0.0-10.0-2.2","mhwuacmfnr","many_one","0","direct_first","1","NZ05EF25","0","38","1","1","3","1","","0","1","0","null","","","<img src = 'targets/38.png' width = '100%;'>","null","","","","","","","","","",""
"","html-keyboard-response","150","856658","0.0-10.0-3.2","mhwuacmfnr","many_one","0","direct_first","1","NZ05EF25","0","38","1","1","3","1","","0","1","0","1855","","","<img src = 'targets/mask.png' width = '100%;'>","75","pos","CS","CS","3","category3/CS2.png","","targets/38.png","indirect","1","2"
"","html-keyboard-response","151","858170","0.0-10.0-0.3","mhwuacmfnr","many_one","0","direct_first","1","NZ05EF25","0","38","1","1","3","1","","0","1","0","null","","","<div style=""font-size:60px;"">+</div>","null","","","","","","","","","",""
"","html-keyboard-response","152","858270","0.0-10.0-1.3","mhwuacmfnr","many_one","0","direct_first","1","NZ05EF25","0","38","1","1","3","1","","0","1","0","null","","","<img src = 'category2/CS6.png' width = '100%;'>","null","","","","","","","","","",""
"","html-keyboard-response","153","858530","0.0-10.0-2.3","mhwuacmfnr","many_one","0","direct_first","1","NZ05EF25","0","38","1","1","3","1","","0","1","0","null","","","<img src = 'targets/40.png' width = '100%;'>","null","","","","","","","","","",""
"","html-keyboard-response","154","859762","0.0-10.0-3.3","mhwuacmfnr","many_one","0","direct_first","1","NZ05EF25","0","38","1","1","3","1","","0","1","0","1230","","","<img src = 'targets/mask.png' width = '100%;'>","68","pos","CS","CS","2","category2/CS6.png","","targets/40.png","indirect","0","3"
"","html-keyboard-response","155","861281","0.0-10.0-0.4","mhwuacmfnr","many_one","0","direct_first","1","NZ05EF25","0","38","1","1","3","1","","0","1","0","null","","","<div style=""font-size:60px;"">+</div>","null","","","","","","","","","",""
"","html-keyboard-response","156","861380","0.0-10.0-1.4","mhwuacmfnr","many_one","0","direct_first","1","NZ05EF25","0","38","1","1","3","1","","0","1","0","null","","","<img src = 'category4/CS1.png' width = '100%;'>","null","","","","","","","","","",""
"","html-keyboard-response","157","861640","0.0-10.0-2.4","mhwuacmfnr","many_one","0","direct_first","1","NZ05EF25","0","38","1","1","3","1","","0","1","0","null","","","<img src = 'targets/1.png' width = '100%;'>","null","","","","","","","","","",""
"","html-keyboard-response","158","864681","0.0-10.0-3.4","mhwuacmfnr","many_one","0","direct_first","1","NZ05EF25","0","38","1","1","3","1","","0","1","0","3038","","","<img src = 'targets/mask.png' width = '100%;'>","68","neg","GS","GSold","4","category4/CS1.png","","targets/1.png","indirect","0","4"
"","html-keyboard-response","159","866200","0.0-10.0-0.5","mhwuacmfnr","many_one","0","direct_first","1","NZ05EF25","0","38","1","1","3","1","","0","1","0","null","","","<div style=""font-size:60px;"">+</div>","null","","","","","","","","","",""
"","html-keyboard-response","160","866300","0.0-10.0-1.5","mhwuacmfnr","many_one","0","direct_first","1","NZ05EF25","0","38","1","1","3","1","","0","1","0","null","","","<img src = 'category4/CS2.png' width = '100%;'>","null","","","","","","","","","",""
"","html-keyboard-response","161","866560","0.0-10.0-2.5","mhwuacmfnr","many_one","0","direct_first","1","NZ05EF25","0","38","1","1","3","1","","0","1","0","null","","","<img src = 'targets/13.png' width = '100%;'>","null","","","","","","","","","",""
"","html-keyboard-response","162","867769","0.0-10.0-3.5","mhwuacmfnr","many_one","0","direct_first","1","NZ05EF25","0","38","1","1","3","1","","0","1","0","1206","","","<img src = 'targets/mask.png' width = '100%;'>","75","neg","CS","CS","4","category4/CS2.png","","targets/13.png","indirect","1","5"
"","html-keyboard-response","163","869281","0.0-10.0-0.6","mhwuacmfnr","many_one","0","direct_first","1","NZ05EF25","0","38","1","1","3","1","","0","1","0","null","","","<div style=""font-size:60px;"">+</div>","null","","","","","","","","","",""
"","html-keyboard-response","164","869380","0.0-10.0-1.6","mhwuacmfnr","many_one","0","direct_first","1","NZ05EF25","0","38","1","1","3","1","","0","1","0","null","","","<img src = 'category1/CS7.png' width = '100%;'>","null","","","","","","","","","",""
"","html-keyboard-response","165","869640","0.0-10.0-2.6","mhwuacmfnr","many_one","0","direct_first","1","NZ05EF25","0","38","1","1","3","1","","0","1","0","null","","","<img src = 'targets/47.png' width = '100%;'>","null","","","","","","","","","",""
"","html-keyboard-response","166","870984","0.0-10.0-3.6","mhwuacmfnr","many_one","0","direct_first","1","NZ05EF25","0","38","1","1","3","1","","0","1","0","1342","","","<img src = 'targets/mask.png' width = '100%;'>","68","neg","CS","CS","1","category1/CS7.png","","targets/47.png","indirect","0","6"
"","html-keyboard-response","167","872500","0.0-10.0-0.7","mhwuacmfnr","many_one","0","direct_first","1","NZ05EF25","0","38","1","1","3","1","","0","1","0","null","","","<div style=""font-size:60px;"">+</div>","null","","","","","","","","","",""
"","html-keyboard-response","168","872600","0.0-10.0-1.7","mhwuacmfnr","many_one","0","direct_first","1","NZ05EF25","0","38","1","1","3","1","","0","1","0","null","","","<img src = 'category2/CS4.png' width = '100%;'>","null","","","","","","","","","",""
"","html-keyboard-response","169","872860","0.0-10.0-2.7","mhwuacmfnr","many_one","0","direct_first","1","NZ05EF25","0","38","1","1","3","1","","0","1","0","null","","","<img src = 'targets/3.png' width = '100%;'>","null","","","","","","","","","",""
"","html-keyboard-response","170","873961","0.0-10.0-3.7","mhwuacmfnr","many_one","0","direct_first","1","NZ05EF25","0","38","1","1","3","1","","0","1","0","1099","","","<img src = 'targets/mask.png' width = '100%;'>","68","pos","CS","CS","2","category2/CS4.png","","targets/3.png","indirect","0","7"
"","html-keyboard-response","171","875480","0.0-10.0-0.8","mhwuacmfnr","many_one","0","direct_first","1","NZ05EF25","0","38","1","1","3","1","","0","1","0","null","","","<div style=""font-size:60px;"">+</div>","null","","","","","","","","","",""
"","html-keyboard-response","172","875580","0.0-10.0-1.8","mhwuacmfnr","many_one","0","direct_first","1","NZ05EF25","0","38","1","1","3","1","","0","1","0","null","","","<img src = 'category1/CS4.png' width = '100%;'>","null","","","","","","","","","",""
"","html-keyboard-response","173","875840","0.0-10.0-2.8","mhwuacmfnr","many_one","0","direct_first","1","NZ05EF25","0","38","1","1","3","1","","0","1","0","null","","","<img src = 'targets/42.png' width = '100%;'>","null","","","","","","","","","",""
"","html-keyboard-response","174","877158","0.0-10.0-3.8","mhwuacmfnr","many_one","0","direct_first","1","NZ05EF25","0","38","1","1","3","1","","0","1","0","1318","","","<img src = 'targets/mask.png' width = '100%;'>","68","neg","CS","CS","1","category1/CS4.png","","targets/42.png","indirect","0","8"
"","html-keyboard-response","175","878670","0.0-10.0-0.9","mhwuacmfnr","many_one","0","direct_first","1","NZ05EF25","0","38","1","1","3","1","","0","1","0","null","","","<div style=""font-size:60px;"">+</div>","null","","","","","","","","","",""
"","html-keyboard-response","176","878769","0.0-10.0-1.9","mhwuacmfnr","many_one","0","direct_first","1","NZ05EF25","0","38","1","1","3","1","","0","1","0","null","","","<img src = 'category1/CS3.png' width = '100%;'>","null","","","","","","","","","",""
"","html-keyboard-response","177","879030","0.0-10.0-2.9","mhwuacmfnr","many_one","0","direct_first","1","NZ05EF25","0","38","1","1","3","1","","0","1","0","null","","","<img src = 'targets/18.png' width = '100%;'>","null","","","","","","","","","",""
"","html-keyboard-response","178","879996","0.0-10.0-3.9","mhwuacmfnr","many_one","0","direct_first","1","NZ05EF25","0","38","1","1","3","1","","0","1","0","963","","","<img src = 'targets/mask.png' width = '100%;'>","75","neg","CS","CS","1","category1/CS3.png","","targets/18.png","indirect","1","9"
"","html-keyboard-response","179","881510","0.0-10.0-0.10","mhwuacmfnr","many_one","0","direct_first","1","NZ05EF25","0","38","1","1","3","1","","0","1","0","null","","","<div style=""font-size:60px;"">+</div>","null","","","","","","","","","",""
"","html-keyboard-response","180","881609","0.0-10.0-1.10","mhwuacmfnr","many_one","0","direct_first","1","NZ05EF25","0","38","1","1","3","1","","0","1","0","null","","","<img src = 'category4/CS3.png' width = '100%;'>","null","","","","","","","","","",""
"","html-keyboard-response","181","881870","0.0-10.0-2.10","mhwuacmfnr","many_one","0","direct_first","1","NZ05EF25","0","38","1","1","3","1","","0","1","0","null","","","<img src = 'targets/19.png' width = '100%;'>","null","","","","","","","","","",""
"","html-keyboard-response","182","883084","0.0-10.0-3.10","mhwuacmfnr","many_one","0","direct_first","1","NZ05EF25","0","38","1","1","3","1","","0","1","0","1213","","","<img src = 'targets/mask.png' width = '100%;'>","75","neg","GS","GSold","4","category4/CS3.png","","targets/19.png","indirect","1","10"
"","html-keyboard-response","183","884600","0.0-10.0-0.11","mhwuacmfnr","many_one","0","direct_first","1","NZ05EF25","0","38","1","1","3","1","","0","1","0","null","","","<div style=""font-size:60px;"">+</div>","null","","","","","","","","","",""
"","html-keyboard-response","184","884700","0.0-10.0-1.11","mhwuacmfnr","many_one","0","direct_first","1","NZ05EF25","0","38","1","1","3","1","","0","1","0","null","","","<img src = 'category3/CS9.png' width = '100%;'>","null","","","","","","","","","",""
"","html-keyboard-response","185","884960","0.0-10.0-2.11","mhwuacmfnr","many_one","0","direct_first","1","NZ05EF25","0","38","1","1","3","1","","0","1","0","null","","","<img src = 'targets/23.png' width = '100%;'>","null","","","","","","","","","",""
"","html-keyboard-response","186","885803","0.0-10.0-3.11","mhwuacmfnr","many_one","0","direct_first","1","NZ05EF25","0","38","1","1","3","1","","0","1","0","842","","","<img src = 'targets/mask.png' width = '100%;'>","68","pos","CS","CS","3","category3/CS9.png","","targets/23.png","indirect","0","11"
"","html-keyboard-response","187","887320","0.0-10.0-0.12","mhwuacmfnr","many_one","0","direct_first","1","NZ05EF25","0","38","1","1","3","1","","0","1","0","null","","","<div style=""font-size:60px;"">+</div>","null","","","","","","","","","",""
"","html-keyboard-response","188","887420","0.0-10.0-1.12","mhwuacmfnr","many_one","0","direct_first","1","NZ05EF25","0","38","1","1","3","1","","0","1","0","null","","","<img src = 'category3/CS7.png' width = '100%;'>","null","","","","","","","","","",""
"","html-keyboard-response","189","887680","0.0-10.0-2.12","mhwuacmfnr","many_one","0","direct_first","1","NZ05EF25","0","38","1","1","3","1","","0","1","0","null","","","<img src = 'targets/10.png' width = '100%;'>","null","","","","","","","","","",""
"","html-keyboard-response","190","888901","0.0-10.0-3.12","mhwuacmfnr","many_one","0","direct_first","1","NZ05EF25","0","38","1","1","3","1","","0","1","0","1220","","","<img src = 'targets/mask.png' width = '100%;'>","75","pos","CS","CS","3","category3/CS7.png","","targets/10.png","indirect","1","12"
"","html-keyboard-response","191","890419","0.0-10.0-0.13","mhwuacmfnr","many_one","0","direct_first","1","NZ05EF25","0","38","1","1","3","1","","0","1","0","null","","","<div style=""font-size:60px;"">+</div>","null","","","","","","","","","",""
"","html-keyboard-response","192","890519","0.0-10.0-1.13","mhwuacmfnr","many_one","0","direct_first","1","NZ05EF25","0","38","1","1","3","1","","0","1","0","null","","","<img src = 'category2/CS7.png' width = '100%;'>","null","","","","","","","","","",""
"","html-keyboard-response","193","890779","0.0-10.0-2.13","mhwuacmfnr","many_one","0","direct_first","1","NZ05EF25","0","38","1","1","3","1","","0","1","0","null","","","<img src = 'targets/22.png' width = '100%;'>","null","","","","","","","","","",""
"","html-keyboard-response","194","892379","0.0-10.0-3.13","mhwuacmfnr","many_one","0","direct_first","1","NZ05EF25","0","38","1","1","3","1","","0","1","0","1598","","","<img src = 'targets/mask.png' width = '100%;'>","75","pos","CS","CS","2","category2/CS7.png","","targets/22.png","indirect","1","13"
"","html-keyboard-response","195","893899","0.0-10.0-0.14","mhwuacmfnr","many_one","0","direct_first","1","NZ05EF25","0","38","1","1","3","1","","0","1","0","null","","","<div style=""font-size:60px;"">+</div>","null","","","","","","","","","",""
"","html-keyboard-response","196","894000","0.0-10.0-1.14","mhwuacmfnr","many_one","0","direct_first","1","NZ05EF25","0","38","1","1","3","1","","0","1","0","null","","","<img src = 'category3/CS3.png' width = '100%;'>","null","","","","","","","","","",""
"","html-keyboard-response","197","894259","0.0-10.0-2.14","mhwuacmfnr","many_one","0","direct_first","1","NZ05EF25","0","38","1","1","3","1","","0","1","0","null","","","<img src = 'targets/17.png' width = '100%;'>","null","","","","","","","","","",""
"","html-keyboard-response","198","895394","0.0-10.0-3.14","mhwuacmfnr","many_one","0","direct_first","1","NZ05EF25","0","38","1","1","3","1","","0","1","0","1133","","","<img src = 'targets/mask.png' width = '100%;'>","75","pos","CS","CS","3","category3/CS3.png","","targets/17.png","indirect","1","14"
"","html-keyboard-response","199","896909","0.0-10.0-0.15","mhwuacmfnr","many_one","0","direct_first","1","NZ05EF25","0","38","1","1","3","1","","0","1","0","null","","","<div style=""font-size:60px;"">+</div>","null","","","","","","","","","",""
"","html-keyboard-response","200","897009","0.0-10.0-1.15","mhwuacmfnr","many_one","0","direct_first","1","NZ05EF25","0","38","1","1","3","1","","0","1","0","null","","","<img src = 'category4/CS4.png' width = '100%;'>","null","","","","","","","","","",""
"","html-keyboard-response","201","897269","0.0-10.0-2.15","mhwuacmfnr","many_one","0","direct_first","1","NZ05EF25","0","38","1","1","3","1","","0","1","0","null","","","<img src = 'targets/4.png' width = '100%;'>","null","","","","","","","","","",""
"","html-keyboard-response","202","897901","0.0-10.0-3.15","mhwuacmfnr","many_one","0","direct_first","1","NZ05EF25","0","38","1","1","3","1","","0","1","0","629","","","<img src = 'targets/mask.png' width = '100%;'>","68","neg","CS","CS","4","category4/CS4.png","","targets/4.png","indirect","0","15"
"","html-keyboard-response","203","899419","0.0-10.0-0.16","mhwuacmfnr","many_one","0","direct_first","1","NZ05EF25","0","38","1","1","3","1","","0","1","0","null","","","<div style=""font-size:60px;"">+</div>","null","","","","","","","","","",""
"","html-keyboard-response","204","899519","0.0-10.0-1.16","mhwuacmfnr","many_one","0","direct_first","1","NZ05EF25","0","38","1","1","3","1","","0","1","0","null","","","<img src = 'category2/CS8.png' width = '100%;'>","null","","","","","","","","","",""
"","html-keyboard-response","205","899779","0.0-10.0-2.16","mhwuacmfnr","many_one","0","direct_first","1","NZ05EF25","0","38","1","1","3","1","","0","1","0","null","","","<img src = 'targets/41.png' width = '100%;'>","null","","","","","","","","","",""
"","html-keyboard-response","206","901004","0.0-10.0-3.16","mhwuacmfnr","many_one","0","direct_first","1","NZ05EF25","0","38","1","1","3","1","","0","1","0","1223","","","<img src = 'targets/mask.png' width = '100%;'>","75","pos","CS","CS","2","category2/CS8.png","","targets/41.png","indirect","1","16"
"","html-keyboard-response","207","902519","0.0-10.0-0.17","mhwuacmfnr","many_one","0","direct_first","1","NZ05EF25","0","38","1","1","3","1","","0","1","0","null","","","<div style=""font-size:60px;"">+</div>","null","","","","","","","","","",""
"","html-keyboard-response","208","902619","0.0-10.0-1.17","mhwuacmfnr","many_one","0","direct_first","1","NZ05EF25","0","38","1","1","3","1","","0","1","0","null","","","<img src = 'category4/CS9.png' width = '100%;'>","null","","","","","","","","","",""
"","html-keyboard-response","209","902879","0.0-10.0-2.17","mhwuacmfnr","many_one","0","direct_first","1","NZ05EF25","0","38","1","1","3","1","","0","1","0","null","","","<img src = 'targets/45.png' width = '100%;'>","null","","","","","","","","","",""
"","html-keyboard-response","210","903994","0.0-10.0-3.17","mhwuacmfnr","many_one","0","direct_first","1","NZ05EF25","0","38","1","1","3","1","","0","1","0","1114","","","<img src = 'targets/mask.png' width = '100%;'>","75","neg","GS","GSold","4","category4/CS9.png","","targets/45.png","indirect","1","17"
"","html-keyboard-response","211","905499","0.0-10.0-0.18","mhwuacmfnr","many_one","0","direct_first","1","NZ05EF25","0","38","1","1","3","1","","0","1","0","null","","","<div style=""font-size:60px;"">+</div>","null","","","","","","","","","",""
"","html-keyboard-response","212","905599","0.0-10.0-1.18","mhwuacmfnr","many_one","0","direct_first","1","NZ05EF25","0","38","1","1","3","1","","0","1","0","null","","","<img src = 'category3/CS4.png' width = '100%;'>","null","","","","","","","","","",""
"","html-keyboard-response","213","905859","0.0-10.0-2.18","mhwuacmfnr","many_one","0","direct_first","1","NZ05EF25","0","38","1","1","3","1","","0","1","0","null","","","<img src = 'targets/9.png' width = '100%;'>","null","","","","","","","","","",""
"","html-keyboard-response","214","906640","0.0-10.0-3.18","mhwuacmfnr","many_one","0","direct_first","1","NZ05EF25","0","38","1","1","3","1","","0","1","0","779","","","<img src = 'targets/mask.png' width = '100%;'>","68","pos","GS","GSold","3","category3/CS4.png","","targets/9.png","indirect","0","18"
"","html-keyboard-response","215","908158","0.0-10.0-0.19","mhwuacmfnr","many_one","0","direct_first","1","NZ05EF25","0","38","1","1","3","1","","0","1","0","null","","","<div style=""font-size:60px;"">+</div>","null","","","","","","","","","",""
"","html-keyboard-response","216","908259","0.0-10.0-1.19","mhwuacmfnr","many_one","0","direct_first","1","NZ05EF25","0","38","1","1","3","1","","0","1","0","null","","","<img src = 'category4/CS5.png' width = '100%;'>","null","","","","","","","","","",""
"","html-keyboard-response","217","908519","0.0-10.0-2.19","mhwuacmfnr","many_one","0","direct_first","1","NZ05EF25","0","38","1","1","3","1","","0","1","0","null","","","<img src = 'targets/33.png' width = '100%;'>","null","","","","","","","","","",""
"","html-keyboard-response","218","909517","0.0-10.0-3.19","mhwuacmfnr","many_one","0","direct_first","1","NZ05EF25","0","38","1","1","3","1","","0","1","0","996","","","<img src = 'targets/mask.png' width = '100%;'>","68","neg","CS","CS","4","category4/CS5.png","","targets/33.png","indirect","0","19"
"","html-keyboard-response","219","911028","0.0-10.0-0.20","mhwuacmfnr","many_one","0","direct_first","1","NZ05EF25","0","38","1","1","3","1","","0","1","0","null","","","<div style=""font-size:60px;"">+</div>","null","","","","","","","","","",""
"","html-keyboard-response","220","911129","0.0-10.0-1.20","mhwuacmfnr","many_one","0","direct_first","1","NZ05EF25","0","38","1","1","3","1","","0","1","0","null","","","<img src = 'category1/CS9.png' width = '100%;'>","null","","","","","","","","","",""
"","html-keyboard-response","221","911388","0.0-10.0-2.20","mhwuacmfnr","many_one","0","direct_first","1","NZ05EF25","0","38","1","1","3","1","","0","1","0","null","","","<img src = 'targets/35.png' width = '100%;'>","null","","","","","","","","","",""
"","html-keyboard-response","222","912669","0.0-10.0-3.20","mhwuacmfnr","many_one","0","direct_first","1","NZ05EF25","0","38","1","1","3","1","","0","1","0","1278","","","<img src = 'targets/mask.png' width = '100%;'>","75","neg","CS","CS","1","category1/CS9.png","","targets/35.png","indirect","1","20"
"","html-keyboard-response","223","914188","0.0-10.0-0.21","mhwuacmfnr","many_one","0","direct_first","1","NZ05EF25","0","38","1","1","3","1","","0","1","0","null","","","<div style=""font-size:60px;"">+</div>","null","","","","","","","","","",""
"","html-keyboard-response","224","914289","0.0-10.0-1.21","mhwuacmfnr","many_one","0","direct_first","1","NZ05EF25","0","38","1","1","3","1","","0","1","0","null","","","<img src = 'category4/CS6.png' width = '100%;'>","null","","","","","","","","","",""
"","html-keyboard-response","225","914549","0.0-10.0-2.21","mhwuacmfnr","many_one","0","direct_first","1","NZ05EF25","0","38","1","1","3","1","","0","1","0","null","","","<img src = 'targets/26.png' width = '100%;'>","null","","","","","","","","","",""
"","html-keyboard-response","226","915759","0.0-10.0-3.21","mhwuacmfnr","many_one","0","direct_first","1","NZ05EF25","0","38","1","1","3","1","","0","1","0","1208","","","<img src = 'targets/mask.png' width = '100%;'>","68","neg","CS","CS","4","category4/CS6.png","","targets/26.png","indirect","0","21"
"","html-keyboard-response","227","917279","0.0-10.0-0.22","mhwuacmfnr","many_one","0","direct_first","1","NZ05EF25","0","38","1","1","3","1","","0","1","0","null","","","<div style=""font-size:60px;"">+</div>","null","","","","","","","","","",""
"","html-keyboard-response","228","917379","0.0-10.0-1.22","mhwuacmfnr","many_one","0","direct_first","1","NZ05EF25","0","38","1","1","3","1","","0","1","0","null","","","<img src = 'category3/CS6.png' width = '100%;'>","null","","","","","","","","","",""
"","html-keyboard-response","229","917638","0.0-10.0-2.22","mhwuacmfnr","many_one","0","direct_first","1","NZ05EF25","0","38","1","1","3","1","","0","1","0","null","","","<img src = 'targets/7.png' width = '100%;'>","null","","","","","","","","","",""
"","html-keyboard-response","230","918506","0.0-10.0-3.22","mhwuacmfnr","many_one","0","direct_first","1","NZ05EF25","0","38","1","1","3","1","","0","1","0","865","","","<img src = 'targets/mask.png' width = '100%;'>","68","pos","CS","CS","3","category3/CS6.png","","targets/7.png","indirect","0","22"
"","html-keyboard-response","231","920019","0.0-10.0-0.23","mhwuacmfnr","many_one","0","direct_first","1","NZ05EF25","0","38","1","1","3","1","","0","1","0","null","","","<div style=""font-size:60px;"">+</div>","null","","","","","","","","","",""
"","html-keyboard-response","232","920119","0.0-10.0-1.23","mhwuacmfnr","many_one","0","direct_first","1","NZ05EF25","0","38","1","1","3","1","","0","1","0","null","","","<img src = 'category4/CS7.png' width = '100%;'>","null","","","","","","","","","",""
"","html-keyboard-response","233","920378","0.0-10.0-2.23","mhwuacmfnr","many_one","0","direct_first","1","NZ05EF25","0","38","1","1","3","1","","0","1","0","null","","","<img src = 'targets/37.png' width = '100%;'>","null","","","","","","","","","",""
"","html-keyboard-response","234","921202","0.0-10.0-3.23","mhwuacmfnr","many_one","0","direct_first","1","NZ05EF25","0","38","1","1","3","1","","0","1","0","822","","","<img src = 'targets/mask.png' width = '100%;'>","68","neg","CS","CS","4","category4/CS7.png","","targets/37.png","indirect","0","23"
"","survey-html-form","235","930223","0.0-11.0","mhwuacmfnr","many_one","0","direct_first","1","NZ05EF25","0","38","1","1","3","1","","0","1","0","8513","","{}","","","","","","","","","","","",""
"","html-keyboard-response","236","933238","0.0-12.0-0.0","mhwuacmfnr","many_one","0","direct_first","1","NZ05EF25","0","38","1","1","3","1","","0","1","0","null","","","<div style=""font-size:60px;"">+</div>","null","","","","","","","","","",""
"","html-keyboard-response","237","933338","0.0-12.0-1.0","mhwuacmfnr","many_one","0","direct_first","1","NZ05EF25","0","38","1","1","3","1","","0","1","0","null","","","<img src = 'category3/CS1.png' width = '100%;'>","null","","","","","","","","","",""
"","html-keyboard-response","238","933598","0.0-12.0-2.0","mhwuacmfnr","many_one","0","direct_first","1","NZ05EF25","0","38","1","1","3","1","","0","1","0","null","","","<img src = 'targets/20.png' width = '100%;'>","null","","","","","","","","","",""
"","html-keyboard-response","239","934369","0.0-12.0-3.0","mhwuacmfnr","many_one","0","direct_first","1","NZ05EF25","0","38","1","1","3","1","","0","1","0","769","","","<img src = 'targets/mask.png' width = '100%;'>","68","pos","GS","GSold","3","category3/CS1.png","","targets/20.png","indirect","0","24"
"","html-keyboard-response","240","935888","0.0-12.0-0.1","mhwuacmfnr","many_one","0","direct_first","1","NZ05EF25","0","38","1","1","3","1","","0","1","0","null","","","<div style=""font-size:60px;"">+</div>","null","","","","","","","","","",""
"","html-keyboard-response","241","935988","0.0-12.0-1.1","mhwuacmfnr","many_one","0","direct_first","1","NZ05EF25","0","38","1","1","3","1","","0","1","0","null","","","<img src = 'category1/CS2.png' width = '100%;'>","null","","","","","","","","","",""
"","html-keyboard-response","242","936248","0.0-12.0-2.1","mhwuacmfnr","many_one","0","direct_first","1","NZ05EF25","0","38","1","1","3","1","","0","1","0","null","","","<img src = 'targets/28.png' width = '100%;'>","null","","","","","","","","","",""
"","html-keyboard-response","243","937381","0.0-12.0-3.1","mhwuacmfnr","many_one","0","direct_first","1","NZ05EF25","0","38","1","1","3","1","","0","1","0","1132","","","<img src = 'targets/mask.png' width = '100%;'>","68","neg","GS","GSold","1","category1/CS2.png","","targets/28.png","indirect","0","25"
"","html-keyboard-response","244","938898","0.0-12.0-0.2","mhwuacmfnr","many_one","0","direct_first","1","NZ05EF25","0","38","1","1","3","1","","0","1","0","null","","","<div style=""font-size:60px;"">+</div>","null","","","","","","","","","",""
"","html-keyboard-response","245","938998","0.0-12.0-1.2","mhwuacmfnr","many_one","0","direct_first","1","NZ05EF25","0","38","1","1","3","1","","0","1","0","null","","","<img src = 'category1/GS2.png' width = '100%;'>","null","","","","","","","","","",""
"","html-keyboard-response","246","939258","0.0-12.0-2.2","mhwuacmfnr","many_one","0","direct_first","1","NZ05EF25","0","38","1","1","3","1","","0","1","0","null","","","<img src = 'targets/30.png' width = '100%;'>","null","","","","","","","","","",""
"","html-keyboard-response","247","940191","0.0-12.0-3.2","mhwuacmfnr","many_one","0","direct_first","1","NZ05EF25","0","38","1","1","3","1","","0","1","0","930","","","<img src = 'targets/mask.png' width = '100%;'>","68","neg","GS","GSnew","1","category1/GS2.png","","targets/30.png","indirect","0","26"
"","html-keyboard-response","248","941708","0.0-12.0-0.3","mhwuacmfnr","many_one","0","direct_first","1","NZ05EF25","0","38","1","1","3","1","","0","1","0","null","","","<div style=""font-size:60px;"">+</div>","null","","","","","","","","","",""
"","html-keyboard-response","249","941808","0.0-12.0-1.3","mhwuacmfnr","many_one","0","direct_first","1","NZ05EF25","0","38","1","1","3","1","","0","1","0","null","","","<img src = 'category2/GS2.png' width = '100%;'>","null","","","","","","","","","",""
"","html-keyboard-response","250","942068","0.0-12.0-2.3","mhwuacmfnr","many_one","0","direct_first","1","NZ05EF25","0","38","1","1","3","1","","0","1","0","null","","","<img src = 'targets/44.png' width = '100%;'>","null","","","","","","","","","",""
"","html-keyboard-response","251","942955","0.0-12.0-3.3","mhwuacmfnr","many_one","0","direct_first","1","NZ05EF25","0","38","1","1","3","1","","0","1","0","886","","","<img src = 'targets/mask.png' width = '100%;'>","75","pos","GS","GSnew","2","category2/GS2.png","","targets/44.png","indirect","1","27"
"","html-keyboard-response","252","944468","0.0-12.0-0.4","mhwuacmfnr","many_one","0","direct_first","1","NZ05EF25","0","38","1","1","3","1","","0","1","0","null","","","<div style=""font-size:60px;"">+</div>","null","","","","","","","","","",""
"","html-keyboard-response","253","944568","0.0-12.0-1.4","mhwuacmfnr","many_one","0","direct_first","1","NZ05EF25","0","38","1","1","3","1","","0","1","0","null","","","<img src = 'category1/GS3.png' width = '100%;'>","null","","","","","","","","","",""
"","html-keyboard-response","254","944827","0.0-12.0-2.4","mhwuacmfnr","many_one","0","direct_first","1","NZ05EF25","0","38","1","1","3","1","","0","1","0","null","","","<img src = 'targets/31.png' width = '100%;'>","null","","","","","","","","","",""
"","html-keyboard-response","255","946488","0.0-12.0-3.4","mhwuacmfnr","many_one","0","direct_first","1","NZ05EF25","0","38","1","1","3","1","","0","1","0","1658","","","<img src = 'targets/mask.png' width = '100%;'>","68","neg","GS","GSnew","1","category1/GS3.png","","targets/31.png","indirect","0","28"
"","html-keyboard-response","256","948007","0.0-12.0-0.5","mhwuacmfnr","many_one","0","direct_first","1","NZ05EF25","0","38","1","1","3","1","","0","1","0","null","","","<div style=""font-size:60px;"">+</div>","null","","","","","","","","","",""
"","html-keyboard-response","257","948108","0.0-12.0-1.5","mhwuacmfnr","many_one","0","direct_first","1","NZ05EF25","0","38","1","1","3","1","","0","1","0","null","","","<img src = 'category2/men.png' width = '100%;'>","null","","","","","","","","","",""
"","html-keyboard-response","258","948367","0.0-12.0-2.5","mhwuacmfnr","many_one","0","direct_first","1","NZ05EF25","0","38","1","1","3","1","","0","1","0","null","","","<img src = 'targets/36.png' width = '100%;'>","null","","","","","","","","","",""
"","html-keyboard-response","259","949434","0.0-12.0-3.5","mhwuacmfnr","many_one","0","direct_first","1","NZ05EF25","0","38","1","1","3","1","","0","1","0","1064","","","<img src = 'targets/mask.png' width = '100%;'>","68","pos","GS","abstract","2","category2/men.png","","targets/36.png","indirect","0","29"
"","html-keyboard-response","260","950948","0.0-12.0-0.6","mhwuacmfnr","many_one","0","direct_first","1","NZ05EF25","0","38","1","1","3","1","","0","1","0","null","","","<div style=""font-size:60px;"">+</div>","null","","","","","","","","","",""
"","html-keyboard-response","261","951047","0.0-12.0-1.6","mhwuacmfnr","many_one","0","direct_first","1","NZ05EF25","0","38","1","1","3","1","","0","1","0","null","","","<img src = 'category1/GS1.png' width = '100%;'>","null","","","","","","","","","",""
"","html-keyboard-response","262","951308","0.0-12.0-2.6","mhwuacmfnr","many_one","0","direct_first","1","NZ05EF25","0","38","1","1","3","1","","0","1","0","null","","","<img src = 'targets/29.png' width = '100%;'>","null","","","","","","","","","",""
"","html-keyboard-response","263","952413","0.0-12.0-3.6","mhwuacmfnr","many_one","0","direct_first","1","NZ05EF25","0","38","1","1","3","1","","0","1","0","1102","","","<img src = 'targets/mask.png' width = '100%;'>","75","neg","GS","GSnew","1","category1/GS1.png","","targets/29.png","indirect","1","30"
"","html-keyboard-response","264","953927","0.0-12.0-0.7","mhwuacmfnr","many_one","0","direct_first","1","NZ05EF25","0","38","1","1","3","1","","0","1","0","null","","","<div style=""font-size:60px;"">+</div>","null","","","","","","","","","",""
"","html-keyboard-response","265","954027","0.0-12.0-1.7","mhwuacmfnr","many_one","0","direct_first","1","NZ05EF25","0","38","1","1","3","1","","0","1","0","null","","","<img src = 'category2/CS3.png' width = '100%;'>","null","","","","","","","","","",""
"","html-keyboard-response","266","954288","0.0-12.0-2.7","mhwuacmfnr","many_one","0","direct_first","1","NZ05EF25","0","38","1","1","3","1","","0","1","0","null","","","<img src = 'targets/39.png' width = '100%;'>","null","","","","","","","","","",""
"","html-keyboard-response","267","955142","0.0-12.0-3.7","mhwuacmfnr","many_one","0","direct_first","1","NZ05EF25","0","38","1","1","3","1","","0","1","0","853","","","<img src = 'targets/mask.png' width = '100%;'>","68","pos","GS","GSold","2","category2/CS3.png","","targets/39.png","indirect","0","31"
"","html-keyboard-response","268","956658","0.0-12.0-0.8","mhwuacmfnr","many_one","0","direct_first","1","NZ05EF25","0","38","1","1","3","1","","0","1","0","null","","","<div style=""font-size:60px;"">+</div>","null","","","","","","","","","",""
"","html-keyboard-response","269","956758","0.0-12.0-1.8","mhwuacmfnr","many_one","0","direct_first","1","NZ05EF25","0","38","1","1","3","1","","0","1","0","null","","","<img src = 'category2/CS10.png' width = '100%;'>","null","","","","","","","","","",""
"","html-keyboard-response","270","957018","0.0-12.0-2.8","mhwuacmfnr","many_one","0","direct_first","1","NZ05EF25","0","38","1","1","3","1","","0","1","0","null","","","<img src = 'targets/12.png' width = '100%;'>","null","","","","","","","","","",""
"","html-keyboard-response","271","958379","0.0-12.0-3.8","mhwuacmfnr","many_one","0","direct_first","1","NZ05EF25","0","38","1","1","3","1","","0","1","0","1360","","","<img src = 'targets/mask.png' width = '100%;'>","68","pos","GS","GSold","2","category2/CS10.png","","targets/12.png","indirect","0","32"
"","html-keyboard-response","272","959897","0.0-12.0-0.9","mhwuacmfnr","many_one","0","direct_first","1","NZ05EF25","0","38","1","1","3","1","","0","1","0","null","","","<div style=""font-size:60px;"">+</div>","null","","","","","","","","","",""
"","html-keyboard-response","273","959998","0.0-12.0-1.9","mhwuacmfnr","many_one","0","direct_first","1","NZ05EF25","0","38","1","1","3","1","","0","1","0","null","","","<img src = 'category3/wang.png' width = '100%;'>","null","","","","","","","","","",""
"","html-keyboard-response","274","960257","0.0-12.0-2.9","mhwuacmfnr","many_one","0","direct_first","1","NZ05EF25","0","38","1","1","3","1","","0","1","0","null","","","<img src = 'targets/25.png' width = '100%;'>","null","","","","","","","","","",""
"","html-keyboard-response","275","961061","0.0-12.0-3.9","mhwuacmfnr","many_one","0","direct_first","1","NZ05EF25","0","38","1","1","3","1","","0","1","0","801","","","<img src = 'targets/mask.png' width = '100%;'>","68","pos","GS","abstract","3","category3/wang.png","","targets/25.png","indirect","0","33"
"","html-keyboard-response","276","962577","0.0-12.0-0.10","mhwuacmfnr","many_one","0","direct_first","1","NZ05EF25","0","38","1","1","3","1","","0","1","0","null","","","<div style=""font-size:60px;"">+</div>","null","","","","","","","","","",""
"","html-keyboard-response","277","962678","0.0-12.0-1.10","mhwuacmfnr","many_one","0","direct_first","1","NZ05EF25","0","38","1","1","3","1","","0","1","0","null","","","<img src = 'category4/GS1.png' width = '100%;'>","null","","","","","","","","","",""
"","html-keyboard-response","278","962937","0.0-12.0-2.10","mhwuacmfnr","many_one","0","direct_first","1","NZ05EF25","0","38","1","1","3","1","","0","1","0","null","","","<img src = 'targets/11.png' width = '100%;'>","null","","","","","","","","","",""
"","html-keyboard-response","279","964273","0.0-12.0-3.10","mhwuacmfnr","many_one","0","direct_first","1","NZ05EF25","0","38","1","1","3","1","","0","1","0","1334","","","<img src = 'targets/mask.png' width = '100%;'>","75","neg","GS","GSnew","4","category4/GS1.png","","targets/11.png","indirect","1","34"
"","html-keyboard-response","280","965787","0.0-12.0-0.11","mhwuacmfnr","many_one","0","direct_first","1","NZ05EF25","0","38","1","1","3","1","","0","1","0","null","","","<div style=""font-size:60px;"">+</div>","null","","","","","","","","","",""
"","html-keyboard-response","281","965887","0.0-12.0-1.11","mhwuacmfnr","many_one","0","direct_first","1","NZ05EF25","0","38","1","1","3","1","","0","1","0","null","","","<img src = 'category3/GS1.png' width = '100%;'>","null","","","","","","","","","",""
"","html-keyboard-response","282","966147","0.0-12.0-2.11","mhwuacmfnr","many_one","0","direct_first","1","NZ05EF25","0","38","1","1","3","1","","0","1","0","null","","","<img src = 'targets/5.png' width = '100%;'>","null","","","","","","","","","",""
"","html-keyboard-response","283","967573","0.0-12.0-3.11","mhwuacmfnr","many_one","0","direct_first","1","NZ05EF25","0","38","1","1","3","1","","0","1","0","1422","","","<img src = 'targets/mask.png' width = '100%;'>","68","pos","GS","GSnew","3","category3/GS1.png","","targets/5.png","indirect","0","35"
"","html-keyboard-response","284","969087","0.0-12.0-0.12","mhwuacmfnr","many_one","0","direct_first","1","NZ05EF25","0","38","1","1","3","1","","0","1","0","null","","","<div style=""font-size:60px;"">+</div>","null","","","","","","","","","",""
"","html-keyboard-response","285","969187","0.0-12.0-1.12","mhwuacmfnr","many_one","0","direct_first","1","NZ05EF25","0","38","1","1","3","1","","0","1","0","null","","","<img src = 'category2/CS5.png' width = '100%;'>","null","","","","","","","","","",""
"","html-keyboard-response","286","969447","0.0-12.0-2.12","mhwuacmfnr","many_one","0","direct_first","1","NZ05EF25","0","38","1","1","3","1","","0","1","0","null","","","<img src = 'targets/15.png' width = '100%;'>","null","","","","","","","","","",""
"","html-keyboard-response","287","970870","0.0-12.0-3.12","mhwuacmfnr","many_one","0","direct_first","1","NZ05EF25","0","38","1","1","3","1","","0","1","0","1421","","","<img src = 'targets/mask.png' width = '100%;'>","68","pos","GS","GSold","2","category2/CS5.png","","targets/15.png","indirect","0","36"
"","html-keyboard-response","288","972387","0.0-12.0-0.13","mhwuacmfnr","many_one","0","direct_first","1","NZ05EF25","0","38","1","1","3","1","","0","1","0","null","","","<div style=""font-size:60px;"">+</div>","null","","","","","","","","","",""
"","html-keyboard-response","289","972487","0.0-12.0-1.13","mhwuacmfnr","many_one","0","direct_first","1","NZ05EF25","0","38","1","1","3","1","","0","1","0","null","","","<img src = 'category4/lin.png' width = '100%;'>","null","","","","","","","","","",""
"","html-keyboard-response","290","972748","0.0-12.0-2.13","mhwuacmfnr","many_one","0","direct_first","1","NZ05EF25","0","38","1","1","3","1","","0","1","0","null","","","<img src = 'targets/34.png' width = '100%;'>","null","","","","","","","","","",""
"","html-keyboard-response","291","973947","0.0-12.0-3.13","mhwuacmfnr","many_one","0","direct_first","1","NZ05EF25","0","38","1","1","3","1","","0","1","0","1198","","","<img src = 'targets/mask.png' width = '100%;'>","68","neg","GS","abstract","4","category4/lin.png","","targets/34.png","indirect","0","37"
"","html-keyboard-response","292","975467","0.0-12.0-0.14","mhwuacmfnr","many_one","0","direct_first","1","NZ05EF25","0","38","1","1","3","1","","0","1","0","null","","","<div style=""font-size:60px;"">+</div>","null","","","","","","","","","",""
"","html-keyboard-response","293","975567","0.0-12.0-1.14","mhwuacmfnr","many_one","0","direct_first","1","NZ05EF25","0","38","1","1","3","1","","0","1","0","null","","","<img src = 'category3/GS3.png' width = '100%;'>","null","","","","","","","","","",""
"","html-keyboard-response","294","975827","0.0-12.0-2.14","mhwuacmfnr","many_one","0","direct_first","1","NZ05EF25","0","38","1","1","3","1","","0","1","0","null","","","<img src = 'targets/48.png' width = '100%;'>","null","","","","","","","","","",""
"","html-keyboard-response","295","976553","0.0-12.0-3.14","mhwuacmfnr","many_one","0","direct_first","1","NZ05EF25","0","38","1","1","3","1","","0","1","0","724","","","<img src = 'targets/mask.png' width = '100%;'>","68","pos","GS","GSnew","3","category3/GS3.png","","targets/48.png","indirect","0","38"
"","html-keyboard-response","296","978067","0.0-12.0-0.15","mhwuacmfnr","many_one","0","direct_first","1","NZ05EF25","0","38","1","1","3","1","","0","1","0","null","","","<div style=""font-size:60px;"">+</div>","null","","","","","","","","","",""
"","html-keyboard-response","297","978167","0.0-12.0-1.15","mhwuacmfnr","many_one","0","direct_first","1","NZ05EF25","0","38","1","1","3","1","","0","1","0","null","","","<img src = 'category4/GS3.png' width = '100%;'>","null","","","","","","","","","",""
"","html-keyboard-response","298","978427","0.0-12.0-2.15","mhwuacmfnr","many_one","0","direct_first","1","NZ05EF25","0","38","1","1","3","1","","0","1","0","null","","","<img src = 'targets/32.png' width = '100%;'>","null","","","","","","","","","",""
"","html-keyboard-response","299","979341","0.0-12.0-3.15","mhwuacmfnr","many_one","0","direct_first","1","NZ05EF25","0","38","1","1","3","1","","0","1","0","912","","","<img src = 'targets/mask.png' width = '100%;'>","75","neg","GS","GSnew","4","category4/GS3.png","","targets/32.png","indirect","1","39"
"","html-keyboard-response","300","980856","0.0-12.0-0.16","mhwuacmfnr","many_one","0","direct_first","1","NZ05EF25","0","38","1","1","3","1","","0","1","0","null","","","<div style=""font-size:60px;"">+</div>","null","","","","","","","","","",""
"","html-keyboard-response","301","980956","0.0-12.0-1.16","mhwuacmfnr","many_one","0","direct_first","1","NZ05EF25","0","38","1","1","3","1","","0","1","0","null","","","<img src = 'category1/CS6.png' width = '100%;'>","null","","","","","","","","","",""
"","html-keyboard-response","302","981217","0.0-12.0-2.16","mhwuacmfnr","many_one","0","direct_first","1","NZ05EF25","0","38","1","1","3","1","","0","1","0","null","","","<img src = 'targets/2.png' width = '100%;'>","null","","","","","","","","","",""
"","html-keyboard-response","303","981848","0.0-12.0-3.16","mhwuacmfnr","many_one","0","direct_first","1","NZ05EF25","0","38","1","1","3","1","","0","1","0","629","","","<img src = 'targets/mask.png' width = '100%;'>","68","neg","GS","GSold","1","category1/CS6.png","","targets/2.png","indirect","0","40"
"","html-keyboard-response","304","983367","0.0-12.0-0.17","mhwuacmfnr","many_one","0","direct_first","1","NZ05EF25","0","38","1","1","3","1","","0","1","0","null","","","<div style=""font-size:60px;"">+</div>","null","","","","","","","","","",""
"","html-keyboard-response","305","983466","0.0-12.0-1.17","mhwuacmfnr","many_one","0","direct_first","1","NZ05EF25","0","38","1","1","3","1","","0","1","0","null","","","<img src = 'category1/CS5.png' width = '100%;'>","null","","","","","","","","","",""
"","html-keyboard-response","306","983727","0.0-12.0-2.17","mhwuacmfnr","many_one","0","direct_first","1","NZ05EF25","0","38","1","1","3","1","","0","1","0","null","","","<img src = 'targets/16.png' width = '100%;'>","null","","","","","","","","","",""
"","html-keyboard-response","307","984510","0.0-12.0-3.17","mhwuacmfnr","many_one","0","direct_first","1","NZ05EF25","0","38","1","1","3","1","","0","1","0","781","","","<img src = 'targets/mask.png' width = '100%;'>","75","neg","GS","GSold","1","category1/CS5.png","","targets/16.png","indirect","1","41"
"","html-keyboard-response","308","986026","0.0-12.0-0.18","mhwuacmfnr","many_one","0","direct_first","1","NZ05EF25","0","38","1","1","3","1","","0","1","0","null","","","<div style=""font-size:60px;"">+</div>","null","","","","","","","","","",""
"","html-keyboard-response","309","986126","0.0-12.0-1.18","mhwuacmfnr","many_one","0","direct_first","1","NZ05EF25","0","38","1","1","3","1","","0","1","0","null","","","<img src = 'category2/GS1.png' width = '100%;'>","null","","","","","","","","","",""
"","html-keyboard-response","310","986387","0.0-12.0-2.18","mhwuacmfnr","many_one","0","direct_first","1","NZ05EF25","0","38","1","1","3","1","","0","1","0","null","","","<img src = 'targets/46.png' width = '100%;'>","null","","","","","","","","","",""
"","html-keyboard-response","311","987313","0.0-12.0-3.18","mhwuacmfnr","many_one","0","direct_first","1","NZ05EF25","0","38","1","1","3","1","","0","1","0","925","","","<img src = 'targets/mask.png' width = '100%;'>","75","pos","GS","GSnew","2","category2/GS1.png","","targets/46.png","indirect","1","42"
"","html-keyboard-response","312","988827","0.0-12.0-0.19","mhwuacmfnr","many_one","0","direct_first","1","NZ05EF25","0","38","1","1","3","1","","0","1","0","null","","","<div style=""font-size:60px;"">+</div>","null","","","","","","","","","",""
"","html-keyboard-response","313","988928","0.0-12.0-1.19","mhwuacmfnr","many_one","0","direct_first","1","NZ05EF25","0","38","1","1","3","1","","0","1","0","null","","","<img src = 'category3/GS2.png' width = '100%;'>","null","","","","","","","","","",""
"","html-keyboard-response","314","989188","0.0-12.0-2.19","mhwuacmfnr","many_one","0","direct_first","1","NZ05EF25","0","38","1","1","3","1","","0","1","0","null","","","<img src = 'targets/14.png' width = '100%;'>","null","","","","","","","","","",""
"","html-keyboard-response","315","990305","0.0-12.0-3.19","mhwuacmfnr","many_one","0","direct_first","1","NZ05EF25","0","38","1","1","3","1","","0","1","0","1114","","","<img src = 'targets/mask.png' width = '100%;'>","75","pos","GS","GSnew","3","category3/GS2.png","","targets/14.png","indirect","1","43"
"","html-keyboard-response","316","991817","0.0-12.0-0.20","mhwuacmfnr","many_one","0","direct_first","1","NZ05EF25","0","38","1","1","3","1","","0","1","0","null","","","<div style=""font-size:60px;"">+</div>","null","","","","","","","","","",""
"","html-keyboard-response","317","991917","0.0-12.0-1.20","mhwuacmfnr","many_one","0","direct_first","1","NZ05EF25","0","38","1","1","3","1","","0","1","0","null","","","<img src = 'category3/CS10.png' width = '100%;'>","null","","","","","","","","","",""
"","html-keyboard-response","318","992178","0.0-12.0-2.20","mhwuacmfnr","many_one","0","direct_first","1","NZ05EF25","0","38","1","1","3","1","","0","1","0","null","","","<img src = 'targets/24.png' width = '100%;'>","null","","","","","","","","","",""
"","html-keyboard-response","319","993157","0.0-12.0-3.20","mhwuacmfnr","many_one","0","direct_first","1","NZ05EF25","0","38","1","1","3","1","","0","1","0","979","","","<img src = 'targets/mask.png' width = '100%;'>","68","pos","GS","GSold","3","category3/CS10.png","","targets/24.png","indirect","0","44"
"","html-keyboard-response","320","994667","0.0-12.0-0.21","mhwuacmfnr","many_one","0","direct_first","1","NZ05EF25","0","38","1","1","3","1","","0","1","0","null","","","<div style=""font-size:60px;"">+</div>","null","","","","","","","","","",""
"","html-keyboard-response","321","994767","0.0-12.0-1.21","mhwuacmfnr","many_one","0","direct_first","1","NZ05EF25","0","38","1","1","3","1","","0","1","0","null","","","<img src = 'category1/ma.png' width = '100%;'>","null","","","","","","","","","",""
"","html-keyboard-response","322","995028","0.0-12.0-2.21","mhwuacmfnr","many_one","0","direct_first","1","NZ05EF25","0","38","1","1","3","1","","0","1","0","null","","","<img src = 'targets/27.png' width = '100%;'>","null","","","","","","","","","",""
"","html-keyboard-response","323","995607","0.0-12.0-3.21","mhwuacmfnr","many_one","0","direct_first","1","NZ05EF25","0","38","1","1","3","1","","0","1","0","577","","","<img src = 'targets/mask.png' width = '100%;'>","68","neg","GS","abstract","1","category1/ma.png","","targets/27.png","indirect","0","45"
"","html-keyboard-response","324","997128","0.0-12.0-0.22","mhwuacmfnr","many_one","0","direct_first","1","NZ05EF25","0","38","1","1","3","1","","0","1","0","null","","","<div style=""font-size:60px;"">+</div>","null","","","","","","","","","",""
"","html-keyboard-response","325","997228","0.0-12.0-1.22","mhwuacmfnr","many_one","0","direct_first","1","NZ05EF25","0","38","1","1","3","1","","0","1","0","null","","","<img src = 'category2/GS3.png' width = '100%;'>","null","","","","","","","","","",""
"","html-keyboard-response","326","997488","0.0-12.0-2.22","mhwuacmfnr","many_one","0","direct_first","1","NZ05EF25","0","38","1","1","3","1","","0","1","0","null","","","<img src = 'targets/43.png' width = '100%;'>","null","","","","","","","","","",""
"","html-keyboard-response","327","998265","0.0-12.0-3.22","mhwuacmfnr","many_one","0","direct_first","1","NZ05EF25","0","38","1","1","3","1","","0","1","0","777","","","<img src = 'targets/mask.png' width = '100%;'>","75","pos","GS","GSnew","2","category2/GS3.png","","targets/43.png","indirect","1","46"
"","html-keyboard-response","328","999777","0.0-12.0-0.23","mhwuacmfnr","many_one","0","direct_first","1","NZ05EF25","0","38","1","1","3","1","","0","1","0","null","","","<div style=""font-size:60px;"">+</div>","null","","","","","","","","","",""
"","html-keyboard-response","329","999877","0.0-12.0-1.23","mhwuacmfnr","many_one","0","direct_first","1","NZ05EF25","0","38","1","1","3","1","","0","1","0","null","","","<img src = 'category4/GS2.png' width = '100%;'>","null","","","","","","","","","",""
"","html-keyboard-response","330","1000137","0.0-12.0-2.23","mhwuacmfnr","many_one","0","direct_first","1","NZ05EF25","0","38","1","1","3","1","","0","1","0","null","","","<img src = 'targets/6.png' width = '100%;'>","null","","","","","","","","","",""
"","html-keyboard-response","331","1000765","0.0-12.0-3.23","mhwuacmfnr","many_one","0","direct_first","1","NZ05EF25","0","38","1","1","3","1","","0","1","0","626","","","<img src = 'targets/mask.png' width = '100%;'>","68","neg","GS","GSnew","4","category4/GS2.png","","targets/6.png","indirect","0","47"
"","survey-html-form","332","1013731","0.0-13.0","mhwuacmfnr","many_one","0","direct_first","1","NZ05EF25","0","38","1","1","3","1","","0","1","0","12462","","{}","","","","","","","","","","","",""
