"success","trial_type","trial_index","time_elapsed","internal_node_id","subject","condition","condition_code","measure","measure_code","codeword","gender","age","education","chinese","fach","handedness","comment","hinschauen","ablenkung","gewissenhaft","rt","url","responses","stimulus","key_press","val","type","type_specific","category","cs_selected","target","indirect","task","nr_pres","response"
"true","fullscreen","0","15426","0.0-0.0","5m1wbc1kns","one_one","1","indirect_first","0","il07en26","0","27","1","1","3","1","","0","1","0","","","","","","","","","","","","","","",""
"","external-html","1","34870","0.0-1.0","5m1wbc1kns","one_one","1","indirect_first","0","il07en26","0","27","1","1","3","1","","0","1","0","19360","text/information.html","","","","","","","","","","","","",""
"","external-html","2","50593","0.0-2.0","5m1wbc1kns","one_one","1","indirect_first","0","il07en26","0","27","1","1","3","1","","0","1","0","15599","text/consent.html","","","","","","","","","","","","",""
"","survey-html-form","3","100819","0.0-3.0","5m1wbc1kns","one_one","1","indirect_first","0","il07en26","0","27","1","1","3","1","","0","1","0","50218","","{""codeword_enter"":""il07en26""}","","","","","","","","","","","",""
"","survey-html-form","4","123963","0.0-4.0","5m1wbc1kns","one_one","1","indirect_first","0","il07en26","0","27","1","1","3","1","","0","1","0","23136","","{""age"":""27"",""education"":""1"",""subject"":""3"",""gender"":""0"",""handedness"":""1"",""chinese"":""1""}","","","","","","","","","","","",""
"","survey-html-form","5","144120","0.0-5.0","5m1wbc1kns","one_one","1","indirect_first","0","il07en26","0","27","1","1","3","1","","0","1","0","20154","","{}","","","","","","","","","","","",""
"","html-keyboard-response","6","148158","0.0-6.0-0.0-0.0","5m1wbc1kns","one_one","1","indirect_first","0","il07en26","0","27","1","1","3","1","","0","1","0","null","","","<div class = 'row'><div class = 'column'><img src = 'uspos/2030.bmp' width = '100%;'></div><div class = 'column'><img src = 'category2/CS2.png' width = '70%;'></div></div>","null","pos","CS","CS","2","category2/CS2.png","","","","",""
"","html-keyboard-response","7","150696","0.0-6.0-0.0-0.1","5m1wbc1kns","one_one","1","indirect_first","0","il07en26","0","27","1","1","3","1","","0","1","0","null","","","<div class = 'row'><div class = 'column'><img src = 'usneg/8485.bmp' width = '100%;'></div><div class = 'column'><img src = 'category4/CS6.png' width = '70%;'></div></div>","null","neg","CS","CS","4","category4/CS6.png","","","","",""
"","html-keyboard-response","8","153216","0.0-6.0-0.0-0.2","5m1wbc1kns","one_one","1","indirect_first","0","il07en26","0","27","1","1","3","1","","0","1","0","null","","","<div class = 'row'><div class = 'column'><img src = 'usneg/7380.bmp' width = '100%;'></div><div class = 'column'><img src = 'category3/CS3.png' width = '70%;'></div></div>","null","neg","CS","CS","3","category3/CS3.png","","","","",""
"","html-keyboard-response","9","155736","0.0-6.0-0.0-0.3","5m1wbc1kns","one_one","1","indirect_first","0","il07en26","0","27","1","1","3","1","","0","1","0","null","","","<div class = 'row'><div class = 'column'><img src = 'category1/CS1.png' width = '70%;'></div><div class = 'column'><img src = 'uspos/2900.2.bmp' width = '100%;'></div></div>","null","pos","CS","CS","1","category1/CS1.png","","","","",""
"","html-keyboard-response","10","158276","0.0-6.0-0.0-0.4","5m1wbc1kns","one_one","1","indirect_first","0","il07en26","0","27","1","1","3","1","","0","1","0","null","","","<div class = 'row'><div class = 'column'><img src = 'uspos/2030.bmp' width = '100%;'></div><div class = 'column'><img src = 'category2/CS2.png' width = '70%;'></div></div>","null","pos","CS","CS","2","category2/CS2.png","","","","",""
"","html-keyboard-response","11","160816","0.0-6.0-0.0-0.5","5m1wbc1kns","one_one","1","indirect_first","0","il07en26","0","27","1","1","3","1","","0","1","0","null","","","<div class = 'row'><div class = 'column'><img src = 'usneg/7380.bmp' width = '100%;'></div><div class = 'column'><img src = 'category3/CS3.png' width = '70%;'></div></div>","null","neg","CS","CS","3","category3/CS3.png","","","","",""
"","html-keyboard-response","12","163346","0.0-6.0-0.0-0.6","5m1wbc1kns","one_one","1","indirect_first","0","il07en26","0","27","1","1","3","1","","0","1","0","null","","","<div class = 'row'><div class = 'column'><img src = 'uspos/2900.2.bmp' width = '100%;'></div><div class = 'column'><img src = 'category1/CS1.png' width = '70%;'></div></div>","null","pos","CS","CS","1","category1/CS1.png","","","","",""
"","html-keyboard-response","13","165876","0.0-6.0-0.0-0.7","5m1wbc1kns","one_one","1","indirect_first","0","il07en26","0","27","1","1","3","1","","0","1","0","null","","","<div class = 'row'><div class = 'column'><img src = 'usneg/7380.bmp' width = '100%;'></div><div class = 'column'><img src = 'category3/CS3.png' width = '70%;'></div></div>","null","neg","CS","CS","3","category3/CS3.png","","","","",""
"","html-keyboard-response","14","168406","0.0-6.0-0.0-0.8","5m1wbc1kns","one_one","1","indirect_first","0","il07en26","0","27","1","1","3","1","","0","1","0","null","","","<div class = 'row'><div class = 'column'><img src = 'uspos/2030.bmp' width = '100%;'></div><div class = 'column'><img src = 'category2/CS2.png' width = '70%;'></div></div>","null","pos","CS","CS","2","category2/CS2.png","","","","",""
"","html-keyboard-response","15","170936","0.0-6.0-0.0-0.9","5m1wbc1kns","one_one","1","indirect_first","0","il07en26","0","27","1","1","3","1","","0","1","0","null","","","<div class = 'row'><div class = 'column'><img src = 'category1/CS1.png' width = '70%;'></div><div class = 'column'><img src = 'uspos/2900.2.bmp' width = '100%;'></div></div>","null","pos","CS","CS","1","category1/CS1.png","","","","",""
"","html-keyboard-response","16","173476","0.0-6.0-0.0-0.10","5m1wbc1kns","one_one","1","indirect_first","0","il07en26","0","27","1","1","3","1","","0","1","0","null","","","<div class = 'row'><div class = 'column'><img src = 'uspos/2030.bmp' width = '100%;'></div><div class = 'column'><img src = 'category2/CS2.png' width = '70%;'></div></div>","null","pos","CS","CS","2","category2/CS2.png","","","","",""
"","html-keyboard-response","17","175996","0.0-6.0-0.0-0.11","5m1wbc1kns","one_one","1","indirect_first","0","il07en26","0","27","1","1","3","1","","0","1","0","null","","","<div class = 'row'><div class = 'column'><img src = 'usneg/8485.bmp' width = '100%;'></div><div class = 'column'><img src = 'category4/CS6.png' width = '70%;'></div></div>","null","neg","CS","CS","4","category4/CS6.png","","","","",""
"","html-keyboard-response","18","178536","0.0-6.0-0.0-0.12","5m1wbc1kns","one_one","1","indirect_first","0","il07en26","0","27","1","1","3","1","","0","1","0","null","","","<div class = 'row'><div class = 'column'><img src = 'category1/CS1.png' width = '70%;'></div><div class = 'column'><img src = 'uspos/2900.2.bmp' width = '100%;'></div></div>","null","pos","CS","CS","1","category1/CS1.png","","","","",""
"","html-keyboard-response","19","181076","0.0-6.0-0.0-0.13","5m1wbc1kns","one_one","1","indirect_first","0","il07en26","0","27","1","1","3","1","","0","1","0","null","","","<div class = 'row'><div class = 'column'><img src = 'category3/CS3.png' width = '70%;'></div><div class = 'column'><img src = 'usneg/7380.bmp' width = '100%;'></div></div>","null","neg","CS","CS","3","category3/CS3.png","","","","",""
"","html-keyboard-response","20","183607","0.0-6.0-0.0-0.14","5m1wbc1kns","one_one","1","indirect_first","0","il07en26","0","27","1","1","3","1","","0","1","0","null","","","<div class = 'row'><div class = 'column'><img src = 'usneg/8485.bmp' width = '100%;'></div><div class = 'column'><img src = 'category4/CS6.png' width = '70%;'></div></div>","null","neg","CS","CS","4","category4/CS6.png","","","","",""
"","html-keyboard-response","21","186146","0.0-6.0-0.0-0.15","5m1wbc1kns","one_one","1","indirect_first","0","il07en26","0","27","1","1","3","1","","0","1","0","null","","","<div class = 'row'><div class = 'column'><img src = 'category1/CS1.png' width = '70%;'></div><div class = 'column'><img src = 'uspos/2900.2.bmp' width = '100%;'></div></div>","null","pos","CS","CS","1","category1/CS1.png","","","","",""
"","html-keyboard-response","22","188676","0.0-6.0-0.0-0.16","5m1wbc1kns","one_one","1","indirect_first","0","il07en26","0","27","1","1","3","1","","0","1","0","null","","","<div class = 'row'><div class = 'column'><img src = 'category4/CS6.png' width = '70%;'></div><div class = 'column'><img src = 'usneg/8485.bmp' width = '100%;'></div></div>","null","neg","CS","CS","4","category4/CS6.png","","","","",""
"","html-keyboard-response","23","191206","0.0-6.0-0.0-0.17","5m1wbc1kns","one_one","1","indirect_first","0","il07en26","0","27","1","1","3","1","","0","1","0","null","","","<div class = 'row'><div class = 'column'><img src = 'usneg/7380.bmp' width = '100%;'></div><div class = 'column'><img src = 'category3/CS3.png' width = '70%;'></div></div>","null","neg","CS","CS","3","category3/CS3.png","","","","",""
"","html-keyboard-response","24","193736","0.0-6.0-0.0-0.18","5m1wbc1kns","one_one","1","indirect_first","0","il07en26","0","27","1","1","3","1","","0","1","0","null","","","<div class = 'row'><div class = 'column'><img src = 'usneg/8485.bmp' width = '100%;'></div><div class = 'column'><img src = 'category4/CS6.png' width = '70%;'></div></div>","null","neg","CS","CS","4","category4/CS6.png","","","","",""
"","html-keyboard-response","25","196276","0.0-6.0-0.0-0.19","5m1wbc1kns","one_one","1","indirect_first","0","il07en26","0","27","1","1","3","1","","0","1","0","null","","","<div class = 'row'><div class = 'column'><img src = 'uspos/2030.bmp' width = '100%;'></div><div class = 'column'><img src = 'category2/CS2.png' width = '70%;'></div></div>","null","pos","CS","CS","2","category2/CS2.png","","","","",""
"","survey-html-form","26","203180","0.0-6.0-1.0","5m1wbc1kns","one_one","1","indirect_first","0","il07en26","0","27","1","1","3","1","","0","1","0","6394","","{}","","","","","","","","","","","",""
"","html-keyboard-response","27","207207","0.0-6.0-2.0-0.0","5m1wbc1kns","one_one","1","indirect_first","0","il07en26","0","27","1","1","3","1","","0","1","0","null","","","<div class = 'row'><div class = 'column'><img src = 'category4/CS6.png' width = '70%;'></div><div class = 'column'><img src = 'usneg/8485.bmp' width = '100%;'></div></div>","null","neg","CS","CS","4","category4/CS6.png","","","","",""
"","html-keyboard-response","28","209746","0.0-6.0-2.0-0.1","5m1wbc1kns","one_one","1","indirect_first","0","il07en26","0","27","1","1","3","1","","0","1","0","null","","","<div class = 'row'><div class = 'column'><img src = 'category3/CS3.png' width = '70%;'></div><div class = 'column'><img src = 'usneg/7380.bmp' width = '100%;'></div></div>","null","neg","CS","CS","3","category3/CS3.png","","","","",""
"","html-keyboard-response","29","212276","0.0-6.0-2.0-0.2","5m1wbc1kns","one_one","1","indirect_first","0","il07en26","0","27","1","1","3","1","","0","1","0","null","","","<div class = 'row'><div class = 'column'><img src = 'category2/CS2.png' width = '70%;'></div><div class = 'column'><img src = 'uspos/2030.bmp' width = '100%;'></div></div>","null","pos","CS","CS","2","category2/CS2.png","","","","",""
"","html-keyboard-response","30","214816","0.0-6.0-2.0-0.3","5m1wbc1kns","one_one","1","indirect_first","0","il07en26","0","27","1","1","3","1","","0","1","0","null","","","<div class = 'row'><div class = 'column'><img src = 'usneg/8485.bmp' width = '100%;'></div><div class = 'column'><img src = 'category4/CS6.png' width = '70%;'></div></div>","null","neg","CS","CS","4","category4/CS6.png","","","","",""
"","html-keyboard-response","31","217346","0.0-6.0-2.0-0.4","5m1wbc1kns","one_one","1","indirect_first","0","il07en26","0","27","1","1","3","1","","0","1","0","null","","","<div class = 'row'><div class = 'column'><img src = 'category2/CS2.png' width = '70%;'></div><div class = 'column'><img src = 'uspos/2030.bmp' width = '100%;'></div></div>","null","pos","CS","CS","2","category2/CS2.png","","","","",""
"","html-keyboard-response","32","219866","0.0-6.0-2.0-0.5","5m1wbc1kns","one_one","1","indirect_first","0","il07en26","0","27","1","1","3","1","","0","1","0","null","","","<div class = 'row'><div class = 'column'><img src = 'uspos/2900.2.bmp' width = '100%;'></div><div class = 'column'><img src = 'category1/CS1.png' width = '70%;'></div></div>","null","pos","CS","CS","1","category1/CS1.png","","","","",""
"","html-keyboard-response","33","222376","0.0-6.0-2.0-0.6","5m1wbc1kns","one_one","1","indirect_first","0","il07en26","0","27","1","1","3","1","","0","1","0","null","","","<div class = 'row'><div class = 'column'><img src = 'usneg/8485.bmp' width = '100%;'></div><div class = 'column'><img src = 'category4/CS6.png' width = '70%;'></div></div>","null","neg","CS","CS","4","category4/CS6.png","","","","",""
"","html-keyboard-response","34","224896","0.0-6.0-2.0-0.7","5m1wbc1kns","one_one","1","indirect_first","0","il07en26","0","27","1","1","3","1","","0","1","0","null","","","<div class = 'row'><div class = 'column'><img src = 'usneg/7380.bmp' width = '100%;'></div><div class = 'column'><img src = 'category3/CS3.png' width = '70%;'></div></div>","null","neg","CS","CS","3","category3/CS3.png","","","","",""
"","html-keyboard-response","35","227435","0.0-6.0-2.0-0.8","5m1wbc1kns","one_one","1","indirect_first","0","il07en26","0","27","1","1","3","1","","0","1","0","null","","","<div class = 'row'><div class = 'column'><img src = 'usneg/8485.bmp' width = '100%;'></div><div class = 'column'><img src = 'category4/CS6.png' width = '70%;'></div></div>","null","neg","CS","CS","4","category4/CS6.png","","","","",""
"","html-keyboard-response","36","229956","0.0-6.0-2.0-0.9","5m1wbc1kns","one_one","1","indirect_first","0","il07en26","0","27","1","1","3","1","","0","1","0","null","","","<div class = 'row'><div class = 'column'><img src = 'category1/CS1.png' width = '70%;'></div><div class = 'column'><img src = 'uspos/2900.2.bmp' width = '100%;'></div></div>","null","pos","CS","CS","1","category1/CS1.png","","","","",""
"","html-keyboard-response","37","232496","0.0-6.0-2.0-0.10","5m1wbc1kns","one_one","1","indirect_first","0","il07en26","0","27","1","1","3","1","","0","1","0","null","","","<div class = 'row'><div class = 'column'><img src = 'usneg/7380.bmp' width = '100%;'></div><div class = 'column'><img src = 'category3/CS3.png' width = '70%;'></div></div>","null","neg","CS","CS","3","category3/CS3.png","","","","",""
"","html-keyboard-response","38","235036","0.0-6.0-2.0-0.11","5m1wbc1kns","one_one","1","indirect_first","0","il07en26","0","27","1","1","3","1","","0","1","0","null","","","<div class = 'row'><div class = 'column'><img src = 'category1/CS1.png' width = '70%;'></div><div class = 'column'><img src = 'uspos/2900.2.bmp' width = '100%;'></div></div>","null","pos","CS","CS","1","category1/CS1.png","","","","",""
"","html-keyboard-response","39","237567","0.0-6.0-2.0-0.12","5m1wbc1kns","one_one","1","indirect_first","0","il07en26","0","27","1","1","3","1","","0","1","0","null","","","<div class = 'row'><div class = 'column'><img src = 'category2/CS2.png' width = '70%;'></div><div class = 'column'><img src = 'uspos/2030.bmp' width = '100%;'></div></div>","null","pos","CS","CS","2","category2/CS2.png","","","","",""
"","html-keyboard-response","40","240096","0.0-6.0-2.0-0.13","5m1wbc1kns","one_one","1","indirect_first","0","il07en26","0","27","1","1","3","1","","0","1","0","null","","","<div class = 'row'><div class = 'column'><img src = 'uspos/2900.2.bmp' width = '100%;'></div><div class = 'column'><img src = 'category1/CS1.png' width = '70%;'></div></div>","null","pos","CS","CS","1","category1/CS1.png","","","","",""
"","html-keyboard-response","41","242635","0.0-6.0-2.0-0.14","5m1wbc1kns","one_one","1","indirect_first","0","il07en26","0","27","1","1","3","1","","0","1","0","null","","","<div class = 'row'><div class = 'column'><img src = 'category2/CS2.png' width = '70%;'></div><div class = 'column'><img src = 'uspos/2030.bmp' width = '100%;'></div></div>","null","pos","CS","CS","2","category2/CS2.png","","","","",""
"","html-keyboard-response","42","245166","0.0-6.0-2.0-0.15","5m1wbc1kns","one_one","1","indirect_first","0","il07en26","0","27","1","1","3","1","","0","1","0","null","","","<div class = 'row'><div class = 'column'><img src = 'category3/CS3.png' width = '70%;'></div><div class = 'column'><img src = 'usneg/7380.bmp' width = '100%;'></div></div>","null","neg","CS","CS","3","category3/CS3.png","","","","",""
"","html-keyboard-response","43","247706","0.0-6.0-2.0-0.16","5m1wbc1kns","one_one","1","indirect_first","0","il07en26","0","27","1","1","3","1","","0","1","0","null","","","<div class = 'row'><div class = 'column'><img src = 'usneg/8485.bmp' width = '100%;'></div><div class = 'column'><img src = 'category4/CS6.png' width = '70%;'></div></div>","null","neg","CS","CS","4","category4/CS6.png","","","","",""
"","html-keyboard-response","44","250236","0.0-6.0-2.0-0.17","5m1wbc1kns","one_one","1","indirect_first","0","il07en26","0","27","1","1","3","1","","0","1","0","null","","","<div class = 'row'><div class = 'column'><img src = 'category2/CS2.png' width = '70%;'></div><div class = 'column'><img src = 'uspos/2030.bmp' width = '100%;'></div></div>","null","pos","CS","CS","2","category2/CS2.png","","","","",""
"","html-keyboard-response","45","252755","0.0-6.0-2.0-0.18","5m1wbc1kns","one_one","1","indirect_first","0","il07en26","0","27","1","1","3","1","","0","1","0","null","","","<div class = 'row'><div class = 'column'><img src = 'category3/CS3.png' width = '70%;'></div><div class = 'column'><img src = 'usneg/7380.bmp' width = '100%;'></div></div>","null","neg","CS","CS","3","category3/CS3.png","","","","",""
"","html-keyboard-response","46","255276","0.0-6.0-2.0-0.19","5m1wbc1kns","one_one","1","indirect_first","0","il07en26","0","27","1","1","3","1","","0","1","0","null","","","<div class = 'row'><div class = 'column'><img src = 'category1/CS1.png' width = '70%;'></div><div class = 'column'><img src = 'uspos/2900.2.bmp' width = '100%;'></div></div>","null","pos","CS","CS","1","category1/CS1.png","","","","",""
"","survey-html-form","47","258141","0.0-6.0-3.0","5m1wbc1kns","one_one","1","indirect_first","0","il07en26","0","27","1","1","3","1","","0","1","0","2345","","{}","","","","","","","","","","","",""
"","html-keyboard-response","48","262156","0.0-6.0-4.0-0.0","5m1wbc1kns","one_one","1","indirect_first","0","il07en26","0","27","1","1","3","1","","0","1","0","null","","","<div class = 'row'><div class = 'column'><img src = 'uspos/2030.bmp' width = '100%;'></div><div class = 'column'><img src = 'category2/CS2.png' width = '70%;'></div></div>","null","pos","CS","CS","2","category2/CS2.png","","","","",""
"","html-keyboard-response","49","264696","0.0-6.0-4.0-0.1","5m1wbc1kns","one_one","1","indirect_first","0","il07en26","0","27","1","1","3","1","","0","1","0","null","","","<div class = 'row'><div class = 'column'><img src = 'category4/CS6.png' width = '70%;'></div><div class = 'column'><img src = 'usneg/8485.bmp' width = '100%;'></div></div>","null","neg","CS","CS","4","category4/CS6.png","","","","",""
"","html-keyboard-response","50","267230","0.0-6.0-4.0-0.2","5m1wbc1kns","one_one","1","indirect_first","0","il07en26","0","27","1","1","3","1","","0","1","0","null","","","<div class = 'row'><div class = 'column'><img src = 'category3/CS3.png' width = '70%;'></div><div class = 'column'><img src = 'usneg/7380.bmp' width = '100%;'></div></div>","null","neg","CS","CS","3","category3/CS3.png","","","","",""
"","html-keyboard-response","51","269766","0.0-6.0-4.0-0.3","5m1wbc1kns","one_one","1","indirect_first","0","il07en26","0","27","1","1","3","1","","0","1","0","null","","","<div class = 'row'><div class = 'column'><img src = 'uspos/2900.2.bmp' width = '100%;'></div><div class = 'column'><img src = 'category1/CS1.png' width = '70%;'></div></div>","null","pos","CS","CS","1","category1/CS1.png","","","","",""
"","html-keyboard-response","52","272295","0.0-6.0-4.0-0.4","5m1wbc1kns","one_one","1","indirect_first","0","il07en26","0","27","1","1","3","1","","0","1","0","null","","","<div class = 'row'><div class = 'column'><img src = 'uspos/2030.bmp' width = '100%;'></div><div class = 'column'><img src = 'category2/CS2.png' width = '70%;'></div></div>","null","pos","CS","CS","2","category2/CS2.png","","","","",""
"","html-keyboard-response","53","274816","0.0-6.0-4.0-0.5","5m1wbc1kns","one_one","1","indirect_first","0","il07en26","0","27","1","1","3","1","","0","1","0","null","","","<div class = 'row'><div class = 'column'><img src = 'usneg/8485.bmp' width = '100%;'></div><div class = 'column'><img src = 'category4/CS6.png' width = '70%;'></div></div>","null","neg","CS","CS","4","category4/CS6.png","","","","",""
"","html-keyboard-response","54","277346","0.0-6.0-4.0-0.6","5m1wbc1kns","one_one","1","indirect_first","0","il07en26","0","27","1","1","3","1","","0","1","0","null","","","<div class = 'row'><div class = 'column'><img src = 'category2/CS2.png' width = '70%;'></div><div class = 'column'><img src = 'uspos/2030.bmp' width = '100%;'></div></div>","null","pos","CS","CS","2","category2/CS2.png","","","","",""
"","html-keyboard-response","55","279865","0.0-6.0-4.0-0.7","5m1wbc1kns","one_one","1","indirect_first","0","il07en26","0","27","1","1","3","1","","0","1","0","null","","","<div class = 'row'><div class = 'column'><img src = 'uspos/2900.2.bmp' width = '100%;'></div><div class = 'column'><img src = 'category1/CS1.png' width = '70%;'></div></div>","null","pos","CS","CS","1","category1/CS1.png","","","","",""
"","html-keyboard-response","56","282386","0.0-6.0-4.0-0.8","5m1wbc1kns","one_one","1","indirect_first","0","il07en26","0","27","1","1","3","1","","0","1","0","null","","","<div class = 'row'><div class = 'column'><img src = 'category4/CS6.png' width = '70%;'></div><div class = 'column'><img src = 'usneg/8485.bmp' width = '100%;'></div></div>","null","neg","CS","CS","4","category4/CS6.png","","","","",""
"","html-keyboard-response","57","284916","0.0-6.0-4.0-0.9","5m1wbc1kns","one_one","1","indirect_first","0","il07en26","0","27","1","1","3","1","","0","1","0","null","","","<div class = 'row'><div class = 'column'><img src = 'usneg/7380.bmp' width = '100%;'></div><div class = 'column'><img src = 'category3/CS3.png' width = '70%;'></div></div>","null","neg","CS","CS","3","category3/CS3.png","","","","",""
"","html-keyboard-response","58","287436","0.0-6.0-4.0-0.10","5m1wbc1kns","one_one","1","indirect_first","0","il07en26","0","27","1","1","3","1","","0","1","0","null","","","<div class = 'row'><div class = 'column'><img src = 'category1/CS1.png' width = '70%;'></div><div class = 'column'><img src = 'uspos/2900.2.bmp' width = '100%;'></div></div>","null","pos","CS","CS","1","category1/CS1.png","","","","",""
"","html-keyboard-response","59","289955","0.0-6.0-4.0-0.11","5m1wbc1kns","one_one","1","indirect_first","0","il07en26","0","27","1","1","3","1","","0","1","0","null","","","<div class = 'row'><div class = 'column'><img src = 'category3/CS3.png' width = '70%;'></div><div class = 'column'><img src = 'usneg/7380.bmp' width = '100%;'></div></div>","null","neg","CS","CS","3","category3/CS3.png","","","","",""
"","html-keyboard-response","60","292476","0.0-6.0-4.0-0.12","5m1wbc1kns","one_one","1","indirect_first","0","il07en26","0","27","1","1","3","1","","0","1","0","null","","","<div class = 'row'><div class = 'column'><img src = 'uspos/2030.bmp' width = '100%;'></div><div class = 'column'><img src = 'category2/CS2.png' width = '70%;'></div></div>","null","pos","CS","CS","2","category2/CS2.png","","","","",""
"","html-keyboard-response","61","294996","0.0-6.0-4.0-0.13","5m1wbc1kns","one_one","1","indirect_first","0","il07en26","0","27","1","1","3","1","","0","1","0","null","","","<div class = 'row'><div class = 'column'><img src = 'category4/CS6.png' width = '70%;'></div><div class = 'column'><img src = 'usneg/8485.bmp' width = '100%;'></div></div>","null","neg","CS","CS","4","category4/CS6.png","","","","",""
"","html-keyboard-response","62","297526","0.0-6.0-4.0-0.14","5m1wbc1kns","one_one","1","indirect_first","0","il07en26","0","27","1","1","3","1","","0","1","0","null","","","<div class = 'row'><div class = 'column'><img src = 'uspos/2900.2.bmp' width = '100%;'></div><div class = 'column'><img src = 'category1/CS1.png' width = '70%;'></div></div>","null","pos","CS","CS","1","category1/CS1.png","","","","",""
"","html-keyboard-response","63","300055","0.0-6.0-4.0-0.15","5m1wbc1kns","one_one","1","indirect_first","0","il07en26","0","27","1","1","3","1","","0","1","0","null","","","<div class = 'row'><div class = 'column'><img src = 'uspos/2030.bmp' width = '100%;'></div><div class = 'column'><img src = 'category2/CS2.png' width = '70%;'></div></div>","null","pos","CS","CS","2","category2/CS2.png","","","","",""
"","html-keyboard-response","64","302575","0.0-6.0-4.0-0.16","5m1wbc1kns","one_one","1","indirect_first","0","il07en26","0","27","1","1","3","1","","0","1","0","null","","","<div class = 'row'><div class = 'column'><img src = 'category3/CS3.png' width = '70%;'></div><div class = 'column'><img src = 'usneg/7380.bmp' width = '100%;'></div></div>","null","neg","CS","CS","3","category3/CS3.png","","","","",""
"","html-keyboard-response","65","305101","0.0-6.0-4.0-0.17","5m1wbc1kns","one_one","1","indirect_first","0","il07en26","0","27","1","1","3","1","","0","1","0","null","","","<div class = 'row'><div class = 'column'><img src = 'category4/CS6.png' width = '70%;'></div><div class = 'column'><img src = 'usneg/8485.bmp' width = '100%;'></div></div>","null","neg","CS","CS","4","category4/CS6.png","","","","",""
"","html-keyboard-response","66","307616","0.0-6.0-4.0-0.18","5m1wbc1kns","one_one","1","indirect_first","0","il07en26","0","27","1","1","3","1","","0","1","0","null","","","<div class = 'row'><div class = 'column'><img src = 'category1/CS1.png' width = '70%;'></div><div class = 'column'><img src = 'uspos/2900.2.bmp' width = '100%;'></div></div>","null","pos","CS","CS","1","category1/CS1.png","","","","",""
"","html-keyboard-response","67","310145","0.0-6.0-4.0-0.19","5m1wbc1kns","one_one","1","indirect_first","0","il07en26","0","27","1","1","3","1","","0","1","0","null","","","<div class = 'row'><div class = 'column'><img src = 'usneg/7380.bmp' width = '100%;'></div><div class = 'column'><img src = 'category3/CS3.png' width = '70%;'></div></div>","null","neg","CS","CS","3","category3/CS3.png","","","","",""
"","survey-html-form","68","313871","0.0-6.0-5.0","5m1wbc1kns","one_one","1","indirect_first","0","il07en26","0","27","1","1","3","1","","0","1","0","3215","","{}","","","","","","","","","","","",""
"","html-keyboard-response","69","317886","0.0-6.0-6.0-0.0","5m1wbc1kns","one_one","1","indirect_first","0","il07en26","0","27","1","1","3","1","","0","1","0","null","","","<div class = 'row'><div class = 'column'><img src = 'category4/CS6.png' width = '70%;'></div><div class = 'column'><img src = 'usneg/8485.bmp' width = '100%;'></div></div>","null","neg","CS","CS","4","category4/CS6.png","","","","",""
"","html-keyboard-response","70","320417","0.0-6.0-6.0-0.1","5m1wbc1kns","one_one","1","indirect_first","0","il07en26","0","27","1","1","3","1","","0","1","0","null","","","<div class = 'row'><div class = 'column'><img src = 'usneg/7380.bmp' width = '100%;'></div><div class = 'column'><img src = 'category3/CS3.png' width = '70%;'></div></div>","null","neg","CS","CS","3","category3/CS3.png","","","","",""
"","html-keyboard-response","71","322945","0.0-6.0-6.0-0.2","5m1wbc1kns","one_one","1","indirect_first","0","il07en26","0","27","1","1","3","1","","0","1","0","null","","","<div class = 'row'><div class = 'column'><img src = 'uspos/2900.2.bmp' width = '100%;'></div><div class = 'column'><img src = 'category1/CS1.png' width = '70%;'></div></div>","null","pos","CS","CS","1","category1/CS1.png","","","","",""
"","html-keyboard-response","72","325476","0.0-6.0-6.0-0.3","5m1wbc1kns","one_one","1","indirect_first","0","il07en26","0","27","1","1","3","1","","0","1","0","null","","","<div class = 'row'><div class = 'column'><img src = 'category3/CS3.png' width = '70%;'></div><div class = 'column'><img src = 'usneg/7380.bmp' width = '100%;'></div></div>","null","neg","CS","CS","3","category3/CS3.png","","","","",""
"","html-keyboard-response","73","327996","0.0-6.0-6.0-0.4","5m1wbc1kns","one_one","1","indirect_first","0","il07en26","0","27","1","1","3","1","","0","1","0","null","","","<div class = 'row'><div class = 'column'><img src = 'uspos/2030.bmp' width = '100%;'></div><div class = 'column'><img src = 'category2/CS2.png' width = '70%;'></div></div>","null","pos","CS","CS","2","category2/CS2.png","","","","",""
"","html-keyboard-response","74","330526","0.0-6.0-6.0-0.5","5m1wbc1kns","one_one","1","indirect_first","0","il07en26","0","27","1","1","3","1","","0","1","0","null","","","<div class = 'row'><div class = 'column'><img src = 'category3/CS3.png' width = '70%;'></div><div class = 'column'><img src = 'usneg/7380.bmp' width = '100%;'></div></div>","null","neg","CS","CS","3","category3/CS3.png","","","","",""
"","html-keyboard-response","75","333056","0.0-6.0-6.0-0.6","5m1wbc1kns","one_one","1","indirect_first","0","il07en26","0","27","1","1","3","1","","0","1","0","null","","","<div class = 'row'><div class = 'column'><img src = 'category4/CS6.png' width = '70%;'></div><div class = 'column'><img src = 'usneg/8485.bmp' width = '100%;'></div></div>","null","neg","CS","CS","4","category4/CS6.png","","","","",""
"","html-keyboard-response","76","335575","0.0-6.0-6.0-0.7","5m1wbc1kns","one_one","1","indirect_first","0","il07en26","0","27","1","1","3","1","","0","1","0","null","","","<div class = 'row'><div class = 'column'><img src = 'category1/CS1.png' width = '70%;'></div><div class = 'column'><img src = 'uspos/2900.2.bmp' width = '100%;'></div></div>","null","pos","CS","CS","1","category1/CS1.png","","","","",""
"","html-keyboard-response","77","338098","0.0-6.0-6.0-0.8","5m1wbc1kns","one_one","1","indirect_first","0","il07en26","0","27","1","1","3","1","","0","1","0","null","","","<div class = 'row'><div class = 'column'><img src = 'category3/CS3.png' width = '70%;'></div><div class = 'column'><img src = 'usneg/7380.bmp' width = '100%;'></div></div>","null","neg","CS","CS","3","category3/CS3.png","","","","",""
"","html-keyboard-response","78","340616","0.0-6.0-6.0-0.9","5m1wbc1kns","one_one","1","indirect_first","0","il07en26","0","27","1","1","3","1","","0","1","0","null","","","<div class = 'row'><div class = 'column'><img src = 'category4/CS6.png' width = '70%;'></div><div class = 'column'><img src = 'usneg/8485.bmp' width = '100%;'></div></div>","null","neg","CS","CS","4","category4/CS6.png","","","","",""
"","html-keyboard-response","79","343146","0.0-6.0-6.0-0.10","5m1wbc1kns","one_one","1","indirect_first","0","il07en26","0","27","1","1","3","1","","0","1","0","null","","","<div class = 'row'><div class = 'column'><img src = 'uspos/2030.bmp' width = '100%;'></div><div class = 'column'><img src = 'category2/CS2.png' width = '70%;'></div></div>","null","pos","CS","CS","2","category2/CS2.png","","","","",""
"","html-keyboard-response","80","345667","0.0-6.0-6.0-0.11","5m1wbc1kns","one_one","1","indirect_first","0","il07en26","0","27","1","1","3","1","","0","1","0","null","","","<div class = 'row'><div class = 'column'><img src = 'category3/CS3.png' width = '70%;'></div><div class = 'column'><img src = 'usneg/7380.bmp' width = '100%;'></div></div>","null","neg","CS","CS","3","category3/CS3.png","","","","",""
"","html-keyboard-response","81","348196","0.0-6.0-6.0-0.12","5m1wbc1kns","one_one","1","indirect_first","0","il07en26","0","27","1","1","3","1","","0","1","0","null","","","<div class = 'row'><div class = 'column'><img src = 'usneg/8485.bmp' width = '100%;'></div><div class = 'column'><img src = 'category4/CS6.png' width = '70%;'></div></div>","null","neg","CS","CS","4","category4/CS6.png","","","","",""
"","html-keyboard-response","82","350736","0.0-6.0-6.0-0.13","5m1wbc1kns","one_one","1","indirect_first","0","il07en26","0","27","1","1","3","1","","0","1","0","null","","","<div class = 'row'><div class = 'column'><img src = 'category2/CS2.png' width = '70%;'></div><div class = 'column'><img src = 'uspos/2030.bmp' width = '100%;'></div></div>","null","pos","CS","CS","2","category2/CS2.png","","","","",""
"","html-keyboard-response","83","353256","0.0-6.0-6.0-0.14","5m1wbc1kns","one_one","1","indirect_first","0","il07en26","0","27","1","1","3","1","","0","1","0","null","","","<div class = 'row'><div class = 'column'><img src = 'uspos/2900.2.bmp' width = '100%;'></div><div class = 'column'><img src = 'category1/CS1.png' width = '70%;'></div></div>","null","pos","CS","CS","1","category1/CS1.png","","","","",""
"","html-keyboard-response","84","355786","0.0-6.0-6.0-0.15","5m1wbc1kns","one_one","1","indirect_first","0","il07en26","0","27","1","1","3","1","","0","1","0","null","","","<div class = 'row'><div class = 'column'><img src = 'category2/CS2.png' width = '70%;'></div><div class = 'column'><img src = 'uspos/2030.bmp' width = '100%;'></div></div>","null","pos","CS","CS","2","category2/CS2.png","","","","",""
"","html-keyboard-response","85","358296","0.0-6.0-6.0-0.16","5m1wbc1kns","one_one","1","indirect_first","0","il07en26","0","27","1","1","3","1","","0","1","0","null","","","<div class = 'row'><div class = 'column'><img src = 'uspos/2900.2.bmp' width = '100%;'></div><div class = 'column'><img src = 'category1/CS1.png' width = '70%;'></div></div>","null","pos","CS","CS","1","category1/CS1.png","","","","",""
"","html-keyboard-response","86","360826","0.0-6.0-6.0-0.17","5m1wbc1kns","one_one","1","indirect_first","0","il07en26","0","27","1","1","3","1","","0","1","0","null","","","<div class = 'row'><div class = 'column'><img src = 'usneg/8485.bmp' width = '100%;'></div><div class = 'column'><img src = 'category4/CS6.png' width = '70%;'></div></div>","null","neg","CS","CS","4","category4/CS6.png","","","","",""
"","html-keyboard-response","87","363366","0.0-6.0-6.0-0.18","5m1wbc1kns","one_one","1","indirect_first","0","il07en26","0","27","1","1","3","1","","0","1","0","null","","","<div class = 'row'><div class = 'column'><img src = 'uspos/2900.2.bmp' width = '100%;'></div><div class = 'column'><img src = 'category1/CS1.png' width = '70%;'></div></div>","null","pos","CS","CS","1","category1/CS1.png","","","","",""
"","html-keyboard-response","88","365896","0.0-6.0-6.0-0.19","5m1wbc1kns","one_one","1","indirect_first","0","il07en26","0","27","1","1","3","1","","0","1","0","null","","","<div class = 'row'><div class = 'column'><img src = 'uspos/2030.bmp' width = '100%;'></div><div class = 'column'><img src = 'category2/CS2.png' width = '70%;'></div></div>","null","pos","CS","CS","2","category2/CS2.png","","","","",""
"","html-keyboard-response","89","417730","0.0-7.0","5m1wbc1kns","one_one","1","indirect_first","0","il07en26","0","27","1","1","3","1","","0","1","0","51313","","","<p>Sie sehen nun die chinesischen Zeichen nur ganz kurz. Danach sehen Sie die jeweilige Aussprache der Zeichen als Silbe auf dem Bildschrim. Ihre Aufgabe ist es, für jede Silbe anzugeben, ob diese etwas angenehmes, oder unangenehmes bedeuten könnte. Verlassen Sie sich hier vor allem auf Ihre Intuition.<br><br>Die Zeichen werden nur zur Orientierung dargestellt, beachten Sie sie deshalb nicht. Konzentrieren Sie sich vor allem auf die Silben. <br>Reagieren Sie mit folgenden zwei Tasten: <br><br><b>'D' </b> wenn die Silbe etwas <b>unangenehmes</b> bedeuten könnte. <br><b>'K'</b> wenn die Silbe etwas <b>angenehmes</b> bedeuten könnte. <br><br>Bitte legen Sie nun den Zeigefinger der linken Hand auf die Taste 'D' und den Zeigefinger der rechten Hand auf die Taste 'K'. <br>Reagieren Sie auf jede Silbe so schnell wie möglich. Uns interessiert Ihre spontane Reaktion. <br> <br> <br>Drücken Sie 'D' oder 'K', um die nächste Aufgabe zu starten. </p>","68","","","","","","","","","",""
"","html-keyboard-response","90","420745","0.0-8.0-0.0","5m1wbc1kns","one_one","1","indirect_first","0","il07en26","0","27","1","1","3","1","","0","1","0","null","","","<div style=""font-size:60px;"">+</div>","null","","","","","","","","","",""
"","html-keyboard-response","91","420846","0.0-8.0-1.0","5m1wbc1kns","one_one","1","indirect_first","0","il07en26","0","27","1","1","3","1","","0","1","0","null","","","<img src = 'category3/CS3.png' width = '100%;'>","null","","","","","","","","","",""
"","html-keyboard-response","92","421115","0.0-8.0-2.0","5m1wbc1kns","one_one","1","indirect_first","0","il07en26","0","27","1","1","3","1","","0","1","0","null","","","<img src = 'targets/9.png' width = '100%;'>","null","","","","","","","","","",""
"","html-keyboard-response","93","426211","0.0-8.0-3.0","5m1wbc1kns","one_one","1","indirect_first","0","il07en26","0","27","1","1","3","1","","0","1","0","5093","","","<img src = 'targets/mask.png' width = '100%;'>","68","neg","CS","CS","3","category3/CS3.png","targets/9.png","0","indirect","0",""
"","html-keyboard-response","94","427731","0.0-8.0-0.1","5m1wbc1kns","one_one","1","indirect_first","0","il07en26","0","27","1","1","3","1","","0","1","0","null","","","<div style=""font-size:60px;"">+</div>","null","","","","","","","","","",""
"","html-keyboard-response","95","427836","0.0-8.0-1.1","5m1wbc1kns","one_one","1","indirect_first","0","il07en26","0","27","1","1","3","1","","0","1","0","null","","","<img src = 'category2/CS2.png' width = '100%;'>","null","","","","","","","","","",""
"","html-keyboard-response","96","428105","0.0-8.0-2.1","5m1wbc1kns","one_one","1","indirect_first","0","il07en26","0","27","1","1","3","1","","0","1","0","null","","","<img src = 'targets/38.png' width = '100%;'>","null","","","","","","","","","",""
"","html-keyboard-response","97","431220","0.0-8.0-3.1","5m1wbc1kns","one_one","1","indirect_first","0","il07en26","0","27","1","1","3","1","","0","1","0","3114","","","<img src = 'targets/mask.png' width = '100%;'>","75","pos","CS","CS","2","category2/CS2.png","targets/38.png","1","indirect","1",""
"","html-keyboard-response","98","432735","0.0-8.0-0.2","5m1wbc1kns","one_one","1","indirect_first","0","il07en26","0","27","1","1","3","1","","0","1","0","null","","","<div style=""font-size:60px;"">+</div>","null","","","","","","","","","",""
"","html-keyboard-response","99","432839","0.0-8.0-1.2","5m1wbc1kns","one_one","1","indirect_first","0","il07en26","0","27","1","1","3","1","","0","1","0","null","","","<img src = 'category4/CS1.png' width = '100%;'>","null","","","","","","","","","",""
"","html-keyboard-response","100","433101","0.0-8.0-2.2","5m1wbc1kns","one_one","1","indirect_first","0","il07en26","0","27","1","1","3","1","","0","1","0","null","","","<img src = 'targets/36.png' width = '100%;'>","null","","","","","","","","","",""
"","html-keyboard-response","101","437082","0.0-8.0-3.2","5m1wbc1kns","one_one","1","indirect_first","0","il07en26","0","27","1","1","3","1","","0","1","0","3979","","","<img src = 'targets/mask.png' width = '100%;'>","75","neg","GS","GSold","4","category4/CS1.png","targets/36.png","1","indirect","2",""
"","html-keyboard-response","102","438586","0.0-8.0-0.3","5m1wbc1kns","one_one","1","indirect_first","0","il07en26","0","27","1","1","3","1","","0","1","0","null","","","<div style=""font-size:60px;"">+</div>","null","","","","","","","","","",""
"","html-keyboard-response","103","438686","0.0-8.0-1.3","5m1wbc1kns","one_one","1","indirect_first","0","il07en26","0","27","1","1","3","1","","0","1","0","null","","","<img src = 'category1/CS2.png' width = '100%;'>","null","","","","","","","","","",""
"","html-keyboard-response","104","438954","0.0-8.0-2.3","5m1wbc1kns","one_one","1","indirect_first","0","il07en26","0","27","1","1","3","1","","0","1","0","null","","","<img src = 'targets/39.png' width = '100%;'>","null","","","","","","","","","",""
"","html-keyboard-response","105","443547","0.0-8.0-3.3","5m1wbc1kns","one_one","1","indirect_first","0","il07en26","0","27","1","1","3","1","","0","1","0","4592","","","<img src = 'targets/mask.png' width = '100%;'>","68","pos","GS","GSold","1","category1/CS2.png","targets/39.png","0","indirect","3",""
"","html-keyboard-response","106","445066","0.0-8.0-0.4","5m1wbc1kns","one_one","1","indirect_first","0","il07en26","0","27","1","1","3","1","","0","1","0","null","","","<div style=""font-size:60px;"">+</div>","null","","","","","","","","","",""
"","html-keyboard-response","107","445162","0.0-8.0-1.4","5m1wbc1kns","one_one","1","indirect_first","0","il07en26","0","27","1","1","3","1","","0","1","0","null","","","<img src = 'category2/CS10.png' width = '100%;'>","null","","","","","","","","","",""
"","html-keyboard-response","108","445431","0.0-8.0-2.4","5m1wbc1kns","one_one","1","indirect_first","0","il07en26","0","27","1","1","3","1","","0","1","0","null","","","<img src = 'targets/24.png' width = '100%;'>","null","","","","","","","","","",""
"","html-keyboard-response","109","447638","0.0-8.0-3.4","5m1wbc1kns","one_one","1","indirect_first","0","il07en26","0","27","1","1","3","1","","0","1","0","2202","","","<img src = 'targets/mask.png' width = '100%;'>","75","pos","GS","GSold","2","category2/CS10.png","targets/24.png","1","indirect","4",""
"","html-keyboard-response","110","449166","0.0-8.0-0.5","5m1wbc1kns","one_one","1","indirect_first","0","il07en26","0","27","1","1","3","1","","0","1","0","null","","","<div style=""font-size:60px;"">+</div>","null","","","","","","","","","",""
"","html-keyboard-response","111","449265","0.0-8.0-1.5","5m1wbc1kns","one_one","1","indirect_first","0","il07en26","0","27","1","1","3","1","","0","1","0","null","","","<img src = 'category3/CS1.png' width = '100%;'>","null","","","","","","","","","",""
"","html-keyboard-response","112","449526","0.0-8.0-2.5","5m1wbc1kns","one_one","1","indirect_first","0","il07en26","0","27","1","1","3","1","","0","1","0","null","","","<img src = 'targets/15.png' width = '100%;'>","null","","","","","","","","","",""
"","html-keyboard-response","113","451448","0.0-8.0-3.5","5m1wbc1kns","one_one","1","indirect_first","0","il07en26","0","27","1","1","3","1","","0","1","0","1921","","","<img src = 'targets/mask.png' width = '100%;'>","68","neg","GS","GSold","3","category3/CS1.png","targets/15.png","0","indirect","5",""
"","html-keyboard-response","114","452958","0.0-8.0-0.6","5m1wbc1kns","one_one","1","indirect_first","0","il07en26","0","27","1","1","3","1","","0","1","0","null","","","<div style=""font-size:60px;"">+</div>","null","","","","","","","","","",""
"","html-keyboard-response","115","453056","0.0-8.0-1.6","5m1wbc1kns","one_one","1","indirect_first","0","il07en26","0","27","1","1","3","1","","0","1","0","null","","","<img src = 'category2/CS4.png' width = '100%;'>","null","","","","","","","","","",""
"","html-keyboard-response","116","453316","0.0-8.0-2.6","5m1wbc1kns","one_one","1","indirect_first","0","il07en26","0","27","1","1","3","1","","0","1","0","null","","","<img src = 'targets/12.png' width = '100%;'>","null","","","","","","","","","",""
"","html-keyboard-response","117","455311","0.0-8.0-3.6","5m1wbc1kns","one_one","1","indirect_first","0","il07en26","0","27","1","1","3","1","","0","1","0","1992","","","<img src = 'targets/mask.png' width = '100%;'>","75","pos","GS","GSold","2","category2/CS4.png","targets/12.png","1","indirect","6",""
"","html-keyboard-response","118","456826","0.0-8.0-0.7","5m1wbc1kns","one_one","1","indirect_first","0","il07en26","0","27","1","1","3","1","","0","1","0","null","","","<div style=""font-size:60px;"">+</div>","null","","","","","","","","","",""
"","html-keyboard-response","119","456921","0.0-8.0-1.7","5m1wbc1kns","one_one","1","indirect_first","0","il07en26","0","27","1","1","3","1","","0","1","0","null","","","<img src = 'category1/CS6.png' width = '100%;'>","null","","","","","","","","","",""
"","html-keyboard-response","120","457182","0.0-8.0-2.7","5m1wbc1kns","one_one","1","indirect_first","0","il07en26","0","27","1","1","3","1","","0","1","0","null","","","<img src = 'targets/48.png' width = '100%;'>","null","","","","","","","","","",""
"","html-keyboard-response","121","458584","0.0-8.0-3.7","5m1wbc1kns","one_one","1","indirect_first","0","il07en26","0","27","1","1","3","1","","0","1","0","1400","","","<img src = 'targets/mask.png' width = '100%;'>","75","pos","GS","GSold","1","category1/CS6.png","targets/48.png","1","indirect","7",""
"","html-keyboard-response","122","460095","0.0-8.0-0.8","5m1wbc1kns","one_one","1","indirect_first","0","il07en26","0","27","1","1","3","1","","0","1","0","null","","","<div style=""font-size:60px;"">+</div>","null","","","","","","","","","",""
"","html-keyboard-response","123","460200","0.0-8.0-1.8","5m1wbc1kns","one_one","1","indirect_first","0","il07en26","0","27","1","1","3","1","","0","1","0","null","","","<img src = 'category4/CS9.png' width = '100%;'>","null","","","","","","","","","",""
"","html-keyboard-response","124","460462","0.0-8.0-2.8","5m1wbc1kns","one_one","1","indirect_first","0","il07en26","0","27","1","1","3","1","","0","1","0","null","","","<img src = 'targets/35.png' width = '100%;'>","null","","","","","","","","","",""
"","html-keyboard-response","125","461404","0.0-8.0-3.8","5m1wbc1kns","one_one","1","indirect_first","0","il07en26","0","27","1","1","3","1","","0","1","0","939","","","<img src = 'targets/mask.png' width = '100%;'>","75","neg","GS","GSold","4","category4/CS9.png","targets/35.png","1","indirect","8",""
"","html-keyboard-response","126","462936","0.0-8.0-0.9","5m1wbc1kns","one_one","1","indirect_first","0","il07en26","0","27","1","1","3","1","","0","1","0","null","","","<div style=""font-size:60px;"">+</div>","null","","","","","","","","","",""
"","html-keyboard-response","127","463034","0.0-8.0-1.9","5m1wbc1kns","one_one","1","indirect_first","0","il07en26","0","27","1","1","3","1","","0","1","0","null","","","<img src = 'category3/CS10.png' width = '100%;'>","null","","","","","","","","","",""
"","html-keyboard-response","128","463302","0.0-8.0-2.9","5m1wbc1kns","one_one","1","indirect_first","0","il07en26","0","27","1","1","3","1","","0","1","0","null","","","<img src = 'targets/33.png' width = '100%;'>","null","","","","","","","","","",""
"","html-keyboard-response","129","464768","0.0-8.0-3.9","5m1wbc1kns","one_one","1","indirect_first","0","il07en26","0","27","1","1","3","1","","0","1","0","1465","","","<img src = 'targets/mask.png' width = '100%;'>","68","neg","GS","GSold","3","category3/CS10.png","targets/33.png","0","indirect","9",""
"","html-keyboard-response","130","466286","0.0-8.0-0.10","5m1wbc1kns","one_one","1","indirect_first","0","il07en26","0","27","1","1","3","1","","0","1","0","null","","","<div style=""font-size:60px;"">+</div>","null","","","","","","","","","",""
"","html-keyboard-response","131","466386","0.0-8.0-1.10","5m1wbc1kns","one_one","1","indirect_first","0","il07en26","0","27","1","1","3","1","","0","1","0","null","","","<img src = 'category3/CS9.png' width = '100%;'>","null","","","","","","","","","",""
"","html-keyboard-response","132","466647","0.0-8.0-2.10","5m1wbc1kns","one_one","1","indirect_first","0","il07en26","0","27","1","1","3","1","","0","1","0","null","","","<img src = 'targets/19.png' width = '100%;'>","null","","","","","","","","","",""
"","html-keyboard-response","133","467944","0.0-8.0-3.10","5m1wbc1kns","one_one","1","indirect_first","0","il07en26","0","27","1","1","3","1","","0","1","0","1295","","","<img src = 'targets/mask.png' width = '100%;'>","68","neg","GS","GSold","3","category3/CS9.png","targets/19.png","0","indirect","10",""
"","html-keyboard-response","134","469451","0.0-8.0-0.11","5m1wbc1kns","one_one","1","indirect_first","0","il07en26","0","27","1","1","3","1","","0","1","0","null","","","<div style=""font-size:60px;"">+</div>","null","","","","","","","","","",""
"","html-keyboard-response","135","469547","0.0-8.0-1.11","5m1wbc1kns","one_one","1","indirect_first","0","il07en26","0","27","1","1","3","1","","0","1","0","null","","","<img src = 'category2/CS6.png' width = '100%;'>","null","","","","","","","","","",""
"","html-keyboard-response","136","469815","0.0-8.0-2.11","5m1wbc1kns","one_one","1","indirect_first","0","il07en26","0","27","1","1","3","1","","0","1","0","null","","","<img src = 'targets/44.png' width = '100%;'>","null","","","","","","","","","",""
"","html-keyboard-response","137","471030","0.0-8.0-3.11","5m1wbc1kns","one_one","1","indirect_first","0","il07en26","0","27","1","1","3","1","","0","1","0","1212","","","<img src = 'targets/mask.png' width = '100%;'>","75","pos","GS","GSold","2","category2/CS6.png","targets/44.png","1","indirect","11",""
"","html-keyboard-response","138","472555","0.0-8.0-0.12","5m1wbc1kns","one_one","1","indirect_first","0","il07en26","0","27","1","1","3","1","","0","1","0","null","","","<div style=""font-size:60px;"">+</div>","null","","","","","","","","","",""
"","html-keyboard-response","139","472652","0.0-8.0-1.12","5m1wbc1kns","one_one","1","indirect_first","0","il07en26","0","27","1","1","3","1","","0","1","0","null","","","<img src = 'category4/CS6.png' width = '100%;'>","null","","","","","","","","","",""
"","html-keyboard-response","140","472921","0.0-8.0-2.12","5m1wbc1kns","one_one","1","indirect_first","0","il07en26","0","27","1","1","3","1","","0","1","0","null","","","<img src = 'targets/5.png' width = '100%;'>","null","","","","","","","","","",""
"","html-keyboard-response","141","474145","0.0-8.0-3.12","5m1wbc1kns","one_one","1","indirect_first","0","il07en26","0","27","1","1","3","1","","0","1","0","1222","","","<img src = 'targets/mask.png' width = '100%;'>","68","neg","CS","CS","4","category4/CS6.png","targets/5.png","0","indirect","12",""
"","html-keyboard-response","142","475656","0.0-8.0-0.13","5m1wbc1kns","one_one","1","indirect_first","0","il07en26","0","27","1","1","3","1","","0","1","0","null","","","<div style=""font-size:60px;"">+</div>","null","","","","","","","","","",""
"","html-keyboard-response","143","475756","0.0-8.0-1.13","5m1wbc1kns","one_one","1","indirect_first","0","il07en26","0","27","1","1","3","1","","0","1","0","null","","","<img src = 'category1/CS1.png' width = '100%;'>","null","","","","","","","","","",""
"","html-keyboard-response","144","476025","0.0-8.0-2.13","5m1wbc1kns","one_one","1","indirect_first","0","il07en26","0","27","1","1","3","1","","0","1","0","null","","","<img src = 'targets/22.png' width = '100%;'>","null","","","","","","","","","",""
"","html-keyboard-response","145","477065","0.0-8.0-3.13","5m1wbc1kns","one_one","1","indirect_first","0","il07en26","0","27","1","1","3","1","","0","1","0","1039","","","<img src = 'targets/mask.png' width = '100%;'>","75","pos","CS","CS","1","category1/CS1.png","targets/22.png","1","indirect","13",""
"","html-keyboard-response","146","478596","0.0-8.0-0.14","5m1wbc1kns","one_one","1","indirect_first","0","il07en26","0","27","1","1","3","1","","0","1","0","null","","","<div style=""font-size:60px;"">+</div>","null","","","","","","","","","",""
"","html-keyboard-response","147","478701","0.0-8.0-1.14","5m1wbc1kns","one_one","1","indirect_first","0","il07en26","0","27","1","1","3","1","","0","1","0","null","","","<img src = 'category1/CS8.png' width = '100%;'>","null","","","","","","","","","",""
"","html-keyboard-response","148","478965","0.0-8.0-2.14","5m1wbc1kns","one_one","1","indirect_first","0","il07en26","0","27","1","1","3","1","","0","1","0","null","","","<img src = 'targets/18.png' width = '100%;'>","null","","","","","","","","","",""
"","html-keyboard-response","149","480252","0.0-8.0-3.14","5m1wbc1kns","one_one","1","indirect_first","0","il07en26","0","27","1","1","3","1","","0","1","0","1285","","","<img src = 'targets/mask.png' width = '100%;'>","68","pos","GS","GSold","1","category1/CS8.png","targets/18.png","0","indirect","14",""
"","html-keyboard-response","150","481775","0.0-8.0-0.15","5m1wbc1kns","one_one","1","indirect_first","0","il07en26","0","27","1","1","3","1","","0","1","0","null","","","<div style=""font-size:60px;"">+</div>","null","","","","","","","","","",""
"","html-keyboard-response","151","481870","0.0-8.0-1.15","5m1wbc1kns","one_one","1","indirect_first","0","il07en26","0","27","1","1","3","1","","0","1","0","null","","","<img src = 'category4/CS8.png' width = '100%;'>","null","","","","","","","","","",""
"","html-keyboard-response","152","482131","0.0-8.0-2.15","5m1wbc1kns","one_one","1","indirect_first","0","il07en26","0","27","1","1","3","1","","0","1","0","null","","","<img src = 'targets/20.png' width = '100%;'>","null","","","","","","","","","",""
"","html-keyboard-response","153","483476","0.0-8.0-3.15","5m1wbc1kns","one_one","1","indirect_first","0","il07en26","0","27","1","1","3","1","","0","1","0","1343","","","<img src = 'targets/mask.png' width = '100%;'>","75","neg","GS","GSold","4","category4/CS8.png","targets/20.png","1","indirect","15",""
"","survey-html-form","154","490492","0.0-9.0","5m1wbc1kns","one_one","1","indirect_first","0","il07en26","0","27","1","1","3","1","","0","1","0","6506","","{}","","","","","","","","","","","",""
"","html-keyboard-response","155","493516","0.0-10.0-0.0","5m1wbc1kns","one_one","1","indirect_first","0","il07en26","0","27","1","1","3","1","","0","1","0","null","","","<div style=""font-size:60px;"">+</div>","null","","","","","","","","","",""
"","html-keyboard-response","156","493615","0.0-10.0-1.0","5m1wbc1kns","one_one","1","indirect_first","0","il07en26","0","27","1","1","3","1","","0","1","0","null","","","<img src = 'category3/GS2.png' width = '100%;'>","null","","","","","","","","","",""
"","html-keyboard-response","157","493875","0.0-10.0-2.0","5m1wbc1kns","one_one","1","indirect_first","0","il07en26","0","27","1","1","3","1","","0","1","0","null","","","<img src = 'targets/14.png' width = '100%;'>","null","","","","","","","","","",""
"","html-keyboard-response","158","495001","0.0-10.0-3.0","5m1wbc1kns","one_one","1","indirect_first","0","il07en26","0","27","1","1","3","1","","0","1","0","1124","","","<img src = 'targets/mask.png' width = '100%;'>","68","neg","GS","GSnew","3","category3/GS2.png","targets/14.png","0","indirect","16",""
"","html-keyboard-response","159","496529","0.0-10.0-0.1","5m1wbc1kns","one_one","1","indirect_first","0","il07en26","0","27","1","1","3","1","","0","1","0","null","","","<div style=""font-size:60px;"">+</div>","null","","","","","","","","","",""
"","html-keyboard-response","160","496625","0.0-10.0-1.1","5m1wbc1kns","one_one","1","indirect_first","0","il07en26","0","27","1","1","3","1","","0","1","0","null","","","<img src = 'category3/wang.png' width = '100%;'>","null","","","","","","","","","",""
"","html-keyboard-response","161","496895","0.0-10.0-2.1","5m1wbc1kns","one_one","1","indirect_first","0","il07en26","0","27","1","1","3","1","","0","1","0","null","","","<img src = 'targets/6.png' width = '100%;'>","null","","","","","","","","","",""
"","html-keyboard-response","162","499836","0.0-10.0-3.1","5m1wbc1kns","one_one","1","indirect_first","0","il07en26","0","27","1","1","3","1","","0","1","0","2939","","","<img src = 'targets/mask.png' width = '100%;'>","75","neg","GS","abstract","3","category3/wang.png","targets/6.png","1","indirect","17",""
"","html-keyboard-response","163","501353","0.0-10.0-0.2","5m1wbc1kns","one_one","1","indirect_first","0","il07en26","0","27","1","1","3","1","","0","1","0","null","","","<div style=""font-size:60px;"">+</div>","null","","","","","","","","","",""
"","html-keyboard-response","164","501447","0.0-10.0-1.2","5m1wbc1kns","one_one","1","indirect_first","0","il07en26","0","27","1","1","3","1","","0","1","0","null","","","<img src = 'category1/GS2.png' width = '100%;'>","null","","","","","","","","","",""
"","html-keyboard-response","165","501708","0.0-10.0-2.2","5m1wbc1kns","one_one","1","indirect_first","0","il07en26","0","27","1","1","3","1","","0","1","0","null","","","<img src = 'targets/37.png' width = '100%;'>","null","","","","","","","","","",""
"","html-keyboard-response","166","503249","0.0-10.0-3.2","5m1wbc1kns","one_one","1","indirect_first","0","il07en26","0","27","1","1","3","1","","0","1","0","1540","","","<img src = 'targets/mask.png' width = '100%;'>","75","pos","GS","GSnew","1","category1/GS2.png","targets/37.png","1","indirect","18",""
"","html-keyboard-response","167","504766","0.0-10.0-0.3","5m1wbc1kns","one_one","1","indirect_first","0","il07en26","0","27","1","1","3","1","","0","1","0","null","","","<div style=""font-size:60px;"">+</div>","null","","","","","","","","","",""
"","html-keyboard-response","168","504860","0.0-10.0-1.3","5m1wbc1kns","one_one","1","indirect_first","0","il07en26","0","27","1","1","3","1","","0","1","0","null","","","<img src = 'category2/GS3.png' width = '100%;'>","null","","","","","","","","","",""
"","html-keyboard-response","169","505127","0.0-10.0-2.3","5m1wbc1kns","one_one","1","indirect_first","0","il07en26","0","27","1","1","3","1","","0","1","0","null","","","<img src = 'targets/46.png' width = '100%;'>","null","","","","","","","","","",""
"","html-keyboard-response","170","505926","0.0-10.0-3.3","5m1wbc1kns","one_one","1","indirect_first","0","il07en26","0","27","1","1","3","1","","0","1","0","798","","","<img src = 'targets/mask.png' width = '100%;'>","75","pos","GS","GSnew","2","category2/GS3.png","targets/46.png","1","indirect","19",""
"","html-keyboard-response","171","507442","0.0-10.0-0.4","5m1wbc1kns","one_one","1","indirect_first","0","il07en26","0","27","1","1","3","1","","0","1","0","null","","","<div style=""font-size:60px;"">+</div>","null","","","","","","","","","",""
"","html-keyboard-response","172","507545","0.0-10.0-1.4","5m1wbc1kns","one_one","1","indirect_first","0","il07en26","0","27","1","1","3","1","","0","1","0","null","","","<img src = 'category1/GS1.png' width = '100%;'>","null","","","","","","","","","",""
"","html-keyboard-response","173","507811","0.0-10.0-2.4","5m1wbc1kns","one_one","1","indirect_first","0","il07en26","0","27","1","1","3","1","","0","1","0","null","","","<img src = 'targets/34.png' width = '100%;'>","null","","","","","","","","","",""
"","html-keyboard-response","174","508697","0.0-10.0-3.4","5m1wbc1kns","one_one","1","indirect_first","0","il07en26","0","27","1","1","3","1","","0","1","0","885","","","<img src = 'targets/mask.png' width = '100%;'>","68","pos","GS","GSnew","1","category1/GS1.png","targets/34.png","0","indirect","20",""
"","html-keyboard-response","175","510212","0.0-10.0-0.5","5m1wbc1kns","one_one","1","indirect_first","0","il07en26","0","27","1","1","3","1","","0","1","0","null","","","<div style=""font-size:60px;"">+</div>","null","","","","","","","","","",""
"","html-keyboard-response","176","510309","0.0-10.0-1.5","5m1wbc1kns","one_one","1","indirect_first","0","il07en26","0","27","1","1","3","1","","0","1","0","null","","","<img src = 'category2/men.png' width = '100%;'>","null","","","","","","","","","",""
"","html-keyboard-response","177","510578","0.0-10.0-2.5","5m1wbc1kns","one_one","1","indirect_first","0","il07en26","0","27","1","1","3","1","","0","1","0","null","","","<img src = 'targets/17.png' width = '100%;'>","null","","","","","","","","","",""
"","html-keyboard-response","178","512362","0.0-10.0-3.5","5m1wbc1kns","one_one","1","indirect_first","0","il07en26","0","27","1","1","3","1","","0","1","0","1782","","","<img src = 'targets/mask.png' width = '100%;'>","75","pos","GS","abstract","2","category2/men.png","targets/17.png","1","indirect","21",""
"","html-keyboard-response","179","513882","0.0-10.0-0.6","5m1wbc1kns","one_one","1","indirect_first","0","il07en26","0","27","1","1","3","1","","0","1","0","null","","","<div style=""font-size:60px;"">+</div>","null","","","","","","","","","",""
"","html-keyboard-response","180","513975","0.0-10.0-1.6","5m1wbc1kns","one_one","1","indirect_first","0","il07en26","0","27","1","1","3","1","","0","1","0","null","","","<img src = 'category4/GS3.png' width = '100%;'>","null","","","","","","","","","",""
"","html-keyboard-response","181","514245","0.0-10.0-2.6","5m1wbc1kns","one_one","1","indirect_first","0","il07en26","0","27","1","1","3","1","","0","1","0","null","","","<img src = 'targets/2.png' width = '100%;'>","null","","","","","","","","","",""
"","html-keyboard-response","182","515234","0.0-10.0-3.6","5m1wbc1kns","one_one","1","indirect_first","0","il07en26","0","27","1","1","3","1","","0","1","0","989","","","<img src = 'targets/mask.png' width = '100%;'>","75","neg","GS","GSnew","4","category4/GS3.png","targets/2.png","1","indirect","22",""
"","html-keyboard-response","183","516746","0.0-10.0-0.7","5m1wbc1kns","one_one","1","indirect_first","0","il07en26","0","27","1","1","3","1","","0","1","0","null","","","<div style=""font-size:60px;"">+</div>","null","","","","","","","","","",""
"","html-keyboard-response","184","516844","0.0-10.0-1.7","5m1wbc1kns","one_one","1","indirect_first","0","il07en26","0","27","1","1","3","1","","0","1","0","null","","","<img src = 'category4/GS1.png' width = '100%;'>","null","","","","","","","","","",""
"","html-keyboard-response","185","517108","0.0-10.0-2.7","5m1wbc1kns","one_one","1","indirect_first","0","il07en26","0","27","1","1","3","1","","0","1","0","null","","","<img src = 'targets/28.png' width = '100%;'>","null","","","","","","","","","",""
"","html-keyboard-response","186","518300","0.0-10.0-3.7","5m1wbc1kns","one_one","1","indirect_first","0","il07en26","0","27","1","1","3","1","","0","1","0","1191","","","<img src = 'targets/mask.png' width = '100%;'>","75","neg","GS","GSnew","4","category4/GS1.png","targets/28.png","1","indirect","23",""
"","html-keyboard-response","187","519821","0.0-10.0-0.8","5m1wbc1kns","one_one","1","indirect_first","0","il07en26","0","27","1","1","3","1","","0","1","0","null","","","<div style=""font-size:60px;"">+</div>","null","","","","","","","","","",""
"","html-keyboard-response","188","519916","0.0-10.0-1.8","5m1wbc1kns","one_one","1","indirect_first","0","il07en26","0","27","1","1","3","1","","0","1","0","null","","","<img src = 'category1/GS3.png' width = '100%;'>","null","","","","","","","","","",""
"","html-keyboard-response","189","520186","0.0-10.0-2.8","5m1wbc1kns","one_one","1","indirect_first","0","il07en26","0","27","1","1","3","1","","0","1","0","null","","","<img src = 'targets/42.png' width = '100%;'>","null","","","","","","","","","",""
"","html-keyboard-response","190","521069","0.0-10.0-3.8","5m1wbc1kns","one_one","1","indirect_first","0","il07en26","0","27","1","1","3","1","","0","1","0","882","","","<img src = 'targets/mask.png' width = '100%;'>","68","pos","GS","GSnew","1","category1/GS3.png","targets/42.png","0","indirect","24",""
"","html-keyboard-response","191","522585","0.0-10.0-0.9","5m1wbc1kns","one_one","1","indirect_first","0","il07en26","0","27","1","1","3","1","","0","1","0","null","","","<div style=""font-size:60px;"">+</div>","null","","","","","","","","","",""
"","html-keyboard-response","192","522680","0.0-10.0-1.9","5m1wbc1kns","one_one","1","indirect_first","0","il07en26","0","27","1","1","3","1","","0","1","0","null","","","<img src = 'category4/lin.png' width = '100%;'>","null","","","","","","","","","",""
"","html-keyboard-response","193","522942","0.0-10.0-2.9","5m1wbc1kns","one_one","1","indirect_first","0","il07en26","0","27","1","1","3","1","","0","1","0","null","","","<img src = 'targets/4.png' width = '100%;'>","null","","","","","","","","","",""
"","html-keyboard-response","194","524803","0.0-10.0-3.9","5m1wbc1kns","one_one","1","indirect_first","0","il07en26","0","27","1","1","3","1","","0","1","0","1858","","","<img src = 'targets/mask.png' width = '100%;'>","75","neg","GS","abstract","4","category4/lin.png","targets/4.png","1","indirect","25",""
"","html-keyboard-response","195","526335","0.0-10.0-0.10","5m1wbc1kns","one_one","1","indirect_first","0","il07en26","0","27","1","1","3","1","","0","1","0","null","","","<div style=""font-size:60px;"">+</div>","null","","","","","","","","","",""
"","html-keyboard-response","196","526443","0.0-10.0-1.10","5m1wbc1kns","one_one","1","indirect_first","0","il07en26","0","27","1","1","3","1","","0","1","0","null","","","<img src = 'category2/GS2.png' width = '100%;'>","null","","","","","","","","","",""
"","html-keyboard-response","197","526713","0.0-10.0-2.10","5m1wbc1kns","one_one","1","indirect_first","0","il07en26","0","27","1","1","3","1","","0","1","0","null","","","<img src = 'targets/40.png' width = '100%;'>","null","","","","","","","","","",""
"","html-keyboard-response","198","527470","0.0-10.0-3.10","5m1wbc1kns","one_one","1","indirect_first","0","il07en26","0","27","1","1","3","1","","0","1","0","756","","","<img src = 'targets/mask.png' width = '100%;'>","75","pos","GS","GSnew","2","category2/GS2.png","targets/40.png","1","indirect","26",""
"","html-keyboard-response","199","528978","0.0-10.0-0.11","5m1wbc1kns","one_one","1","indirect_first","0","il07en26","0","27","1","1","3","1","","0","1","0","null","","","<div style=""font-size:60px;"">+</div>","null","","","","","","","","","",""
"","html-keyboard-response","200","529073","0.0-10.0-1.11","5m1wbc1kns","one_one","1","indirect_first","0","il07en26","0","27","1","1","3","1","","0","1","0","null","","","<img src = 'category4/GS2.png' width = '100%;'>","null","","","","","","","","","",""
"","html-keyboard-response","201","529341","0.0-10.0-2.11","5m1wbc1kns","one_one","1","indirect_first","0","il07en26","0","27","1","1","3","1","","0","1","0","null","","","<img src = 'targets/45.png' width = '100%;'>","null","","","","","","","","","",""
"","html-keyboard-response","202","530070","0.0-10.0-3.11","5m1wbc1kns","one_one","1","indirect_first","0","il07en26","0","27","1","1","3","1","","0","1","0","727","","","<img src = 'targets/mask.png' width = '100%;'>","68","neg","GS","GSnew","4","category4/GS2.png","targets/45.png","0","indirect","27",""
"","html-keyboard-response","203","531585","0.0-10.0-0.12","5m1wbc1kns","one_one","1","indirect_first","0","il07en26","0","27","1","1","3","1","","0","1","0","null","","","<div style=""font-size:60px;"">+</div>","null","","","","","","","","","",""
"","html-keyboard-response","204","531692","0.0-10.0-1.12","5m1wbc1kns","one_one","1","indirect_first","0","il07en26","0","27","1","1","3","1","","0","1","0","null","","","<img src = 'category2/GS1.png' width = '100%;'>","null","","","","","","","","","",""
"","html-keyboard-response","205","531956","0.0-10.0-2.12","5m1wbc1kns","one_one","1","indirect_first","0","il07en26","0","27","1","1","3","1","","0","1","0","null","","","<img src = 'targets/47.png' width = '100%;'>","null","","","","","","","","","",""
"","html-keyboard-response","206","532883","0.0-10.0-3.12","5m1wbc1kns","one_one","1","indirect_first","0","il07en26","0","27","1","1","3","1","","0","1","0","926","","","<img src = 'targets/mask.png' width = '100%;'>","68","pos","GS","GSnew","2","category2/GS1.png","targets/47.png","0","indirect","28",""
"","html-keyboard-response","207","534403","0.0-10.0-0.13","5m1wbc1kns","one_one","1","indirect_first","0","il07en26","0","27","1","1","3","1","","0","1","0","null","","","<div style=""font-size:60px;"">+</div>","null","","","","","","","","","",""
"","html-keyboard-response","208","534499","0.0-10.0-1.13","5m1wbc1kns","one_one","1","indirect_first","0","il07en26","0","27","1","1","3","1","","0","1","0","null","","","<img src = 'category3/GS3.png' width = '100%;'>","null","","","","","","","","","",""
"","html-keyboard-response","209","534758","0.0-10.0-2.13","5m1wbc1kns","one_one","1","indirect_first","0","il07en26","0","27","1","1","3","1","","0","1","0","null","","","<img src = 'targets/43.png' width = '100%;'>","null","","","","","","","","","",""
"","html-keyboard-response","210","535268","0.0-10.0-3.13","5m1wbc1kns","one_one","1","indirect_first","0","il07en26","0","27","1","1","3","1","","0","1","0","509","","","<img src = 'targets/mask.png' width = '100%;'>","68","neg","GS","GSnew","3","category3/GS3.png","targets/43.png","0","indirect","29",""
"","html-keyboard-response","211","536785","0.0-10.0-0.14","5m1wbc1kns","one_one","1","indirect_first","0","il07en26","0","27","1","1","3","1","","0","1","0","null","","","<div style=""font-size:60px;"">+</div>","null","","","","","","","","","",""
"","html-keyboard-response","212","536889","0.0-10.0-1.14","5m1wbc1kns","one_one","1","indirect_first","0","il07en26","0","27","1","1","3","1","","0","1","0","null","","","<img src = 'category3/GS1.png' width = '100%;'>","null","","","","","","","","","",""
"","html-keyboard-response","213","537153","0.0-10.0-2.14","5m1wbc1kns","one_one","1","indirect_first","0","il07en26","0","27","1","1","3","1","","0","1","0","null","","","<img src = 'targets/26.png' width = '100%;'>","null","","","","","","","","","",""
"","html-keyboard-response","214","538369","0.0-10.0-3.14","5m1wbc1kns","one_one","1","indirect_first","0","il07en26","0","27","1","1","3","1","","0","1","0","1215","","","<img src = 'targets/mask.png' width = '100%;'>","68","neg","GS","GSnew","3","category3/GS1.png","targets/26.png","0","indirect","30",""
"","html-keyboard-response","215","539896","0.0-10.0-0.15","5m1wbc1kns","one_one","1","indirect_first","0","il07en26","0","27","1","1","3","1","","0","1","0","null","","","<div style=""font-size:60px;"">+</div>","null","","","","","","","","","",""
"","html-keyboard-response","216","539990","0.0-10.0-1.15","5m1wbc1kns","one_one","1","indirect_first","0","il07en26","0","27","1","1","3","1","","0","1","0","null","","","<img src = 'category1/ma.png' width = '100%;'>","null","","","","","","","","","",""
"","html-keyboard-response","217","540256","0.0-10.0-2.15","5m1wbc1kns","one_one","1","indirect_first","0","il07en26","0","27","1","1","3","1","","0","1","0","null","","","<img src = 'targets/8.png' width = '100%;'>","null","","","","","","","","","",""
"","html-keyboard-response","218","543152","0.0-10.0-3.15","5m1wbc1kns","one_one","1","indirect_first","0","il07en26","0","27","1","1","3","1","","0","1","0","2895","","","<img src = 'targets/mask.png' width = '100%;'>","75","pos","GS","abstract","1","category1/ma.png","targets/8.png","1","indirect","31",""
"","survey-html-form","219","553513","0.0-11.0","5m1wbc1kns","one_one","1","indirect_first","0","il07en26","0","27","1","1","3","1","","0","1","0","9846","","{}","","","","","","","","","","","",""
"","image-slider-response","220","568133","0.0-12.0-0.0","5m1wbc1kns","one_one","1","indirect_first","0","il07en26","0","27","1","1","3","1","","0","1","0","12604","","","","","neg","GS","GSold","3","category3/CS10.png","targets/33.png","","direct","","44"
"","image-slider-response","221","575865","0.0-12.0-0.1","5m1wbc1kns","one_one","1","indirect_first","0","il07en26","0","27","1","1","3","1","","0","1","0","7727","","","","","neg","GS","GSold","3","category3/CS1.png","targets/15.png","","direct","","32"
"","image-slider-response","222","582891","0.0-12.0-0.2","5m1wbc1kns","one_one","1","indirect_first","0","il07en26","0","27","1","1","3","1","","0","1","0","7020","","","","","neg","CS","CS","4","category4/CS6.png","targets/5.png","","direct","","-28"
"","image-slider-response","223","587832","0.0-12.0-0.3","5m1wbc1kns","one_one","1","indirect_first","0","il07en26","0","27","1","1","3","1","","0","1","0","4936","","","","","neg","GS","GSold","4","category4/CS1.png","targets/36.png","","direct","","-37"
"","image-slider-response","224","595469","0.0-12.0-0.4","5m1wbc1kns","one_one","1","indirect_first","0","il07en26","0","27","1","1","3","1","","0","1","0","7631","","","","","neg","GS","abstract","4","category4/lin.png","targets/4.png","","direct","","11"
"","image-slider-response","225","599786","0.0-12.0-0.5","5m1wbc1kns","one_one","1","indirect_first","0","il07en26","0","27","1","1","3","1","","0","1","0","4311","","","","","pos","GS","abstract","2","category2/men.png","targets/17.png","","direct","","64"
"","image-slider-response","226","604658","0.0-12.0-0.6","5m1wbc1kns","one_one","1","indirect_first","0","il07en26","0","27","1","1","3","1","","0","1","0","4866","","","","","pos","GS","GSold","2","category2/CS10.png","targets/24.png","","direct","","56"
"","image-slider-response","227","608863","0.0-12.0-0.7","5m1wbc1kns","one_one","1","indirect_first","0","il07en26","0","27","1","1","3","1","","0","1","0","4201","","","","","pos","GS","GSnew","1","category1/GS2.png","targets/37.png","","direct","","-42"
"","image-slider-response","228","612880","0.0-12.0-0.8","5m1wbc1kns","one_one","1","indirect_first","0","il07en26","0","27","1","1","3","1","","0","1","0","4012","","","","","pos","GS","GSold","2","category2/CS6.png","targets/44.png","","direct","","63"
"","image-slider-response","229","617259","0.0-12.0-0.9","5m1wbc1kns","one_one","1","indirect_first","0","il07en26","0","27","1","1","3","1","","0","1","0","4375","","","","","pos","GS","GSnew","1","category1/GS1.png","targets/34.png","","direct","","-65"
"","image-slider-response","230","621257","0.0-12.0-0.10","5m1wbc1kns","one_one","1","indirect_first","0","il07en26","0","27","1","1","3","1","","0","1","0","3994","","","","","pos","GS","abstract","1","category1/ma.png","targets/8.png","","direct","","-9"
"","image-slider-response","231","627079","0.0-12.0-0.11","5m1wbc1kns","one_one","1","indirect_first","0","il07en26","0","27","1","1","3","1","","0","1","0","5817","","","","","neg","GS","GSnew","4","category4/GS2.png","targets/45.png","","direct","","-81"
"","image-slider-response","232","631854","0.0-12.0-0.12","5m1wbc1kns","one_one","1","indirect_first","0","il07en26","0","27","1","1","3","1","","0","1","0","4772","","","","","neg","GS","GSold","4","category4/CS9.png","targets/35.png","","direct","","13"
"","image-slider-response","233","635634","0.0-12.0-0.13","5m1wbc1kns","one_one","1","indirect_first","0","il07en26","0","27","1","1","3","1","","0","1","0","3774","","","","","pos","GS","GSold","2","category2/CS4.png","targets/12.png","","direct","","-14"
"","image-slider-response","234","640560","0.0-12.0-0.14","5m1wbc1kns","one_one","1","indirect_first","0","il07en26","0","27","1","1","3","1","","0","1","0","4924","","","","","neg","GS","GSnew","3","category3/GS1.png","targets/26.png","","direct","","-52"
"","image-slider-response","235","644599","0.0-12.0-0.15","5m1wbc1kns","one_one","1","indirect_first","0","il07en26","0","27","1","1","3","1","","0","1","0","4032","","","","","pos","GS","GSnew","2","category2/GS2.png","targets/40.png","","direct","","28"
"","image-slider-response","236","648383","0.0-12.0-0.16","5m1wbc1kns","one_one","1","indirect_first","0","il07en26","0","27","1","1","3","1","","0","1","0","3782","","","","","neg","GS","GSold","4","category4/CS8.png","targets/20.png","","direct","","7"
"","image-slider-response","237","652329","0.0-12.0-0.17","5m1wbc1kns","one_one","1","indirect_first","0","il07en26","0","27","1","1","3","1","","0","1","0","3942","","","","","neg","GS","GSnew","4","category4/GS1.png","targets/28.png","","direct","","-32"
"","image-slider-response","238","656003","0.0-12.0-0.18","5m1wbc1kns","one_one","1","indirect_first","0","il07en26","0","27","1","1","3","1","","0","1","0","3670","","","","","neg","GS","GSnew","3","category3/GS2.png","targets/14.png","","direct","","-54"
"","image-slider-response","239","659932","0.0-12.0-0.19","5m1wbc1kns","one_one","1","indirect_first","0","il07en26","0","27","1","1","3","1","","0","1","0","3925","","","","","neg","GS","GSnew","3","category3/GS3.png","targets/43.png","","direct","","35"
"","image-slider-response","240","664756","0.0-12.0-0.20","5m1wbc1kns","one_one","1","indirect_first","0","il07en26","0","27","1","1","3","1","","0","1","0","4821","","","","","pos","GS","GSnew","2","category2/GS3.png","targets/46.png","","direct","","12"
"","image-slider-response","241","668328","0.0-12.0-0.21","5m1wbc1kns","one_one","1","indirect_first","0","il07en26","0","27","1","1","3","1","","0","1","0","3568","","","","","pos","GS","GSnew","1","category1/GS3.png","targets/42.png","","direct","","-13"
"","image-slider-response","242","672328","0.0-12.0-0.22","5m1wbc1kns","one_one","1","indirect_first","0","il07en26","0","27","1","1","3","1","","0","1","0","3997","","","","","pos","GS","GSold","1","category1/CS6.png","targets/48.png","","direct","","-23"
"","image-slider-response","243","681333","0.0-12.0-0.23","5m1wbc1kns","one_one","1","indirect_first","0","il07en26","0","27","1","1","3","1","","0","1","0","9000","","","","","neg","GS","GSold","3","category3/CS9.png","targets/19.png","","direct","","78"
"","image-slider-response","244","685477","0.0-12.0-0.24","5m1wbc1kns","one_one","1","indirect_first","0","il07en26","0","27","1","1","3","1","","0","1","0","4138","","","","","pos","GS","GSold","1","category1/CS2.png","targets/39.png","","direct","","-37"
"","image-slider-response","245","690211","0.0-12.0-0.25","5m1wbc1kns","one_one","1","indirect_first","0","il07en26","0","27","1","1","3","1","","0","1","0","4731","","","","","pos","CS","CS","2","category2/CS2.png","targets/38.png","","direct","","56"
"","image-slider-response","246","695077","0.0-12.0-0.26","5m1wbc1kns","one_one","1","indirect_first","0","il07en26","0","27","1","1","3","1","","0","1","0","4862","","","","","pos","GS","GSold","1","category1/CS8.png","targets/18.png","","direct","","-29"
"","image-slider-response","247","698924","0.0-12.0-0.27","5m1wbc1kns","one_one","1","indirect_first","0","il07en26","0","27","1","1","3","1","","0","1","0","3843","","","","","pos","CS","CS","1","category1/CS1.png","targets/22.png","","direct","","-19"
"","image-slider-response","248","703400","0.0-12.0-0.28","5m1wbc1kns","one_one","1","indirect_first","0","il07en26","0","27","1","1","3","1","","0","1","0","4469","","","","","neg","GS","GSnew","4","category4/GS3.png","targets/2.png","","direct","","-43"
"","image-slider-response","249","710551","0.0-12.0-0.29","5m1wbc1kns","one_one","1","indirect_first","0","il07en26","0","27","1","1","3","1","","0","1","0","7145","","","","","neg","GS","abstract","3","category3/wang.png","targets/6.png","","direct","","86"
"","image-slider-response","250","715066","0.0-12.0-0.30","5m1wbc1kns","one_one","1","indirect_first","0","il07en26","0","27","1","1","3","1","","0","1","0","4511","","","","","neg","CS","CS","3","category3/CS3.png","targets/9.png","","direct","","66"
"","image-slider-response","251","723105","0.0-12.0-0.31","5m1wbc1kns","one_one","1","indirect_first","0","il07en26","0","27","1","1","3","1","","0","1","0","8034","","","","","pos","GS","GSnew","2","category2/GS1.png","targets/47.png","","direct","","-6"
"","survey-html-form","252","729949","0.0-13.0","5m1wbc1kns","one_one","1","indirect_first","0","il07en26","0","27","1","1","3","1","","0","1","0","6842","","{}","","","","","","","","","","","",""
"","image-slider-response","253","740402","0.0-14.0-0.0","5m1wbc1kns","one_one","1","indirect_first","0","il07en26","0","27","1","1","3","1","","0","1","0","9440","","","","","pos","All","all","2","category2/men_all.png","","","all","","23"
"","image-slider-response","254","744694","0.0-14.0-0.1","5m1wbc1kns","one_one","1","indirect_first","0","il07en26","0","27","1","1","3","1","","0","1","0","4288","","","","","neg","All","all","4","category4/lin_all.png","","","all","","-29"
"","image-slider-response","255","751759","0.0-14.0-0.2","5m1wbc1kns","one_one","1","indirect_first","0","il07en26","0","27","1","1","3","1","","0","1","0","7060","","","","","neg","All","all","3","category3/wang_all.png","","","all","","58"
"","image-slider-response","256","760526","0.0-14.0-0.3","5m1wbc1kns","one_one","1","indirect_first","0","il07en26","0","27","1","1","3","1","","0","1","0","8762","","","","","pos","All","all","1","category1/ma_all.png","","","all","","-81"
"","survey-text","257","771057","0.0-15.0","5m1wbc1kns","one_one","1","indirect_first","0","il07en26","0","27","1","1","3","1","","0","1","0","10514","","{""comment"":""""}","","","","","","","","","","","",""
"","survey-html-form","258","788405","0.0-16.0","5m1wbc1kns","one_one","1","indirect_first","0","il07en26","0","27","1","1","3","1","","0","1","0","17345","","{""hinschauen"":""0"",""ablenkung"":""1"",""gewissenhaft"":""0""}","","","","","","","","","","","",""
