"success","trial_type","trial_index","time_elapsed","internal_node_id","subject","condition","condition_code","measure","measure_code","codeword","gender","age","education","chinese","fach","handedness","comment","hinschauen","ablenkung","gewissenhaft","rt","url","responses","stimulus","key_press","val","type","type_specific","category","cs_selected","target","indirect","task","nr_pres","response"
"true","fullscreen","0","5571","0.0-0.0","pne715w5jm","many_one","0","indirect_first","0","ER05LD23","1","26","1","1","3","1","","0","1","0","","","","","","","","","","","","","","",""
"","external-html","1","17991","0.0-1.0","pne715w5jm","many_one","0","indirect_first","0","ER05LD23","1","26","1","1","3","1","","0","1","0","12373.494999948889","text/information.html","","","","","","","","","","","","",""
"","external-html","2","51454","0.0-2.0","pne715w5jm","many_one","0","indirect_first","0","ER05LD23","1","26","1","1","3","1","","0","1","0","33387.4450000003","text/consent.html","","","","","","","","","","","","",""
"","survey-html-form","3","89874","0.0-3.0","pne715w5jm","many_one","0","indirect_first","0","ER05LD23","1","26","1","1","3","1","","0","1","0","38418.074999935925","","{""codeword_enter"":""ER05LD23""}","","","","","","","","","","","",""
"","survey-html-form","4","111431","0.0-4.0","pne715w5jm","many_one","0","indirect_first","0","ER05LD23","1","26","1","1","3","1","","0","1","0","21553.749999962747","","{""age"":""26"",""education"":""1"",""subject"":""3"",""gender"":""1"",""handedness"":""1"",""chinese"":""1""}","","","","","","","","","","","",""
"","survey-html-form","5","116061","0.0-5.0","pne715w5jm","many_one","0","indirect_first","0","ER05LD23","1","26","1","1","3","1","","0","1","0","4626.879999996163","","{}","","","","","","","","","","","",""
"","html-keyboard-response","6","120071","0.0-6.0-0.0-0.0","pne715w5jm","many_one","0","indirect_first","0","ER05LD23","1","26","1","1","3","1","","0","1","0","null","","","<div class = 'row'><div class = 'column'><img src = 'category4/CS5.png' width = '70%;'></div><div class = 'column'><img src = 'usneg/8485.bmp' width = '100%;'></div></div>","null","neg","CS","CS","4","category4/CS5.png","","","","",""
"","html-keyboard-response","7","122579","0.0-6.0-0.0-0.1","pne715w5jm","many_one","0","indirect_first","0","ER05LD23","1","26","1","1","3","1","","0","1","0","null","","","<div class = 'row'><div class = 'column'><img src = 'uspos/1460.bmp' width = '100%;'></div><div class = 'column'><img src = 'category3/CS10.png' width = '70%;'></div></div>","null","pos","CS","CS","3","category3/CS10.png","","","","",""
"","html-keyboard-response","8","125082","0.0-6.0-0.0-0.2","pne715w5jm","many_one","0","indirect_first","0","ER05LD23","1","26","1","1","3","1","","0","1","0","null","","","<div class = 'row'><div class = 'column'><img src = 'uspos/7325.bmp' width = '100%;'></div><div class = 'column'><img src = 'category1/CS3.png' width = '70%;'></div></div>","null","pos","CS","CS","1","category1/CS3.png","","","","",""
"","html-keyboard-response","9","127593","0.0-6.0-0.0-0.3","pne715w5jm","many_one","0","indirect_first","0","ER05LD23","1","26","1","1","3","1","","0","1","0","null","","","<div class = 'row'><div class = 'column'><img src = 'usneg/3160.bmp' width = '100%;'></div><div class = 'column'><img src = 'category4/CS1.png' width = '70%;'></div></div>","null","neg","CS","CS","4","category4/CS1.png","","","","",""
"","html-keyboard-response","10","130100","0.0-6.0-0.0-0.4","pne715w5jm","many_one","0","indirect_first","0","ER05LD23","1","26","1","1","3","1","","0","1","0","null","","","<div class = 'row'><div class = 'column'><img src = 'usneg/9920.bmp' width = '100%;'></div><div class = 'column'><img src = 'category4/CS2.png' width = '70%;'></div></div>","null","neg","CS","CS","4","category4/CS2.png","","","","",""
"","html-keyboard-response","11","132607","0.0-6.0-0.0-0.5","pne715w5jm","many_one","0","indirect_first","0","ER05LD23","1","26","1","1","3","1","","0","1","0","null","","","<div class = 'row'><div class = 'column'><img src = 'usneg/9435.bmp' width = '100%;'></div><div class = 'column'><img src = 'category2/CS5.png' width = '70%;'></div></div>","null","neg","CS","CS","2","category2/CS5.png","","","","",""
"","html-keyboard-response","12","135115","0.0-6.0-0.0-0.6","pne715w5jm","many_one","0","indirect_first","0","ER05LD23","1","26","1","1","3","1","","0","1","0","null","","","<div class = 'row'><div class = 'column'><img src = 'uspos/8080.bmp' width = '100%;'></div><div class = 'column'><img src = 'category1/CS8.png' width = '70%;'></div></div>","null","pos","CS","CS","1","category1/CS8.png","","","","",""
"","html-keyboard-response","13","137619","0.0-6.0-0.0-0.7","pne715w5jm","many_one","0","indirect_first","0","ER05LD23","1","26","1","1","3","1","","0","1","0","null","","","<div class = 'row'><div class = 'column'><img src = 'uspos/2150.bmp' width = '100%;'></div><div class = 'column'><img src = 'category1/CS6.png' width = '70%;'></div></div>","null","pos","CS","CS","1","category1/CS6.png","","","","",""
"","html-keyboard-response","14","140127","0.0-6.0-0.0-0.8","pne715w5jm","many_one","0","indirect_first","0","ER05LD23","1","26","1","1","3","1","","0","1","0","null","","","<div class = 'row'><div class = 'column'><img src = 'category2/CS6.png' width = '70%;'></div><div class = 'column'><img src = 'usneg/2900.bmp' width = '100%;'></div></div>","null","neg","CS","CS","2","category2/CS6.png","","","","",""
"","html-keyboard-response","15","142634","0.0-6.0-0.0-0.9","pne715w5jm","many_one","0","indirect_first","0","ER05LD23","1","26","1","1","3","1","","0","1","0","null","","","<div class = 'row'><div class = 'column'><img src = 'category2/CS4.png' width = '70%;'></div><div class = 'column'><img src = 'usneg/9290.bmp' width = '100%;'></div></div>","null","neg","CS","CS","2","category2/CS4.png","","","","",""
"","html-keyboard-response","16","145137","0.0-6.0-0.0-0.10","pne715w5jm","many_one","0","indirect_first","0","ER05LD23","1","26","1","1","3","1","","0","1","0","null","","","<div class = 'row'><div class = 'column'><img src = 'category3/CS9.png' width = '70%;'></div><div class = 'column'><img src = 'uspos/5629.bmp' width = '100%;'></div></div>","null","pos","CS","CS","3","category3/CS9.png","","","","",""
"","html-keyboard-response","17","147649","0.0-6.0-0.0-0.11","pne715w5jm","many_one","0","indirect_first","0","ER05LD23","1","26","1","1","3","1","","0","1","0","null","","","<div class = 'row'><div class = 'column'><img src = 'category1/CS10.png' width = '70%;'></div><div class = 'column'><img src = 'uspos/2900.2.bmp' width = '100%;'></div></div>","null","pos","CS","CS","1","category1/CS10.png","","","","",""
"","html-keyboard-response","18","150154","0.0-6.0-0.0-0.12","pne715w5jm","many_one","0","indirect_first","0","ER05LD23","1","26","1","1","3","1","","0","1","0","null","","","<div class = 'row'><div class = 'column'><img src = 'category1/CS7.png' width = '70%;'></div><div class = 'column'><img src = 'uspos/2057.bmp' width = '100%;'></div></div>","null","pos","CS","CS","1","category1/CS7.png","","","","",""
"","html-keyboard-response","19","152662","0.0-6.0-0.0-0.13","pne715w5jm","many_one","0","indirect_first","0","ER05LD23","1","26","1","1","3","1","","0","1","0","null","","","<div class = 'row'><div class = 'column'><img src = 'usneg/9041.bmp' width = '100%;'></div><div class = 'column'><img src = 'category4/CS6.png' width = '70%;'></div></div>","null","neg","CS","CS","4","category4/CS6.png","","","","",""
"","html-keyboard-response","20","155169","0.0-6.0-0.0-0.14","pne715w5jm","many_one","0","indirect_first","0","ER05LD23","1","26","1","1","3","1","","0","1","0","null","","","<div class = 'row'><div class = 'column'><img src = 'uspos/5621.bmp' width = '100%;'></div><div class = 'column'><img src = 'category3/CS8.png' width = '70%;'></div></div>","null","pos","CS","CS","3","category3/CS8.png","","","","",""
"","html-keyboard-response","21","157676","0.0-6.0-0.0-0.15","pne715w5jm","many_one","0","indirect_first","0","ER05LD23","1","26","1","1","3","1","","0","1","0","null","","","<div class = 'row'><div class = 'column'><img src = 'category2/CS3.png' width = '70%;'></div><div class = 'column'><img src = 'usneg/9421.bmp' width = '100%;'></div></div>","null","neg","CS","CS","2","category2/CS3.png","","","","",""
"","html-keyboard-response","22","160187","0.0-6.0-0.0-0.16","pne715w5jm","many_one","0","indirect_first","0","ER05LD23","1","26","1","1","3","1","","0","1","0","null","","","<div class = 'row'><div class = 'column'><img src = 'category3/CS2.png' width = '70%;'></div><div class = 'column'><img src = 'uspos/8540.bmp' width = '100%;'></div></div>","null","pos","CS","CS","3","category3/CS2.png","","","","",""
"","html-keyboard-response","23","162690","0.0-6.0-0.0-0.17","pne715w5jm","many_one","0","indirect_first","0","ER05LD23","1","26","1","1","3","1","","0","1","0","null","","","<div class = 'row'><div class = 'column'><img src = 'usneg/9220.bmp' width = '100%;'></div><div class = 'column'><img src = 'category2/CS9.png' width = '70%;'></div></div>","null","neg","CS","CS","2","category2/CS9.png","","","","",""
"","html-keyboard-response","24","165200","0.0-6.0-0.0-0.18","pne715w5jm","many_one","0","indirect_first","0","ER05LD23","1","26","1","1","3","1","","0","1","0","null","","","<div class = 'row'><div class = 'column'><img src = 'usneg/9000.bmp' width = '100%;'></div><div class = 'column'><img src = 'category4/CS7.png' width = '70%;'></div></div>","null","neg","CS","CS","4","category4/CS7.png","","","","",""
"","html-keyboard-response","25","167715","0.0-6.0-0.0-0.19","pne715w5jm","many_one","0","indirect_first","0","ER05LD23","1","26","1","1","3","1","","0","1","0","null","","","<div class = 'row'><div class = 'column'><img src = 'category3/CS3.png' width = '70%;'></div><div class = 'column'><img src = 'uspos/1463.bmp' width = '100%;'></div></div>","null","pos","CS","CS","3","category3/CS3.png","","","","",""
"","survey-html-form","26","171108","0.0-6.0-1.0","pne715w5jm","many_one","0","indirect_first","0","ER05LD23","1","26","1","1","3","1","","0","1","0","2887.8000000258908","","{}","","","","","","","","","","","",""
"","html-keyboard-response","27","175113","0.0-6.0-2.0-0.0","pne715w5jm","many_one","0","indirect_first","0","ER05LD23","1","26","1","1","3","1","","0","1","0","null","","","<div class = 'row'><div class = 'column'><img src = 'category3/CS8.png' width = '70%;'></div><div class = 'column'><img src = 'uspos/5621.bmp' width = '100%;'></div></div>","null","pos","CS","CS","3","category3/CS8.png","","","","",""
"","html-keyboard-response","28","177619","0.0-6.0-2.0-0.1","pne715w5jm","many_one","0","indirect_first","0","ER05LD23","1","26","1","1","3","1","","0","1","0","null","","","<div class = 'row'><div class = 'column'><img src = 'usneg/9000.bmp' width = '100%;'></div><div class = 'column'><img src = 'category4/CS7.png' width = '70%;'></div></div>","null","neg","CS","CS","4","category4/CS7.png","","","","",""
"","html-keyboard-response","29","180125","0.0-6.0-2.0-0.2","pne715w5jm","many_one","0","indirect_first","0","ER05LD23","1","26","1","1","3","1","","0","1","0","null","","","<div class = 'row'><div class = 'column'><img src = 'category4/CS2.png' width = '70%;'></div><div class = 'column'><img src = 'usneg/9920.bmp' width = '100%;'></div></div>","null","neg","CS","CS","4","category4/CS2.png","","","","",""
"","html-keyboard-response","30","182634","0.0-6.0-2.0-0.3","pne715w5jm","many_one","0","indirect_first","0","ER05LD23","1","26","1","1","3","1","","0","1","0","null","","","<div class = 'row'><div class = 'column'><img src = 'uspos/8080.bmp' width = '100%;'></div><div class = 'column'><img src = 'category1/CS8.png' width = '70%;'></div></div>","null","pos","CS","CS","1","category1/CS8.png","","","","",""
"","html-keyboard-response","31","185139","0.0-6.0-2.0-0.4","pne715w5jm","many_one","0","indirect_first","0","ER05LD23","1","26","1","1","3","1","","0","1","0","null","","","<div class = 'row'><div class = 'column'><img src = 'category2/CS6.png' width = '70%;'></div><div class = 'column'><img src = 'usneg/2900.bmp' width = '100%;'></div></div>","null","neg","CS","CS","2","category2/CS6.png","","","","",""
"","html-keyboard-response","32","187646","0.0-6.0-2.0-0.5","pne715w5jm","many_one","0","indirect_first","0","ER05LD23","1","26","1","1","3","1","","0","1","0","null","","","<div class = 'row'><div class = 'column'><img src = 'uspos/1463.bmp' width = '100%;'></div><div class = 'column'><img src = 'category3/CS3.png' width = '70%;'></div></div>","null","pos","CS","CS","3","category3/CS3.png","","","","",""
"","html-keyboard-response","33","190155","0.0-6.0-2.0-0.6","pne715w5jm","many_one","0","indirect_first","0","ER05LD23","1","26","1","1","3","1","","0","1","0","null","","","<div class = 'row'><div class = 'column'><img src = 'category4/CS1.png' width = '70%;'></div><div class = 'column'><img src = 'usneg/3160.bmp' width = '100%;'></div></div>","null","neg","CS","CS","4","category4/CS1.png","","","","",""
"","html-keyboard-response","34","192662","0.0-6.0-2.0-0.7","pne715w5jm","many_one","0","indirect_first","0","ER05LD23","1","26","1","1","3","1","","0","1","0","null","","","<div class = 'row'><div class = 'column'><img src = 'usneg/9421.bmp' width = '100%;'></div><div class = 'column'><img src = 'category2/CS3.png' width = '70%;'></div></div>","null","neg","CS","CS","2","category2/CS3.png","","","","",""
"","html-keyboard-response","35","195173","0.0-6.0-2.0-0.8","pne715w5jm","many_one","0","indirect_first","0","ER05LD23","1","26","1","1","3","1","","0","1","0","null","","","<div class = 'row'><div class = 'column'><img src = 'category2/CS9.png' width = '70%;'></div><div class = 'column'><img src = 'usneg/9220.bmp' width = '100%;'></div></div>","null","neg","CS","CS","2","category2/CS9.png","","","","",""
"","html-keyboard-response","36","197680","0.0-6.0-2.0-0.9","pne715w5jm","many_one","0","indirect_first","0","ER05LD23","1","26","1","1","3","1","","0","1","0","null","","","<div class = 'row'><div class = 'column'><img src = 'uspos/2150.bmp' width = '100%;'></div><div class = 'column'><img src = 'category1/CS6.png' width = '70%;'></div></div>","null","pos","CS","CS","1","category1/CS6.png","","","","",""
"","html-keyboard-response","37","200189","0.0-6.0-2.0-0.10","pne715w5jm","many_one","0","indirect_first","0","ER05LD23","1","26","1","1","3","1","","0","1","0","null","","","<div class = 'row'><div class = 'column'><img src = 'category2/CS4.png' width = '70%;'></div><div class = 'column'><img src = 'usneg/9290.bmp' width = '100%;'></div></div>","null","neg","CS","CS","2","category2/CS4.png","","","","",""
"","html-keyboard-response","38","202696","0.0-6.0-2.0-0.11","pne715w5jm","many_one","0","indirect_first","0","ER05LD23","1","26","1","1","3","1","","0","1","0","null","","","<div class = 'row'><div class = 'column'><img src = 'category1/CS7.png' width = '70%;'></div><div class = 'column'><img src = 'uspos/2057.bmp' width = '100%;'></div></div>","null","pos","CS","CS","1","category1/CS7.png","","","","",""
"","html-keyboard-response","39","205203","0.0-6.0-2.0-0.12","pne715w5jm","many_one","0","indirect_first","0","ER05LD23","1","26","1","1","3","1","","0","1","0","null","","","<div class = 'row'><div class = 'column'><img src = 'category3/CS9.png' width = '70%;'></div><div class = 'column'><img src = 'uspos/5629.bmp' width = '100%;'></div></div>","null","pos","CS","CS","3","category3/CS9.png","","","","",""
"","html-keyboard-response","40","207711","0.0-6.0-2.0-0.13","pne715w5jm","many_one","0","indirect_first","0","ER05LD23","1","26","1","1","3","1","","0","1","0","null","","","<div class = 'row'><div class = 'column'><img src = 'category2/CS5.png' width = '70%;'></div><div class = 'column'><img src = 'usneg/9435.bmp' width = '100%;'></div></div>","null","neg","CS","CS","2","category2/CS5.png","","","","",""
"","html-keyboard-response","41","210221","0.0-6.0-2.0-0.14","pne715w5jm","many_one","0","indirect_first","0","ER05LD23","1","26","1","1","3","1","","0","1","0","null","","","<div class = 'row'><div class = 'column'><img src = 'category1/CS3.png' width = '70%;'></div><div class = 'column'><img src = 'uspos/7325.bmp' width = '100%;'></div></div>","null","pos","CS","CS","1","category1/CS3.png","","","","",""
"","html-keyboard-response","42","212727","0.0-6.0-2.0-0.15","pne715w5jm","many_one","0","indirect_first","0","ER05LD23","1","26","1","1","3","1","","0","1","0","null","","","<div class = 'row'><div class = 'column'><img src = 'usneg/8485.bmp' width = '100%;'></div><div class = 'column'><img src = 'category4/CS5.png' width = '70%;'></div></div>","null","neg","CS","CS","4","category4/CS5.png","","","","",""
"","html-keyboard-response","43","215235","0.0-6.0-2.0-0.16","pne715w5jm","many_one","0","indirect_first","0","ER05LD23","1","26","1","1","3","1","","0","1","0","null","","","<div class = 'row'><div class = 'column'><img src = 'category4/CS6.png' width = '70%;'></div><div class = 'column'><img src = 'usneg/9041.bmp' width = '100%;'></div></div>","null","neg","CS","CS","4","category4/CS6.png","","","","",""
"","html-keyboard-response","44","217744","0.0-6.0-2.0-0.17","pne715w5jm","many_one","0","indirect_first","0","ER05LD23","1","26","1","1","3","1","","0","1","0","null","","","<div class = 'row'><div class = 'column'><img src = 'uspos/2900.2.bmp' width = '100%;'></div><div class = 'column'><img src = 'category1/CS10.png' width = '70%;'></div></div>","null","pos","CS","CS","1","category1/CS10.png","","","","",""
"","html-keyboard-response","45","220248","0.0-6.0-2.0-0.18","pne715w5jm","many_one","0","indirect_first","0","ER05LD23","1","26","1","1","3","1","","0","1","0","null","","","<div class = 'row'><div class = 'column'><img src = 'uspos/8540.bmp' width = '100%;'></div><div class = 'column'><img src = 'category3/CS2.png' width = '70%;'></div></div>","null","pos","CS","CS","3","category3/CS2.png","","","","",""
"","html-keyboard-response","46","222759","0.0-6.0-2.0-0.19","pne715w5jm","many_one","0","indirect_first","0","ER05LD23","1","26","1","1","3","1","","0","1","0","null","","","<div class = 'row'><div class = 'column'><img src = 'category3/CS10.png' width = '70%;'></div><div class = 'column'><img src = 'uspos/1460.bmp' width = '100%;'></div></div>","null","pos","CS","CS","3","category3/CS10.png","","","","",""
"","survey-html-form","47","226161","0.0-6.0-3.0","pne715w5jm","many_one","0","indirect_first","0","ER05LD23","1","26","1","1","3","1","","0","1","0","2900.580000015907","","{}","","","","","","","","","","","",""
"","html-keyboard-response","48","230171","0.0-6.0-4.0-0.0","pne715w5jm","many_one","0","indirect_first","0","ER05LD23","1","26","1","1","3","1","","0","1","0","null","","","<div class = 'row'><div class = 'column'><img src = 'uspos/2150.bmp' width = '100%;'></div><div class = 'column'><img src = 'category1/CS6.png' width = '70%;'></div></div>","null","pos","CS","CS","1","category1/CS6.png","","","","",""
"","html-keyboard-response","49","232677","0.0-6.0-4.0-0.1","pne715w5jm","many_one","0","indirect_first","0","ER05LD23","1","26","1","1","3","1","","0","1","0","null","","","<div class = 'row'><div class = 'column'><img src = 'uspos/2900.2.bmp' width = '100%;'></div><div class = 'column'><img src = 'category1/CS10.png' width = '70%;'></div></div>","null","pos","CS","CS","1","category1/CS10.png","","","","",""
"","html-keyboard-response","50","235189","0.0-6.0-4.0-0.2","pne715w5jm","many_one","0","indirect_first","0","ER05LD23","1","26","1","1","3","1","","0","1","0","null","","","<div class = 'row'><div class = 'column'><img src = 'category2/CS6.png' width = '70%;'></div><div class = 'column'><img src = 'usneg/2900.bmp' width = '100%;'></div></div>","null","neg","CS","CS","2","category2/CS6.png","","","","",""
"","html-keyboard-response","51","237692","0.0-6.0-4.0-0.3","pne715w5jm","many_one","0","indirect_first","0","ER05LD23","1","26","1","1","3","1","","0","1","0","null","","","<div class = 'row'><div class = 'column'><img src = 'category1/CS3.png' width = '70%;'></div><div class = 'column'><img src = 'uspos/7325.bmp' width = '100%;'></div></div>","null","pos","CS","CS","1","category1/CS3.png","","","","",""
"","html-keyboard-response","52","240195","0.0-6.0-4.0-0.4","pne715w5jm","many_one","0","indirect_first","0","ER05LD23","1","26","1","1","3","1","","0","1","0","null","","","<div class = 'row'><div class = 'column'><img src = 'usneg/9290.bmp' width = '100%;'></div><div class = 'column'><img src = 'category2/CS4.png' width = '70%;'></div></div>","null","neg","CS","CS","2","category2/CS4.png","","","","",""
"","html-keyboard-response","53","242701","0.0-6.0-4.0-0.5","pne715w5jm","many_one","0","indirect_first","0","ER05LD23","1","26","1","1","3","1","","0","1","0","null","","","<div class = 'row'><div class = 'column'><img src = 'uspos/5621.bmp' width = '100%;'></div><div class = 'column'><img src = 'category3/CS8.png' width = '70%;'></div></div>","null","pos","CS","CS","3","category3/CS8.png","","","","",""
"","html-keyboard-response","54","245208","0.0-6.0-4.0-0.6","pne715w5jm","many_one","0","indirect_first","0","ER05LD23","1","26","1","1","3","1","","0","1","0","null","","","<div class = 'row'><div class = 'column'><img src = 'category3/CS10.png' width = '70%;'></div><div class = 'column'><img src = 'uspos/1460.bmp' width = '100%;'></div></div>","null","pos","CS","CS","3","category3/CS10.png","","","","",""
"","html-keyboard-response","55","247714","0.0-6.0-4.0-0.7","pne715w5jm","many_one","0","indirect_first","0","ER05LD23","1","26","1","1","3","1","","0","1","0","null","","","<div class = 'row'><div class = 'column'><img src = 'uspos/8540.bmp' width = '100%;'></div><div class = 'column'><img src = 'category3/CS2.png' width = '70%;'></div></div>","null","pos","CS","CS","3","category3/CS2.png","","","","",""
"","html-keyboard-response","56","250220","0.0-6.0-4.0-0.8","pne715w5jm","many_one","0","indirect_first","0","ER05LD23","1","26","1","1","3","1","","0","1","0","null","","","<div class = 'row'><div class = 'column'><img src = 'category1/CS8.png' width = '70%;'></div><div class = 'column'><img src = 'uspos/8080.bmp' width = '100%;'></div></div>","null","pos","CS","CS","1","category1/CS8.png","","","","",""
"","html-keyboard-response","57","252724","0.0-6.0-4.0-0.9","pne715w5jm","many_one","0","indirect_first","0","ER05LD23","1","26","1","1","3","1","","0","1","0","null","","","<div class = 'row'><div class = 'column'><img src = 'category2/CS3.png' width = '70%;'></div><div class = 'column'><img src = 'usneg/9421.bmp' width = '100%;'></div></div>","null","neg","CS","CS","2","category2/CS3.png","","","","",""
"","html-keyboard-response","58","255231","0.0-6.0-4.0-0.10","pne715w5jm","many_one","0","indirect_first","0","ER05LD23","1","26","1","1","3","1","","0","1","0","null","","","<div class = 'row'><div class = 'column'><img src = 'usneg/9435.bmp' width = '100%;'></div><div class = 'column'><img src = 'category2/CS5.png' width = '70%;'></div></div>","null","neg","CS","CS","2","category2/CS5.png","","","","",""
"","html-keyboard-response","59","257737","0.0-6.0-4.0-0.11","pne715w5jm","many_one","0","indirect_first","0","ER05LD23","1","26","1","1","3","1","","0","1","0","null","","","<div class = 'row'><div class = 'column'><img src = 'category4/CS1.png' width = '70%;'></div><div class = 'column'><img src = 'usneg/3160.bmp' width = '100%;'></div></div>","null","neg","CS","CS","4","category4/CS1.png","","","","",""
"","html-keyboard-response","60","260246","0.0-6.0-4.0-0.12","pne715w5jm","many_one","0","indirect_first","0","ER05LD23","1","26","1","1","3","1","","0","1","0","null","","","<div class = 'row'><div class = 'column'><img src = 'usneg/9041.bmp' width = '100%;'></div><div class = 'column'><img src = 'category4/CS6.png' width = '70%;'></div></div>","null","neg","CS","CS","4","category4/CS6.png","","","","",""
"","html-keyboard-response","61","262751","0.0-6.0-4.0-0.13","pne715w5jm","many_one","0","indirect_first","0","ER05LD23","1","26","1","1","3","1","","0","1","0","null","","","<div class = 'row'><div class = 'column'><img src = 'usneg/9220.bmp' width = '100%;'></div><div class = 'column'><img src = 'category2/CS9.png' width = '70%;'></div></div>","null","neg","CS","CS","2","category2/CS9.png","","","","",""
"","html-keyboard-response","62","265257","0.0-6.0-4.0-0.14","pne715w5jm","many_one","0","indirect_first","0","ER05LD23","1","26","1","1","3","1","","0","1","0","null","","","<div class = 'row'><div class = 'column'><img src = 'category1/CS7.png' width = '70%;'></div><div class = 'column'><img src = 'uspos/2057.bmp' width = '100%;'></div></div>","null","pos","CS","CS","1","category1/CS7.png","","","","",""
"","html-keyboard-response","63","267764","0.0-6.0-4.0-0.15","pne715w5jm","many_one","0","indirect_first","0","ER05LD23","1","26","1","1","3","1","","0","1","0","null","","","<div class = 'row'><div class = 'column'><img src = 'category4/CS7.png' width = '70%;'></div><div class = 'column'><img src = 'usneg/9000.bmp' width = '100%;'></div></div>","null","neg","CS","CS","4","category4/CS7.png","","","","",""
"","html-keyboard-response","64","270276","0.0-6.0-4.0-0.16","pne715w5jm","many_one","0","indirect_first","0","ER05LD23","1","26","1","1","3","1","","0","1","0","null","","","<div class = 'row'><div class = 'column'><img src = 'category3/CS9.png' width = '70%;'></div><div class = 'column'><img src = 'uspos/5629.bmp' width = '100%;'></div></div>","null","pos","CS","CS","3","category3/CS9.png","","","","",""
"","html-keyboard-response","65","272789","0.0-6.0-4.0-0.17","pne715w5jm","many_one","0","indirect_first","0","ER05LD23","1","26","1","1","3","1","","0","1","0","null","","","<div class = 'row'><div class = 'column'><img src = 'category3/CS3.png' width = '70%;'></div><div class = 'column'><img src = 'uspos/1463.bmp' width = '100%;'></div></div>","null","pos","CS","CS","3","category3/CS3.png","","","","",""
"","html-keyboard-response","66","275301","0.0-6.0-4.0-0.18","pne715w5jm","many_one","0","indirect_first","0","ER05LD23","1","26","1","1","3","1","","0","1","0","null","","","<div class = 'row'><div class = 'column'><img src = 'category4/CS2.png' width = '70%;'></div><div class = 'column'><img src = 'usneg/9920.bmp' width = '100%;'></div></div>","null","neg","CS","CS","4","category4/CS2.png","","","","",""
"","html-keyboard-response","67","277813","0.0-6.0-4.0-0.19","pne715w5jm","many_one","0","indirect_first","0","ER05LD23","1","26","1","1","3","1","","0","1","0","null","","","<div class = 'row'><div class = 'column'><img src = 'category4/CS5.png' width = '70%;'></div><div class = 'column'><img src = 'usneg/8485.bmp' width = '100%;'></div></div>","null","neg","CS","CS","4","category4/CS5.png","","","","",""
"","survey-html-form","68","281609","0.0-6.0-5.0","pne715w5jm","many_one","0","indirect_first","0","ER05LD23","1","26","1","1","3","1","","0","1","0","3290.3449999867007","","{}","","","","","","","","","","","",""
"","html-keyboard-response","69","285617","0.0-6.0-6.0-0.0","pne715w5jm","many_one","0","indirect_first","0","ER05LD23","1","26","1","1","3","1","","0","1","0","null","","","<div class = 'row'><div class = 'column'><img src = 'category4/CS1.png' width = '70%;'></div><div class = 'column'><img src = 'usneg/3160.bmp' width = '100%;'></div></div>","null","neg","CS","CS","4","category4/CS1.png","","","","",""
"","html-keyboard-response","70","288124","0.0-6.0-6.0-0.1","pne715w5jm","many_one","0","indirect_first","0","ER05LD23","1","26","1","1","3","1","","0","1","0","null","","","<div class = 'row'><div class = 'column'><img src = 'uspos/5621.bmp' width = '100%;'></div><div class = 'column'><img src = 'category3/CS8.png' width = '70%;'></div></div>","null","pos","CS","CS","3","category3/CS8.png","","","","",""
"","html-keyboard-response","71","290634","0.0-6.0-6.0-0.2","pne715w5jm","many_one","0","indirect_first","0","ER05LD23","1","26","1","1","3","1","","0","1","0","null","","","<div class = 'row'><div class = 'column'><img src = 'category3/CS3.png' width = '70%;'></div><div class = 'column'><img src = 'uspos/1463.bmp' width = '100%;'></div></div>","null","pos","CS","CS","3","category3/CS3.png","","","","",""
"","html-keyboard-response","72","293139","0.0-6.0-6.0-0.3","pne715w5jm","many_one","0","indirect_first","0","ER05LD23","1","26","1","1","3","1","","0","1","0","null","","","<div class = 'row'><div class = 'column'><img src = 'uspos/2150.bmp' width = '100%;'></div><div class = 'column'><img src = 'category1/CS6.png' width = '70%;'></div></div>","null","pos","CS","CS","1","category1/CS6.png","","","","",""
"","html-keyboard-response","73","295647","0.0-6.0-6.0-0.4","pne715w5jm","many_one","0","indirect_first","0","ER05LD23","1","26","1","1","3","1","","0","1","0","null","","","<div class = 'row'><div class = 'column'><img src = 'usneg/9920.bmp' width = '100%;'></div><div class = 'column'><img src = 'category4/CS2.png' width = '70%;'></div></div>","null","neg","CS","CS","4","category4/CS2.png","","","","",""
"","html-keyboard-response","74","298155","0.0-6.0-6.0-0.5","pne715w5jm","many_one","0","indirect_first","0","ER05LD23","1","26","1","1","3","1","","0","1","0","null","","","<div class = 'row'><div class = 'column'><img src = 'uspos/8540.bmp' width = '100%;'></div><div class = 'column'><img src = 'category3/CS2.png' width = '70%;'></div></div>","null","pos","CS","CS","3","category3/CS2.png","","","","",""
"","html-keyboard-response","75","300666","0.0-6.0-6.0-0.6","pne715w5jm","many_one","0","indirect_first","0","ER05LD23","1","26","1","1","3","1","","0","1","0","null","","","<div class = 'row'><div class = 'column'><img src = 'category2/CS9.png' width = '70%;'></div><div class = 'column'><img src = 'usneg/9220.bmp' width = '100%;'></div></div>","null","neg","CS","CS","2","category2/CS9.png","","","","",""
"","html-keyboard-response","76","303171","0.0-6.0-6.0-0.7","pne715w5jm","many_one","0","indirect_first","0","ER05LD23","1","26","1","1","3","1","","0","1","0","null","","","<div class = 'row'><div class = 'column'><img src = 'usneg/8485.bmp' width = '100%;'></div><div class = 'column'><img src = 'category4/CS5.png' width = '70%;'></div></div>","null","neg","CS","CS","4","category4/CS5.png","","","","",""
"","html-keyboard-response","77","305682","0.0-6.0-6.0-0.8","pne715w5jm","many_one","0","indirect_first","0","ER05LD23","1","26","1","1","3","1","","0","1","0","null","","","<div class = 'row'><div class = 'column'><img src = 'category1/CS10.png' width = '70%;'></div><div class = 'column'><img src = 'uspos/2900.2.bmp' width = '100%;'></div></div>","null","pos","CS","CS","1","category1/CS10.png","","","","",""
"","html-keyboard-response","78","308185","0.0-6.0-6.0-0.9","pne715w5jm","many_one","0","indirect_first","0","ER05LD23","1","26","1","1","3","1","","0","1","0","null","","","<div class = 'row'><div class = 'column'><img src = 'uspos/8080.bmp' width = '100%;'></div><div class = 'column'><img src = 'category1/CS8.png' width = '70%;'></div></div>","null","pos","CS","CS","1","category1/CS8.png","","","","",""
"","html-keyboard-response","79","310690","0.0-6.0-6.0-0.10","pne715w5jm","many_one","0","indirect_first","0","ER05LD23","1","26","1","1","3","1","","0","1","0","null","","","<div class = 'row'><div class = 'column'><img src = 'category3/CS10.png' width = '70%;'></div><div class = 'column'><img src = 'uspos/1460.bmp' width = '100%;'></div></div>","null","pos","CS","CS","3","category3/CS10.png","","","","",""
"","html-keyboard-response","80","313198","0.0-6.0-6.0-0.11","pne715w5jm","many_one","0","indirect_first","0","ER05LD23","1","26","1","1","3","1","","0","1","0","null","","","<div class = 'row'><div class = 'column'><img src = 'usneg/2900.bmp' width = '100%;'></div><div class = 'column'><img src = 'category2/CS6.png' width = '70%;'></div></div>","null","neg","CS","CS","2","category2/CS6.png","","","","",""
"","html-keyboard-response","81","315709","0.0-6.0-6.0-0.12","pne715w5jm","many_one","0","indirect_first","0","ER05LD23","1","26","1","1","3","1","","0","1","0","null","","","<div class = 'row'><div class = 'column'><img src = 'usneg/9000.bmp' width = '100%;'></div><div class = 'column'><img src = 'category4/CS7.png' width = '70%;'></div></div>","null","neg","CS","CS","4","category4/CS7.png","","","","",""
"","html-keyboard-response","82","318216","0.0-6.0-6.0-0.13","pne715w5jm","many_one","0","indirect_first","0","ER05LD23","1","26","1","1","3","1","","0","1","0","null","","","<div class = 'row'><div class = 'column'><img src = 'uspos/7325.bmp' width = '100%;'></div><div class = 'column'><img src = 'category1/CS3.png' width = '70%;'></div></div>","null","pos","CS","CS","1","category1/CS3.png","","","","",""
"","html-keyboard-response","83","320726","0.0-6.0-6.0-0.14","pne715w5jm","many_one","0","indirect_first","0","ER05LD23","1","26","1","1","3","1","","0","1","0","null","","","<div class = 'row'><div class = 'column'><img src = 'category3/CS9.png' width = '70%;'></div><div class = 'column'><img src = 'uspos/5629.bmp' width = '100%;'></div></div>","null","pos","CS","CS","3","category3/CS9.png","","","","",""
"","html-keyboard-response","84","323232","0.0-6.0-6.0-0.15","pne715w5jm","many_one","0","indirect_first","0","ER05LD23","1","26","1","1","3","1","","0","1","0","null","","","<div class = 'row'><div class = 'column'><img src = 'uspos/2057.bmp' width = '100%;'></div><div class = 'column'><img src = 'category1/CS7.png' width = '70%;'></div></div>","null","pos","CS","CS","1","category1/CS7.png","","","","",""
"","html-keyboard-response","85","325741","0.0-6.0-6.0-0.16","pne715w5jm","many_one","0","indirect_first","0","ER05LD23","1","26","1","1","3","1","","0","1","0","null","","","<div class = 'row'><div class = 'column'><img src = 'category2/CS4.png' width = '70%;'></div><div class = 'column'><img src = 'usneg/9290.bmp' width = '100%;'></div></div>","null","neg","CS","CS","2","category2/CS4.png","","","","",""
"","html-keyboard-response","86","328248","0.0-6.0-6.0-0.17","pne715w5jm","many_one","0","indirect_first","0","ER05LD23","1","26","1","1","3","1","","0","1","0","null","","","<div class = 'row'><div class = 'column'><img src = 'category2/CS3.png' width = '70%;'></div><div class = 'column'><img src = 'usneg/9421.bmp' width = '100%;'></div></div>","null","neg","CS","CS","2","category2/CS3.png","","","","",""
"","html-keyboard-response","87","330754","0.0-6.0-6.0-0.18","pne715w5jm","many_one","0","indirect_first","0","ER05LD23","1","26","1","1","3","1","","0","1","0","null","","","<div class = 'row'><div class = 'column'><img src = 'usneg/9435.bmp' width = '100%;'></div><div class = 'column'><img src = 'category2/CS5.png' width = '70%;'></div></div>","null","neg","CS","CS","2","category2/CS5.png","","","","",""
"","html-keyboard-response","88","333261","0.0-6.0-6.0-0.19","pne715w5jm","many_one","0","indirect_first","0","ER05LD23","1","26","1","1","3","1","","0","1","0","null","","","<div class = 'row'><div class = 'column'><img src = 'category4/CS6.png' width = '70%;'></div><div class = 'column'><img src = 'usneg/9041.bmp' width = '100%;'></div></div>","null","neg","CS","CS","4","category4/CS6.png","","","","",""
"","html-keyboard-response","89","365733","0.0-7.0","pne715w5jm","many_one","0","indirect_first","0","ER05LD23","1","26","1","1","3","1","","0","1","0","31965.304999961518","","","<p>Sie sehen nun die chinesischen Zeichen nur ganz kurz. Danach sehen Sie die jeweilige Aussprache der Zeichen als Silbe auf dem Bildschrim. Ihre Aufgabe ist es, für jede Silbe anzugeben, ob diese etwas angenehmes, oder unangenehmes bedeuten könnte. Verlassen Sie sich hier vor allem auf Ihre Intuition.<br><br>Die Zeichen werden nur zur Orientierung dargestellt, beachten Sie sie deshalb nicht. Konzentrieren Sie sich vor allem auf die Silben. <br>Reagieren Sie mit folgenden zwei Tasten: <br><br><b>'D' </b> wenn die Silbe etwas <b>unangenehmes</b> bedeuten könnte. <br><b>'K'</b> wenn die Silbe etwas <b>angenehmes</b> bedeuten könnte. <br><br>Bitte legen Sie nun den Zeigefinger der linken Hand auf die Taste 'D' und den Zeigefinger der rechten Hand auf die Taste 'K'. <br>Reagieren Sie auf jede Silbe so schnell wie möglich. Uns interessiert Ihre spontane Reaktion. <br> <br> <br>Drücken Sie 'D' oder 'K', um die nächste Aufgabe zu starten. </p>","75","","","","","","","","","",""
"","html-keyboard-response","90","368737","0.0-8.0-0.0","pne715w5jm","many_one","0","indirect_first","0","ER05LD23","1","26","1","1","3","1","","0","1","0","null","","","<div style=""font-size:60px;"">+</div>","null","","","","","","","","","",""
"","html-keyboard-response","91","368832","0.0-8.0-1.0","pne715w5jm","many_one","0","indirect_first","0","ER05LD23","1","26","1","1","3","1","","0","1","0","null","","","<img src = 'category1/CS3.png' width = '100%;'>","null","","","","","","","","","",""
"","html-keyboard-response","92","369094","0.0-8.0-2.0","pne715w5jm","many_one","0","indirect_first","0","ER05LD23","1","26","1","1","3","1","","0","1","0","null","","","<img src = 'targets/41.png' width = '100%;'>","null","","","","","","","","","",""
"","html-keyboard-response","93","371642","0.0-8.0-3.0","pne715w5jm","many_one","0","indirect_first","0","ER05LD23","1","26","1","1","3","1","","0","1","0","2547.040000092238","","","<img src = 'targets/mask.png' width = '100%;'>","75","pos","CS","CS","1","category1/CS3.png","targets/41.png","1","indirect","0",""
"","html-keyboard-response","94","373150","0.0-8.0-0.1","pne715w5jm","many_one","0","indirect_first","0","ER05LD23","1","26","1","1","3","1","","0","1","0","null","","","<div style=""font-size:60px;"">+</div>","null","","","","","","","","","",""
"","html-keyboard-response","95","373242","0.0-8.0-1.1","pne715w5jm","many_one","0","indirect_first","0","ER05LD23","1","26","1","1","3","1","","0","1","0","null","","","<img src = 'category4/CS2.png' width = '100%;'>","null","","","","","","","","","",""
"","html-keyboard-response","96","373500","0.0-8.0-2.1","pne715w5jm","many_one","0","indirect_first","0","ER05LD23","1","26","1","1","3","1","","0","1","0","null","","","<img src = 'targets/8.png' width = '100%;'>","null","","","","","","","","","",""
"","html-keyboard-response","97","374415","0.0-8.0-3.1","pne715w5jm","many_one","0","indirect_first","0","ER05LD23","1","26","1","1","3","1","","0","1","0","914.7850000299513","","","<img src = 'targets/mask.png' width = '100%;'>","75","neg","CS","CS","4","category4/CS2.png","targets/8.png","1","indirect","1",""
"","html-keyboard-response","98","375925","0.0-8.0-0.2","pne715w5jm","many_one","0","indirect_first","0","ER05LD23","1","26","1","1","3","1","","0","1","0","null","","","<div style=""font-size:60px;"">+</div>","null","","","","","","","","","",""
"","html-keyboard-response","99","376020","0.0-8.0-1.2","pne715w5jm","many_one","0","indirect_first","0","ER05LD23","1","26","1","1","3","1","","0","1","0","null","","","<img src = 'category2/CS4.png' width = '100%;'>","null","","","","","","","","","",""
"","html-keyboard-response","100","376280","0.0-8.0-2.2","pne715w5jm","many_one","0","indirect_first","0","ER05LD23","1","26","1","1","3","1","","0","1","0","null","","","<img src = 'targets/28.png' width = '100%;'>","null","","","","","","","","","",""
"","html-keyboard-response","101","377053","0.0-8.0-3.2","pne715w5jm","many_one","0","indirect_first","0","ER05LD23","1","26","1","1","3","1","","0","1","0","771.9400000059977","","","<img src = 'targets/mask.png' width = '100%;'>","68","neg","CS","CS","2","category2/CS4.png","targets/28.png","0","indirect","2",""
"","html-keyboard-response","102","378560","0.0-8.0-0.3","pne715w5jm","many_one","0","indirect_first","0","ER05LD23","1","26","1","1","3","1","","0","1","0","null","","","<div style=""font-size:60px;"">+</div>","null","","","","","","","","","",""
"","html-keyboard-response","103","378655","0.0-8.0-1.3","pne715w5jm","many_one","0","indirect_first","0","ER05LD23","1","26","1","1","3","1","","0","1","0","null","","","<img src = 'category2/CS5.png' width = '100%;'>","null","","","","","","","","","",""
"","html-keyboard-response","104","378915","0.0-8.0-2.3","pne715w5jm","many_one","0","indirect_first","0","ER05LD23","1","26","1","1","3","1","","0","1","0","null","","","<img src = 'targets/6.png' width = '100%;'>","null","","","","","","","","","",""
"","html-keyboard-response","105","379273","0.0-8.0-3.3","pne715w5jm","many_one","0","indirect_first","0","ER05LD23","1","26","1","1","3","1","","0","1","0","357.6850000536069","","","<img src = 'targets/mask.png' width = '100%;'>","68","neg","CS","CS","2","category2/CS5.png","targets/6.png","0","indirect","3",""
"","html-keyboard-response","106","380777","0.0-8.0-0.4","pne715w5jm","many_one","0","indirect_first","0","ER05LD23","1","26","1","1","3","1","","0","1","0","null","","","<div style=""font-size:60px;"">+</div>","null","","","","","","","","","",""
"","html-keyboard-response","107","380872","0.0-8.0-1.4","pne715w5jm","many_one","0","indirect_first","0","ER05LD23","1","26","1","1","3","1","","0","1","0","null","","","<img src = 'category3/CS10.png' width = '100%;'>","null","","","","","","","","","",""
"","html-keyboard-response","108","381132","0.0-8.0-2.4","pne715w5jm","many_one","0","indirect_first","0","ER05LD23","1","26","1","1","3","1","","0","1","0","null","","","<img src = 'targets/34.png' width = '100%;'>","null","","","","","","","","","",""
"","html-keyboard-response","109","382083","0.0-8.0-3.4","pne715w5jm","many_one","0","indirect_first","0","ER05LD23","1","26","1","1","3","1","","0","1","0","949.6700000017881","","","<img src = 'targets/mask.png' width = '100%;'>","75","pos","CS","CS","3","category3/CS10.png","targets/34.png","1","indirect","4",""
"","html-keyboard-response","110","383588","0.0-8.0-0.5","pne715w5jm","many_one","0","indirect_first","0","ER05LD23","1","26","1","1","3","1","","0","1","0","null","","","<div style=""font-size:60px;"">+</div>","null","","","","","","","","","",""
"","html-keyboard-response","111","383688","0.0-8.0-1.5","pne715w5jm","many_one","0","indirect_first","0","ER05LD23","1","26","1","1","3","1","","0","1","0","null","","","<img src = 'category2/CS3.png' width = '100%;'>","null","","","","","","","","","",""
"","html-keyboard-response","112","383945","0.0-8.0-2.5","pne715w5jm","many_one","0","indirect_first","0","ER05LD23","1","26","1","1","3","1","","0","1","0","null","","","<img src = 'targets/13.png' width = '100%;'>","null","","","","","","","","","",""
"","html-keyboard-response","113","384913","0.0-8.0-3.5","pne715w5jm","many_one","0","indirect_first","0","ER05LD23","1","26","1","1","3","1","","0","1","0","967.4299999605864","","","<img src = 'targets/mask.png' width = '100%;'>","75","neg","CS","CS","2","category2/CS3.png","targets/13.png","1","indirect","5",""
"","html-keyboard-response","114","386420","0.0-8.0-0.6","pne715w5jm","many_one","0","indirect_first","0","ER05LD23","1","26","1","1","3","1","","0","1","0","null","","","<div style=""font-size:60px;"">+</div>","null","","","","","","","","","",""
"","html-keyboard-response","115","386515","0.0-8.0-1.6","pne715w5jm","many_one","0","indirect_first","0","ER05LD23","1","26","1","1","3","1","","0","1","0","null","","","<img src = 'category4/CS5.png' width = '100%;'>","null","","","","","","","","","",""
"","html-keyboard-response","116","386774","0.0-8.0-2.6","pne715w5jm","many_one","0","indirect_first","0","ER05LD23","1","26","1","1","3","1","","0","1","0","null","","","<img src = 'targets/37.png' width = '100%;'>","null","","","","","","","","","",""
"","html-keyboard-response","117","387710","0.0-8.0-3.6","pne715w5jm","many_one","0","indirect_first","0","ER05LD23","1","26","1","1","3","1","","0","1","0","935.2600000565872","","","<img src = 'targets/mask.png' width = '100%;'>","75","neg","CS","CS","4","category4/CS5.png","targets/37.png","1","indirect","6",""
"","html-keyboard-response","118","389218","0.0-8.0-0.7","pne715w5jm","many_one","0","indirect_first","0","ER05LD23","1","26","1","1","3","1","","0","1","0","null","","","<div style=""font-size:60px;"">+</div>","null","","","","","","","","","",""
"","html-keyboard-response","119","389310","0.0-8.0-1.7","pne715w5jm","many_one","0","indirect_first","0","ER05LD23","1","26","1","1","3","1","","0","1","0","null","","","<img src = 'category1/CS7.png' width = '100%;'>","null","","","","","","","","","",""
"","html-keyboard-response","120","389571","0.0-8.0-2.7","pne715w5jm","many_one","0","indirect_first","0","ER05LD23","1","26","1","1","3","1","","0","1","0","null","","","<img src = 'targets/16.png' width = '100%;'>","null","","","","","","","","","",""
"","html-keyboard-response","121","390252","0.0-8.0-3.7","pne715w5jm","many_one","0","indirect_first","0","ER05LD23","1","26","1","1","3","1","","0","1","0","680.9849999845028","","","<img src = 'targets/mask.png' width = '100%;'>","68","pos","CS","CS","1","category1/CS7.png","targets/16.png","0","indirect","7",""
"","html-keyboard-response","122","391755","0.0-8.0-0.8","pne715w5jm","many_one","0","indirect_first","0","ER05LD23","1","26","1","1","3","1","","0","1","0","null","","","<div style=""font-size:60px;"">+</div>","null","","","","","","","","","",""
"","html-keyboard-response","123","391849","0.0-8.0-1.8","pne715w5jm","many_one","0","indirect_first","0","ER05LD23","1","26","1","1","3","1","","0","1","0","null","","","<img src = 'category4/CS3.png' width = '100%;'>","null","","","","","","","","","",""
"","html-keyboard-response","124","392103","0.0-8.0-2.8","pne715w5jm","many_one","0","indirect_first","0","ER05LD23","1","26","1","1","3","1","","0","1","0","null","","","<img src = 'targets/18.png' width = '100%;'>","null","","","","","","","","","",""
"","html-keyboard-response","125","392686","0.0-8.0-3.8","pne715w5jm","many_one","0","indirect_first","0","ER05LD23","1","26","1","1","3","1","","0","1","0","582.0600000442937","","","<img src = 'targets/mask.png' width = '100%;'>","75","neg","GS","GSold","4","category4/CS3.png","targets/18.png","1","indirect","8",""
"","html-keyboard-response","126","394200","0.0-8.0-0.9","pne715w5jm","many_one","0","indirect_first","0","ER05LD23","1","26","1","1","3","1","","0","1","0","null","","","<div style=""font-size:60px;"">+</div>","null","","","","","","","","","",""
"","html-keyboard-response","127","394293","0.0-8.0-1.9","pne715w5jm","many_one","0","indirect_first","0","ER05LD23","1","26","1","1","3","1","","0","1","0","null","","","<img src = 'category3/CS2.png' width = '100%;'>","null","","","","","","","","","",""
"","html-keyboard-response","128","394553","0.0-8.0-2.9","pne715w5jm","many_one","0","indirect_first","0","ER05LD23","1","26","1","1","3","1","","0","1","0","null","","","<img src = 'targets/23.png' width = '100%;'>","null","","","","","","","","","",""
"","html-keyboard-response","129","395424","0.0-8.0-3.9","pne715w5jm","many_one","0","indirect_first","0","ER05LD23","1","26","1","1","3","1","","0","1","0","869.9949999572709","","","<img src = 'targets/mask.png' width = '100%;'>","68","pos","CS","CS","3","category3/CS2.png","targets/23.png","0","indirect","9",""
"","html-keyboard-response","130","396927","0.0-8.0-0.10","pne715w5jm","many_one","0","indirect_first","0","ER05LD23","1","26","1","1","3","1","","0","1","0","null","","","<div style=""font-size:60px;"">+</div>","null","","","","","","","","","",""
"","html-keyboard-response","131","397022","0.0-8.0-1.10","pne715w5jm","many_one","0","indirect_first","0","ER05LD23","1","26","1","1","3","1","","0","1","0","null","","","<img src = 'category4/CS7.png' width = '100%;'>","null","","","","","","","","","",""
"","html-keyboard-response","132","397278","0.0-8.0-2.10","pne715w5jm","many_one","0","indirect_first","0","ER05LD23","1","26","1","1","3","1","","0","1","0","null","","","<img src = 'targets/39.png' width = '100%;'>","null","","","","","","","","","",""
"","html-keyboard-response","133","397686","0.0-8.0-3.10","pne715w5jm","many_one","0","indirect_first","0","ER05LD23","1","26","1","1","3","1","","0","1","0","407.8849999932572","","","<img src = 'targets/mask.png' width = '100%;'>","75","neg","CS","CS","4","category4/CS7.png","targets/39.png","1","indirect","10",""
"","html-keyboard-response","134","399191","0.0-8.0-0.11","pne715w5jm","many_one","0","indirect_first","0","ER05LD23","1","26","1","1","3","1","","0","1","0","null","","","<div style=""font-size:60px;"">+</div>","null","","","","","","","","","",""
"","html-keyboard-response","135","399285","0.0-8.0-1.11","pne715w5jm","many_one","0","indirect_first","0","ER05LD23","1","26","1","1","3","1","","0","1","0","null","","","<img src = 'category3/CS3.png' width = '100%;'>","null","","","","","","","","","",""
"","html-keyboard-response","136","399542","0.0-8.0-2.11","pne715w5jm","many_one","0","indirect_first","0","ER05LD23","1","26","1","1","3","1","","0","1","0","null","","","<img src = 'targets/2.png' width = '100%;'>","null","","","","","","","","","",""
"","html-keyboard-response","137","400160","0.0-8.0-3.11","pne715w5jm","many_one","0","indirect_first","0","ER05LD23","1","26","1","1","3","1","","0","1","0","616.7850000783801","","","<img src = 'targets/mask.png' width = '100%;'>","75","pos","CS","CS","3","category3/CS3.png","targets/2.png","1","indirect","11",""
"","html-keyboard-response","138","401665","0.0-8.0-0.12","pne715w5jm","many_one","0","indirect_first","0","ER05LD23","1","26","1","1","3","1","","0","1","0","null","","","<div style=""font-size:60px;"">+</div>","null","","","","","","","","","",""
"","html-keyboard-response","139","401761","0.0-8.0-1.12","pne715w5jm","many_one","0","indirect_first","0","ER05LD23","1","26","1","1","3","1","","0","1","0","null","","","<img src = 'category1/CS8.png' width = '100%;'>","null","","","","","","","","","",""
"","html-keyboard-response","140","402020","0.0-8.0-2.12","pne715w5jm","many_one","0","indirect_first","0","ER05LD23","1","26","1","1","3","1","","0","1","0","null","","","<img src = 'targets/1.png' width = '100%;'>","null","","","","","","","","","",""
"","html-keyboard-response","141","403205","0.0-8.0-3.12","pne715w5jm","many_one","0","indirect_first","0","ER05LD23","1","26","1","1","3","1","","0","1","0","1184.1749999439344","","","<img src = 'targets/mask.png' width = '100%;'>","68","pos","CS","CS","1","category1/CS8.png","targets/1.png","0","indirect","12",""
"","html-keyboard-response","142","404713","0.0-8.0-0.13","pne715w5jm","many_one","0","indirect_first","0","ER05LD23","1","26","1","1","3","1","","0","1","0","null","","","<div style=""font-size:60px;"">+</div>","null","","","","","","","","","",""
"","html-keyboard-response","143","404809","0.0-8.0-1.13","pne715w5jm","many_one","0","indirect_first","0","ER05LD23","1","26","1","1","3","1","","0","1","0","null","","","<img src = 'category3/CS8.png' width = '100%;'>","null","","","","","","","","","",""
"","html-keyboard-response","144","405065","0.0-8.0-2.13","pne715w5jm","many_one","0","indirect_first","0","ER05LD23","1","26","1","1","3","1","","0","1","0","null","","","<img src = 'targets/21.png' width = '100%;'>","null","","","","","","","","","",""
"","html-keyboard-response","145","405499","0.0-8.0-3.13","pne715w5jm","many_one","0","indirect_first","0","ER05LD23","1","26","1","1","3","1","","0","1","0","433.4050000179559","","","<img src = 'targets/mask.png' width = '100%;'>","75","pos","CS","CS","3","category3/CS8.png","targets/21.png","1","indirect","13",""
"","html-keyboard-response","146","407007","0.0-8.0-0.14","pne715w5jm","many_one","0","indirect_first","0","ER05LD23","1","26","1","1","3","1","","0","1","0","null","","","<div style=""font-size:60px;"">+</div>","null","","","","","","","","","",""
"","html-keyboard-response","147","407098","0.0-8.0-1.14","pne715w5jm","many_one","0","indirect_first","0","ER05LD23","1","26","1","1","3","1","","0","1","0","null","","","<img src = 'category2/CS9.png' width = '100%;'>","null","","","","","","","","","",""
"","html-keyboard-response","148","407353","0.0-8.0-2.14","pne715w5jm","many_one","0","indirect_first","0","ER05LD23","1","26","1","1","3","1","","0","1","0","null","","","<img src = 'targets/44.png' width = '100%;'>","null","","","","","","","","","",""
"","html-keyboard-response","149","407757","0.0-8.0-3.14","pne715w5jm","many_one","0","indirect_first","0","ER05LD23","1","26","1","1","3","1","","0","1","0","402.3799999849871","","","<img src = 'targets/mask.png' width = '100%;'>","68","neg","CS","CS","2","category2/CS9.png","targets/44.png","0","indirect","14",""
"","html-keyboard-response","150","409268","0.0-8.0-0.15","pne715w5jm","many_one","0","indirect_first","0","ER05LD23","1","26","1","1","3","1","","0","1","0","null","","","<div style=""font-size:60px;"">+</div>","null","","","","","","","","","",""
"","html-keyboard-response","151","409364","0.0-8.0-1.15","pne715w5jm","many_one","0","indirect_first","0","ER05LD23","1","26","1","1","3","1","","0","1","0","null","","","<img src = 'category4/CS9.png' width = '100%;'>","null","","","","","","","","","",""
"","html-keyboard-response","152","409623","0.0-8.0-2.15","pne715w5jm","many_one","0","indirect_first","0","ER05LD23","1","26","1","1","3","1","","0","1","0","null","","","<img src = 'targets/38.png' width = '100%;'>","null","","","","","","","","","",""
"","html-keyboard-response","153","410041","0.0-8.0-3.15","pne715w5jm","many_one","0","indirect_first","0","ER05LD23","1","26","1","1","3","1","","0","1","0","417.2700000926852","","","<img src = 'targets/mask.png' width = '100%;'>","68","neg","GS","GSold","4","category4/CS9.png","targets/38.png","0","indirect","15",""
"","html-keyboard-response","154","411548","0.0-8.0-0.16","pne715w5jm","many_one","0","indirect_first","0","ER05LD23","1","26","1","1","3","1","","0","1","0","null","","","<div style=""font-size:60px;"">+</div>","null","","","","","","","","","",""
"","html-keyboard-response","155","411640","0.0-8.0-1.16","pne715w5jm","many_one","0","indirect_first","0","ER05LD23","1","26","1","1","3","1","","0","1","0","null","","","<img src = 'category3/CS9.png' width = '100%;'>","null","","","","","","","","","",""
"","html-keyboard-response","156","411900","0.0-8.0-2.16","pne715w5jm","many_one","0","indirect_first","0","ER05LD23","1","26","1","1","3","1","","0","1","0","null","","","<img src = 'targets/11.png' width = '100%;'>","null","","","","","","","","","",""
"","html-keyboard-response","157","412395","0.0-8.0-3.16","pne715w5jm","many_one","0","indirect_first","0","ER05LD23","1","26","1","1","3","1","","0","1","0","494.7649999521673","","","<img src = 'targets/mask.png' width = '100%;'>","75","pos","CS","CS","3","category3/CS9.png","targets/11.png","1","indirect","16",""
"","html-keyboard-response","158","413903","0.0-8.0-0.17","pne715w5jm","many_one","0","indirect_first","0","ER05LD23","1","26","1","1","3","1","","0","1","0","null","","","<div style=""font-size:60px;"">+</div>","null","","","","","","","","","",""
"","html-keyboard-response","159","413998","0.0-8.0-1.17","pne715w5jm","many_one","0","indirect_first","0","ER05LD23","1","26","1","1","3","1","","0","1","0","null","","","<img src = 'category2/CS6.png' width = '100%;'>","null","","","","","","","","","",""
"","html-keyboard-response","160","414258","0.0-8.0-2.17","pne715w5jm","many_one","0","indirect_first","0","ER05LD23","1","26","1","1","3","1","","0","1","0","null","","","<img src = 'targets/22.png' width = '100%;'>","null","","","","","","","","","",""
"","html-keyboard-response","161","415084","0.0-8.0-3.17","pne715w5jm","many_one","0","indirect_first","0","ER05LD23","1","26","1","1","3","1","","0","1","0","825.1199999358505","","","<img src = 'targets/mask.png' width = '100%;'>","68","neg","CS","CS","2","category2/CS6.png","targets/22.png","0","indirect","17",""
"","html-keyboard-response","162","416586","0.0-8.0-0.18","pne715w5jm","many_one","0","indirect_first","0","ER05LD23","1","26","1","1","3","1","","0","1","0","null","","","<div style=""font-size:60px;"">+</div>","null","","","","","","","","","",""
"","html-keyboard-response","163","416681","0.0-8.0-1.18","pne715w5jm","many_one","0","indirect_first","0","ER05LD23","1","26","1","1","3","1","","0","1","0","null","","","<img src = 'category4/CS1.png' width = '100%;'>","null","","","","","","","","","",""
"","html-keyboard-response","164","416937","0.0-8.0-2.18","pne715w5jm","many_one","0","indirect_first","0","ER05LD23","1","26","1","1","3","1","","0","1","0","null","","","<img src = 'targets/48.png' width = '100%;'>","null","","","","","","","","","",""
"","html-keyboard-response","165","417711","0.0-8.0-3.18","pne715w5jm","many_one","0","indirect_first","0","ER05LD23","1","26","1","1","3","1","","0","1","0","773.2199999736622","","","<img src = 'targets/mask.png' width = '100%;'>","75","neg","CS","CS","4","category4/CS1.png","targets/48.png","1","indirect","18",""
"","html-keyboard-response","166","419215","0.0-8.0-0.19","pne715w5jm","many_one","0","indirect_first","0","ER05LD23","1","26","1","1","3","1","","0","1","0","null","","","<div style=""font-size:60px;"">+</div>","null","","","","","","","","","",""
"","html-keyboard-response","167","419310","0.0-8.0-1.19","pne715w5jm","many_one","0","indirect_first","0","ER05LD23","1","26","1","1","3","1","","0","1","0","null","","","<img src = 'category1/CS6.png' width = '100%;'>","null","","","","","","","","","",""
"","html-keyboard-response","168","419568","0.0-8.0-2.19","pne715w5jm","many_one","0","indirect_first","0","ER05LD23","1","26","1","1","3","1","","0","1","0","null","","","<img src = 'targets/46.png' width = '100%;'>","null","","","","","","","","","",""
"","html-keyboard-response","169","421515","0.0-8.0-3.19","pne715w5jm","many_one","0","indirect_first","0","ER05LD23","1","26","1","1","3","1","","0","1","0","1946.2200000416487","","","<img src = 'targets/mask.png' width = '100%;'>","75","pos","CS","CS","1","category1/CS6.png","targets/46.png","1","indirect","19",""
"","html-keyboard-response","170","423016","0.0-8.0-0.20","pne715w5jm","many_one","0","indirect_first","0","ER05LD23","1","26","1","1","3","1","","0","1","0","null","","","<div style=""font-size:60px;"">+</div>","null","","","","","","","","","",""
"","html-keyboard-response","171","423110","0.0-8.0-1.20","pne715w5jm","many_one","0","indirect_first","0","ER05LD23","1","26","1","1","3","1","","0","1","0","null","","","<img src = 'category1/CS10.png' width = '100%;'>","null","","","","","","","","","",""
"","html-keyboard-response","172","423367","0.0-8.0-2.20","pne715w5jm","many_one","0","indirect_first","0","ER05LD23","1","26","1","1","3","1","","0","1","0","null","","","<img src = 'targets/43.png' width = '100%;'>","null","","","","","","","","","",""
"","html-keyboard-response","173","423955","0.0-8.0-3.20","pne715w5jm","many_one","0","indirect_first","0","ER05LD23","1","26","1","1","3","1","","0","1","0","587.3849999625236","","","<img src = 'targets/mask.png' width = '100%;'>","68","pos","CS","CS","1","category1/CS10.png","targets/43.png","0","indirect","20",""
"","html-keyboard-response","174","425460","0.0-8.0-0.21","pne715w5jm","many_one","0","indirect_first","0","ER05LD23","1","26","1","1","3","1","","0","1","0","null","","","<div style=""font-size:60px;"">+</div>","null","","","","","","","","","",""
"","html-keyboard-response","175","425553","0.0-8.0-1.21","pne715w5jm","many_one","0","indirect_first","0","ER05LD23","1","26","1","1","3","1","","0","1","0","null","","","<img src = 'category4/CS8.png' width = '100%;'>","null","","","","","","","","","",""
"","html-keyboard-response","176","425810","0.0-8.0-2.21","pne715w5jm","many_one","0","indirect_first","0","ER05LD23","1","26","1","1","3","1","","0","1","0","null","","","<img src = 'targets/32.png' width = '100%;'>","null","","","","","","","","","",""
"","html-keyboard-response","177","427125","0.0-8.0-3.21","pne715w5jm","many_one","0","indirect_first","0","ER05LD23","1","26","1","1","3","1","","0","1","0","1314.1549999127164","","","<img src = 'targets/mask.png' width = '100%;'>","68","neg","GS","GSold","4","category4/CS8.png","targets/32.png","0","indirect","21",""
"","html-keyboard-response","178","428628","0.0-8.0-0.22","pne715w5jm","many_one","0","indirect_first","0","ER05LD23","1","26","1","1","3","1","","0","1","0","null","","","<div style=""font-size:60px;"">+</div>","null","","","","","","","","","",""
"","html-keyboard-response","179","428720","0.0-8.0-1.22","pne715w5jm","many_one","0","indirect_first","0","ER05LD23","1","26","1","1","3","1","","0","1","0","null","","","<img src = 'category3/CS6.png' width = '100%;'>","null","","","","","","","","","",""
"","html-keyboard-response","180","428981","0.0-8.0-2.22","pne715w5jm","many_one","0","indirect_first","0","ER05LD23","1","26","1","1","3","1","","0","1","0","null","","","<img src = 'targets/33.png' width = '100%;'>","null","","","","","","","","","",""
"","html-keyboard-response","181","429890","0.0-8.0-3.22","pne715w5jm","many_one","0","indirect_first","0","ER05LD23","1","26","1","1","3","1","","0","1","0","908.4750000620261","","","<img src = 'targets/mask.png' width = '100%;'>","75","pos","GS","GSold","3","category3/CS6.png","targets/33.png","1","indirect","22",""
"","html-keyboard-response","182","431396","0.0-8.0-0.23","pne715w5jm","many_one","0","indirect_first","0","ER05LD23","1","26","1","1","3","1","","0","1","0","null","","","<div style=""font-size:60px;"">+</div>","null","","","","","","","","","",""
"","html-keyboard-response","183","431488","0.0-8.0-1.23","pne715w5jm","many_one","0","indirect_first","0","ER05LD23","1","26","1","1","3","1","","0","1","0","null","","","<img src = 'category4/CS6.png' width = '100%;'>","null","","","","","","","","","",""
"","html-keyboard-response","184","431745","0.0-8.0-2.23","pne715w5jm","many_one","0","indirect_first","0","ER05LD23","1","26","1","1","3","1","","0","1","0","null","","","<img src = 'targets/9.png' width = '100%;'>","null","","","","","","","","","",""
"","html-keyboard-response","185","432677","0.0-8.0-3.23","pne715w5jm","many_one","0","indirect_first","0","ER05LD23","1","26","1","1","3","1","","0","1","0","930.8750000782311","","","<img src = 'targets/mask.png' width = '100%;'>","75","neg","CS","CS","4","category4/CS6.png","targets/9.png","1","indirect","23",""
"","survey-html-form","186","436541","0.0-9.0","pne715w5jm","many_one","0","indirect_first","0","ER05LD23","1","26","1","1","3","1","","0","1","0","3361.960000009276","","{}","","","","","","","","","","","",""
"","html-keyboard-response","187","439550","0.0-10.0-0.0","pne715w5jm","many_one","0","indirect_first","0","ER05LD23","1","26","1","1","3","1","","0","1","0","null","","","<div style=""font-size:60px;"">+</div>","null","","","","","","","","","",""
"","html-keyboard-response","188","439645","0.0-10.0-1.0","pne715w5jm","many_one","0","indirect_first","0","ER05LD23","1","26","1","1","3","1","","0","1","0","null","","","<img src = 'category4/GS2.png' width = '100%;'>","null","","","","","","","","","",""
"","html-keyboard-response","189","439901","0.0-10.0-2.0","pne715w5jm","many_one","0","indirect_first","0","ER05LD23","1","26","1","1","3","1","","0","1","0","null","","","<img src = 'targets/36.png' width = '100%;'>","null","","","","","","","","","",""
"","html-keyboard-response","190","440210","0.0-10.0-3.0","pne715w5jm","many_one","0","indirect_first","0","ER05LD23","1","26","1","1","3","1","","0","1","0","307.99000000115484","","","<img src = 'targets/mask.png' width = '100%;'>","75","neg","GS","GSnew","4","category4/GS2.png","targets/36.png","1","indirect","24",""
"","html-keyboard-response","191","441714","0.0-10.0-0.1","pne715w5jm","many_one","0","indirect_first","0","ER05LD23","1","26","1","1","3","1","","0","1","0","null","","","<div style=""font-size:60px;"">+</div>","null","","","","","","","","","",""
"","html-keyboard-response","192","441805","0.0-10.0-1.1","pne715w5jm","many_one","0","indirect_first","0","ER05LD23","1","26","1","1","3","1","","0","1","0","null","","","<img src = 'category2/GS3.png' width = '100%;'>","null","","","","","","","","","",""
"","html-keyboard-response","193","442065","0.0-10.0-2.1","pne715w5jm","many_one","0","indirect_first","0","ER05LD23","1","26","1","1","3","1","","0","1","0","null","","","<img src = 'targets/31.png' width = '100%;'>","null","","","","","","","","","",""
"","html-keyboard-response","194","442658","0.0-10.0-3.1","pne715w5jm","many_one","0","indirect_first","0","ER05LD23","1","26","1","1","3","1","","0","1","0","592.1800000360236","","","<img src = 'targets/mask.png' width = '100%;'>","68","neg","GS","GSnew","2","category2/GS3.png","targets/31.png","0","indirect","25",""
"","html-keyboard-response","195","444165","0.0-10.0-0.2","pne715w5jm","many_one","0","indirect_first","0","ER05LD23","1","26","1","1","3","1","","0","1","0","null","","","<div style=""font-size:60px;"">+</div>","null","","","","","","","","","",""
"","html-keyboard-response","196","444256","0.0-10.0-1.2","pne715w5jm","many_one","0","indirect_first","0","ER05LD23","1","26","1","1","3","1","","0","1","0","null","","","<img src = 'category4/GS3.png' width = '100%;'>","null","","","","","","","","","",""
"","html-keyboard-response","197","444514","0.0-10.0-2.2","pne715w5jm","many_one","0","indirect_first","0","ER05LD23","1","26","1","1","3","1","","0","1","0","null","","","<img src = 'targets/30.png' width = '100%;'>","null","","","","","","","","","",""
"","html-keyboard-response","198","445150","0.0-10.0-3.2","pne715w5jm","many_one","0","indirect_first","0","ER05LD23","1","26","1","1","3","1","","0","1","0","635.3000000817701","","","<img src = 'targets/mask.png' width = '100%;'>","75","neg","GS","GSnew","4","category4/GS3.png","targets/30.png","1","indirect","26",""
"","html-keyboard-response","199","446656","0.0-10.0-0.3","pne715w5jm","many_one","0","indirect_first","0","ER05LD23","1","26","1","1","3","1","","0","1","0","null","","","<div style=""font-size:60px;"">+</div>","null","","","","","","","","","",""
"","html-keyboard-response","200","446751","0.0-10.0-1.3","pne715w5jm","many_one","0","indirect_first","0","ER05LD23","1","26","1","1","3","1","","0","1","0","null","","","<img src = 'category1/GS3.png' width = '100%;'>","null","","","","","","","","","",""
"","html-keyboard-response","201","447012","0.0-10.0-2.3","pne715w5jm","many_one","0","indirect_first","0","ER05LD23","1","26","1","1","3","1","","0","1","0","null","","","<img src = 'targets/5.png' width = '100%;'>","null","","","","","","","","","",""
"","html-keyboard-response","202","447356","0.0-10.0-3.3","pne715w5jm","many_one","0","indirect_first","0","ER05LD23","1","26","1","1","3","1","","0","1","0","343.8849999802187","","","<img src = 'targets/mask.png' width = '100%;'>","75","pos","GS","GSnew","1","category1/GS3.png","targets/5.png","1","indirect","27",""
"","html-keyboard-response","203","448860","0.0-10.0-0.4","pne715w5jm","many_one","0","indirect_first","0","ER05LD23","1","26","1","1","3","1","","0","1","0","null","","","<div style=""font-size:60px;"">+</div>","null","","","","","","","","","",""
"","html-keyboard-response","204","448955","0.0-10.0-1.4","pne715w5jm","many_one","0","indirect_first","0","ER05LD23","1","26","1","1","3","1","","0","1","0","null","","","<img src = 'category1/GS2.png' width = '100%;'>","null","","","","","","","","","",""
"","html-keyboard-response","205","449212","0.0-10.0-2.4","pne715w5jm","many_one","0","indirect_first","0","ER05LD23","1","26","1","1","3","1","","0","1","0","null","","","<img src = 'targets/10.png' width = '100%;'>","null","","","","","","","","","",""
"","html-keyboard-response","206","449583","0.0-10.0-3.4","pne715w5jm","many_one","0","indirect_first","0","ER05LD23","1","26","1","1","3","1","","0","1","0","370.9999999264255","","","<img src = 'targets/mask.png' width = '100%;'>","75","pos","GS","GSnew","1","category1/GS2.png","targets/10.png","1","indirect","28",""
"","html-keyboard-response","207","451086","0.0-10.0-0.5","pne715w5jm","many_one","0","indirect_first","0","ER05LD23","1","26","1","1","3","1","","0","1","0","null","","","<div style=""font-size:60px;"">+</div>","null","","","","","","","","","",""
"","html-keyboard-response","208","451181","0.0-10.0-1.5","pne715w5jm","many_one","0","indirect_first","0","ER05LD23","1","26","1","1","3","1","","0","1","0","null","","","<img src = 'category3/CS4.png' width = '100%;'>","null","","","","","","","","","",""
"","html-keyboard-response","209","451437","0.0-10.0-2.5","pne715w5jm","many_one","0","indirect_first","0","ER05LD23","1","26","1","1","3","1","","0","1","0","null","","","<img src = 'targets/26.png' width = '100%;'>","null","","","","","","","","","",""
"","html-keyboard-response","210","451755","0.0-10.0-3.5","pne715w5jm","many_one","0","indirect_first","0","ER05LD23","1","26","1","1","3","1","","0","1","0","317.50499992631376","","","<img src = 'targets/mask.png' width = '100%;'>","68","pos","GS","GSold","3","category3/CS4.png","targets/26.png","0","indirect","29",""
"","html-keyboard-response","211","453256","0.0-10.0-0.6","pne715w5jm","many_one","0","indirect_first","0","ER05LD23","1","26","1","1","3","1","","0","1","0","null","","","<div style=""font-size:60px;"">+</div>","null","","","","","","","","","",""
"","html-keyboard-response","212","453347","0.0-10.0-1.6","pne715w5jm","many_one","0","indirect_first","0","ER05LD23","1","26","1","1","3","1","","0","1","0","null","","","<img src = 'category4/lin.png' width = '100%;'>","null","","","","","","","","","",""
"","html-keyboard-response","213","453603","0.0-10.0-2.6","pne715w5jm","many_one","0","indirect_first","0","ER05LD23","1","26","1","1","3","1","","0","1","0","null","","","<img src = 'targets/29.png' width = '100%;'>","null","","","","","","","","","",""
"","html-keyboard-response","214","454041","0.0-10.0-3.6","pne715w5jm","many_one","0","indirect_first","0","ER05LD23","1","26","1","1","3","1","","0","1","0","437.21000000368804","","","<img src = 'targets/mask.png' width = '100%;'>","75","neg","GS","abstract","4","category4/lin.png","targets/29.png","1","indirect","30",""
"","html-keyboard-response","215","455545","0.0-10.0-0.7","pne715w5jm","many_one","0","indirect_first","0","ER05LD23","1","26","1","1","3","1","","0","1","0","null","","","<div style=""font-size:60px;"">+</div>","null","","","","","","","","","",""
"","html-keyboard-response","216","455638","0.0-10.0-1.7","pne715w5jm","many_one","0","indirect_first","0","ER05LD23","1","26","1","1","3","1","","0","1","0","null","","","<img src = 'category2/GS1.png' width = '100%;'>","null","","","","","","","","","",""
"","html-keyboard-response","217","455893","0.0-10.0-2.7","pne715w5jm","many_one","0","indirect_first","0","ER05LD23","1","26","1","1","3","1","","0","1","0","null","","","<img src = 'targets/12.png' width = '100%;'>","null","","","","","","","","","",""
"","html-keyboard-response","218","456248","0.0-10.0-3.7","pne715w5jm","many_one","0","indirect_first","0","ER05LD23","1","26","1","1","3","1","","0","1","0","353.81999996025115","","","<img src = 'targets/mask.png' width = '100%;'>","75","neg","GS","GSnew","2","category2/GS1.png","targets/12.png","1","indirect","31",""
"","html-keyboard-response","219","457756","0.0-10.0-0.8","pne715w5jm","many_one","0","indirect_first","0","ER05LD23","1","26","1","1","3","1","","0","1","0","null","","","<div style=""font-size:60px;"">+</div>","null","","","","","","","","","",""
"","html-keyboard-response","220","457848","0.0-10.0-1.8","pne715w5jm","many_one","0","indirect_first","0","ER05LD23","1","26","1","1","3","1","","0","1","0","null","","","<img src = 'category3/CS5.png' width = '100%;'>","null","","","","","","","","","",""
"","html-keyboard-response","221","458107","0.0-10.0-2.8","pne715w5jm","many_one","0","indirect_first","0","ER05LD23","1","26","1","1","3","1","","0","1","0","null","","","<img src = 'targets/7.png' width = '100%;'>","null","","","","","","","","","",""
"","html-keyboard-response","222","458442","0.0-10.0-3.8","pne715w5jm","many_one","0","indirect_first","0","ER05LD23","1","26","1","1","3","1","","0","1","0","333.7499999906868","","","<img src = 'targets/mask.png' width = '100%;'>","68","pos","GS","GSold","3","category3/CS5.png","targets/7.png","0","indirect","32",""
"","html-keyboard-response","223","459949","0.0-10.0-0.9","pne715w5jm","many_one","0","indirect_first","0","ER05LD23","1","26","1","1","3","1","","0","1","0","null","","","<div style=""font-size:60px;"">+</div>","null","","","","","","","","","",""
"","html-keyboard-response","224","460043","0.0-10.0-1.9","pne715w5jm","many_one","0","indirect_first","0","ER05LD23","1","26","1","1","3","1","","0","1","0","null","","","<img src = 'category3/GS2.png' width = '100%;'>","null","","","","","","","","","",""
"","html-keyboard-response","225","460304","0.0-10.0-2.9","pne715w5jm","many_one","0","indirect_first","0","ER05LD23","1","26","1","1","3","1","","0","1","0","null","","","<img src = 'targets/14.png' width = '100%;'>","null","","","","","","","","","",""
"","html-keyboard-response","226","460593","0.0-10.0-3.9","pne715w5jm","many_one","0","indirect_first","0","ER05LD23","1","26","1","1","3","1","","0","1","0","288.3249999722466","","","<img src = 'targets/mask.png' width = '100%;'>","75","pos","GS","GSnew","3","category3/GS2.png","targets/14.png","1","indirect","33",""
"","html-keyboard-response","227","462098","0.0-10.0-0.10","pne715w5jm","many_one","0","indirect_first","0","ER05LD23","1","26","1","1","3","1","","0","1","0","null","","","<div style=""font-size:60px;"">+</div>","null","","","","","","","","","",""
"","html-keyboard-response","228","462189","0.0-10.0-1.10","pne715w5jm","many_one","0","indirect_first","0","ER05LD23","1","26","1","1","3","1","","0","1","0","null","","","<img src = 'category3/wang.png' width = '100%;'>","null","","","","","","","","","",""
"","html-keyboard-response","229","462448","0.0-10.0-2.10","pne715w5jm","many_one","0","indirect_first","0","ER05LD23","1","26","1","1","3","1","","0","1","0","null","","","<img src = 'targets/40.png' width = '100%;'>","null","","","","","","","","","",""
"","html-keyboard-response","230","462800","0.0-10.0-3.10","pne715w5jm","many_one","0","indirect_first","0","ER05LD23","1","26","1","1","3","1","","0","1","0","350.92499991878867","","","<img src = 'targets/mask.png' width = '100%;'>","68","pos","GS","abstract","3","category3/wang.png","targets/40.png","0","indirect","34",""
"","html-keyboard-response","231","464306","0.0-10.0-0.11","pne715w5jm","many_one","0","indirect_first","0","ER05LD23","1","26","1","1","3","1","","0","1","0","null","","","<div style=""font-size:60px;"">+</div>","null","","","","","","","","","",""
"","html-keyboard-response","232","464401","0.0-10.0-1.11","pne715w5jm","many_one","0","indirect_first","0","ER05LD23","1","26","1","1","3","1","","0","1","0","null","","","<img src = 'category1/CS9.png' width = '100%;'>","null","","","","","","","","","",""
"","html-keyboard-response","233","464661","0.0-10.0-2.11","pne715w5jm","many_one","0","indirect_first","0","ER05LD23","1","26","1","1","3","1","","0","1","0","null","","","<img src = 'targets/45.png' width = '100%;'>","null","","","","","","","","","",""
"","html-keyboard-response","234","464823","0.0-10.0-3.11","pne715w5jm","many_one","0","indirect_first","0","ER05LD23","1","26","1","1","3","1","","0","1","0","160.99999996367842","","","<img src = 'targets/mask.png' width = '100%;'>","75","pos","GS","GSold","1","category1/CS9.png","targets/45.png","1","indirect","35",""
"","html-keyboard-response","235","466327","0.0-10.0-0.12","pne715w5jm","many_one","0","indirect_first","0","ER05LD23","1","26","1","1","3","1","","0","1","0","null","","","<div style=""font-size:60px;"">+</div>","null","","","","","","","","","",""
"","html-keyboard-response","236","466422","0.0-10.0-1.12","pne715w5jm","many_one","0","indirect_first","0","ER05LD23","1","26","1","1","3","1","","0","1","0","null","","","<img src = 'category1/CS4.png' width = '100%;'>","null","","","","","","","","","",""
"","html-keyboard-response","237","466683","0.0-10.0-2.12","pne715w5jm","many_one","0","indirect_first","0","ER05LD23","1","26","1","1","3","1","","0","1","0","null","","","<img src = 'targets/15.png' width = '100%;'>","null","","","","","","","","","",""
"","html-keyboard-response","238","467159","0.0-10.0-3.12","pne715w5jm","many_one","0","indirect_first","0","ER05LD23","1","26","1","1","3","1","","0","1","0","475.02500005066395","","","<img src = 'targets/mask.png' width = '100%;'>","75","pos","GS","GSold","1","category1/CS4.png","targets/15.png","1","indirect","36",""
"","html-keyboard-response","239","468663","0.0-10.0-0.13","pne715w5jm","many_one","0","indirect_first","0","ER05LD23","1","26","1","1","3","1","","0","1","0","null","","","<div style=""font-size:60px;"">+</div>","null","","","","","","","","","",""
"","html-keyboard-response","240","468758","0.0-10.0-1.13","pne715w5jm","many_one","0","indirect_first","0","ER05LD23","1","26","1","1","3","1","","0","1","0","null","","","<img src = 'category2/GS2.png' width = '100%;'>","null","","","","","","","","","",""
"","html-keyboard-response","241","469015","0.0-10.0-2.13","pne715w5jm","many_one","0","indirect_first","0","ER05LD23","1","26","1","1","3","1","","0","1","0","null","","","<img src = 'targets/35.png' width = '100%;'>","null","","","","","","","","","",""
"","html-keyboard-response","242","469177","0.0-10.0-3.13","pne715w5jm","many_one","0","indirect_first","0","ER05LD23","1","26","1","1","3","1","","0","1","0","160.8799999812618","","","<img src = 'targets/mask.png' width = '100%;'>","68","neg","GS","GSnew","2","category2/GS2.png","targets/35.png","0","indirect","37",""
"","html-keyboard-response","243","470685","0.0-10.0-0.14","pne715w5jm","many_one","0","indirect_first","0","ER05LD23","1","26","1","1","3","1","","0","1","0","null","","","<div style=""font-size:60px;"">+</div>","null","","","","","","","","","",""
"","html-keyboard-response","244","470779","0.0-10.0-1.14","pne715w5jm","many_one","0","indirect_first","0","ER05LD23","1","26","1","1","3","1","","0","1","0","null","","","<img src = 'category1/CS2.png' width = '100%;'>","null","","","","","","","","","",""
"","html-keyboard-response","245","471038","0.0-10.0-2.14","pne715w5jm","many_one","0","indirect_first","0","ER05LD23","1","26","1","1","3","1","","0","1","0","null","","","<img src = 'targets/3.png' width = '100%;'>","null","","","","","","","","","",""
"","html-keyboard-response","246","471333","0.0-10.0-3.14","pne715w5jm","many_one","0","indirect_first","0","ER05LD23","1","26","1","1","3","1","","0","1","0","293.75499999150634","","","<img src = 'targets/mask.png' width = '100%;'>","75","pos","GS","GSold","1","category1/CS2.png","targets/3.png","1","indirect","38",""
"","html-keyboard-response","247","472841","0.0-10.0-0.15","pne715w5jm","many_one","0","indirect_first","0","ER05LD23","1","26","1","1","3","1","","0","1","0","null","","","<div style=""font-size:60px;"">+</div>","null","","","","","","","","","",""
"","html-keyboard-response","248","472933","0.0-10.0-1.15","pne715w5jm","many_one","0","indirect_first","0","ER05LD23","1","26","1","1","3","1","","0","1","0","null","","","<img src = 'category1/ma.png' width = '100%;'>","null","","","","","","","","","",""
"","html-keyboard-response","249","473190","0.0-10.0-2.15","pne715w5jm","many_one","0","indirect_first","0","ER05LD23","1","26","1","1","3","1","","0","1","0","null","","","<img src = 'targets/24.png' width = '100%;'>","null","","","","","","","","","",""
"","html-keyboard-response","250","473554","0.0-10.0-3.15","pne715w5jm","many_one","0","indirect_first","0","ER05LD23","1","26","1","1","3","1","","0","1","0","362.8749999916181","","","<img src = 'targets/mask.png' width = '100%;'>","68","pos","GS","abstract","1","category1/ma.png","targets/24.png","0","indirect","39",""
"","html-keyboard-response","251","475059","0.0-10.0-0.16","pne715w5jm","many_one","0","indirect_first","0","ER05LD23","1","26","1","1","3","1","","0","1","0","null","","","<div style=""font-size:60px;"">+</div>","null","","","","","","","","","",""
"","html-keyboard-response","252","475153","0.0-10.0-1.16","pne715w5jm","many_one","0","indirect_first","0","ER05LD23","1","26","1","1","3","1","","0","1","0","null","","","<img src = 'category1/GS1.png' width = '100%;'>","null","","","","","","","","","",""
"","html-keyboard-response","253","475410","0.0-10.0-2.16","pne715w5jm","many_one","0","indirect_first","0","ER05LD23","1","26","1","1","3","1","","0","1","0","null","","","<img src = 'targets/27.png' width = '100%;'>","null","","","","","","","","","",""
"","html-keyboard-response","254","475642","0.0-10.0-3.16","pne715w5jm","many_one","0","indirect_first","0","ER05LD23","1","26","1","1","3","1","","0","1","0","230.9599999571219","","","<img src = 'targets/mask.png' width = '100%;'>","75","pos","GS","GSnew","1","category1/GS1.png","targets/27.png","1","indirect","40",""
"","html-keyboard-response","255","477145","0.0-10.0-0.17","pne715w5jm","many_one","0","indirect_first","0","ER05LD23","1","26","1","1","3","1","","0","1","0","null","","","<div style=""font-size:60px;"">+</div>","null","","","","","","","","","",""
"","html-keyboard-response","256","477241","0.0-10.0-1.17","pne715w5jm","many_one","0","indirect_first","0","ER05LD23","1","26","1","1","3","1","","0","1","0","null","","","<img src = 'category3/GS3.png' width = '100%;'>","null","","","","","","","","","",""
"","html-keyboard-response","257","477498","0.0-10.0-2.17","pne715w5jm","many_one","0","indirect_first","0","ER05LD23","1","26","1","1","3","1","","0","1","0","null","","","<img src = 'targets/19.png' width = '100%;'>","null","","","","","","","","","",""
"","html-keyboard-response","258","478291","0.0-10.0-3.17","pne715w5jm","many_one","0","indirect_first","0","ER05LD23","1","26","1","1","3","1","","0","1","0","791.7250000173226","","","<img src = 'targets/mask.png' width = '100%;'>","68","pos","GS","GSnew","3","category3/GS3.png","targets/19.png","0","indirect","41",""
"","html-keyboard-response","259","479795","0.0-10.0-0.18","pne715w5jm","many_one","0","indirect_first","0","ER05LD23","1","26","1","1","3","1","","0","1","0","null","","","<div style=""font-size:60px;"">+</div>","null","","","","","","","","","",""
"","html-keyboard-response","260","479890","0.0-10.0-1.18","pne715w5jm","many_one","0","indirect_first","0","ER05LD23","1","26","1","1","3","1","","0","1","0","null","","","<img src = 'category2/CS8.png' width = '100%;'>","null","","","","","","","","","",""
"","html-keyboard-response","261","480150","0.0-10.0-2.18","pne715w5jm","many_one","0","indirect_first","0","ER05LD23","1","26","1","1","3","1","","0","1","0","null","","","<img src = 'targets/47.png' width = '100%;'>","null","","","","","","","","","",""
"","html-keyboard-response","262","480609","0.0-10.0-3.18","pne715w5jm","many_one","0","indirect_first","0","ER05LD23","1","26","1","1","3","1","","0","1","0","457.93500007130206","","","<img src = 'targets/mask.png' width = '100%;'>","75","neg","GS","GSold","2","category2/CS8.png","targets/47.png","1","indirect","42",""
"","html-keyboard-response","263","482115","0.0-10.0-0.19","pne715w5jm","many_one","0","indirect_first","0","ER05LD23","1","26","1","1","3","1","","0","1","0","null","","","<div style=""font-size:60px;"">+</div>","null","","","","","","","","","",""
"","html-keyboard-response","264","482208","0.0-10.0-1.19","pne715w5jm","many_one","0","indirect_first","0","ER05LD23","1","26","1","1","3","1","","0","1","0","null","","","<img src = 'category4/GS1.png' width = '100%;'>","null","","","","","","","","","",""
"","html-keyboard-response","265","482462","0.0-10.0-2.19","pne715w5jm","many_one","0","indirect_first","0","ER05LD23","1","26","1","1","3","1","","0","1","0","null","","","<img src = 'targets/25.png' width = '100%;'>","null","","","","","","","","","",""
"","html-keyboard-response","266","482879","0.0-10.0-3.19","pne715w5jm","many_one","0","indirect_first","0","ER05LD23","1","26","1","1","3","1","","0","1","0","416.53500008396804","","","<img src = 'targets/mask.png' width = '100%;'>","75","neg","GS","GSnew","4","category4/GS1.png","targets/25.png","1","indirect","43",""
"","html-keyboard-response","267","484389","0.0-10.0-0.20","pne715w5jm","many_one","0","indirect_first","0","ER05LD23","1","26","1","1","3","1","","0","1","0","null","","","<div style=""font-size:60px;"">+</div>","null","","","","","","","","","",""
"","html-keyboard-response","268","484480","0.0-10.0-1.20","pne715w5jm","many_one","0","indirect_first","0","ER05LD23","1","26","1","1","3","1","","0","1","0","null","","","<img src = 'category2/CS7.png' width = '100%;'>","null","","","","","","","","","",""
"","html-keyboard-response","269","484745","0.0-10.0-2.20","pne715w5jm","many_one","0","indirect_first","0","ER05LD23","1","26","1","1","3","1","","0","1","0","null","","","<img src = 'targets/4.png' width = '100%;'>","null","","","","","","","","","",""
"","html-keyboard-response","270","484900","0.0-10.0-3.20","pne715w5jm","many_one","0","indirect_first","0","ER05LD23","1","26","1","1","3","1","","0","1","0","153.954999987036","","","<img src = 'targets/mask.png' width = '100%;'>","68","neg","GS","GSold","2","category2/CS7.png","targets/4.png","0","indirect","44",""
"","html-keyboard-response","271","486406","0.0-10.0-0.21","pne715w5jm","many_one","0","indirect_first","0","ER05LD23","1","26","1","1","3","1","","0","1","0","null","","","<div style=""font-size:60px;"">+</div>","null","","","","","","","","","",""
"","html-keyboard-response","272","486500","0.0-10.0-1.21","pne715w5jm","many_one","0","indirect_first","0","ER05LD23","1","26","1","1","3","1","","0","1","0","null","","","<img src = 'category3/GS1.png' width = '100%;'>","null","","","","","","","","","",""
"","html-keyboard-response","273","486757","0.0-10.0-2.21","pne715w5jm","many_one","0","indirect_first","0","ER05LD23","1","26","1","1","3","1","","0","1","0","null","","","<img src = 'targets/17.png' width = '100%;'>","null","","","","","","","","","",""
"","html-keyboard-response","274","487226","0.0-10.0-3.21","pne715w5jm","many_one","0","indirect_first","0","ER05LD23","1","26","1","1","3","1","","0","1","0","468.4899999992922","","","<img src = 'targets/mask.png' width = '100%;'>","75","pos","GS","GSnew","3","category3/GS1.png","targets/17.png","1","indirect","45",""
"","html-keyboard-response","275","488733","0.0-10.0-0.22","pne715w5jm","many_one","0","indirect_first","0","ER05LD23","1","26","1","1","3","1","","0","1","0","null","","","<div style=""font-size:60px;"">+</div>","null","","","","","","","","","",""
"","html-keyboard-response","276","488825","0.0-10.0-1.22","pne715w5jm","many_one","0","indirect_first","0","ER05LD23","1","26","1","1","3","1","","0","1","0","null","","","<img src = 'category2/men.png' width = '100%;'>","null","","","","","","","","","",""
"","html-keyboard-response","277","489083","0.0-10.0-2.22","pne715w5jm","many_one","0","indirect_first","0","ER05LD23","1","26","1","1","3","1","","0","1","0","null","","","<img src = 'targets/20.png' width = '100%;'>","null","","","","","","","","","",""
"","html-keyboard-response","278","489545","0.0-10.0-3.22","pne715w5jm","many_one","0","indirect_first","0","ER05LD23","1","26","1","1","3","1","","0","1","0","460.7450000476092","","","<img src = 'targets/mask.png' width = '100%;'>","75","neg","GS","abstract","2","category2/men.png","targets/20.png","1","indirect","46",""
"","html-keyboard-response","279","491054","0.0-10.0-0.23","pne715w5jm","many_one","0","indirect_first","0","ER05LD23","1","26","1","1","3","1","","0","1","0","null","","","<div style=""font-size:60px;"">+</div>","null","","","","","","","","","",""
"","html-keyboard-response","280","491148","0.0-10.0-1.23","pne715w5jm","many_one","0","indirect_first","0","ER05LD23","1","26","1","1","3","1","","0","1","0","null","","","<img src = 'category2/CS1.png' width = '100%;'>","null","","","","","","","","","",""
"","html-keyboard-response","281","491401","0.0-10.0-2.23","pne715w5jm","many_one","0","indirect_first","0","ER05LD23","1","26","1","1","3","1","","0","1","0","null","","","<img src = 'targets/42.png' width = '100%;'>","null","","","","","","","","","",""
"","html-keyboard-response","282","491577","0.0-10.0-3.23","pne715w5jm","many_one","0","indirect_first","0","ER05LD23","1","26","1","1","3","1","","0","1","0","175.58999999891967","","","<img src = 'targets/mask.png' width = '100%;'>","68","neg","GS","GSold","2","category2/CS1.png","targets/42.png","0","indirect","47",""
"","survey-html-form","283","499354","0.0-11.0","pne715w5jm","many_one","0","indirect_first","0","ER05LD23","1","26","1","1","3","1","","0","1","0","7270.5950000090525","","{}","","","","","","","","","","","",""
"","image-slider-response","284","506253","0.0-12.0-0.0","pne715w5jm","many_one","0","indirect_first","0","ER05LD23","1","26","1","1","3","1","","0","1","0","4892.4999999580905","","","","","pos","GS","GSold","1","category1/CS4.png","targets/15.png","","direct","","42"
"","image-slider-response","285","509532","0.0-12.0-0.1","pne715w5jm","many_one","0","indirect_first","0","ER05LD23","1","26","1","1","3","1","","0","1","0","3277.3700000252575","","","","","pos","GS","GSnew","1","category1/GS1.png","targets/27.png","","direct","","-57"
"","image-slider-response","286","512343","0.0-12.0-0.2","pne715w5jm","many_one","0","indirect_first","0","ER05LD23","1","26","1","1","3","1","","0","1","0","2808.7300000479445","","","","","neg","CS","CS","4","category4/CS7.png","targets/39.png","","direct","","-42"
"","image-slider-response","287","515303","0.0-12.0-0.3","pne715w5jm","many_one","0","indirect_first","0","ER05LD23","1","26","1","1","3","1","","0","1","0","2958.894999930635","","","","","pos","GS","GSnew","1","category1/GS3.png","targets/5.png","","direct","","47"
"","image-slider-response","288","518118","0.0-12.0-0.4","pne715w5jm","many_one","0","indirect_first","0","ER05LD23","1","26","1","1","3","1","","0","1","0","2813.2249999325722","","","","","neg","GS","GSnew","2","category2/GS1.png","targets/12.png","","direct","","67"
"","image-slider-response","289","521170","0.0-12.0-0.5","pne715w5jm","many_one","0","indirect_first","0","ER05LD23","1","26","1","1","3","1","","0","1","0","3050.7350000552833","","","","","neg","GS","GSold","4","category4/CS3.png","targets/18.png","","direct","","92"
"","image-slider-response","290","524800","0.0-12.0-0.6","pne715w5jm","many_one","0","indirect_first","0","ER05LD23","1","26","1","1","3","1","","0","1","0","3628.944999887608","","","","","neg","CS","CS","4","category4/CS5.png","targets/37.png","","direct","","-63"
"","image-slider-response","291","528928","0.0-12.0-0.7","pne715w5jm","many_one","0","indirect_first","0","ER05LD23","1","26","1","1","3","1","","0","1","0","4126.030000043102","","","","","neg","GS","GSold","2","category2/CS1.png","targets/42.png","","direct","","88"
"","image-slider-response","292","531709","0.0-12.0-0.8","pne715w5jm","many_one","0","indirect_first","0","ER05LD23","1","26","1","1","3","1","","0","1","0","2778.660000069067","","","","","neg","CS","CS","2","category2/CS5.png","targets/6.png","","direct","","51"
"","image-slider-response","293","535310","0.0-12.0-0.9","pne715w5jm","many_one","0","indirect_first","0","ER05LD23","1","26","1","1","3","1","","0","1","0","3599.489999935031","","","","","neg","CS","CS","2","category2/CS3.png","targets/13.png","","direct","","-61"
"","image-slider-response","294","538361","0.0-12.0-0.10","pne715w5jm","many_one","0","indirect_first","0","ER05LD23","1","26","1","1","3","1","","0","1","0","3049.6750000165775","","","","","pos","GS","GSnew","3","category3/GS3.png","targets/19.png","","direct","","-37"
"","image-slider-response","295","541252","0.0-12.0-0.11","pne715w5jm","many_one","0","indirect_first","0","ER05LD23","1","26","1","1","3","1","","0","1","0","2889.1799999400973","","","","","neg","CS","CS","4","category4/CS2.png","targets/8.png","","direct","","-87"
"","image-slider-response","296","544084","0.0-12.0-0.12","pne715w5jm","many_one","0","indirect_first","0","ER05LD23","1","26","1","1","3","1","","0","1","0","2830.544999917038","","","","","pos","GS","GSold","3","category3/CS6.png","targets/33.png","","direct","","42"
"","image-slider-response","297","546901","0.0-12.0-0.13","pne715w5jm","many_one","0","indirect_first","0","ER05LD23","1","26","1","1","3","1","","0","1","0","2815.625000046566","","","","","neg","GS","GSnew","4","category4/GS3.png","targets/30.png","","direct","","-28"
"","image-slider-response","298","549733","0.0-12.0-0.14","pne715w5jm","many_one","0","indirect_first","0","ER05LD23","1","26","1","1","3","1","","0","1","0","2830.695000011474","","","","","neg","GS","GSnew","2","category2/GS3.png","targets/31.png","","direct","","96"
"","image-slider-response","299","552557","0.0-12.0-0.15","pne715w5jm","many_one","0","indirect_first","0","ER05LD23","1","26","1","1","3","1","","0","1","0","2822.5749999983236","","","","","pos","CS","CS","3","category3/CS9.png","targets/11.png","","direct","","43"
"","image-slider-response","300","554869","0.0-12.0-0.16","pne715w5jm","many_one","0","indirect_first","0","ER05LD23","1","26","1","1","3","1","","0","1","0","2310.355000081472","","","","","pos","CS","CS","3","category3/CS2.png","targets/23.png","","direct","","76"
"","image-slider-response","301","558674","0.0-12.0-0.17","pne715w5jm","many_one","0","indirect_first","0","ER05LD23","1","26","1","1","3","1","","0","1","0","3803.370000096038","","","","","pos","GS","GSold","1","category1/CS2.png","targets/3.png","","direct","","50"
"","image-slider-response","302","561747","0.0-12.0-0.18","pne715w5jm","many_one","0","indirect_first","0","ER05LD23","1","26","1","1","3","1","","0","1","0","3071.2199999252334","","","","","neg","CS","CS","4","category4/CS1.png","targets/48.png","","direct","","-33"
"","image-slider-response","303","564279","0.0-12.0-0.19","pne715w5jm","many_one","0","indirect_first","0","ER05LD23","1","26","1","1","3","1","","0","1","0","2530.004999949597","","","","","pos","GS","GSnew","1","category1/GS2.png","targets/10.png","","direct","","-68"
"","image-slider-response","304","567140","0.0-12.0-0.20","pne715w5jm","many_one","0","indirect_first","0","ER05LD23","1","26","1","1","3","1","","0","1","0","2859.7449999069795","","","","","pos","CS","CS","3","category3/CS8.png","targets/21.png","","direct","","59"
"","image-slider-response","305","570505","0.0-12.0-0.21","pne715w5jm","many_one","0","indirect_first","0","ER05LD23","1","26","1","1","3","1","","0","1","0","3364.4699999131262","","","","","pos","GS","abstract","3","category3/wang.png","targets/40.png","","direct","","-38"
"","image-slider-response","306","573037","0.0-12.0-0.22","pne715w5jm","many_one","0","indirect_first","0","ER05LD23","1","26","1","1","3","1","","0","1","0","2529.850000049919","","","","","neg","GS","GSold","2","category2/CS8.png","targets/47.png","","direct","","93"
"","image-slider-response","307","575371","0.0-12.0-0.23","pne715w5jm","many_one","0","indirect_first","0","ER05LD23","1","26","1","1","3","1","","0","1","0","2333.08999997098","","","","","pos","GS","GSold","3","category3/CS4.png","targets/26.png","","direct","","46"
"","image-slider-response","308","578422","0.0-12.0-0.24","pne715w5jm","many_one","0","indirect_first","0","ER05LD23","1","26","1","1","3","1","","0","1","0","3050.015000044368","","","","","pos","GS","abstract","1","category1/ma.png","targets/24.png","","direct","","-35"
"","image-slider-response","309","581107","0.0-12.0-0.25","pne715w5jm","many_one","0","indirect_first","0","ER05LD23","1","26","1","1","3","1","","0","1","0","2683.4950000047684","","","","","neg","CS","CS","2","category2/CS9.png","targets/44.png","","direct","","-71"
"","image-slider-response","310","583397","0.0-12.0-0.26","pne715w5jm","many_one","0","indirect_first","0","ER05LD23","1","26","1","1","3","1","","0","1","0","2288.469999912195","","","","","neg","GS","GSold","4","category4/CS9.png","targets/38.png","","direct","","50"
"","image-slider-response","311","586009","0.0-12.0-0.27","pne715w5jm","many_one","0","indirect_first","0","ER05LD23","1","26","1","1","3","1","","0","1","0","2610.2950000204146","","","","","neg","GS","GSnew","4","category4/GS1.png","targets/25.png","","direct","","-54"
"","image-slider-response","312","588474","0.0-12.0-0.28","pne715w5jm","many_one","0","indirect_first","0","ER05LD23","1","26","1","1","3","1","","0","1","0","2463.609999977052","","","","","pos","GS","GSold","3","category3/CS5.png","targets/7.png","","direct","","-30"
"","image-slider-response","313","591013","0.0-12.0-0.29","pne715w5jm","many_one","0","indirect_first","0","ER05LD23","1","26","1","1","3","1","","0","1","0","2537.49500005506","","","","","pos","CS","CS","1","category1/CS7.png","targets/16.png","","direct","","75"
"","image-slider-response","314","593661","0.0-12.0-0.30","pne715w5jm","many_one","0","indirect_first","0","ER05LD23","1","26","1","1","3","1","","0","1","0","2646.614999976009","","","","","neg","GS","GSnew","4","category4/GS2.png","targets/36.png","","direct","","100"
"","image-slider-response","315","596083","0.0-12.0-0.31","pne715w5jm","many_one","0","indirect_first","0","ER05LD23","1","26","1","1","3","1","","0","1","0","2419.4600000046194","","","","","pos","CS","CS","1","category1/CS3.png","targets/41.png","","direct","","68"
"","image-slider-response","316","598768","0.0-12.0-0.32","pne715w5jm","many_one","0","indirect_first","0","ER05LD23","1","26","1","1","3","1","","0","1","0","2683.684999938123","","","","","pos","CS","CS","1","category1/CS8.png","targets/1.png","","direct","","-43"
"","image-slider-response","317","601474","0.0-12.0-0.33","pne715w5jm","many_one","0","indirect_first","0","ER05LD23","1","26","1","1","3","1","","0","1","0","2704.964999924414","","","","","neg","CS","CS","4","category4/CS6.png","targets/9.png","","direct","","-96"
"","image-slider-response","318","603611","0.0-12.0-0.34","pne715w5jm","many_one","0","indirect_first","0","ER05LD23","1","26","1","1","3","1","","0","1","0","2134.9100000225008","","","","","pos","GS","GSold","1","category1/CS9.png","targets/45.png","","direct","","-31"
"","image-slider-response","319","606018","0.0-12.0-0.35","pne715w5jm","many_one","0","indirect_first","0","ER05LD23","1","26","1","1","3","1","","0","1","0","2405.365000013262","","","","","pos","GS","GSnew","3","category3/GS2.png","targets/14.png","","direct","","73"
"","image-slider-response","320","608410","0.0-12.0-0.36","pne715w5jm","many_one","0","indirect_first","0","ER05LD23","1","26","1","1","3","1","","0","1","0","2390.800000051968","","","","","neg","GS","GSold","2","category2/CS7.png","targets/4.png","","direct","","30"
"","image-slider-response","321","610861","0.0-12.0-0.37","pne715w5jm","many_one","0","indirect_first","0","ER05LD23","1","26","1","1","3","1","","0","1","0","2449.2999999783933","","","","","pos","GS","GSnew","3","category3/GS1.png","targets/17.png","","direct","","83"
"","image-slider-response","322","613385","0.0-12.0-0.38","pne715w5jm","many_one","0","indirect_first","0","ER05LD23","1","26","1","1","3","1","","0","1","0","2522.235000040382","","","","","pos","CS","CS","3","category3/CS10.png","targets/34.png","","direct","","-38"
"","image-slider-response","323","615784","0.0-12.0-0.39","pne715w5jm","many_one","0","indirect_first","0","ER05LD23","1","26","1","1","3","1","","0","1","0","2397.880000062287","","","","","pos","CS","CS","3","category3/CS3.png","targets/2.png","","direct","","-38"
"","image-slider-response","324","618096","0.0-12.0-0.40","pne715w5jm","many_one","0","indirect_first","0","ER05LD23","1","26","1","1","3","1","","0","1","0","2310.4449999518692","","","","","neg","GS","abstract","4","category4/lin.png","targets/29.png","","direct","","30"
