"success","trial_type","trial_index","time_elapsed","internal_node_id","subject","condition","condition_code","measure","measure_code","codeword","gender","age","education","chinese","fach","handedness","comment","hinschauen","ablenkung","gewissenhaft","rt","url","responses","stimulus","key_press","val","type","type_specific","category","cs_selected","response","target","task","indirect","nr_pres"
"true","fullscreen","0","5561","0.0-0.0","0x60m0jfpm","one_one","1","direct_first","1","er05lf09","1","23","1","1","3","1","","0","1","0","","","","","","","","","","","","","","",""
"","external-html","1","8513","0.0-1.0","0x60m0jfpm","one_one","1","direct_first","1","er05lf09","1","23","1","1","3","1","","0","1","0","2841","text/information.html","","","","","","","","","","","","",""
"","external-html","2","16959","0.0-2.0","0x60m0jfpm","one_one","1","direct_first","1","er05lf09","1","23","1","1","3","1","","0","1","0","8419","text/consent.html","","","","","","","","","","","","",""
"","survey-html-form","3","62920","0.0-3.0","0x60m0jfpm","one_one","1","direct_first","1","er05lf09","1","23","1","1","3","1","","0","1","0","45958","","{""codeword_enter"":""er05lf09""}","","","","","","","","","","","",""
"","survey-html-form","4","77987","0.0-4.0","0x60m0jfpm","one_one","1","direct_first","1","er05lf09","1","23","1","1","3","1","","0","1","0","15064","","{""age"":""23"",""education"":""1"",""subject"":""3"",""gender"":""1"",""handedness"":""1"",""chinese"":""1""}","","","","","","","","","","","",""
"","survey-html-form","5","79322","0.0-5.0","0x60m0jfpm","one_one","1","direct_first","1","er05lf09","1","23","1","1","3","1","","0","1","0","1335","","{}","","","","","","","","","","","",""
"","html-keyboard-response","6","83343","0.0-6.0-0.0-0.0","0x60m0jfpm","one_one","1","direct_first","1","er05lf09","1","23","1","1","3","1","","0","1","0","null","","","<div class = 'row'><div class = 'column'><img src = 'uspos/1710.bmp' width = '100%;'></div><div class = 'column'><img src = 'category2/CS2.png' width = '70%;'></div></div>","null","pos","CS","CS","2","category2/CS2.png","","","","",""
"","html-keyboard-response","7","85877","0.0-6.0-0.0-0.1","0x60m0jfpm","one_one","1","direct_first","1","er05lf09","1","23","1","1","3","1","","0","1","0","null","","","<div class = 'row'><div class = 'column'><img src = 'category1/CS1.png' width = '70%;'></div><div class = 'column'><img src = 'uspos/8190.bmp' width = '100%;'></div></div>","null","pos","CS","CS","1","category1/CS1.png","","","","",""
"","html-keyboard-response","8","88406","0.0-6.0-0.0-0.2","0x60m0jfpm","one_one","1","direct_first","1","er05lf09","1","23","1","1","3","1","","0","1","0","null","","","<div class = 'row'><div class = 'column'><img src = 'usneg/2205.bmp' width = '100%;'></div><div class = 'column'><img src = 'category4/CS1.png' width = '70%;'></div></div>","null","neg","CS","CS","4","category4/CS1.png","","","","",""
"","html-keyboard-response","9","90937","0.0-6.0-0.0-0.3","0x60m0jfpm","one_one","1","direct_first","1","er05lf09","1","23","1","1","3","1","","0","1","0","null","","","<div class = 'row'><div class = 'column'><img src = 'usneg/2750.bmp' width = '100%;'></div><div class = 'column'><img src = 'category3/CS10.png' width = '70%;'></div></div>","null","neg","CS","CS","3","category3/CS10.png","","","","",""
"","html-keyboard-response","10","93446","0.0-6.0-0.0-0.4","0x60m0jfpm","one_one","1","direct_first","1","er05lf09","1","23","1","1","3","1","","0","1","0","null","","","<div class = 'row'><div class = 'column'><img src = 'category1/CS1.png' width = '70%;'></div><div class = 'column'><img src = 'uspos/8190.bmp' width = '100%;'></div></div>","null","pos","CS","CS","1","category1/CS1.png","","","","",""
"","html-keyboard-response","11","95986","0.0-6.0-0.0-0.5","0x60m0jfpm","one_one","1","direct_first","1","er05lf09","1","23","1","1","3","1","","0","1","0","null","","","<div class = 'row'><div class = 'column'><img src = 'usneg/2750.bmp' width = '100%;'></div><div class = 'column'><img src = 'category3/CS10.png' width = '70%;'></div></div>","null","neg","CS","CS","3","category3/CS10.png","","","","",""
"","html-keyboard-response","12","98511","0.0-6.0-0.0-0.6","0x60m0jfpm","one_one","1","direct_first","1","er05lf09","1","23","1","1","3","1","","0","1","0","null","","","<div class = 'row'><div class = 'column'><img src = 'category1/CS1.png' width = '70%;'></div><div class = 'column'><img src = 'uspos/8190.bmp' width = '100%;'></div></div>","null","pos","CS","CS","1","category1/CS1.png","","","","",""
"","html-keyboard-response","13","101016","0.0-6.0-0.0-0.7","0x60m0jfpm","one_one","1","direct_first","1","er05lf09","1","23","1","1","3","1","","0","1","0","null","","","<div class = 'row'><div class = 'column'><img src = 'category3/CS10.png' width = '70%;'></div><div class = 'column'><img src = 'usneg/2750.bmp' width = '100%;'></div></div>","null","neg","CS","CS","3","category3/CS10.png","","","","",""
"","html-keyboard-response","14","103546","0.0-6.0-0.0-0.8","0x60m0jfpm","one_one","1","direct_first","1","er05lf09","1","23","1","1","3","1","","0","1","0","null","","","<div class = 'row'><div class = 'column'><img src = 'category1/CS1.png' width = '70%;'></div><div class = 'column'><img src = 'uspos/8190.bmp' width = '100%;'></div></div>","null","pos","CS","CS","1","category1/CS1.png","","","","",""
"","html-keyboard-response","15","106067","0.0-6.0-0.0-0.9","0x60m0jfpm","one_one","1","direct_first","1","er05lf09","1","23","1","1","3","1","","0","1","0","null","","","<div class = 'row'><div class = 'column'><img src = 'uspos/1710.bmp' width = '100%;'></div><div class = 'column'><img src = 'category2/CS2.png' width = '70%;'></div></div>","null","pos","CS","CS","2","category2/CS2.png","","","","",""
"","html-keyboard-response","16","108576","0.0-6.0-0.0-0.10","0x60m0jfpm","one_one","1","direct_first","1","er05lf09","1","23","1","1","3","1","","0","1","0","null","","","<div class = 'row'><div class = 'column'><img src = 'usneg/2205.bmp' width = '100%;'></div><div class = 'column'><img src = 'category4/CS1.png' width = '70%;'></div></div>","null","neg","CS","CS","4","category4/CS1.png","","","","",""
"","html-keyboard-response","17","111078","0.0-6.0-0.0-0.11","0x60m0jfpm","one_one","1","direct_first","1","er05lf09","1","23","1","1","3","1","","0","1","0","null","","","<div class = 'row'><div class = 'column'><img src = 'category2/CS2.png' width = '70%;'></div><div class = 'column'><img src = 'uspos/1710.bmp' width = '100%;'></div></div>","null","pos","CS","CS","2","category2/CS2.png","","","","",""
"","html-keyboard-response","18","113596","0.0-6.0-0.0-0.12","0x60m0jfpm","one_one","1","direct_first","1","er05lf09","1","23","1","1","3","1","","0","1","0","null","","","<div class = 'row'><div class = 'column'><img src = 'category4/CS1.png' width = '70%;'></div><div class = 'column'><img src = 'usneg/2205.bmp' width = '100%;'></div></div>","null","neg","CS","CS","4","category4/CS1.png","","","","",""
"","html-keyboard-response","19","116097","0.0-6.0-0.0-0.13","0x60m0jfpm","one_one","1","direct_first","1","er05lf09","1","23","1","1","3","1","","0","1","0","null","","","<div class = 'row'><div class = 'column'><img src = 'category3/CS10.png' width = '70%;'></div><div class = 'column'><img src = 'usneg/2750.bmp' width = '100%;'></div></div>","null","neg","CS","CS","3","category3/CS10.png","","","","",""
"","html-keyboard-response","20","118617","0.0-6.0-0.0-0.14","0x60m0jfpm","one_one","1","direct_first","1","er05lf09","1","23","1","1","3","1","","0","1","0","null","","","<div class = 'row'><div class = 'column'><img src = 'uspos/1710.bmp' width = '100%;'></div><div class = 'column'><img src = 'category2/CS2.png' width = '70%;'></div></div>","null","pos","CS","CS","2","category2/CS2.png","","","","",""
"","html-keyboard-response","21","121122","0.0-6.0-0.0-0.15","0x60m0jfpm","one_one","1","direct_first","1","er05lf09","1","23","1","1","3","1","","0","1","0","null","","","<div class = 'row'><div class = 'column'><img src = 'usneg/2205.bmp' width = '100%;'></div><div class = 'column'><img src = 'category4/CS1.png' width = '70%;'></div></div>","null","neg","CS","CS","4","category4/CS1.png","","","","",""
"","html-keyboard-response","22","123639","0.0-6.0-0.0-0.16","0x60m0jfpm","one_one","1","direct_first","1","er05lf09","1","23","1","1","3","1","","0","1","0","null","","","<div class = 'row'><div class = 'column'><img src = 'category3/CS10.png' width = '70%;'></div><div class = 'column'><img src = 'usneg/2750.bmp' width = '100%;'></div></div>","null","neg","CS","CS","3","category3/CS10.png","","","","",""
"","html-keyboard-response","23","126149","0.0-6.0-0.0-0.17","0x60m0jfpm","one_one","1","direct_first","1","er05lf09","1","23","1","1","3","1","","0","1","0","null","","","<div class = 'row'><div class = 'column'><img src = 'uspos/1710.bmp' width = '100%;'></div><div class = 'column'><img src = 'category2/CS2.png' width = '70%;'></div></div>","null","pos","CS","CS","2","category2/CS2.png","","","","",""
"","html-keyboard-response","24","128677","0.0-6.0-0.0-0.18","0x60m0jfpm","one_one","1","direct_first","1","er05lf09","1","23","1","1","3","1","","0","1","0","null","","","<div class = 'row'><div class = 'column'><img src = 'usneg/2205.bmp' width = '100%;'></div><div class = 'column'><img src = 'category4/CS1.png' width = '70%;'></div></div>","null","neg","CS","CS","4","category4/CS1.png","","","","",""
"","html-keyboard-response","25","131182","0.0-6.0-0.0-0.19","0x60m0jfpm","one_one","1","direct_first","1","er05lf09","1","23","1","1","3","1","","0","1","0","null","","","<div class = 'row'><div class = 'column'><img src = 'uspos/8190.bmp' width = '100%;'></div><div class = 'column'><img src = 'category1/CS1.png' width = '70%;'></div></div>","null","pos","CS","CS","1","category1/CS1.png","","","","",""
"","survey-html-form","26","137007","0.0-6.0-1.0","0x60m0jfpm","one_one","1","direct_first","1","er05lf09","1","23","1","1","3","1","","0","1","0","5317","","{}","","","","","","","","","","","",""
"","html-keyboard-response","27","141017","0.0-6.0-2.0-0.0","0x60m0jfpm","one_one","1","direct_first","1","er05lf09","1","23","1","1","3","1","","0","1","0","null","","","<div class = 'row'><div class = 'column'><img src = 'category3/CS10.png' width = '70%;'></div><div class = 'column'><img src = 'usneg/2750.bmp' width = '100%;'></div></div>","null","neg","CS","CS","3","category3/CS10.png","","","","",""
"","html-keyboard-response","28","143539","0.0-6.0-2.0-0.1","0x60m0jfpm","one_one","1","direct_first","1","er05lf09","1","23","1","1","3","1","","0","1","0","null","","","<div class = 'row'><div class = 'column'><img src = 'category2/CS2.png' width = '70%;'></div><div class = 'column'><img src = 'uspos/1710.bmp' width = '100%;'></div></div>","null","pos","CS","CS","2","category2/CS2.png","","","","",""
"","html-keyboard-response","29","146072","0.0-6.0-2.0-0.2","0x60m0jfpm","one_one","1","direct_first","1","er05lf09","1","23","1","1","3","1","","0","1","0","null","","","<div class = 'row'><div class = 'column'><img src = 'category1/CS1.png' width = '70%;'></div><div class = 'column'><img src = 'uspos/8190.bmp' width = '100%;'></div></div>","null","pos","CS","CS","1","category1/CS1.png","","","","",""
"","html-keyboard-response","30","148597","0.0-6.0-2.0-0.3","0x60m0jfpm","one_one","1","direct_first","1","er05lf09","1","23","1","1","3","1","","0","1","0","null","","","<div class = 'row'><div class = 'column'><img src = 'category4/CS1.png' width = '70%;'></div><div class = 'column'><img src = 'usneg/2205.bmp' width = '100%;'></div></div>","null","neg","CS","CS","4","category4/CS1.png","","","","",""
"","html-keyboard-response","31","151119","0.0-6.0-2.0-0.4","0x60m0jfpm","one_one","1","direct_first","1","er05lf09","1","23","1","1","3","1","","0","1","0","null","","","<div class = 'row'><div class = 'column'><img src = 'usneg/2750.bmp' width = '100%;'></div><div class = 'column'><img src = 'category3/CS10.png' width = '70%;'></div></div>","null","neg","CS","CS","3","category3/CS10.png","","","","",""
"","html-keyboard-response","32","153633","0.0-6.0-2.0-0.5","0x60m0jfpm","one_one","1","direct_first","1","er05lf09","1","23","1","1","3","1","","0","1","0","null","","","<div class = 'row'><div class = 'column'><img src = 'category2/CS2.png' width = '70%;'></div><div class = 'column'><img src = 'uspos/1710.bmp' width = '100%;'></div></div>","null","pos","CS","CS","2","category2/CS2.png","","","","",""
"","html-keyboard-response","33","156157","0.0-6.0-2.0-0.6","0x60m0jfpm","one_one","1","direct_first","1","er05lf09","1","23","1","1","3","1","","0","1","0","null","","","<div class = 'row'><div class = 'column'><img src = 'category4/CS1.png' width = '70%;'></div><div class = 'column'><img src = 'usneg/2205.bmp' width = '100%;'></div></div>","null","neg","CS","CS","4","category4/CS1.png","","","","",""
"","html-keyboard-response","34","158681","0.0-6.0-2.0-0.7","0x60m0jfpm","one_one","1","direct_first","1","er05lf09","1","23","1","1","3","1","","0","1","0","null","","","<div class = 'row'><div class = 'column'><img src = 'category1/CS1.png' width = '70%;'></div><div class = 'column'><img src = 'uspos/8190.bmp' width = '100%;'></div></div>","null","pos","CS","CS","1","category1/CS1.png","","","","",""
"","html-keyboard-response","35","161203","0.0-6.0-2.0-0.8","0x60m0jfpm","one_one","1","direct_first","1","er05lf09","1","23","1","1","3","1","","0","1","0","null","","","<div class = 'row'><div class = 'column'><img src = 'category3/CS10.png' width = '70%;'></div><div class = 'column'><img src = 'usneg/2750.bmp' width = '100%;'></div></div>","null","neg","CS","CS","3","category3/CS10.png","","","","",""
"","html-keyboard-response","36","163718","0.0-6.0-2.0-0.9","0x60m0jfpm","one_one","1","direct_first","1","er05lf09","1","23","1","1","3","1","","0","1","0","null","","","<div class = 'row'><div class = 'column'><img src = 'usneg/2205.bmp' width = '100%;'></div><div class = 'column'><img src = 'category4/CS1.png' width = '70%;'></div></div>","null","neg","CS","CS","4","category4/CS1.png","","","","",""
"","html-keyboard-response","37","166240","0.0-6.0-2.0-0.10","0x60m0jfpm","one_one","1","direct_first","1","er05lf09","1","23","1","1","3","1","","0","1","0","null","","","<div class = 'row'><div class = 'column'><img src = 'category1/CS1.png' width = '70%;'></div><div class = 'column'><img src = 'uspos/8190.bmp' width = '100%;'></div></div>","null","pos","CS","CS","1","category1/CS1.png","","","","",""
"","html-keyboard-response","38","168767","0.0-6.0-2.0-0.11","0x60m0jfpm","one_one","1","direct_first","1","er05lf09","1","23","1","1","3","1","","0","1","0","null","","","<div class = 'row'><div class = 'column'><img src = 'usneg/2205.bmp' width = '100%;'></div><div class = 'column'><img src = 'category4/CS1.png' width = '70%;'></div></div>","null","neg","CS","CS","4","category4/CS1.png","","","","",""
"","html-keyboard-response","39","171270","0.0-6.0-2.0-0.12","0x60m0jfpm","one_one","1","direct_first","1","er05lf09","1","23","1","1","3","1","","0","1","0","null","","","<div class = 'row'><div class = 'column'><img src = 'usneg/2750.bmp' width = '100%;'></div><div class = 'column'><img src = 'category3/CS10.png' width = '70%;'></div></div>","null","neg","CS","CS","3","category3/CS10.png","","","","",""
"","html-keyboard-response","40","173788","0.0-6.0-2.0-0.13","0x60m0jfpm","one_one","1","direct_first","1","er05lf09","1","23","1","1","3","1","","0","1","0","null","","","<div class = 'row'><div class = 'column'><img src = 'category4/CS1.png' width = '70%;'></div><div class = 'column'><img src = 'usneg/2205.bmp' width = '100%;'></div></div>","null","neg","CS","CS","4","category4/CS1.png","","","","",""
"","html-keyboard-response","41","176312","0.0-6.0-2.0-0.14","0x60m0jfpm","one_one","1","direct_first","1","er05lf09","1","23","1","1","3","1","","0","1","0","null","","","<div class = 'row'><div class = 'column'><img src = 'category3/CS10.png' width = '70%;'></div><div class = 'column'><img src = 'usneg/2750.bmp' width = '100%;'></div></div>","null","neg","CS","CS","3","category3/CS10.png","","","","",""
"","html-keyboard-response","42","178840","0.0-6.0-2.0-0.15","0x60m0jfpm","one_one","1","direct_first","1","er05lf09","1","23","1","1","3","1","","0","1","0","null","","","<div class = 'row'><div class = 'column'><img src = 'uspos/1710.bmp' width = '100%;'></div><div class = 'column'><img src = 'category2/CS2.png' width = '70%;'></div></div>","null","pos","CS","CS","2","category2/CS2.png","","","","",""
"","html-keyboard-response","43","181364","0.0-6.0-2.0-0.16","0x60m0jfpm","one_one","1","direct_first","1","er05lf09","1","23","1","1","3","1","","0","1","0","null","","","<div class = 'row'><div class = 'column'><img src = 'category1/CS1.png' width = '70%;'></div><div class = 'column'><img src = 'uspos/8190.bmp' width = '100%;'></div></div>","null","pos","CS","CS","1","category1/CS1.png","","","","",""
"","html-keyboard-response","44","183919","0.0-6.0-2.0-0.17","0x60m0jfpm","one_one","1","direct_first","1","er05lf09","1","23","1","1","3","1","","0","1","0","null","","","<div class = 'row'><div class = 'column'><img src = 'uspos/1710.bmp' width = '100%;'></div><div class = 'column'><img src = 'category2/CS2.png' width = '70%;'></div></div>","null","pos","CS","CS","2","category2/CS2.png","","","","",""
"","html-keyboard-response","45","186447","0.0-6.0-2.0-0.18","0x60m0jfpm","one_one","1","direct_first","1","er05lf09","1","23","1","1","3","1","","0","1","0","null","","","<div class = 'row'><div class = 'column'><img src = 'category1/CS1.png' width = '70%;'></div><div class = 'column'><img src = 'uspos/8190.bmp' width = '100%;'></div></div>","null","pos","CS","CS","1","category1/CS1.png","","","","",""
"","html-keyboard-response","46","188953","0.0-6.0-2.0-0.19","0x60m0jfpm","one_one","1","direct_first","1","er05lf09","1","23","1","1","3","1","","0","1","0","null","","","<div class = 'row'><div class = 'column'><img src = 'uspos/1710.bmp' width = '100%;'></div><div class = 'column'><img src = 'category2/CS2.png' width = '70%;'></div></div>","null","pos","CS","CS","2","category2/CS2.png","","","","",""
"","survey-html-form","47","193705","0.0-6.0-3.0","0x60m0jfpm","one_one","1","direct_first","1","er05lf09","1","23","1","1","3","1","","0","1","0","4243","","{}","","","","","","","","","","","",""
"","html-keyboard-response","48","197747","0.0-6.0-4.0-0.0","0x60m0jfpm","one_one","1","direct_first","1","er05lf09","1","23","1","1","3","1","","0","1","0","null","","","<div class = 'row'><div class = 'column'><img src = 'category3/CS10.png' width = '70%;'></div><div class = 'column'><img src = 'usneg/2750.bmp' width = '100%;'></div></div>","null","neg","CS","CS","3","category3/CS10.png","","","","",""
"","html-keyboard-response","49","200256","0.0-6.0-4.0-0.1","0x60m0jfpm","one_one","1","direct_first","1","er05lf09","1","23","1","1","3","1","","0","1","0","null","","","<div class = 'row'><div class = 'column'><img src = 'uspos/1710.bmp' width = '100%;'></div><div class = 'column'><img src = 'category2/CS2.png' width = '70%;'></div></div>","null","pos","CS","CS","2","category2/CS2.png","","","","",""
"","html-keyboard-response","50","202768","0.0-6.0-4.0-0.2","0x60m0jfpm","one_one","1","direct_first","1","er05lf09","1","23","1","1","3","1","","0","1","0","null","","","<div class = 'row'><div class = 'column'><img src = 'uspos/8190.bmp' width = '100%;'></div><div class = 'column'><img src = 'category1/CS1.png' width = '70%;'></div></div>","null","pos","CS","CS","1","category1/CS1.png","","","","",""
"","html-keyboard-response","51","205282","0.0-6.0-4.0-0.3","0x60m0jfpm","one_one","1","direct_first","1","er05lf09","1","23","1","1","3","1","","0","1","0","null","","","<div class = 'row'><div class = 'column'><img src = 'category4/CS1.png' width = '70%;'></div><div class = 'column'><img src = 'usneg/2205.bmp' width = '100%;'></div></div>","null","neg","CS","CS","4","category4/CS1.png","","","","",""
"","html-keyboard-response","52","207783","0.0-6.0-4.0-0.4","0x60m0jfpm","one_one","1","direct_first","1","er05lf09","1","23","1","1","3","1","","0","1","0","null","","","<div class = 'row'><div class = 'column'><img src = 'uspos/1710.bmp' width = '100%;'></div><div class = 'column'><img src = 'category2/CS2.png' width = '70%;'></div></div>","null","pos","CS","CS","2","category2/CS2.png","","","","",""
"","html-keyboard-response","53","210317","0.0-6.0-4.0-0.5","0x60m0jfpm","one_one","1","direct_first","1","er05lf09","1","23","1","1","3","1","","0","1","0","null","","","<div class = 'row'><div class = 'column'><img src = 'usneg/2205.bmp' width = '100%;'></div><div class = 'column'><img src = 'category4/CS1.png' width = '70%;'></div></div>","null","neg","CS","CS","4","category4/CS1.png","","","","",""
"","html-keyboard-response","54","212835","0.0-6.0-4.0-0.6","0x60m0jfpm","one_one","1","direct_first","1","er05lf09","1","23","1","1","3","1","","0","1","0","null","","","<div class = 'row'><div class = 'column'><img src = 'category2/CS2.png' width = '70%;'></div><div class = 'column'><img src = 'uspos/1710.bmp' width = '100%;'></div></div>","null","pos","CS","CS","2","category2/CS2.png","","","","",""
"","html-keyboard-response","55","215368","0.0-6.0-4.0-0.7","0x60m0jfpm","one_one","1","direct_first","1","er05lf09","1","23","1","1","3","1","","0","1","0","null","","","<div class = 'row'><div class = 'column'><img src = 'uspos/8190.bmp' width = '100%;'></div><div class = 'column'><img src = 'category1/CS1.png' width = '70%;'></div></div>","null","pos","CS","CS","1","category1/CS1.png","","","","",""
"","html-keyboard-response","56","217888","0.0-6.0-4.0-0.8","0x60m0jfpm","one_one","1","direct_first","1","er05lf09","1","23","1","1","3","1","","0","1","0","null","","","<div class = 'row'><div class = 'column'><img src = 'usneg/2750.bmp' width = '100%;'></div><div class = 'column'><img src = 'category3/CS10.png' width = '70%;'></div></div>","null","neg","CS","CS","3","category3/CS10.png","","","","",""
"","html-keyboard-response","57","220418","0.0-6.0-4.0-0.9","0x60m0jfpm","one_one","1","direct_first","1","er05lf09","1","23","1","1","3","1","","0","1","0","null","","","<div class = 'row'><div class = 'column'><img src = 'category1/CS1.png' width = '70%;'></div><div class = 'column'><img src = 'uspos/8190.bmp' width = '100%;'></div></div>","null","pos","CS","CS","1","category1/CS1.png","","","","",""
"","html-keyboard-response","58","222937","0.0-6.0-4.0-0.10","0x60m0jfpm","one_one","1","direct_first","1","er05lf09","1","23","1","1","3","1","","0","1","0","null","","","<div class = 'row'><div class = 'column'><img src = 'category4/CS1.png' width = '70%;'></div><div class = 'column'><img src = 'usneg/2205.bmp' width = '100%;'></div></div>","null","neg","CS","CS","4","category4/CS1.png","","","","",""
"","html-keyboard-response","59","225448","0.0-6.0-4.0-0.11","0x60m0jfpm","one_one","1","direct_first","1","er05lf09","1","23","1","1","3","1","","0","1","0","null","","","<div class = 'row'><div class = 'column'><img src = 'uspos/8190.bmp' width = '100%;'></div><div class = 'column'><img src = 'category1/CS1.png' width = '70%;'></div></div>","null","pos","CS","CS","1","category1/CS1.png","","","","",""
"","html-keyboard-response","60","227967","0.0-6.0-4.0-0.12","0x60m0jfpm","one_one","1","direct_first","1","er05lf09","1","23","1","1","3","1","","0","1","0","null","","","<div class = 'row'><div class = 'column'><img src = 'usneg/2205.bmp' width = '100%;'></div><div class = 'column'><img src = 'category4/CS1.png' width = '70%;'></div></div>","null","neg","CS","CS","4","category4/CS1.png","","","","",""
"","html-keyboard-response","61","230487","0.0-6.0-4.0-0.13","0x60m0jfpm","one_one","1","direct_first","1","er05lf09","1","23","1","1","3","1","","0","1","0","null","","","<div class = 'row'><div class = 'column'><img src = 'category3/CS10.png' width = '70%;'></div><div class = 'column'><img src = 'usneg/2750.bmp' width = '100%;'></div></div>","null","neg","CS","CS","3","category3/CS10.png","","","","",""
"","html-keyboard-response","62","233020","0.0-6.0-4.0-0.14","0x60m0jfpm","one_one","1","direct_first","1","er05lf09","1","23","1","1","3","1","","0","1","0","null","","","<div class = 'row'><div class = 'column'><img src = 'uspos/1710.bmp' width = '100%;'></div><div class = 'column'><img src = 'category2/CS2.png' width = '70%;'></div></div>","null","pos","CS","CS","2","category2/CS2.png","","","","",""
"","html-keyboard-response","63","235547","0.0-6.0-4.0-0.15","0x60m0jfpm","one_one","1","direct_first","1","er05lf09","1","23","1","1","3","1","","0","1","0","null","","","<div class = 'row'><div class = 'column'><img src = 'category3/CS10.png' width = '70%;'></div><div class = 'column'><img src = 'usneg/2750.bmp' width = '100%;'></div></div>","null","neg","CS","CS","3","category3/CS10.png","","","","",""
"","html-keyboard-response","64","238083","0.0-6.0-4.0-0.16","0x60m0jfpm","one_one","1","direct_first","1","er05lf09","1","23","1","1","3","1","","0","1","0","null","","","<div class = 'row'><div class = 'column'><img src = 'usneg/2205.bmp' width = '100%;'></div><div class = 'column'><img src = 'category4/CS1.png' width = '70%;'></div></div>","null","neg","CS","CS","4","category4/CS1.png","","","","",""
"","html-keyboard-response","65","240608","0.0-6.0-4.0-0.17","0x60m0jfpm","one_one","1","direct_first","1","er05lf09","1","23","1","1","3","1","","0","1","0","null","","","<div class = 'row'><div class = 'column'><img src = 'category2/CS2.png' width = '70%;'></div><div class = 'column'><img src = 'uspos/1710.bmp' width = '100%;'></div></div>","null","pos","CS","CS","2","category2/CS2.png","","","","",""
"","html-keyboard-response","66","243138","0.0-6.0-4.0-0.18","0x60m0jfpm","one_one","1","direct_first","1","er05lf09","1","23","1","1","3","1","","0","1","0","null","","","<div class = 'row'><div class = 'column'><img src = 'usneg/2750.bmp' width = '100%;'></div><div class = 'column'><img src = 'category3/CS10.png' width = '70%;'></div></div>","null","neg","CS","CS","3","category3/CS10.png","","","","",""
"","html-keyboard-response","67","245668","0.0-6.0-4.0-0.19","0x60m0jfpm","one_one","1","direct_first","1","er05lf09","1","23","1","1","3","1","","0","1","0","null","","","<div class = 'row'><div class = 'column'><img src = 'category1/CS1.png' width = '70%;'></div><div class = 'column'><img src = 'uspos/8190.bmp' width = '100%;'></div></div>","null","pos","CS","CS","1","category1/CS1.png","","","","",""
"","survey-html-form","68","255818","0.0-6.0-5.0","0x60m0jfpm","one_one","1","direct_first","1","er05lf09","1","23","1","1","3","1","","0","1","0","9643","","{}","","","","","","","","","","","",""
"","html-keyboard-response","69","259838","0.0-6.0-6.0-0.0","0x60m0jfpm","one_one","1","direct_first","1","er05lf09","1","23","1","1","3","1","","0","1","0","null","","","<div class = 'row'><div class = 'column'><img src = 'category3/CS10.png' width = '70%;'></div><div class = 'column'><img src = 'usneg/2750.bmp' width = '100%;'></div></div>","null","neg","CS","CS","3","category3/CS10.png","","","","",""
"","html-keyboard-response","70","262362","0.0-6.0-6.0-0.1","0x60m0jfpm","one_one","1","direct_first","1","er05lf09","1","23","1","1","3","1","","0","1","0","null","","","<div class = 'row'><div class = 'column'><img src = 'category2/CS2.png' width = '70%;'></div><div class = 'column'><img src = 'uspos/1710.bmp' width = '100%;'></div></div>","null","pos","CS","CS","2","category2/CS2.png","","","","",""
"","html-keyboard-response","71","264892","0.0-6.0-6.0-0.2","0x60m0jfpm","one_one","1","direct_first","1","er05lf09","1","23","1","1","3","1","","0","1","0","null","","","<div class = 'row'><div class = 'column'><img src = 'usneg/2205.bmp' width = '100%;'></div><div class = 'column'><img src = 'category4/CS1.png' width = '70%;'></div></div>","null","neg","CS","CS","4","category4/CS1.png","","","","",""
"","html-keyboard-response","72","267409","0.0-6.0-6.0-0.3","0x60m0jfpm","one_one","1","direct_first","1","er05lf09","1","23","1","1","3","1","","0","1","0","null","","","<div class = 'row'><div class = 'column'><img src = 'uspos/1710.bmp' width = '100%;'></div><div class = 'column'><img src = 'category2/CS2.png' width = '70%;'></div></div>","null","pos","CS","CS","2","category2/CS2.png","","","","",""
"","html-keyboard-response","73","269928","0.0-6.0-6.0-0.4","0x60m0jfpm","one_one","1","direct_first","1","er05lf09","1","23","1","1","3","1","","0","1","0","null","","","<div class = 'row'><div class = 'column'><img src = 'category4/CS1.png' width = '70%;'></div><div class = 'column'><img src = 'usneg/2205.bmp' width = '100%;'></div></div>","null","neg","CS","CS","4","category4/CS1.png","","","","",""
"","html-keyboard-response","74","272445","0.0-6.0-6.0-0.5","0x60m0jfpm","one_one","1","direct_first","1","er05lf09","1","23","1","1","3","1","","0","1","0","null","","","<div class = 'row'><div class = 'column'><img src = 'category3/CS10.png' width = '70%;'></div><div class = 'column'><img src = 'usneg/2750.bmp' width = '100%;'></div></div>","null","neg","CS","CS","3","category3/CS10.png","","","","",""
"","html-keyboard-response","75","274978","0.0-6.0-6.0-0.6","0x60m0jfpm","one_one","1","direct_first","1","er05lf09","1","23","1","1","3","1","","0","1","0","null","","","<div class = 'row'><div class = 'column'><img src = 'usneg/2205.bmp' width = '100%;'></div><div class = 'column'><img src = 'category4/CS1.png' width = '70%;'></div></div>","null","neg","CS","CS","4","category4/CS1.png","","","","",""
"","html-keyboard-response","76","277493","0.0-6.0-6.0-0.7","0x60m0jfpm","one_one","1","direct_first","1","er05lf09","1","23","1","1","3","1","","0","1","0","null","","","<div class = 'row'><div class = 'column'><img src = 'uspos/1710.bmp' width = '100%;'></div><div class = 'column'><img src = 'category2/CS2.png' width = '70%;'></div></div>","null","pos","CS","CS","2","category2/CS2.png","","","","",""
"","html-keyboard-response","77","280009","0.0-6.0-6.0-0.8","0x60m0jfpm","one_one","1","direct_first","1","er05lf09","1","23","1","1","3","1","","0","1","0","null","","","<div class = 'row'><div class = 'column'><img src = 'uspos/8190.bmp' width = '100%;'></div><div class = 'column'><img src = 'category1/CS1.png' width = '70%;'></div></div>","null","pos","CS","CS","1","category1/CS1.png","","","","",""
"","html-keyboard-response","78","282549","0.0-6.0-6.0-0.9","0x60m0jfpm","one_one","1","direct_first","1","er05lf09","1","23","1","1","3","1","","0","1","0","null","","","<div class = 'row'><div class = 'column'><img src = 'category3/CS10.png' width = '70%;'></div><div class = 'column'><img src = 'usneg/2750.bmp' width = '100%;'></div></div>","null","neg","CS","CS","3","category3/CS10.png","","","","",""
"","html-keyboard-response","79","285075","0.0-6.0-6.0-0.10","0x60m0jfpm","one_one","1","direct_first","1","er05lf09","1","23","1","1","3","1","","0","1","0","null","","","<div class = 'row'><div class = 'column'><img src = 'uspos/8190.bmp' width = '100%;'></div><div class = 'column'><img src = 'category1/CS1.png' width = '70%;'></div></div>","null","pos","CS","CS","1","category1/CS1.png","","","","",""
"","html-keyboard-response","80","287589","0.0-6.0-6.0-0.11","0x60m0jfpm","one_one","1","direct_first","1","er05lf09","1","23","1","1","3","1","","0","1","0","null","","","<div class = 'row'><div class = 'column'><img src = 'category2/CS2.png' width = '70%;'></div><div class = 'column'><img src = 'uspos/1710.bmp' width = '100%;'></div></div>","null","pos","CS","CS","2","category2/CS2.png","","","","",""
"","html-keyboard-response","81","290099","0.0-6.0-6.0-0.12","0x60m0jfpm","one_one","1","direct_first","1","er05lf09","1","23","1","1","3","1","","0","1","0","null","","","<div class = 'row'><div class = 'column'><img src = 'category1/CS1.png' width = '70%;'></div><div class = 'column'><img src = 'uspos/8190.bmp' width = '100%;'></div></div>","null","pos","CS","CS","1","category1/CS1.png","","","","",""
"","html-keyboard-response","82","292618","0.0-6.0-6.0-0.13","0x60m0jfpm","one_one","1","direct_first","1","er05lf09","1","23","1","1","3","1","","0","1","0","null","","","<div class = 'row'><div class = 'column'><img src = 'category4/CS1.png' width = '70%;'></div><div class = 'column'><img src = 'usneg/2205.bmp' width = '100%;'></div></div>","null","neg","CS","CS","4","category4/CS1.png","","","","",""
"","html-keyboard-response","83","295138","0.0-6.0-6.0-0.14","0x60m0jfpm","one_one","1","direct_first","1","er05lf09","1","23","1","1","3","1","","0","1","0","null","","","<div class = 'row'><div class = 'column'><img src = 'category2/CS2.png' width = '70%;'></div><div class = 'column'><img src = 'uspos/1710.bmp' width = '100%;'></div></div>","null","pos","CS","CS","2","category2/CS2.png","","","","",""
"","html-keyboard-response","84","297668","0.0-6.0-6.0-0.15","0x60m0jfpm","one_one","1","direct_first","1","er05lf09","1","23","1","1","3","1","","0","1","0","null","","","<div class = 'row'><div class = 'column'><img src = 'category4/CS1.png' width = '70%;'></div><div class = 'column'><img src = 'usneg/2205.bmp' width = '100%;'></div></div>","null","neg","CS","CS","4","category4/CS1.png","","","","",""
"","html-keyboard-response","85","300184","0.0-6.0-6.0-0.16","0x60m0jfpm","one_one","1","direct_first","1","er05lf09","1","23","1","1","3","1","","0","1","0","null","","","<div class = 'row'><div class = 'column'><img src = 'category3/CS10.png' width = '70%;'></div><div class = 'column'><img src = 'usneg/2750.bmp' width = '100%;'></div></div>","null","neg","CS","CS","3","category3/CS10.png","","","","",""
"","html-keyboard-response","86","302703","0.0-6.0-6.0-0.17","0x60m0jfpm","one_one","1","direct_first","1","er05lf09","1","23","1","1","3","1","","0","1","0","null","","","<div class = 'row'><div class = 'column'><img src = 'category1/CS1.png' width = '70%;'></div><div class = 'column'><img src = 'uspos/8190.bmp' width = '100%;'></div></div>","null","pos","CS","CS","1","category1/CS1.png","","","","",""
"","html-keyboard-response","87","305239","0.0-6.0-6.0-0.18","0x60m0jfpm","one_one","1","direct_first","1","er05lf09","1","23","1","1","3","1","","0","1","0","null","","","<div class = 'row'><div class = 'column'><img src = 'category3/CS10.png' width = '70%;'></div><div class = 'column'><img src = 'usneg/2750.bmp' width = '100%;'></div></div>","null","neg","CS","CS","3","category3/CS10.png","","","","",""
"","html-keyboard-response","88","307752","0.0-6.0-6.0-0.19","0x60m0jfpm","one_one","1","direct_first","1","er05lf09","1","23","1","1","3","1","","0","1","0","null","","","<div class = 'row'><div class = 'column'><img src = 'category1/CS1.png' width = '70%;'></div><div class = 'column'><img src = 'uspos/8190.bmp' width = '100%;'></div></div>","null","pos","CS","CS","1","category1/CS1.png","","","","",""
"","survey-html-form","89","318737","0.0-7.0","0x60m0jfpm","one_one","1","direct_first","1","er05lf09","1","23","1","1","3","1","","0","1","0","10478","","{}","","","","","","","","","","","",""
"","image-slider-response","90","324880","0.0-8.0-0.0","0x60m0jfpm","one_one","1","direct_first","1","er05lf09","1","23","1","1","3","1","","0","1","0","4138","","","","","pos","CS","CS","1","category1/CS1.png","35","targets/22.png","direct","",""
"","image-slider-response","91","326624","0.0-8.0-0.1","0x60m0jfpm","one_one","1","direct_first","1","er05lf09","1","23","1","1","3","1","","0","1","0","1743","","","","","pos","GS","GSold","2","category2/CS5.png","-27","targets/4.png","direct","",""
"","image-slider-response","92","328586","0.0-8.0-0.2","0x60m0jfpm","one_one","1","direct_first","1","er05lf09","1","23","1","1","3","1","","0","1","0","1960","","","","","neg","GS","GSnew","4","category4/GS3.png","-26","targets/34.png","direct","",""
"","image-slider-response","93","330366","0.0-8.0-0.3","0x60m0jfpm","one_one","1","direct_first","1","er05lf09","1","23","1","1","3","1","","0","1","0","1779","","","","","pos","GS","GSold","1","category1/CS2.png","55","targets/7.png","direct","",""
"","image-slider-response","94","331833","0.0-8.0-0.4","0x60m0jfpm","one_one","1","direct_first","1","er05lf09","1","23","1","1","3","1","","0","1","0","1466","","","","","pos","GS","GSnew","2","category2/GS1.png","31","targets/27.png","direct","",""
"","image-slider-response","95","333932","0.0-8.0-0.5","0x60m0jfpm","one_one","1","direct_first","1","er05lf09","1","23","1","1","3","1","","0","1","0","2098","","","","","neg","GS","GSnew","4","category4/GS2.png","-34","targets/16.png","direct","",""
"","image-slider-response","96","335712","0.0-8.0-0.6","0x60m0jfpm","one_one","1","direct_first","1","er05lf09","1","23","1","1","3","1","","0","1","0","1779","","","","","pos","GS","GSnew","1","category1/GS1.png","11","targets/14.png","direct","",""
"","image-slider-response","97","337443","0.0-8.0-0.7","0x60m0jfpm","one_one","1","direct_first","1","er05lf09","1","23","1","1","3","1","","0","1","0","1728","","","","","neg","CS","CS","4","category4/CS1.png","52","targets/28.png","direct","",""
"","image-slider-response","98","339136","0.0-8.0-0.8","0x60m0jfpm","one_one","1","direct_first","1","er05lf09","1","23","1","1","3","1","","0","1","0","1690","","","","","neg","CS","CS","3","category3/CS10.png","-44","targets/10.png","direct","",""
"","image-slider-response","99","341100","0.0-8.0-0.9","0x60m0jfpm","one_one","1","direct_first","1","er05lf09","1","23","1","1","3","1","","0","1","0","1964","","","","","neg","GS","GSnew","4","category4/GS1.png","43","targets/8.png","direct","",""
"","image-slider-response","100","342650","0.0-8.0-0.10","0x60m0jfpm","one_one","1","direct_first","1","er05lf09","1","23","1","1","3","1","","0","1","0","1549","","","","","pos","GS","GSnew","2","category2/GS3.png","-37","targets/2.png","direct","",""
"","image-slider-response","101","344117","0.0-8.0-0.11","0x60m0jfpm","one_one","1","direct_first","1","er05lf09","1","23","1","1","3","1","","0","1","0","1463","","","","","pos","GS","abstract","2","category2/men.png","-33","targets/42.png","direct","",""
"","image-slider-response","102","345564","0.0-8.0-0.12","0x60m0jfpm","one_one","1","direct_first","1","er05lf09","1","23","1","1","3","1","","0","1","0","1446","","","","","pos","GS","abstract","1","category1/ma.png","56","targets/31.png","direct","",""
"","image-slider-response","103","347342","0.0-8.0-0.13","0x60m0jfpm","one_one","1","direct_first","1","er05lf09","1","23","1","1","3","1","","0","1","0","1777","","","","","neg","GS","GSnew","3","category3/GS2.png","42","targets/35.png","direct","",""
"","image-slider-response","104","349358","0.0-8.0-0.14","0x60m0jfpm","one_one","1","direct_first","1","er05lf09","1","23","1","1","3","1","","0","1","0","2014","","","","","pos","GS","GSnew","1","category1/GS3.png","45","targets/17.png","direct","",""
"","image-slider-response","105","351070","0.0-8.0-0.15","0x60m0jfpm","one_one","1","direct_first","1","er05lf09","1","23","1","1","3","1","","0","1","0","1711","","","","","neg","GS","GSold","4","category4/CS6.png","30","targets/46.png","direct","",""
"","image-slider-response","106","352790","0.0-8.0-0.16","0x60m0jfpm","one_one","1","direct_first","1","er05lf09","1","23","1","1","3","1","","0","1","0","1718","","","","","pos","CS","CS","2","category2/CS2.png","35","targets/32.png","direct","",""
"","image-slider-response","107","354910","0.0-8.0-0.17","0x60m0jfpm","one_one","1","direct_first","1","er05lf09","1","23","1","1","3","1","","0","1","0","2118","","","","","pos","GS","GSold","1","category1/CS10.png","34","targets/21.png","direct","",""
"","image-slider-response","108","356146","0.0-8.0-0.18","0x60m0jfpm","one_one","1","direct_first","1","er05lf09","1","23","1","1","3","1","","0","1","0","1235","","","","","neg","GS","GSnew","3","category3/GS1.png","28","targets/18.png","direct","",""
"","image-slider-response","109","357315","0.0-8.0-0.19","0x60m0jfpm","one_one","1","direct_first","1","er05lf09","1","23","1","1","3","1","","0","1","0","1167","","","","","pos","GS","GSnew","1","category1/GS2.png","-38","targets/29.png","direct","",""
"","image-slider-response","110","358490","0.0-8.0-0.20","0x60m0jfpm","one_one","1","direct_first","1","er05lf09","1","23","1","1","3","1","","0","1","0","1172","","","","","neg","GS","GSold","4","category4/CS3.png","29","targets/3.png","direct","",""
"","image-slider-response","111","360105","0.0-8.0-0.21","0x60m0jfpm","one_one","1","direct_first","1","er05lf09","1","23","1","1","3","1","","0","1","0","1615","","","","","neg","GS","GSold","3","category3/CS7.png","35","targets/25.png","direct","",""
"","image-slider-response","112","361689","0.0-8.0-0.22","0x60m0jfpm","one_one","1","direct_first","1","er05lf09","1","23","1","1","3","1","","0","1","0","1583","","","","","pos","GS","GSold","2","category2/CS10.png","33","targets/43.png","direct","",""
"","image-slider-response","113","363117","0.0-8.0-0.23","0x60m0jfpm","one_one","1","direct_first","1","er05lf09","1","23","1","1","3","1","","0","1","0","1426","","","","","neg","GS","GSold","3","category3/CS8.png","42","targets/6.png","direct","",""
"","image-slider-response","114","364533","0.0-8.0-0.24","0x60m0jfpm","one_one","1","direct_first","1","er05lf09","1","23","1","1","3","1","","0","1","0","1412","","","","","pos","GS","GSold","2","category2/CS8.png","48","targets/1.png","direct","",""
"","image-slider-response","115","366575","0.0-8.0-0.25","0x60m0jfpm","one_one","1","direct_first","1","er05lf09","1","23","1","1","3","1","","0","1","0","2041","","","","","pos","GS","GSnew","2","category2/GS2.png","42","targets/33.png","direct","",""
"","image-slider-response","116","367804","0.0-8.0-0.26","0x60m0jfpm","one_one","1","direct_first","1","er05lf09","1","23","1","1","3","1","","0","1","0","1227","","","","","neg","GS","GSold","4","category4/CS2.png","40","targets/47.png","direct","",""
"","image-slider-response","117","369058","0.0-8.0-0.27","0x60m0jfpm","one_one","1","direct_first","1","er05lf09","1","23","1","1","3","1","","0","1","0","1253","","","","","pos","GS","GSold","1","category1/CS3.png","45","targets/11.png","direct","",""
"","image-slider-response","118","370153","0.0-8.0-0.28","0x60m0jfpm","one_one","1","direct_first","1","er05lf09","1","23","1","1","3","1","","0","1","0","1092","","","","","neg","GS","GSold","3","category3/CS4.png","48","targets/26.png","direct","",""
"","image-slider-response","119","371198","0.0-8.0-0.29","0x60m0jfpm","one_one","1","direct_first","1","er05lf09","1","23","1","1","3","1","","0","1","0","1044","","","","","neg","GS","abstract","4","category4/lin.png","41","targets/37.png","direct","",""
"","image-slider-response","120","372250","0.0-8.0-0.30","0x60m0jfpm","one_one","1","direct_first","1","er05lf09","1","23","1","1","3","1","","0","1","0","1050","","","","","neg","GS","GSnew","3","category3/GS3.png","-26","targets/44.png","direct","",""
"","image-slider-response","121","373674","0.0-8.0-0.31","0x60m0jfpm","one_one","1","direct_first","1","er05lf09","1","23","1","1","3","1","","0","1","0","1422","","","","","neg","GS","abstract","3","category3/wang.png","41","targets/48.png","direct","",""
"","html-keyboard-response","122","382064","0.0-9.0","0x60m0jfpm","one_one","1","direct_first","1","er05lf09","1","23","1","1","3","1","","0","1","0","8390","","","<p>Sie sehen nun die chinesischen Zeichen nur ganz kurz. Danach sehen Sie die jeweilige Aussprache der Zeichen als Silbe auf dem Bildschrim. Ihre Aufgabe ist es, für jede Silbe anzugeben, ob diese etwas angenehmes, oder unangenehmes bedeuten könnte. Verlassen Sie sich hier vor allem auf Ihre Intuition.<br><br>Die Zeichen werden nur zur Orientierung dargestellt, beachten Sie sie deshalb nicht. Konzentrieren Sie sich vor allem auf die Silben. <br>Reagieren Sie mit folgenden zwei Tasten: <br><br><b>'D' </b> wenn die Silbe etwas <b>unangenehmes</b> bedeuten könnte. <br><b>'K'</b> wenn die Silbe etwas <b>angenehmes</b> bedeuten könnte. <br><br>Bitte legen Sie nun den Zeigefinger der linken Hand auf die Taste 'D' und den Zeigefinger der rechten Hand auf die Taste 'K'. <br>Reagieren Sie auf jede Silbe so schnell wie möglich. Uns interessiert Ihre spontane Reaktion. <br> <br> <br>Drücken Sie 'D' oder 'K', um die nächste Aufgabe zu starten. </p>","68","","","","","","","","","",""
"","html-keyboard-response","123","385081","0.0-10.0-0.0","0x60m0jfpm","one_one","1","direct_first","1","er05lf09","1","23","1","1","3","1","","0","1","0","null","","","<div style=""font-size:60px;"">+</div>","null","","","","","","","","","",""
"","html-keyboard-response","124","385189","0.0-10.0-1.0","0x60m0jfpm","one_one","1","direct_first","1","er05lf09","1","23","1","1","3","1","","0","1","0","null","","","<img src = 'category2/CS10.png' width = '100%;'>","null","","","","","","","","","",""
"","html-keyboard-response","125","385443","0.0-10.0-2.0","0x60m0jfpm","one_one","1","direct_first","1","er05lf09","1","23","1","1","3","1","","0","1","0","null","","","<img src = 'targets/43.png' width = '100%;'>","null","","","","","","","","","",""
"","html-keyboard-response","126","387385","0.0-10.0-3.0","0x60m0jfpm","one_one","1","direct_first","1","er05lf09","1","23","1","1","3","1","","0","1","0","1940","","","<img src = 'targets/mask.png' width = '100%;'>","68","pos","GS","GSold","2","category2/CS10.png","","targets/43.png","indirect","0","0"
"","html-keyboard-response","127","388899","0.0-10.0-0.1","0x60m0jfpm","one_one","1","direct_first","1","er05lf09","1","23","1","1","3","1","","0","1","0","null","","","<div style=""font-size:60px;"">+</div>","null","","","","","","","","","",""
"","html-keyboard-response","128","388993","0.0-10.0-1.1","0x60m0jfpm","one_one","1","direct_first","1","er05lf09","1","23","1","1","3","1","","0","1","0","null","","","<img src = 'category3/CS8.png' width = '100%;'>","null","","","","","","","","","",""
"","html-keyboard-response","129","389262","0.0-10.0-2.1","0x60m0jfpm","one_one","1","direct_first","1","er05lf09","1","23","1","1","3","1","","0","1","0","null","","","<img src = 'targets/6.png' width = '100%;'>","null","","","","","","","","","",""
"","html-keyboard-response","130","389970","0.0-10.0-3.1","0x60m0jfpm","one_one","1","direct_first","1","er05lf09","1","23","1","1","3","1","","0","1","0","706","","","<img src = 'targets/mask.png' width = '100%;'>","75","neg","GS","GSold","3","category3/CS8.png","","targets/6.png","indirect","1","1"
"","html-keyboard-response","131","391489","0.0-10.0-0.2","0x60m0jfpm","one_one","1","direct_first","1","er05lf09","1","23","1","1","3","1","","0","1","0","null","","","<div style=""font-size:60px;"">+</div>","null","","","","","","","","","",""
"","html-keyboard-response","132","391588","0.0-10.0-1.2","0x60m0jfpm","one_one","1","direct_first","1","er05lf09","1","23","1","1","3","1","","0","1","0","null","","","<img src = 'category3/CS4.png' width = '100%;'>","null","","","","","","","","","",""
"","html-keyboard-response","133","391859","0.0-10.0-2.2","0x60m0jfpm","one_one","1","direct_first","1","er05lf09","1","23","1","1","3","1","","0","1","0","null","","","<img src = 'targets/26.png' width = '100%;'>","null","","","","","","","","","",""
"","html-keyboard-response","134","392465","0.0-10.0-3.2","0x60m0jfpm","one_one","1","direct_first","1","er05lf09","1","23","1","1","3","1","","0","1","0","604","","","<img src = 'targets/mask.png' width = '100%;'>","68","neg","GS","GSold","3","category3/CS4.png","","targets/26.png","indirect","0","2"
"","html-keyboard-response","135","393979","0.0-10.0-0.3","0x60m0jfpm","one_one","1","direct_first","1","er05lf09","1","23","1","1","3","1","","0","1","0","null","","","<div style=""font-size:60px;"">+</div>","null","","","","","","","","","",""
"","html-keyboard-response","136","394074","0.0-10.0-1.3","0x60m0jfpm","one_one","1","direct_first","1","er05lf09","1","23","1","1","3","1","","0","1","0","null","","","<img src = 'category1/CS10.png' width = '100%;'>","null","","","","","","","","","",""
"","html-keyboard-response","137","394339","0.0-10.0-2.3","0x60m0jfpm","one_one","1","direct_first","1","er05lf09","1","23","1","1","3","1","","0","1","0","null","","","<img src = 'targets/21.png' width = '100%;'>","null","","","","","","","","","",""
"","html-keyboard-response","138","395121","0.0-10.0-3.3","0x60m0jfpm","one_one","1","direct_first","1","er05lf09","1","23","1","1","3","1","","0","1","0","781","","","<img src = 'targets/mask.png' width = '100%;'>","68","pos","GS","GSold","1","category1/CS10.png","","targets/21.png","indirect","0","3"
"","html-keyboard-response","139","396629","0.0-10.0-0.4","0x60m0jfpm","one_one","1","direct_first","1","er05lf09","1","23","1","1","3","1","","0","1","0","null","","","<div style=""font-size:60px;"">+</div>","null","","","","","","","","","",""
"","html-keyboard-response","140","396732","0.0-10.0-1.4","0x60m0jfpm","one_one","1","direct_first","1","er05lf09","1","23","1","1","3","1","","0","1","0","null","","","<img src = 'category2/CS2.png' width = '100%;'>","null","","","","","","","","","",""
"","html-keyboard-response","141","396987","0.0-10.0-2.4","0x60m0jfpm","one_one","1","direct_first","1","er05lf09","1","23","1","1","3","1","","0","1","0","null","","","<img src = 'targets/32.png' width = '100%;'>","null","","","","","","","","","",""
"","html-keyboard-response","142","397225","0.0-10.0-3.4","0x60m0jfpm","one_one","1","direct_first","1","er05lf09","1","23","1","1","3","1","","0","1","0","238","","","<img src = 'targets/mask.png' width = '100%;'>","68","pos","CS","CS","2","category2/CS2.png","","targets/32.png","indirect","0","4"
"","html-keyboard-response","143","398759","0.0-10.0-0.5","0x60m0jfpm","one_one","1","direct_first","1","er05lf09","1","23","1","1","3","1","","0","1","0","null","","","<div style=""font-size:60px;"">+</div>","null","","","","","","","","","",""
"","html-keyboard-response","144","398859","0.0-10.0-1.5","0x60m0jfpm","one_one","1","direct_first","1","er05lf09","1","23","1","1","3","1","","0","1","0","null","","","<img src = 'category4/CS1.png' width = '100%;'>","null","","","","","","","","","",""
"","html-keyboard-response","145","399129","0.0-10.0-2.5","0x60m0jfpm","one_one","1","direct_first","1","er05lf09","1","23","1","1","3","1","","0","1","0","null","","","<img src = 'targets/28.png' width = '100%;'>","null","","","","","","","","","",""
"","html-keyboard-response","146","399464","0.0-10.0-3.5","0x60m0jfpm","one_one","1","direct_first","1","er05lf09","1","23","1","1","3","1","","0","1","0","335","","","<img src = 'targets/mask.png' width = '100%;'>","75","neg","CS","CS","4","category4/CS1.png","","targets/28.png","indirect","1","5"
"","html-keyboard-response","147","400979","0.0-10.0-0.6","0x60m0jfpm","one_one","1","direct_first","1","er05lf09","1","23","1","1","3","1","","0","1","0","null","","","<div style=""font-size:60px;"">+</div>","null","","","","","","","","","",""
"","html-keyboard-response","148","401082","0.0-10.0-1.6","0x60m0jfpm","one_one","1","direct_first","1","er05lf09","1","23","1","1","3","1","","0","1","0","null","","","<img src = 'category2/CS5.png' width = '100%;'>","null","","","","","","","","","",""
"","html-keyboard-response","149","401360","0.0-10.0-2.6","0x60m0jfpm","one_one","1","direct_first","1","er05lf09","1","23","1","1","3","1","","0","1","0","null","","","<img src = 'targets/4.png' width = '100%;'>","null","","","","","","","","","",""
"","html-keyboard-response","150","402528","0.0-10.0-3.6","0x60m0jfpm","one_one","1","direct_first","1","er05lf09","1","23","1","1","3","1","","0","1","0","1166","","","<img src = 'targets/mask.png' width = '100%;'>","68","pos","GS","GSold","2","category2/CS5.png","","targets/4.png","indirect","0","6"
"","html-keyboard-response","151","404044","0.0-10.0-0.7","0x60m0jfpm","one_one","1","direct_first","1","er05lf09","1","23","1","1","3","1","","0","1","0","null","","","<div style=""font-size:60px;"">+</div>","null","","","","","","","","","",""
"","html-keyboard-response","152","404139","0.0-10.0-1.7","0x60m0jfpm","one_one","1","direct_first","1","er05lf09","1","23","1","1","3","1","","0","1","0","null","","","<img src = 'category3/CS7.png' width = '100%;'>","null","","","","","","","","","",""
"","html-keyboard-response","153","404409","0.0-10.0-2.7","0x60m0jfpm","one_one","1","direct_first","1","er05lf09","1","23","1","1","3","1","","0","1","0","null","","","<img src = 'targets/25.png' width = '100%;'>","null","","","","","","","","","",""
"","html-keyboard-response","154","406746","0.0-10.0-3.7","0x60m0jfpm","one_one","1","direct_first","1","er05lf09","1","23","1","1","3","1","","0","1","0","2335","","","<img src = 'targets/mask.png' width = '100%;'>","75","neg","GS","GSold","3","category3/CS7.png","","targets/25.png","indirect","1","7"
"","html-keyboard-response","155","408259","0.0-10.0-0.8","0x60m0jfpm","one_one","1","direct_first","1","er05lf09","1","23","1","1","3","1","","0","1","0","null","","","<div style=""font-size:60px;"">+</div>","null","","","","","","","","","",""
"","html-keyboard-response","156","408369","0.0-10.0-1.8","0x60m0jfpm","one_one","1","direct_first","1","er05lf09","1","23","1","1","3","1","","0","1","0","null","","","<img src = 'category1/CS3.png' width = '100%;'>","null","","","","","","","","","",""
"","html-keyboard-response","157","408629","0.0-10.0-2.8","0x60m0jfpm","one_one","1","direct_first","1","er05lf09","1","23","1","1","3","1","","0","1","0","null","","","<img src = 'targets/11.png' width = '100%;'>","null","","","","","","","","","",""
"","html-keyboard-response","158","408640","0.0-10.0-3.8","0x60m0jfpm","one_one","1","direct_first","1","er05lf09","1","23","1","1","3","1","","0","1","0","11","","","<img src = 'targets/mask.png' width = '100%;'>","68","pos","GS","GSold","1","category1/CS3.png","","targets/11.png","indirect","0","8"
"","html-keyboard-response","159","410169","0.0-10.0-0.9","0x60m0jfpm","one_one","1","direct_first","1","er05lf09","1","23","1","1","3","1","","0","1","0","null","","","<div style=""font-size:60px;"">+</div>","null","","","","","","","","","",""
"","html-keyboard-response","160","410269","0.0-10.0-1.9","0x60m0jfpm","one_one","1","direct_first","1","er05lf09","1","23","1","1","3","1","","0","1","0","null","","","<img src = 'category4/CS3.png' width = '100%;'>","null","","","","","","","","","",""
"","html-keyboard-response","161","410560","0.0-10.0-2.9","0x60m0jfpm","one_one","1","direct_first","1","er05lf09","1","23","1","1","3","1","","0","1","0","null","","","<img src = 'targets/3.png' width = '100%;'>","null","","","","","","","","","",""
"","html-keyboard-response","162","412145","0.0-10.0-3.9","0x60m0jfpm","one_one","1","direct_first","1","er05lf09","1","23","1","1","3","1","","0","1","0","1585","","","<img src = 'targets/mask.png' width = '100%;'>","68","neg","GS","GSold","4","category4/CS3.png","","targets/3.png","indirect","0","9"
"","html-keyboard-response","163","413679","0.0-10.0-0.10","0x60m0jfpm","one_one","1","direct_first","1","er05lf09","1","23","1","1","3","1","","0","1","0","null","","","<div style=""font-size:60px;"">+</div>","null","","","","","","","","","",""
"","html-keyboard-response","164","413779","0.0-10.0-1.10","0x60m0jfpm","one_one","1","direct_first","1","er05lf09","1","23","1","1","3","1","","0","1","0","null","","","<img src = 'category1/CS2.png' width = '100%;'>","null","","","","","","","","","",""
"","html-keyboard-response","165","414059","0.0-10.0-2.10","0x60m0jfpm","one_one","1","direct_first","1","er05lf09","1","23","1","1","3","1","","0","1","0","null","","","<img src = 'targets/7.png' width = '100%;'>","null","","","","","","","","","",""
"","html-keyboard-response","166","414617","0.0-10.0-3.10","0x60m0jfpm","one_one","1","direct_first","1","er05lf09","1","23","1","1","3","1","","0","1","0","557","","","<img src = 'targets/mask.png' width = '100%;'>","68","pos","GS","GSold","1","category1/CS2.png","","targets/7.png","indirect","0","10"
"","html-keyboard-response","167","416134","0.0-10.0-0.11","0x60m0jfpm","one_one","1","direct_first","1","er05lf09","1","23","1","1","3","1","","0","1","0","null","","","<div style=""font-size:60px;"">+</div>","null","","","","","","","","","",""
"","html-keyboard-response","168","416235","0.0-10.0-1.11","0x60m0jfpm","one_one","1","direct_first","1","er05lf09","1","23","1","1","3","1","","0","1","0","null","","","<img src = 'category3/CS10.png' width = '100%;'>","null","","","","","","","","","",""
"","html-keyboard-response","169","416509","0.0-10.0-2.11","0x60m0jfpm","one_one","1","direct_first","1","er05lf09","1","23","1","1","3","1","","0","1","0","null","","","<img src = 'targets/10.png' width = '100%;'>","null","","","","","","","","","",""
"","html-keyboard-response","170","418265","0.0-10.0-3.11","0x60m0jfpm","one_one","1","direct_first","1","er05lf09","1","23","1","1","3","1","","0","1","0","1755","","","<img src = 'targets/mask.png' width = '100%;'>","68","neg","CS","CS","3","category3/CS10.png","","targets/10.png","indirect","0","11"
"","html-keyboard-response","171","419776","0.0-10.0-0.12","0x60m0jfpm","one_one","1","direct_first","1","er05lf09","1","23","1","1","3","1","","0","1","0","null","","","<div style=""font-size:60px;"">+</div>","null","","","","","","","","","",""
"","html-keyboard-response","172","419869","0.0-10.0-1.12","0x60m0jfpm","one_one","1","direct_first","1","er05lf09","1","23","1","1","3","1","","0","1","0","null","","","<img src = 'category1/CS1.png' width = '100%;'>","null","","","","","","","","","",""
"","html-keyboard-response","173","420129","0.0-10.0-2.12","0x60m0jfpm","one_one","1","direct_first","1","er05lf09","1","23","1","1","3","1","","0","1","0","null","","","<img src = 'targets/22.png' width = '100%;'>","null","","","","","","","","","",""
"","html-keyboard-response","174","421185","0.0-10.0-3.12","0x60m0jfpm","one_one","1","direct_first","1","er05lf09","1","23","1","1","3","1","","0","1","0","1055","","","<img src = 'targets/mask.png' width = '100%;'>","75","pos","CS","CS","1","category1/CS1.png","","targets/22.png","indirect","1","12"
"","html-keyboard-response","175","422700","0.0-10.0-0.13","0x60m0jfpm","one_one","1","direct_first","1","er05lf09","1","23","1","1","3","1","","0","1","0","null","","","<div style=""font-size:60px;"">+</div>","null","","","","","","","","","",""
"","html-keyboard-response","176","422799","0.0-10.0-1.13","0x60m0jfpm","one_one","1","direct_first","1","er05lf09","1","23","1","1","3","1","","0","1","0","null","","","<img src = 'category2/CS8.png' width = '100%;'>","null","","","","","","","","","",""
"","html-keyboard-response","177","423060","0.0-10.0-2.13","0x60m0jfpm","one_one","1","direct_first","1","er05lf09","1","23","1","1","3","1","","0","1","0","null","","","<img src = 'targets/1.png' width = '100%;'>","null","","","","","","","","","",""
"","html-keyboard-response","178","428600","0.0-10.0-3.13","0x60m0jfpm","one_one","1","direct_first","1","er05lf09","1","23","1","1","3","1","","0","1","0","5540","","","<img src = 'targets/mask.png' width = '100%;'>","68","pos","GS","GSold","2","category2/CS8.png","","targets/1.png","indirect","0","13"
"","html-keyboard-response","179","430129","0.0-10.0-0.14","0x60m0jfpm","one_one","1","direct_first","1","er05lf09","1","23","1","1","3","1","","0","1","0","null","","","<div style=""font-size:60px;"">+</div>","null","","","","","","","","","",""
"","html-keyboard-response","180","430224","0.0-10.0-1.14","0x60m0jfpm","one_one","1","direct_first","1","er05lf09","1","23","1","1","3","1","","0","1","0","null","","","<img src = 'category4/CS2.png' width = '100%;'>","null","","","","","","","","","",""
"","html-keyboard-response","181","430509","0.0-10.0-2.14","0x60m0jfpm","one_one","1","direct_first","1","er05lf09","1","23","1","1","3","1","","0","1","0","null","","","<img src = 'targets/47.png' width = '100%;'>","null","","","","","","","","","",""
"","html-keyboard-response","182","432920","0.0-10.0-3.14","0x60m0jfpm","one_one","1","direct_first","1","er05lf09","1","23","1","1","3","1","","0","1","0","2411","","","<img src = 'targets/mask.png' width = '100%;'>","75","neg","GS","GSold","4","category4/CS2.png","","targets/47.png","indirect","1","14"
"","html-keyboard-response","183","434450","0.0-10.0-0.15","0x60m0jfpm","one_one","1","direct_first","1","er05lf09","1","23","1","1","3","1","","0","1","0","null","","","<div style=""font-size:60px;"">+</div>","null","","","","","","","","","",""
"","html-keyboard-response","184","434549","0.0-10.0-1.15","0x60m0jfpm","one_one","1","direct_first","1","er05lf09","1","23","1","1","3","1","","0","1","0","null","","","<img src = 'category4/CS6.png' width = '100%;'>","null","","","","","","","","","",""
"","html-keyboard-response","185","434819","0.0-10.0-2.15","0x60m0jfpm","one_one","1","direct_first","1","er05lf09","1","23","1","1","3","1","","0","1","0","null","","","<img src = 'targets/46.png' width = '100%;'>","null","","","","","","","","","",""
"","html-keyboard-response","186","435993","0.0-10.0-3.15","0x60m0jfpm","one_one","1","direct_first","1","er05lf09","1","23","1","1","3","1","","0","1","0","1173","","","<img src = 'targets/mask.png' width = '100%;'>","68","neg","GS","GSold","4","category4/CS6.png","","targets/46.png","indirect","0","15"
"","survey-html-form","187","445961","0.0-11.0","0x60m0jfpm","one_one","1","direct_first","1","er05lf09","1","23","1","1","3","1","","0","1","0","9452","","{}","","","","","","","","","","","",""
"","html-keyboard-response","188","448974","0.0-12.0-0.0","0x60m0jfpm","one_one","1","direct_first","1","er05lf09","1","23","1","1","3","1","","0","1","0","null","","","<div style=""font-size:60px;"">+</div>","null","","","","","","","","","",""
"","html-keyboard-response","189","449067","0.0-12.0-1.0","0x60m0jfpm","one_one","1","direct_first","1","er05lf09","1","23","1","1","3","1","","0","1","0","null","","","<img src = 'category4/GS1.png' width = '100%;'>","null","","","","","","","","","",""
"","html-keyboard-response","190","449325","0.0-12.0-2.0","0x60m0jfpm","one_one","1","direct_first","1","er05lf09","1","23","1","1","3","1","","0","1","0","null","","","<img src = 'targets/8.png' width = '100%;'>","null","","","","","","","","","",""
"","html-keyboard-response","191","451617","0.0-12.0-3.0","0x60m0jfpm","one_one","1","direct_first","1","er05lf09","1","23","1","1","3","1","","0","1","0","2292","","","<img src = 'targets/mask.png' width = '100%;'>","75","neg","GS","GSnew","4","category4/GS1.png","","targets/8.png","indirect","1","16"
"","html-keyboard-response","192","453145","0.0-12.0-0.1","0x60m0jfpm","one_one","1","direct_first","1","er05lf09","1","23","1","1","3","1","","0","1","0","null","","","<div style=""font-size:60px;"">+</div>","null","","","","","","","","","",""
"","html-keyboard-response","193","453236","0.0-12.0-1.1","0x60m0jfpm","one_one","1","direct_first","1","er05lf09","1","23","1","1","3","1","","0","1","0","null","","","<img src = 'category2/GS2.png' width = '100%;'>","null","","","","","","","","","",""
"","html-keyboard-response","194","453509","0.0-12.0-2.1","0x60m0jfpm","one_one","1","direct_first","1","er05lf09","1","23","1","1","3","1","","0","1","0","null","","","<img src = 'targets/33.png' width = '100%;'>","null","","","","","","","","","",""
"","html-keyboard-response","195","454033","0.0-12.0-3.1","0x60m0jfpm","one_one","1","direct_first","1","er05lf09","1","23","1","1","3","1","","0","1","0","523","","","<img src = 'targets/mask.png' width = '100%;'>","75","pos","GS","GSnew","2","category2/GS2.png","","targets/33.png","indirect","1","17"
"","html-keyboard-response","196","455540","0.0-12.0-0.2","0x60m0jfpm","one_one","1","direct_first","1","er05lf09","1","23","1","1","3","1","","0","1","0","null","","","<div style=""font-size:60px;"">+</div>","null","","","","","","","","","",""
"","html-keyboard-response","197","455635","0.0-12.0-1.2","0x60m0jfpm","one_one","1","direct_first","1","er05lf09","1","23","1","1","3","1","","0","1","0","null","","","<img src = 'category2/men.png' width = '100%;'>","null","","","","","","","","","",""
"","html-keyboard-response","198","455910","0.0-12.0-2.2","0x60m0jfpm","one_one","1","direct_first","1","er05lf09","1","23","1","1","3","1","","0","1","0","null","","","<img src = 'targets/42.png' width = '100%;'>","null","","","","","","","","","",""
"","html-keyboard-response","199","456489","0.0-12.0-3.2","0x60m0jfpm","one_one","1","direct_first","1","er05lf09","1","23","1","1","3","1","","0","1","0","579","","","<img src = 'targets/mask.png' width = '100%;'>","68","pos","GS","abstract","2","category2/men.png","","targets/42.png","indirect","0","18"
"","html-keyboard-response","200","458004","0.0-12.0-0.3","0x60m0jfpm","one_one","1","direct_first","1","er05lf09","1","23","1","1","3","1","","0","1","0","null","","","<div style=""font-size:60px;"">+</div>","null","","","","","","","","","",""
"","html-keyboard-response","201","458099","0.0-12.0-1.3","0x60m0jfpm","one_one","1","direct_first","1","er05lf09","1","23","1","1","3","1","","0","1","0","null","","","<img src = 'category2/GS3.png' width = '100%;'>","null","","","","","","","","","",""
"","html-keyboard-response","202","458359","0.0-12.0-2.3","0x60m0jfpm","one_one","1","direct_first","1","er05lf09","1","23","1","1","3","1","","0","1","0","null","","","<img src = 'targets/2.png' width = '100%;'>","null","","","","","","","","","",""
"","html-keyboard-response","203","458976","0.0-12.0-3.3","0x60m0jfpm","one_one","1","direct_first","1","er05lf09","1","23","1","1","3","1","","0","1","0","615","","","<img src = 'targets/mask.png' width = '100%;'>","68","pos","GS","GSnew","2","category2/GS3.png","","targets/2.png","indirect","0","19"
"","html-keyboard-response","204","460504","0.0-12.0-0.4","0x60m0jfpm","one_one","1","direct_first","1","er05lf09","1","23","1","1","3","1","","0","1","0","null","","","<div style=""font-size:60px;"">+</div>","null","","","","","","","","","",""
"","html-keyboard-response","205","460614","0.0-12.0-1.4","0x60m0jfpm","one_one","1","direct_first","1","er05lf09","1","23","1","1","3","1","","0","1","0","null","","","<img src = 'category1/GS2.png' width = '100%;'>","null","","","","","","","","","",""
"","html-keyboard-response","206","460879","0.0-12.0-2.4","0x60m0jfpm","one_one","1","direct_first","1","er05lf09","1","23","1","1","3","1","","0","1","0","null","","","<img src = 'targets/29.png' width = '100%;'>","null","","","","","","","","","",""
"","html-keyboard-response","207","464233","0.0-12.0-3.4","0x60m0jfpm","one_one","1","direct_first","1","er05lf09","1","23","1","1","3","1","","0","1","0","3353","","","<img src = 'targets/mask.png' width = '100%;'>","75","pos","GS","GSnew","1","category1/GS2.png","","targets/29.png","indirect","1","20"
"","html-keyboard-response","208","465749","0.0-12.0-0.5","0x60m0jfpm","one_one","1","direct_first","1","er05lf09","1","23","1","1","3","1","","0","1","0","null","","","<div style=""font-size:60px;"">+</div>","null","","","","","","","","","",""
"","html-keyboard-response","209","465852","0.0-12.0-1.5","0x60m0jfpm","one_one","1","direct_first","1","er05lf09","1","23","1","1","3","1","","0","1","0","null","","","<img src = 'category4/GS3.png' width = '100%;'>","null","","","","","","","","","",""
"","html-keyboard-response","210","466106","0.0-12.0-2.5","0x60m0jfpm","one_one","1","direct_first","1","er05lf09","1","23","1","1","3","1","","0","1","0","null","","","<img src = 'targets/34.png' width = '100%;'>","null","","","","","","","","","",""
"","html-keyboard-response","211","466369","0.0-12.0-3.5","0x60m0jfpm","one_one","1","direct_first","1","er05lf09","1","23","1","1","3","1","","0","1","0","262","","","<img src = 'targets/mask.png' width = '100%;'>","68","neg","GS","GSnew","4","category4/GS3.png","","targets/34.png","indirect","0","21"
"","html-keyboard-response","212","467889","0.0-12.0-0.6","0x60m0jfpm","one_one","1","direct_first","1","er05lf09","1","23","1","1","3","1","","0","1","0","null","","","<div style=""font-size:60px;"">+</div>","null","","","","","","","","","",""
"","html-keyboard-response","213","467990","0.0-12.0-1.6","0x60m0jfpm","one_one","1","direct_first","1","er05lf09","1","23","1","1","3","1","","0","1","0","null","","","<img src = 'category2/GS1.png' width = '100%;'>","null","","","","","","","","","",""
"","html-keyboard-response","214","468269","0.0-12.0-2.6","0x60m0jfpm","one_one","1","direct_first","1","er05lf09","1","23","1","1","3","1","","0","1","0","null","","","<img src = 'targets/27.png' width = '100%;'>","null","","","","","","","","","",""
"","html-keyboard-response","215","469512","0.0-12.0-3.6","0x60m0jfpm","one_one","1","direct_first","1","er05lf09","1","23","1","1","3","1","","0","1","0","1243","","","<img src = 'targets/mask.png' width = '100%;'>","75","pos","GS","GSnew","2","category2/GS1.png","","targets/27.png","indirect","1","22"
"","html-keyboard-response","216","471029","0.0-12.0-0.7","0x60m0jfpm","one_one","1","direct_first","1","er05lf09","1","23","1","1","3","1","","0","1","0","null","","","<div style=""font-size:60px;"">+</div>","null","","","","","","","","","",""
"","html-keyboard-response","217","471129","0.0-12.0-1.7","0x60m0jfpm","one_one","1","direct_first","1","er05lf09","1","23","1","1","3","1","","0","1","0","null","","","<img src = 'category3/GS2.png' width = '100%;'>","null","","","","","","","","","",""
"","html-keyboard-response","218","471399","0.0-12.0-2.7","0x60m0jfpm","one_one","1","direct_first","1","er05lf09","1","23","1","1","3","1","","0","1","0","null","","","<img src = 'targets/35.png' width = '100%;'>","null","","","","","","","","","",""
"","html-keyboard-response","219","472137","0.0-12.0-3.7","0x60m0jfpm","one_one","1","direct_first","1","er05lf09","1","23","1","1","3","1","","0","1","0","737","","","<img src = 'targets/mask.png' width = '100%;'>","68","neg","GS","GSnew","3","category3/GS2.png","","targets/35.png","indirect","0","23"
"","html-keyboard-response","220","473650","0.0-12.0-0.8","0x60m0jfpm","one_one","1","direct_first","1","er05lf09","1","23","1","1","3","1","","0","1","0","null","","","<div style=""font-size:60px;"">+</div>","null","","","","","","","","","",""
"","html-keyboard-response","221","473760","0.0-12.0-1.8","0x60m0jfpm","one_one","1","direct_first","1","er05lf09","1","23","1","1","3","1","","0","1","0","null","","","<img src = 'category1/GS1.png' width = '100%;'>","null","","","","","","","","","",""
"","html-keyboard-response","222","474019","0.0-12.0-2.8","0x60m0jfpm","one_one","1","direct_first","1","er05lf09","1","23","1","1","3","1","","0","1","0","null","","","<img src = 'targets/14.png' width = '100%;'>","null","","","","","","","","","",""
"","html-keyboard-response","223","474929","0.0-12.0-3.8","0x60m0jfpm","one_one","1","direct_first","1","er05lf09","1","23","1","1","3","1","","0","1","0","908","","","<img src = 'targets/mask.png' width = '100%;'>","75","pos","GS","GSnew","1","category1/GS1.png","","targets/14.png","indirect","1","24"
"","html-keyboard-response","224","476449","0.0-12.0-0.9","0x60m0jfpm","one_one","1","direct_first","1","er05lf09","1","23","1","1","3","1","","0","1","0","null","","","<div style=""font-size:60px;"">+</div>","null","","","","","","","","","",""
"","html-keyboard-response","225","476550","0.0-12.0-1.9","0x60m0jfpm","one_one","1","direct_first","1","er05lf09","1","23","1","1","3","1","","0","1","0","null","","","<img src = 'category3/GS1.png' width = '100%;'>","null","","","","","","","","","",""
"","html-keyboard-response","226","476829","0.0-12.0-2.9","0x60m0jfpm","one_one","1","direct_first","1","er05lf09","1","23","1","1","3","1","","0","1","0","null","","","<img src = 'targets/18.png' width = '100%;'>","null","","","","","","","","","",""
"","html-keyboard-response","227","479153","0.0-12.0-3.9","0x60m0jfpm","one_one","1","direct_first","1","er05lf09","1","23","1","1","3","1","","0","1","0","2322","","","<img src = 'targets/mask.png' width = '100%;'>","68","neg","GS","GSnew","3","category3/GS1.png","","targets/18.png","indirect","0","25"
"","html-keyboard-response","228","480670","0.0-12.0-0.10","0x60m0jfpm","one_one","1","direct_first","1","er05lf09","1","23","1","1","3","1","","0","1","0","null","","","<div style=""font-size:60px;"">+</div>","null","","","","","","","","","",""
"","html-keyboard-response","229","480780","0.0-12.0-1.10","0x60m0jfpm","one_one","1","direct_first","1","er05lf09","1","23","1","1","3","1","","0","1","0","null","","","<img src = 'category3/wang.png' width = '100%;'>","null","","","","","","","","","",""
"","html-keyboard-response","230","481046","0.0-12.0-2.10","0x60m0jfpm","one_one","1","direct_first","1","er05lf09","1","23","1","1","3","1","","0","1","0","null","","","<img src = 'targets/48.png' width = '100%;'>","null","","","","","","","","","",""
"","html-keyboard-response","231","483089","0.0-12.0-3.10","0x60m0jfpm","one_one","1","direct_first","1","er05lf09","1","23","1","1","3","1","","0","1","0","2043","","","<img src = 'targets/mask.png' width = '100%;'>","68","neg","GS","abstract","3","category3/wang.png","","targets/48.png","indirect","0","26"
"","html-keyboard-response","232","484600","0.0-12.0-0.11","0x60m0jfpm","one_one","1","direct_first","1","er05lf09","1","23","1","1","3","1","","0","1","0","null","","","<div style=""font-size:60px;"">+</div>","null","","","","","","","","","",""
"","html-keyboard-response","233","484691","0.0-12.0-1.11","0x60m0jfpm","one_one","1","direct_first","1","er05lf09","1","23","1","1","3","1","","0","1","0","null","","","<img src = 'category1/ma.png' width = '100%;'>","null","","","","","","","","","",""
"","html-keyboard-response","234","484959","0.0-12.0-2.11","0x60m0jfpm","one_one","1","direct_first","1","er05lf09","1","23","1","1","3","1","","0","1","0","null","","","<img src = 'targets/31.png' width = '100%;'>","null","","","","","","","","","",""
"","html-keyboard-response","235","485321","0.0-12.0-3.11","0x60m0jfpm","one_one","1","direct_first","1","er05lf09","1","23","1","1","3","1","","0","1","0","361","","","<img src = 'targets/mask.png' width = '100%;'>","75","pos","GS","abstract","1","category1/ma.png","","targets/31.png","indirect","1","27"
"","html-keyboard-response","236","486841","0.0-12.0-0.12","0x60m0jfpm","one_one","1","direct_first","1","er05lf09","1","23","1","1","3","1","","0","1","0","null","","","<div style=""font-size:60px;"">+</div>","null","","","","","","","","","",""
"","html-keyboard-response","237","486936","0.0-12.0-1.12","0x60m0jfpm","one_one","1","direct_first","1","er05lf09","1","23","1","1","3","1","","0","1","0","null","","","<img src = 'category4/GS2.png' width = '100%;'>","null","","","","","","","","","",""
"","html-keyboard-response","238","487204","0.0-12.0-2.12","0x60m0jfpm","one_one","1","direct_first","1","er05lf09","1","23","1","1","3","1","","0","1","0","null","","","<img src = 'targets/16.png' width = '100%;'>","null","","","","","","","","","",""
"","html-keyboard-response","239","487649","0.0-12.0-3.12","0x60m0jfpm","one_one","1","direct_first","1","er05lf09","1","23","1","1","3","1","","0","1","0","445","","","<img src = 'targets/mask.png' width = '100%;'>","68","neg","GS","GSnew","4","category4/GS2.png","","targets/16.png","indirect","0","28"
"","html-keyboard-response","240","489170","0.0-12.0-0.13","0x60m0jfpm","one_one","1","direct_first","1","er05lf09","1","23","1","1","3","1","","0","1","0","null","","","<div style=""font-size:60px;"">+</div>","null","","","","","","","","","",""
"","html-keyboard-response","241","489272","0.0-12.0-1.13","0x60m0jfpm","one_one","1","direct_first","1","er05lf09","1","23","1","1","3","1","","0","1","0","null","","","<img src = 'category3/GS3.png' width = '100%;'>","null","","","","","","","","","",""
"","html-keyboard-response","242","489535","0.0-12.0-2.13","0x60m0jfpm","one_one","1","direct_first","1","er05lf09","1","23","1","1","3","1","","0","1","0","null","","","<img src = 'targets/44.png' width = '100%;'>","null","","","","","","","","","",""
"","html-keyboard-response","243","490553","0.0-12.0-3.13","0x60m0jfpm","one_one","1","direct_first","1","er05lf09","1","23","1","1","3","1","","0","1","0","1017","","","<img src = 'targets/mask.png' width = '100%;'>","68","neg","GS","GSnew","3","category3/GS3.png","","targets/44.png","indirect","0","29"
"","html-keyboard-response","244","492070","0.0-12.0-0.14","0x60m0jfpm","one_one","1","direct_first","1","er05lf09","1","23","1","1","3","1","","0","1","0","null","","","<div style=""font-size:60px;"">+</div>","null","","","","","","","","","",""
"","html-keyboard-response","245","492165","0.0-12.0-1.14","0x60m0jfpm","one_one","1","direct_first","1","er05lf09","1","23","1","1","3","1","","0","1","0","null","","","<img src = 'category4/lin.png' width = '100%;'>","null","","","","","","","","","",""
"","html-keyboard-response","246","492440","0.0-12.0-2.14","0x60m0jfpm","one_one","1","direct_first","1","er05lf09","1","23","1","1","3","1","","0","1","0","null","","","<img src = 'targets/37.png' width = '100%;'>","null","","","","","","","","","",""
"","html-keyboard-response","247","494080","0.0-12.0-3.14","0x60m0jfpm","one_one","1","direct_first","1","er05lf09","1","23","1","1","3","1","","0","1","0","1640","","","<img src = 'targets/mask.png' width = '100%;'>","75","neg","GS","abstract","4","category4/lin.png","","targets/37.png","indirect","1","30"
"","html-keyboard-response","248","495600","0.0-12.0-0.15","0x60m0jfpm","one_one","1","direct_first","1","er05lf09","1","23","1","1","3","1","","0","1","0","null","","","<div style=""font-size:60px;"">+</div>","null","","","","","","","","","",""
"","html-keyboard-response","249","495695","0.0-12.0-1.15","0x60m0jfpm","one_one","1","direct_first","1","er05lf09","1","23","1","1","3","1","","0","1","0","null","","","<img src = 'category1/GS3.png' width = '100%;'>","null","","","","","","","","","",""
"","html-keyboard-response","250","495958","0.0-12.0-2.15","0x60m0jfpm","one_one","1","direct_first","1","er05lf09","1","23","1","1","3","1","","0","1","0","null","","","<img src = 'targets/17.png' width = '100%;'>","null","","","","","","","","","",""
"","html-keyboard-response","251","498409","0.0-12.0-3.15","0x60m0jfpm","one_one","1","direct_first","1","er05lf09","1","23","1","1","3","1","","0","1","0","2450","","","<img src = 'targets/mask.png' width = '100%;'>","68","pos","GS","GSnew","1","category1/GS3.png","","targets/17.png","indirect","0","31"
"","survey-html-form","252","514159","0.0-13.0","0x60m0jfpm","one_one","1","direct_first","1","er05lf09","1","23","1","1","3","1","","0","1","0","15250","","{}","","","","","","","","","","","",""
"","image-slider-response","253","519827","0.0-14.0-0.0","0x60m0jfpm","one_one","1","direct_first","1","er05lf09","1","23","1","1","3","1","","0","1","0","4664","","","","","pos","All","all","2","category2/men_all.png","41","","all","",""
"","image-slider-response","254","521568","0.0-14.0-0.1","0x60m0jfpm","one_one","1","direct_first","1","er05lf09","1","23","1","1","3","1","","0","1","0","1740","","","","","pos","All","all","1","category1/ma_all.png","17","","all","",""
"","image-slider-response","255","524435","0.0-14.0-0.2","0x60m0jfpm","one_one","1","direct_first","1","er05lf09","1","23","1","1","3","1","","0","1","0","2867","","","","","neg","All","all","3","category3/wang_all.png","27","","all","",""
"","image-slider-response","256","525582","0.0-14.0-0.3","0x60m0jfpm","one_one","1","direct_first","1","er05lf09","1","23","1","1","3","1","","0","1","0","1144","","","","","neg","All","all","4","category4/lin_all.png","-12","","all","",""
"","survey-text","257","529072","0.0-15.0","0x60m0jfpm","one_one","1","direct_first","1","er05lf09","1","23","1","1","3","1","","0","1","0","3486","","{""comment"":""""}","","","","","","","","","","","",""
"","survey-html-form","258","539833","0.0-16.0","0x60m0jfpm","one_one","1","direct_first","1","er05lf09","1","23","1","1","3","1","","0","1","0","10758","","{""hinschauen"":""0"",""ablenkung"":""1"",""gewissenhaft"":""0""}","","","","","","","","","","","",""
