"success","trial_type","trial_index","time_elapsed","internal_node_id","subject","condition","condition_code","measure","measure_code","codeword","gender","age","education","chinese","fach","handedness","comment","hinschauen","ablenkung","gewissenhaft","rt","url","responses","stimulus","key_press","val","type","type_specific","category","cs_selected","target","indirect","task","nr_pres","response"
"true","fullscreen","0","25479","0.0-0.0","ru82zmccpt","one_one","1","indirect_first","0","hn08er24","0","20","1","1","3","1","","0","1","0","","","","","","","","","","","","","","",""
"","external-html","1","48182","0.0-1.0","ru82zmccpt","one_one","1","indirect_first","0","hn08er24","0","20","1","1","3","1","","0","1","0","22580.8749999851","text/information.html","","","","","","","","","","","","",""
"","external-html","2","62408","0.0-2.0","ru82zmccpt","one_one","1","indirect_first","0","hn08er24","0","20","1","1","3","1","","0","1","0","14061.100000049919","text/consent.html","","","","","","","","","","","","",""
"","survey-html-form","3","113375","0.0-3.0","ru82zmccpt","one_one","1","indirect_first","0","hn08er24","0","20","1","1","3","1","","0","1","0","50946.105000097305","","{""codeword_enter"":""hn08er24""}","","","","","","","","","","","",""
"","survey-html-form","4","149393","0.0-4.0","ru82zmccpt","one_one","1","indirect_first","0","hn08er24","0","20","1","1","3","1","","0","1","0","36000.95000001602","","{""age"":""20"",""education"":""1"",""subject"":""3"",""gender"":""0"",""handedness"":""1"",""chinese"":""1""}","","","","","","","","","","","",""
"","survey-html-form","5","151180","0.0-5.0","ru82zmccpt","one_one","1","indirect_first","0","hn08er24","0","20","1","1","3","1","","0","1","0","1780.3399998228997","","{}","","","","","","","","","","","",""
"","html-keyboard-response","6","155194","0.0-6.0-0.0-0.0","ru82zmccpt","one_one","1","indirect_first","0","hn08er24","0","20","1","1","3","1","","0","1","0","null","","","<div class = 'row'><div class = 'column'><img src = 'uspos/4625.bmp' width = '100%;'></div><div class = 'column'><img src = 'category3/CS7.png' width = '70%;'></div></div>","null","pos","CS","CS","3","category3/CS7.png","","","","",""
"","html-keyboard-response","7","157702","0.0-6.0-0.0-0.1","ru82zmccpt","one_one","1","indirect_first","0","hn08er24","0","20","1","1","3","1","","0","1","0","null","","","<div class = 'row'><div class = 'column'><img src = 'usneg/9041.bmp' width = '100%;'></div><div class = 'column'><img src = 'category1/CS7.png' width = '70%;'></div></div>","null","neg","CS","CS","1","category1/CS7.png","","","","",""
"","html-keyboard-response","8","160208","0.0-6.0-0.0-0.2","ru82zmccpt","one_one","1","indirect_first","0","hn08er24","0","20","1","1","3","1","","0","1","0","null","","","<div class = 'row'><div class = 'column'><img src = 'category4/CS2.png' width = '70%;'></div><div class = 'column'><img src = 'usneg/6570.1.bmp' width = '100%;'></div></div>","null","neg","CS","CS","4","category4/CS2.png","","","","",""
"","html-keyboard-response","9","162714","0.0-6.0-0.0-0.3","ru82zmccpt","one_one","1","indirect_first","0","hn08er24","0","20","1","1","3","1","","0","1","0","null","","","<div class = 'row'><div class = 'column'><img src = 'category1/CS7.png' width = '70%;'></div><div class = 'column'><img src = 'usneg/9041.bmp' width = '100%;'></div></div>","null","neg","CS","CS","1","category1/CS7.png","","","","",""
"","html-keyboard-response","10","165219","0.0-6.0-0.0-0.4","ru82zmccpt","one_one","1","indirect_first","0","hn08er24","0","20","1","1","3","1","","0","1","0","null","","","<div class = 'row'><div class = 'column'><img src = 'category2/CS1.png' width = '70%;'></div><div class = 'column'><img src = 'uspos/1440.bmp' width = '100%;'></div></div>","null","pos","CS","CS","2","category2/CS1.png","","","","",""
"","html-keyboard-response","11","167726","0.0-6.0-0.0-0.5","ru82zmccpt","one_one","1","indirect_first","0","hn08er24","0","20","1","1","3","1","","0","1","0","null","","","<div class = 'row'><div class = 'column'><img src = 'usneg/6570.1.bmp' width = '100%;'></div><div class = 'column'><img src = 'category4/CS2.png' width = '70%;'></div></div>","null","neg","CS","CS","4","category4/CS2.png","","","","",""
"","html-keyboard-response","12","170231","0.0-6.0-0.0-0.6","ru82zmccpt","one_one","1","indirect_first","0","hn08er24","0","20","1","1","3","1","","0","1","0","null","","","<div class = 'row'><div class = 'column'><img src = 'category2/CS1.png' width = '70%;'></div><div class = 'column'><img src = 'uspos/1440.bmp' width = '100%;'></div></div>","null","pos","CS","CS","2","category2/CS1.png","","","","",""
"","html-keyboard-response","13","172738","0.0-6.0-0.0-0.7","ru82zmccpt","one_one","1","indirect_first","0","hn08er24","0","20","1","1","3","1","","0","1","0","null","","","<div class = 'row'><div class = 'column'><img src = 'category1/CS7.png' width = '70%;'></div><div class = 'column'><img src = 'usneg/9041.bmp' width = '100%;'></div></div>","null","neg","CS","CS","1","category1/CS7.png","","","","",""
"","html-keyboard-response","14","175244","0.0-6.0-0.0-0.8","ru82zmccpt","one_one","1","indirect_first","0","hn08er24","0","20","1","1","3","1","","0","1","0","null","","","<div class = 'row'><div class = 'column'><img src = 'uspos/4625.bmp' width = '100%;'></div><div class = 'column'><img src = 'category3/CS7.png' width = '70%;'></div></div>","null","pos","CS","CS","3","category3/CS7.png","","","","",""
"","html-keyboard-response","15","177749","0.0-6.0-0.0-0.9","ru82zmccpt","one_one","1","indirect_first","0","hn08er24","0","20","1","1","3","1","","0","1","0","null","","","<div class = 'row'><div class = 'column'><img src = 'category2/CS1.png' width = '70%;'></div><div class = 'column'><img src = 'uspos/1440.bmp' width = '100%;'></div></div>","null","pos","CS","CS","2","category2/CS1.png","","","","",""
"","html-keyboard-response","16","180255","0.0-6.0-0.0-0.10","ru82zmccpt","one_one","1","indirect_first","0","hn08er24","0","20","1","1","3","1","","0","1","0","null","","","<div class = 'row'><div class = 'column'><img src = 'category3/CS7.png' width = '70%;'></div><div class = 'column'><img src = 'uspos/4625.bmp' width = '100%;'></div></div>","null","pos","CS","CS","3","category3/CS7.png","","","","",""
"","html-keyboard-response","17","182761","0.0-6.0-0.0-0.11","ru82zmccpt","one_one","1","indirect_first","0","hn08er24","0","20","1","1","3","1","","0","1","0","null","","","<div class = 'row'><div class = 'column'><img src = 'usneg/6570.1.bmp' width = '100%;'></div><div class = 'column'><img src = 'category4/CS2.png' width = '70%;'></div></div>","null","neg","CS","CS","4","category4/CS2.png","","","","",""
"","html-keyboard-response","18","185265","0.0-6.0-0.0-0.12","ru82zmccpt","one_one","1","indirect_first","0","hn08er24","0","20","1","1","3","1","","0","1","0","null","","","<div class = 'row'><div class = 'column'><img src = 'category1/CS7.png' width = '70%;'></div><div class = 'column'><img src = 'usneg/9041.bmp' width = '100%;'></div></div>","null","neg","CS","CS","1","category1/CS7.png","","","","",""
"","html-keyboard-response","19","187771","0.0-6.0-0.0-0.13","ru82zmccpt","one_one","1","indirect_first","0","hn08er24","0","20","1","1","3","1","","0","1","0","null","","","<div class = 'row'><div class = 'column'><img src = 'usneg/6570.1.bmp' width = '100%;'></div><div class = 'column'><img src = 'category4/CS2.png' width = '70%;'></div></div>","null","neg","CS","CS","4","category4/CS2.png","","","","",""
"","html-keyboard-response","20","190276","0.0-6.0-0.0-0.14","ru82zmccpt","one_one","1","indirect_first","0","hn08er24","0","20","1","1","3","1","","0","1","0","null","","","<div class = 'row'><div class = 'column'><img src = 'uspos/1440.bmp' width = '100%;'></div><div class = 'column'><img src = 'category2/CS1.png' width = '70%;'></div></div>","null","pos","CS","CS","2","category2/CS1.png","","","","",""
"","html-keyboard-response","21","192783","0.0-6.0-0.0-0.15","ru82zmccpt","one_one","1","indirect_first","0","hn08er24","0","20","1","1","3","1","","0","1","0","null","","","<div class = 'row'><div class = 'column'><img src = 'category1/CS7.png' width = '70%;'></div><div class = 'column'><img src = 'usneg/9041.bmp' width = '100%;'></div></div>","null","neg","CS","CS","1","category1/CS7.png","","","","",""
"","html-keyboard-response","22","195288","0.0-6.0-0.0-0.16","ru82zmccpt","one_one","1","indirect_first","0","hn08er24","0","20","1","1","3","1","","0","1","0","null","","","<div class = 'row'><div class = 'column'><img src = 'category2/CS1.png' width = '70%;'></div><div class = 'column'><img src = 'uspos/1440.bmp' width = '100%;'></div></div>","null","pos","CS","CS","2","category2/CS1.png","","","","",""
"","html-keyboard-response","23","197794","0.0-6.0-0.0-0.17","ru82zmccpt","one_one","1","indirect_first","0","hn08er24","0","20","1","1","3","1","","0","1","0","null","","","<div class = 'row'><div class = 'column'><img src = 'category3/CS7.png' width = '70%;'></div><div class = 'column'><img src = 'uspos/4625.bmp' width = '100%;'></div></div>","null","pos","CS","CS","3","category3/CS7.png","","","","",""
"","html-keyboard-response","24","200300","0.0-6.0-0.0-0.18","ru82zmccpt","one_one","1","indirect_first","0","hn08er24","0","20","1","1","3","1","","0","1","0","null","","","<div class = 'row'><div class = 'column'><img src = 'usneg/6570.1.bmp' width = '100%;'></div><div class = 'column'><img src = 'category4/CS2.png' width = '70%;'></div></div>","null","neg","CS","CS","4","category4/CS2.png","","","","",""
"","html-keyboard-response","25","202806","0.0-6.0-0.0-0.19","ru82zmccpt","one_one","1","indirect_first","0","hn08er24","0","20","1","1","3","1","","0","1","0","null","","","<div class = 'row'><div class = 'column'><img src = 'category3/CS7.png' width = '70%;'></div><div class = 'column'><img src = 'uspos/4625.bmp' width = '100%;'></div></div>","null","pos","CS","CS","3","category3/CS7.png","","","","",""
"","survey-html-form","26","205030","0.0-6.0-1.0","ru82zmccpt","one_one","1","indirect_first","0","hn08er24","0","20","1","1","3","1","","0","1","0","1722.4249998107553","","{}","","","","","","","","","","","",""
"","html-keyboard-response","27","209037","0.0-6.0-2.0-0.0","ru82zmccpt","one_one","1","indirect_first","0","hn08er24","0","20","1","1","3","1","","0","1","0","null","","","<div class = 'row'><div class = 'column'><img src = 'category4/CS2.png' width = '70%;'></div><div class = 'column'><img src = 'usneg/6570.1.bmp' width = '100%;'></div></div>","null","neg","CS","CS","4","category4/CS2.png","","","","",""
"","html-keyboard-response","28","211543","0.0-6.0-2.0-0.1","ru82zmccpt","one_one","1","indirect_first","0","hn08er24","0","20","1","1","3","1","","0","1","0","null","","","<div class = 'row'><div class = 'column'><img src = 'category3/CS7.png' width = '70%;'></div><div class = 'column'><img src = 'uspos/4625.bmp' width = '100%;'></div></div>","null","pos","CS","CS","3","category3/CS7.png","","","","",""
"","html-keyboard-response","29","214048","0.0-6.0-2.0-0.2","ru82zmccpt","one_one","1","indirect_first","0","hn08er24","0","20","1","1","3","1","","0","1","0","null","","","<div class = 'row'><div class = 'column'><img src = 'uspos/1440.bmp' width = '100%;'></div><div class = 'column'><img src = 'category2/CS1.png' width = '70%;'></div></div>","null","pos","CS","CS","2","category2/CS1.png","","","","",""
"","html-keyboard-response","30","216553","0.0-6.0-2.0-0.3","ru82zmccpt","one_one","1","indirect_first","0","hn08er24","0","20","1","1","3","1","","0","1","0","null","","","<div class = 'row'><div class = 'column'><img src = 'category4/CS2.png' width = '70%;'></div><div class = 'column'><img src = 'usneg/6570.1.bmp' width = '100%;'></div></div>","null","neg","CS","CS","4","category4/CS2.png","","","","",""
"","html-keyboard-response","31","219058","0.0-6.0-2.0-0.4","ru82zmccpt","one_one","1","indirect_first","0","hn08er24","0","20","1","1","3","1","","0","1","0","null","","","<div class = 'row'><div class = 'column'><img src = 'category2/CS1.png' width = '70%;'></div><div class = 'column'><img src = 'uspos/1440.bmp' width = '100%;'></div></div>","null","pos","CS","CS","2","category2/CS1.png","","","","",""
"","html-keyboard-response","32","221564","0.0-6.0-2.0-0.5","ru82zmccpt","one_one","1","indirect_first","0","hn08er24","0","20","1","1","3","1","","0","1","0","null","","","<div class = 'row'><div class = 'column'><img src = 'usneg/9041.bmp' width = '100%;'></div><div class = 'column'><img src = 'category1/CS7.png' width = '70%;'></div></div>","null","neg","CS","CS","1","category1/CS7.png","","","","",""
"","html-keyboard-response","33","224072","0.0-6.0-2.0-0.6","ru82zmccpt","one_one","1","indirect_first","0","hn08er24","0","20","1","1","3","1","","0","1","0","null","","","<div class = 'row'><div class = 'column'><img src = 'category3/CS7.png' width = '70%;'></div><div class = 'column'><img src = 'uspos/4625.bmp' width = '100%;'></div></div>","null","pos","CS","CS","3","category3/CS7.png","","","","",""
"","html-keyboard-response","34","226578","0.0-6.0-2.0-0.7","ru82zmccpt","one_one","1","indirect_first","0","hn08er24","0","20","1","1","3","1","","0","1","0","null","","","<div class = 'row'><div class = 'column'><img src = 'usneg/6570.1.bmp' width = '100%;'></div><div class = 'column'><img src = 'category4/CS2.png' width = '70%;'></div></div>","null","neg","CS","CS","4","category4/CS2.png","","","","",""
"","html-keyboard-response","35","229085","0.0-6.0-2.0-0.8","ru82zmccpt","one_one","1","indirect_first","0","hn08er24","0","20","1","1","3","1","","0","1","0","null","","","<div class = 'row'><div class = 'column'><img src = 'category3/CS7.png' width = '70%;'></div><div class = 'column'><img src = 'uspos/4625.bmp' width = '100%;'></div></div>","null","pos","CS","CS","3","category3/CS7.png","","","","",""
"","html-keyboard-response","36","231608","0.0-6.0-2.0-0.9","ru82zmccpt","one_one","1","indirect_first","0","hn08er24","0","20","1","1","3","1","","0","1","0","null","","","<div class = 'row'><div class = 'column'><img src = 'uspos/1440.bmp' width = '100%;'></div><div class = 'column'><img src = 'category2/CS1.png' width = '70%;'></div></div>","null","pos","CS","CS","2","category2/CS1.png","","","","",""
"","html-keyboard-response","37","234115","0.0-6.0-2.0-0.10","ru82zmccpt","one_one","1","indirect_first","0","hn08er24","0","20","1","1","3","1","","0","1","0","null","","","<div class = 'row'><div class = 'column'><img src = 'category1/CS7.png' width = '70%;'></div><div class = 'column'><img src = 'usneg/9041.bmp' width = '100%;'></div></div>","null","neg","CS","CS","1","category1/CS7.png","","","","",""
"","html-keyboard-response","38","236620","0.0-6.0-2.0-0.11","ru82zmccpt","one_one","1","indirect_first","0","hn08er24","0","20","1","1","3","1","","0","1","0","null","","","<div class = 'row'><div class = 'column'><img src = 'category3/CS7.png' width = '70%;'></div><div class = 'column'><img src = 'uspos/4625.bmp' width = '100%;'></div></div>","null","pos","CS","CS","3","category3/CS7.png","","","","",""
"","html-keyboard-response","39","239127","0.0-6.0-2.0-0.12","ru82zmccpt","one_one","1","indirect_first","0","hn08er24","0","20","1","1","3","1","","0","1","0","null","","","<div class = 'row'><div class = 'column'><img src = 'category1/CS7.png' width = '70%;'></div><div class = 'column'><img src = 'usneg/9041.bmp' width = '100%;'></div></div>","null","neg","CS","CS","1","category1/CS7.png","","","","",""
"","html-keyboard-response","40","241634","0.0-6.0-2.0-0.13","ru82zmccpt","one_one","1","indirect_first","0","hn08er24","0","20","1","1","3","1","","0","1","0","null","","","<div class = 'row'><div class = 'column'><img src = 'category3/CS7.png' width = '70%;'></div><div class = 'column'><img src = 'uspos/4625.bmp' width = '100%;'></div></div>","null","pos","CS","CS","3","category3/CS7.png","","","","",""
"","html-keyboard-response","41","244139","0.0-6.0-2.0-0.14","ru82zmccpt","one_one","1","indirect_first","0","hn08er24","0","20","1","1","3","1","","0","1","0","null","","","<div class = 'row'><div class = 'column'><img src = 'usneg/9041.bmp' width = '100%;'></div><div class = 'column'><img src = 'category1/CS7.png' width = '70%;'></div></div>","null","neg","CS","CS","1","category1/CS7.png","","","","",""
"","html-keyboard-response","42","246646","0.0-6.0-2.0-0.15","ru82zmccpt","one_one","1","indirect_first","0","hn08er24","0","20","1","1","3","1","","0","1","0","null","","","<div class = 'row'><div class = 'column'><img src = 'category2/CS1.png' width = '70%;'></div><div class = 'column'><img src = 'uspos/1440.bmp' width = '100%;'></div></div>","null","pos","CS","CS","2","category2/CS1.png","","","","",""
"","html-keyboard-response","43","249153","0.0-6.0-2.0-0.16","ru82zmccpt","one_one","1","indirect_first","0","hn08er24","0","20","1","1","3","1","","0","1","0","null","","","<div class = 'row'><div class = 'column'><img src = 'category4/CS2.png' width = '70%;'></div><div class = 'column'><img src = 'usneg/6570.1.bmp' width = '100%;'></div></div>","null","neg","CS","CS","4","category4/CS2.png","","","","",""
"","html-keyboard-response","44","251658","0.0-6.0-2.0-0.17","ru82zmccpt","one_one","1","indirect_first","0","hn08er24","0","20","1","1","3","1","","0","1","0","null","","","<div class = 'row'><div class = 'column'><img src = 'category1/CS7.png' width = '70%;'></div><div class = 'column'><img src = 'usneg/9041.bmp' width = '100%;'></div></div>","null","neg","CS","CS","1","category1/CS7.png","","","","",""
"","html-keyboard-response","45","254163","0.0-6.0-2.0-0.18","ru82zmccpt","one_one","1","indirect_first","0","hn08er24","0","20","1","1","3","1","","0","1","0","null","","","<div class = 'row'><div class = 'column'><img src = 'category2/CS1.png' width = '70%;'></div><div class = 'column'><img src = 'uspos/1440.bmp' width = '100%;'></div></div>","null","pos","CS","CS","2","category2/CS1.png","","","","",""
"","html-keyboard-response","46","256668","0.0-6.0-2.0-0.19","ru82zmccpt","one_one","1","indirect_first","0","hn08er24","0","20","1","1","3","1","","0","1","0","null","","","<div class = 'row'><div class = 'column'><img src = 'usneg/6570.1.bmp' width = '100%;'></div><div class = 'column'><img src = 'category4/CS2.png' width = '70%;'></div></div>","null","neg","CS","CS","4","category4/CS2.png","","","","",""
"","survey-html-form","47","260804","0.0-6.0-3.0","ru82zmccpt","one_one","1","indirect_first","0","hn08er24","0","20","1","1","3","1","","0","1","0","3633.529999991879","","{}","","","","","","","","","","","",""
"","html-keyboard-response","48","264811","0.0-6.0-4.0-0.0","ru82zmccpt","one_one","1","indirect_first","0","hn08er24","0","20","1","1","3","1","","0","1","0","null","","","<div class = 'row'><div class = 'column'><img src = 'uspos/4625.bmp' width = '100%;'></div><div class = 'column'><img src = 'category3/CS7.png' width = '70%;'></div></div>","null","pos","CS","CS","3","category3/CS7.png","","","","",""
"","html-keyboard-response","49","267319","0.0-6.0-4.0-0.1","ru82zmccpt","one_one","1","indirect_first","0","hn08er24","0","20","1","1","3","1","","0","1","0","null","","","<div class = 'row'><div class = 'column'><img src = 'category2/CS1.png' width = '70%;'></div><div class = 'column'><img src = 'uspos/1440.bmp' width = '100%;'></div></div>","null","pos","CS","CS","2","category2/CS1.png","","","","",""
"","html-keyboard-response","50","269826","0.0-6.0-4.0-0.2","ru82zmccpt","one_one","1","indirect_first","0","hn08er24","0","20","1","1","3","1","","0","1","0","null","","","<div class = 'row'><div class = 'column'><img src = 'usneg/9041.bmp' width = '100%;'></div><div class = 'column'><img src = 'category1/CS7.png' width = '70%;'></div></div>","null","neg","CS","CS","1","category1/CS7.png","","","","",""
"","html-keyboard-response","51","272331","0.0-6.0-4.0-0.3","ru82zmccpt","one_one","1","indirect_first","0","hn08er24","0","20","1","1","3","1","","0","1","0","null","","","<div class = 'row'><div class = 'column'><img src = 'uspos/4625.bmp' width = '100%;'></div><div class = 'column'><img src = 'category3/CS7.png' width = '70%;'></div></div>","null","pos","CS","CS","3","category3/CS7.png","","","","",""
"","html-keyboard-response","52","274837","0.0-6.0-4.0-0.4","ru82zmccpt","one_one","1","indirect_first","0","hn08er24","0","20","1","1","3","1","","0","1","0","null","","","<div class = 'row'><div class = 'column'><img src = 'category4/CS2.png' width = '70%;'></div><div class = 'column'><img src = 'usneg/6570.1.bmp' width = '100%;'></div></div>","null","neg","CS","CS","4","category4/CS2.png","","","","",""
"","html-keyboard-response","53","277345","0.0-6.0-4.0-0.5","ru82zmccpt","one_one","1","indirect_first","0","hn08er24","0","20","1","1","3","1","","0","1","0","null","","","<div class = 'row'><div class = 'column'><img src = 'usneg/9041.bmp' width = '100%;'></div><div class = 'column'><img src = 'category1/CS7.png' width = '70%;'></div></div>","null","neg","CS","CS","1","category1/CS7.png","","","","",""
"","html-keyboard-response","54","279851","0.0-6.0-4.0-0.6","ru82zmccpt","one_one","1","indirect_first","0","hn08er24","0","20","1","1","3","1","","0","1","0","null","","","<div class = 'row'><div class = 'column'><img src = 'category4/CS2.png' width = '70%;'></div><div class = 'column'><img src = 'usneg/6570.1.bmp' width = '100%;'></div></div>","null","neg","CS","CS","4","category4/CS2.png","","","","",""
"","html-keyboard-response","55","282357","0.0-6.0-4.0-0.7","ru82zmccpt","one_one","1","indirect_first","0","hn08er24","0","20","1","1","3","1","","0","1","0","null","","","<div class = 'row'><div class = 'column'><img src = 'uspos/1440.bmp' width = '100%;'></div><div class = 'column'><img src = 'category2/CS1.png' width = '70%;'></div></div>","null","pos","CS","CS","2","category2/CS1.png","","","","",""
"","html-keyboard-response","56","284862","0.0-6.0-4.0-0.8","ru82zmccpt","one_one","1","indirect_first","0","hn08er24","0","20","1","1","3","1","","0","1","0","null","","","<div class = 'row'><div class = 'column'><img src = 'usneg/6570.1.bmp' width = '100%;'></div><div class = 'column'><img src = 'category4/CS2.png' width = '70%;'></div></div>","null","neg","CS","CS","4","category4/CS2.png","","","","",""
"","html-keyboard-response","57","287369","0.0-6.0-4.0-0.9","ru82zmccpt","one_one","1","indirect_first","0","hn08er24","0","20","1","1","3","1","","0","1","0","null","","","<div class = 'row'><div class = 'column'><img src = 'category2/CS1.png' width = '70%;'></div><div class = 'column'><img src = 'uspos/1440.bmp' width = '100%;'></div></div>","null","pos","CS","CS","2","category2/CS1.png","","","","",""
"","html-keyboard-response","58","289875","0.0-6.0-4.0-0.10","ru82zmccpt","one_one","1","indirect_first","0","hn08er24","0","20","1","1","3","1","","0","1","0","null","","","<div class = 'row'><div class = 'column'><img src = 'category3/CS7.png' width = '70%;'></div><div class = 'column'><img src = 'uspos/4625.bmp' width = '100%;'></div></div>","null","pos","CS","CS","3","category3/CS7.png","","","","",""
"","html-keyboard-response","59","292381","0.0-6.0-4.0-0.11","ru82zmccpt","one_one","1","indirect_first","0","hn08er24","0","20","1","1","3","1","","0","1","0","null","","","<div class = 'row'><div class = 'column'><img src = 'category4/CS2.png' width = '70%;'></div><div class = 'column'><img src = 'usneg/6570.1.bmp' width = '100%;'></div></div>","null","neg","CS","CS","4","category4/CS2.png","","","","",""
"","html-keyboard-response","60","294889","0.0-6.0-4.0-0.12","ru82zmccpt","one_one","1","indirect_first","0","hn08er24","0","20","1","1","3","1","","0","1","0","null","","","<div class = 'row'><div class = 'column'><img src = 'category2/CS1.png' width = '70%;'></div><div class = 'column'><img src = 'uspos/1440.bmp' width = '100%;'></div></div>","null","pos","CS","CS","2","category2/CS1.png","","","","",""
"","html-keyboard-response","61","297395","0.0-6.0-4.0-0.13","ru82zmccpt","one_one","1","indirect_first","0","hn08er24","0","20","1","1","3","1","","0","1","0","null","","","<div class = 'row'><div class = 'column'><img src = 'usneg/9041.bmp' width = '100%;'></div><div class = 'column'><img src = 'category1/CS7.png' width = '70%;'></div></div>","null","neg","CS","CS","1","category1/CS7.png","","","","",""
"","html-keyboard-response","62","299902","0.0-6.0-4.0-0.14","ru82zmccpt","one_one","1","indirect_first","0","hn08er24","0","20","1","1","3","1","","0","1","0","null","","","<div class = 'row'><div class = 'column'><img src = 'uspos/1440.bmp' width = '100%;'></div><div class = 'column'><img src = 'category2/CS1.png' width = '70%;'></div></div>","null","pos","CS","CS","2","category2/CS1.png","","","","",""
"","html-keyboard-response","63","302405","0.0-6.0-4.0-0.15","ru82zmccpt","one_one","1","indirect_first","0","hn08er24","0","20","1","1","3","1","","0","1","0","null","","","<div class = 'row'><div class = 'column'><img src = 'usneg/9041.bmp' width = '100%;'></div><div class = 'column'><img src = 'category1/CS7.png' width = '70%;'></div></div>","null","neg","CS","CS","1","category1/CS7.png","","","","",""
"","html-keyboard-response","64","304910","0.0-6.0-4.0-0.16","ru82zmccpt","one_one","1","indirect_first","0","hn08er24","0","20","1","1","3","1","","0","1","0","null","","","<div class = 'row'><div class = 'column'><img src = 'category4/CS2.png' width = '70%;'></div><div class = 'column'><img src = 'usneg/6570.1.bmp' width = '100%;'></div></div>","null","neg","CS","CS","4","category4/CS2.png","","","","",""
"","html-keyboard-response","65","307416","0.0-6.0-4.0-0.17","ru82zmccpt","one_one","1","indirect_first","0","hn08er24","0","20","1","1","3","1","","0","1","0","null","","","<div class = 'row'><div class = 'column'><img src = 'category3/CS7.png' width = '70%;'></div><div class = 'column'><img src = 'uspos/4625.bmp' width = '100%;'></div></div>","null","pos","CS","CS","3","category3/CS7.png","","","","",""
"","html-keyboard-response","66","309921","0.0-6.0-4.0-0.18","ru82zmccpt","one_one","1","indirect_first","0","hn08er24","0","20","1","1","3","1","","0","1","0","null","","","<div class = 'row'><div class = 'column'><img src = 'category1/CS7.png' width = '70%;'></div><div class = 'column'><img src = 'usneg/9041.bmp' width = '100%;'></div></div>","null","neg","CS","CS","1","category1/CS7.png","","","","",""
"","html-keyboard-response","67","312427","0.0-6.0-4.0-0.19","ru82zmccpt","one_one","1","indirect_first","0","hn08er24","0","20","1","1","3","1","","0","1","0","null","","","<div class = 'row'><div class = 'column'><img src = 'category3/CS7.png' width = '70%;'></div><div class = 'column'><img src = 'uspos/4625.bmp' width = '100%;'></div></div>","null","pos","CS","CS","3","category3/CS7.png","","","","",""
"","survey-html-form","68","315277","0.0-6.0-5.0","ru82zmccpt","one_one","1","indirect_first","0","hn08er24","0","20","1","1","3","1","","0","1","0","2345.140000106767","","{}","","","","","","","","","","","",""
"","html-keyboard-response","69","319290","0.0-6.0-6.0-0.0","ru82zmccpt","one_one","1","indirect_first","0","hn08er24","0","20","1","1","3","1","","0","1","0","null","","","<div class = 'row'><div class = 'column'><img src = 'usneg/6570.1.bmp' width = '100%;'></div><div class = 'column'><img src = 'category4/CS2.png' width = '70%;'></div></div>","null","neg","CS","CS","4","category4/CS2.png","","","","",""
"","html-keyboard-response","70","321795","0.0-6.0-6.0-0.1","ru82zmccpt","one_one","1","indirect_first","0","hn08er24","0","20","1","1","3","1","","0","1","0","null","","","<div class = 'row'><div class = 'column'><img src = 'uspos/1440.bmp' width = '100%;'></div><div class = 'column'><img src = 'category2/CS1.png' width = '70%;'></div></div>","null","pos","CS","CS","2","category2/CS1.png","","","","",""
"","html-keyboard-response","71","324300","0.0-6.0-6.0-0.2","ru82zmccpt","one_one","1","indirect_first","0","hn08er24","0","20","1","1","3","1","","0","1","0","null","","","<div class = 'row'><div class = 'column'><img src = 'category1/CS7.png' width = '70%;'></div><div class = 'column'><img src = 'usneg/9041.bmp' width = '100%;'></div></div>","null","neg","CS","CS","1","category1/CS7.png","","","","",""
"","html-keyboard-response","72","326807","0.0-6.0-6.0-0.3","ru82zmccpt","one_one","1","indirect_first","0","hn08er24","0","20","1","1","3","1","","0","1","0","null","","","<div class = 'row'><div class = 'column'><img src = 'category4/CS2.png' width = '70%;'></div><div class = 'column'><img src = 'usneg/6570.1.bmp' width = '100%;'></div></div>","null","neg","CS","CS","4","category4/CS2.png","","","","",""
"","html-keyboard-response","73","329311","0.0-6.0-6.0-0.4","ru82zmccpt","one_one","1","indirect_first","0","hn08er24","0","20","1","1","3","1","","0","1","0","null","","","<div class = 'row'><div class = 'column'><img src = 'uspos/1440.bmp' width = '100%;'></div><div class = 'column'><img src = 'category2/CS1.png' width = '70%;'></div></div>","null","pos","CS","CS","2","category2/CS1.png","","","","",""
"","html-keyboard-response","74","331816","0.0-6.0-6.0-0.5","ru82zmccpt","one_one","1","indirect_first","0","hn08er24","0","20","1","1","3","1","","0","1","0","null","","","<div class = 'row'><div class = 'column'><img src = 'category3/CS7.png' width = '70%;'></div><div class = 'column'><img src = 'uspos/4625.bmp' width = '100%;'></div></div>","null","pos","CS","CS","3","category3/CS7.png","","","","",""
"","html-keyboard-response","75","334322","0.0-6.0-6.0-0.6","ru82zmccpt","one_one","1","indirect_first","0","hn08er24","0","20","1","1","3","1","","0","1","0","null","","","<div class = 'row'><div class = 'column'><img src = 'category1/CS7.png' width = '70%;'></div><div class = 'column'><img src = 'usneg/9041.bmp' width = '100%;'></div></div>","null","neg","CS","CS","1","category1/CS7.png","","","","",""
"","html-keyboard-response","76","336828","0.0-6.0-6.0-0.7","ru82zmccpt","one_one","1","indirect_first","0","hn08er24","0","20","1","1","3","1","","0","1","0","null","","","<div class = 'row'><div class = 'column'><img src = 'category3/CS7.png' width = '70%;'></div><div class = 'column'><img src = 'uspos/4625.bmp' width = '100%;'></div></div>","null","pos","CS","CS","3","category3/CS7.png","","","","",""
"","html-keyboard-response","77","339334","0.0-6.0-6.0-0.8","ru82zmccpt","one_one","1","indirect_first","0","hn08er24","0","20","1","1","3","1","","0","1","0","null","","","<div class = 'row'><div class = 'column'><img src = 'usneg/9041.bmp' width = '100%;'></div><div class = 'column'><img src = 'category1/CS7.png' width = '70%;'></div></div>","null","neg","CS","CS","1","category1/CS7.png","","","","",""
"","html-keyboard-response","78","341840","0.0-6.0-6.0-0.9","ru82zmccpt","one_one","1","indirect_first","0","hn08er24","0","20","1","1","3","1","","0","1","0","null","","","<div class = 'row'><div class = 'column'><img src = 'uspos/1440.bmp' width = '100%;'></div><div class = 'column'><img src = 'category2/CS1.png' width = '70%;'></div></div>","null","pos","CS","CS","2","category2/CS1.png","","","","",""
"","html-keyboard-response","79","344346","0.0-6.0-6.0-0.10","ru82zmccpt","one_one","1","indirect_first","0","hn08er24","0","20","1","1","3","1","","0","1","0","null","","","<div class = 'row'><div class = 'column'><img src = 'category4/CS2.png' width = '70%;'></div><div class = 'column'><img src = 'usneg/6570.1.bmp' width = '100%;'></div></div>","null","neg","CS","CS","4","category4/CS2.png","","","","",""
"","html-keyboard-response","80","346852","0.0-6.0-6.0-0.11","ru82zmccpt","one_one","1","indirect_first","0","hn08er24","0","20","1","1","3","1","","0","1","0","null","","","<div class = 'row'><div class = 'column'><img src = 'uspos/4625.bmp' width = '100%;'></div><div class = 'column'><img src = 'category3/CS7.png' width = '70%;'></div></div>","null","pos","CS","CS","3","category3/CS7.png","","","","",""
"","html-keyboard-response","81","349358","0.0-6.0-6.0-0.12","ru82zmccpt","one_one","1","indirect_first","0","hn08er24","0","20","1","1","3","1","","0","1","0","null","","","<div class = 'row'><div class = 'column'><img src = 'uspos/1440.bmp' width = '100%;'></div><div class = 'column'><img src = 'category2/CS1.png' width = '70%;'></div></div>","null","pos","CS","CS","2","category2/CS1.png","","","","",""
"","html-keyboard-response","82","351863","0.0-6.0-6.0-0.13","ru82zmccpt","one_one","1","indirect_first","0","hn08er24","0","20","1","1","3","1","","0","1","0","null","","","<div class = 'row'><div class = 'column'><img src = 'usneg/9041.bmp' width = '100%;'></div><div class = 'column'><img src = 'category1/CS7.png' width = '70%;'></div></div>","null","neg","CS","CS","1","category1/CS7.png","","","","",""
"","html-keyboard-response","83","354369","0.0-6.0-6.0-0.14","ru82zmccpt","one_one","1","indirect_first","0","hn08er24","0","20","1","1","3","1","","0","1","0","null","","","<div class = 'row'><div class = 'column'><img src = 'uspos/4625.bmp' width = '100%;'></div><div class = 'column'><img src = 'category3/CS7.png' width = '70%;'></div></div>","null","pos","CS","CS","3","category3/CS7.png","","","","",""
"","html-keyboard-response","84","356874","0.0-6.0-6.0-0.15","ru82zmccpt","one_one","1","indirect_first","0","hn08er24","0","20","1","1","3","1","","0","1","0","null","","","<div class = 'row'><div class = 'column'><img src = 'usneg/6570.1.bmp' width = '100%;'></div><div class = 'column'><img src = 'category4/CS2.png' width = '70%;'></div></div>","null","neg","CS","CS","4","category4/CS2.png","","","","",""
"","html-keyboard-response","85","359379","0.0-6.0-6.0-0.16","ru82zmccpt","one_one","1","indirect_first","0","hn08er24","0","20","1","1","3","1","","0","1","0","null","","","<div class = 'row'><div class = 'column'><img src = 'category3/CS7.png' width = '70%;'></div><div class = 'column'><img src = 'uspos/4625.bmp' width = '100%;'></div></div>","null","pos","CS","CS","3","category3/CS7.png","","","","",""
"","html-keyboard-response","86","361887","0.0-6.0-6.0-0.17","ru82zmccpt","one_one","1","indirect_first","0","hn08er24","0","20","1","1","3","1","","0","1","0","null","","","<div class = 'row'><div class = 'column'><img src = 'uspos/1440.bmp' width = '100%;'></div><div class = 'column'><img src = 'category2/CS1.png' width = '70%;'></div></div>","null","pos","CS","CS","2","category2/CS1.png","","","","",""
"","html-keyboard-response","87","364392","0.0-6.0-6.0-0.18","ru82zmccpt","one_one","1","indirect_first","0","hn08er24","0","20","1","1","3","1","","0","1","0","null","","","<div class = 'row'><div class = 'column'><img src = 'usneg/9041.bmp' width = '100%;'></div><div class = 'column'><img src = 'category1/CS7.png' width = '70%;'></div></div>","null","neg","CS","CS","1","category1/CS7.png","","","","",""
"","html-keyboard-response","88","366897","0.0-6.0-6.0-0.19","ru82zmccpt","one_one","1","indirect_first","0","hn08er24","0","20","1","1","3","1","","0","1","0","null","","","<div class = 'row'><div class = 'column'><img src = 'category4/CS2.png' width = '70%;'></div><div class = 'column'><img src = 'usneg/6570.1.bmp' width = '100%;'></div></div>","null","neg","CS","CS","4","category4/CS2.png","","","","",""
"","html-keyboard-response","89","387417","0.0-7.0","ru82zmccpt","one_one","1","indirect_first","0","hn08er24","0","20","1","1","3","1","","0","1","0","20016.099999891594","","","<p>Sie sehen nun die chinesischen Zeichen nur ganz kurz. Danach sehen Sie die jeweilige Aussprache der Zeichen als Silbe auf dem Bildschrim. Ihre Aufgabe ist es, für jede Silbe anzugeben, ob diese etwas angenehmes, oder unangenehmes bedeuten könnte. Verlassen Sie sich hier vor allem auf Ihre Intuition.<br><br>Die Zeichen werden nur zur Orientierung dargestellt, beachten Sie sie deshalb nicht. Konzentrieren Sie sich vor allem auf die Silben. <br>Reagieren Sie mit folgenden zwei Tasten: <br><br><b>'D' </b> wenn die Silbe etwas <b>unangenehmes</b> bedeuten könnte. <br><b>'K'</b> wenn die Silbe etwas <b>angenehmes</b> bedeuten könnte. <br><br>Bitte legen Sie nun den Zeigefinger der linken Hand auf die Taste 'D' und den Zeigefinger der rechten Hand auf die Taste 'K'. <br>Reagieren Sie auf jede Silbe so schnell wie möglich. Uns interessiert Ihre spontane Reaktion. <br> <br> <br>Drücken Sie 'D' oder 'K', um die nächste Aufgabe zu starten. </p>","75","","","","","","","","","",""
"","html-keyboard-response","90","390421","0.0-8.0-0.0","ru82zmccpt","one_one","1","indirect_first","0","hn08er24","0","20","1","1","3","1","","0","1","0","null","","","<div style=""font-size:60px;"">+</div>","null","","","","","","","","","",""
"","html-keyboard-response","91","390513","0.0-8.0-1.0","ru82zmccpt","one_one","1","indirect_first","0","hn08er24","0","20","1","1","3","1","","0","1","0","null","","","<img src = 'category1/CS8.png' width = '100%;'>","null","","","","","","","","","",""
"","html-keyboard-response","92","390766","0.0-8.0-2.0","ru82zmccpt","one_one","1","indirect_first","0","hn08er24","0","20","1","1","3","1","","0","1","0","null","","","<img src = 'targets/20.png' width = '100%;'>","null","","","","","","","","","",""
"","html-keyboard-response","93","395981","0.0-8.0-3.0","ru82zmccpt","one_one","1","indirect_first","0","hn08er24","0","20","1","1","3","1","","0","1","0","5212.185000069439","","","<img src = 'targets/mask.png' width = '100%;'>","75","neg","GS","GSold","1","category1/CS8.png","targets/20.png","1","indirect","0",""
"","html-keyboard-response","94","397488","0.0-8.0-0.1","ru82zmccpt","one_one","1","indirect_first","0","hn08er24","0","20","1","1","3","1","","0","1","0","null","","","<div style=""font-size:60px;"">+</div>","null","","","","","","","","","",""
"","html-keyboard-response","95","397597","0.0-8.0-1.1","ru82zmccpt","one_one","1","indirect_first","0","hn08er24","0","20","1","1","3","1","","0","1","0","null","","","<img src = 'category3/CS7.png' width = '100%;'>","null","","","","","","","","","",""
"","html-keyboard-response","96","397877","0.0-8.0-2.1","ru82zmccpt","one_one","1","indirect_first","0","hn08er24","0","20","1","1","3","1","","0","1","0","null","","","<img src = 'targets/22.png' width = '100%;'>","null","","","","","","","","","",""
"","html-keyboard-response","97","399661","0.0-8.0-3.1","ru82zmccpt","one_one","1","indirect_first","0","hn08er24","0","20","1","1","3","1","","0","1","0","1782.3250000365078","","","<img src = 'targets/mask.png' width = '100%;'>","75","pos","CS","CS","3","category3/CS7.png","targets/22.png","1","indirect","1",""
"","html-keyboard-response","98","401168","0.0-8.0-0.2","ru82zmccpt","one_one","1","indirect_first","0","hn08er24","0","20","1","1","3","1","","0","1","0","null","","","<div style=""font-size:60px;"">+</div>","null","","","","","","","","","",""
"","html-keyboard-response","99","401260","0.0-8.0-1.2","ru82zmccpt","one_one","1","indirect_first","0","hn08er24","0","20","1","1","3","1","","0","1","0","null","","","<img src = 'category4/CS8.png' width = '100%;'>","null","","","","","","","","","",""
"","html-keyboard-response","100","401514","0.0-8.0-2.2","ru82zmccpt","one_one","1","indirect_first","0","hn08er24","0","20","1","1","3","1","","0","1","0","null","","","<img src = 'targets/30.png' width = '100%;'>","null","","","","","","","","","",""
"","html-keyboard-response","101","403333","0.0-8.0-3.2","ru82zmccpt","one_one","1","indirect_first","0","hn08er24","0","20","1","1","3","1","","0","1","0","1815.8500001300126","","","<img src = 'targets/mask.png' width = '100%;'>","75","neg","GS","GSold","4","category4/CS8.png","targets/30.png","1","indirect","2",""
"","html-keyboard-response","102","404835","0.0-8.0-0.3","ru82zmccpt","one_one","1","indirect_first","0","hn08er24","0","20","1","1","3","1","","0","1","0","null","","","<div style=""font-size:60px;"">+</div>","null","","","","","","","","","",""
"","html-keyboard-response","103","404928","0.0-8.0-1.3","ru82zmccpt","one_one","1","indirect_first","0","hn08er24","0","20","1","1","3","1","","0","1","0","null","","","<img src = 'category4/CS2.png' width = '100%;'>","null","","","","","","","","","",""
"","html-keyboard-response","104","405182","0.0-8.0-2.3","ru82zmccpt","one_one","1","indirect_first","0","hn08er24","0","20","1","1","3","1","","0","1","0","null","","","<img src = 'targets/8.png' width = '100%;'>","null","","","","","","","","","",""
"","html-keyboard-response","105","405975","0.0-8.0-3.3","ru82zmccpt","one_one","1","indirect_first","0","hn08er24","0","20","1","1","3","1","","0","1","0","790.999999968335","","","<img src = 'targets/mask.png' width = '100%;'>","68","neg","CS","CS","4","category4/CS2.png","targets/8.png","0","indirect","3",""
"","html-keyboard-response","106","407489","0.0-8.0-0.4","ru82zmccpt","one_one","1","indirect_first","0","hn08er24","0","20","1","1","3","1","","0","1","0","null","","","<div style=""font-size:60px;"">+</div>","null","","","","","","","","","",""
"","html-keyboard-response","107","407582","0.0-8.0-1.4","ru82zmccpt","one_one","1","indirect_first","0","hn08er24","0","20","1","1","3","1","","0","1","0","null","","","<img src = 'category3/CS6.png' width = '100%;'>","null","","","","","","","","","",""
"","html-keyboard-response","108","407836","0.0-8.0-2.4","ru82zmccpt","one_one","1","indirect_first","0","hn08er24","0","20","1","1","3","1","","0","1","0","null","","","<img src = 'targets/37.png' width = '100%;'>","null","","","","","","","","","",""
"","html-keyboard-response","109","408958","0.0-8.0-3.4","ru82zmccpt","one_one","1","indirect_first","0","hn08er24","0","20","1","1","3","1","","0","1","0","1119.5799999404699","","","<img src = 'targets/mask.png' width = '100%;'>","75","pos","GS","GSold","3","category3/CS6.png","targets/37.png","1","indirect","4",""
"","html-keyboard-response","110","410461","0.0-8.0-0.5","ru82zmccpt","one_one","1","indirect_first","0","hn08er24","0","20","1","1","3","1","","0","1","0","null","","","<div style=""font-size:60px;"">+</div>","null","","","","","","","","","",""
"","html-keyboard-response","111","410554","0.0-8.0-1.5","ru82zmccpt","one_one","1","indirect_first","0","hn08er24","0","20","1","1","3","1","","0","1","0","null","","","<img src = 'category4/CS10.png' width = '100%;'>","null","","","","","","","","","",""
"","html-keyboard-response","112","410807","0.0-8.0-2.5","ru82zmccpt","one_one","1","indirect_first","0","hn08er24","0","20","1","1","3","1","","0","1","0","null","","","<img src = 'targets/42.png' width = '100%;'>","null","","","","","","","","","",""
"","html-keyboard-response","113","412028","0.0-8.0-3.5","ru82zmccpt","one_one","1","indirect_first","0","hn08er24","0","20","1","1","3","1","","0","1","0","1218.7449999619275","","","<img src = 'targets/mask.png' width = '100%;'>","75","neg","GS","GSold","4","category4/CS10.png","targets/42.png","1","indirect","5",""
"","html-keyboard-response","114","413531","0.0-8.0-0.6","ru82zmccpt","one_one","1","indirect_first","0","hn08er24","0","20","1","1","3","1","","0","1","0","null","","","<div style=""font-size:60px;"">+</div>","null","","","","","","","","","",""
"","html-keyboard-response","115","413623","0.0-8.0-1.6","ru82zmccpt","one_one","1","indirect_first","0","hn08er24","0","20","1","1","3","1","","0","1","0","null","","","<img src = 'category3/CS4.png' width = '100%;'>","null","","","","","","","","","",""
"","html-keyboard-response","116","413876","0.0-8.0-2.6","ru82zmccpt","one_one","1","indirect_first","0","hn08er24","0","20","1","1","3","1","","0","1","0","null","","","<img src = 'targets/2.png' width = '100%;'>","null","","","","","","","","","",""
"","html-keyboard-response","117","415187","0.0-8.0-3.6","ru82zmccpt","one_one","1","indirect_first","0","hn08er24","0","20","1","1","3","1","","0","1","0","1307.4799999594688","","","<img src = 'targets/mask.png' width = '100%;'>","75","pos","GS","GSold","3","category3/CS4.png","targets/2.png","1","indirect","6",""
"","html-keyboard-response","118","416691","0.0-8.0-0.7","ru82zmccpt","one_one","1","indirect_first","0","hn08er24","0","20","1","1","3","1","","0","1","0","null","","","<div style=""font-size:60px;"">+</div>","null","","","","","","","","","",""
"","html-keyboard-response","119","416783","0.0-8.0-1.7","ru82zmccpt","one_one","1","indirect_first","0","hn08er24","0","20","1","1","3","1","","0","1","0","null","","","<img src = 'category1/CS7.png' width = '100%;'>","null","","","","","","","","","",""
"","html-keyboard-response","120","417037","0.0-8.0-2.7","ru82zmccpt","one_one","1","indirect_first","0","hn08er24","0","20","1","1","3","1","","0","1","0","null","","","<img src = 'targets/26.png' width = '100%;'>","null","","","","","","","","","",""
"","html-keyboard-response","121","417978","0.0-8.0-3.7","ru82zmccpt","one_one","1","indirect_first","0","hn08er24","0","20","1","1","3","1","","0","1","0","937.6600000541657","","","<img src = 'targets/mask.png' width = '100%;'>","75","neg","CS","CS","1","category1/CS7.png","targets/26.png","1","indirect","7",""
"","html-keyboard-response","122","419481","0.0-8.0-0.8","ru82zmccpt","one_one","1","indirect_first","0","hn08er24","0","20","1","1","3","1","","0","1","0","null","","","<div style=""font-size:60px;"">+</div>","null","","","","","","","","","",""
"","html-keyboard-response","123","419574","0.0-8.0-1.8","ru82zmccpt","one_one","1","indirect_first","0","hn08er24","0","20","1","1","3","1","","0","1","0","null","","","<img src = 'category2/CS1.png' width = '100%;'>","null","","","","","","","","","",""
"","html-keyboard-response","124","419828","0.0-8.0-2.8","ru82zmccpt","one_one","1","indirect_first","0","hn08er24","0","20","1","1","3","1","","0","1","0","null","","","<img src = 'targets/39.png' width = '100%;'>","null","","","","","","","","","",""
"","html-keyboard-response","125","420545","0.0-8.0-3.8","ru82zmccpt","one_one","1","indirect_first","0","hn08er24","0","20","1","1","3","1","","0","1","0","714.2300000414252","","","<img src = 'targets/mask.png' width = '100%;'>","75","pos","CS","CS","2","category2/CS1.png","targets/39.png","1","indirect","8",""
"","html-keyboard-response","126","422049","0.0-8.0-0.9","ru82zmccpt","one_one","1","indirect_first","0","hn08er24","0","20","1","1","3","1","","0","1","0","null","","","<div style=""font-size:60px;"">+</div>","null","","","","","","","","","",""
"","html-keyboard-response","127","422142","0.0-8.0-1.9","ru82zmccpt","one_one","1","indirect_first","0","hn08er24","0","20","1","1","3","1","","0","1","0","null","","","<img src = 'category2/CS8.png' width = '100%;'>","null","","","","","","","","","",""
"","html-keyboard-response","128","422394","0.0-8.0-2.9","ru82zmccpt","one_one","1","indirect_first","0","hn08er24","0","20","1","1","3","1","","0","1","0","null","","","<img src = 'targets/47.png' width = '100%;'>","null","","","","","","","","","",""
"","html-keyboard-response","129","423044","0.0-8.0-3.9","ru82zmccpt","one_one","1","indirect_first","0","hn08er24","0","20","1","1","3","1","","0","1","0","647.1400000154972","","","<img src = 'targets/mask.png' width = '100%;'>","75","pos","GS","GSold","2","category2/CS8.png","targets/47.png","1","indirect","9",""
"","html-keyboard-response","130","424547","0.0-8.0-0.10","ru82zmccpt","one_one","1","indirect_first","0","hn08er24","0","20","1","1","3","1","","0","1","0","null","","","<div style=""font-size:60px;"">+</div>","null","","","","","","","","","",""
"","html-keyboard-response","131","424639","0.0-8.0-1.10","ru82zmccpt","one_one","1","indirect_first","0","hn08er24","0","20","1","1","3","1","","0","1","0","null","","","<img src = 'category2/CS7.png' width = '100%;'>","null","","","","","","","","","",""
"","html-keyboard-response","132","424892","0.0-8.0-2.10","ru82zmccpt","one_one","1","indirect_first","0","hn08er24","0","20","1","1","3","1","","0","1","0","null","","","<img src = 'targets/14.png' width = '100%;'>","null","","","","","","","","","",""
"","html-keyboard-response","133","425557","0.0-8.0-3.10","ru82zmccpt","one_one","1","indirect_first","0","hn08er24","0","20","1","1","3","1","","0","1","0","662.6399999950081","","","<img src = 'targets/mask.png' width = '100%;'>","68","pos","GS","GSold","2","category2/CS7.png","targets/14.png","0","indirect","10",""
"","html-keyboard-response","134","427059","0.0-8.0-0.11","ru82zmccpt","one_one","1","indirect_first","0","hn08er24","0","20","1","1","3","1","","0","1","0","null","","","<div style=""font-size:60px;"">+</div>","null","","","","","","","","","",""
"","html-keyboard-response","135","427152","0.0-8.0-1.11","ru82zmccpt","one_one","1","indirect_first","0","hn08er24","0","20","1","1","3","1","","0","1","0","null","","","<img src = 'category2/CS10.png' width = '100%;'>","null","","","","","","","","","",""
"","html-keyboard-response","136","427405","0.0-8.0-2.11","ru82zmccpt","one_one","1","indirect_first","0","hn08er24","0","20","1","1","3","1","","0","1","0","null","","","<img src = 'targets/24.png' width = '100%;'>","null","","","","","","","","","",""
"","html-keyboard-response","137","430146","0.0-8.0-3.11","ru82zmccpt","one_one","1","indirect_first","0","hn08er24","0","20","1","1","3","1","","0","1","0","2738.5299999732524","","","<img src = 'targets/mask.png' width = '100%;'>","68","pos","GS","GSold","2","category2/CS10.png","targets/24.png","0","indirect","11",""
"","html-keyboard-response","138","431648","0.0-8.0-0.12","ru82zmccpt","one_one","1","indirect_first","0","hn08er24","0","20","1","1","3","1","","0","1","0","null","","","<div style=""font-size:60px;"">+</div>","null","","","","","","","","","",""
"","html-keyboard-response","139","431741","0.0-8.0-1.12","ru82zmccpt","one_one","1","indirect_first","0","hn08er24","0","20","1","1","3","1","","0","1","0","null","","","<img src = 'category4/CS1.png' width = '100%;'>","null","","","","","","","","","",""
"","html-keyboard-response","140","431994","0.0-8.0-2.12","ru82zmccpt","one_one","1","indirect_first","0","hn08er24","0","20","1","1","3","1","","0","1","0","null","","","<img src = 'targets/28.png' width = '100%;'>","null","","","","","","","","","",""
"","html-keyboard-response","141","432760","0.0-8.0-3.12","ru82zmccpt","one_one","1","indirect_first","0","hn08er24","0","20","1","1","3","1","","0","1","0","762.8999999724329","","","<img src = 'targets/mask.png' width = '100%;'>","68","neg","GS","GSold","4","category4/CS1.png","targets/28.png","0","indirect","12",""
"","html-keyboard-response","142","434264","0.0-8.0-0.13","ru82zmccpt","one_one","1","indirect_first","0","hn08er24","0","20","1","1","3","1","","0","1","0","null","","","<div style=""font-size:60px;"">+</div>","null","","","","","","","","","",""
"","html-keyboard-response","143","434356","0.0-8.0-1.13","ru82zmccpt","one_one","1","indirect_first","0","hn08er24","0","20","1","1","3","1","","0","1","0","null","","","<img src = 'category3/CS9.png' width = '100%;'>","null","","","","","","","","","",""
"","html-keyboard-response","144","434610","0.0-8.0-2.13","ru82zmccpt","one_one","1","indirect_first","0","hn08er24","0","20","1","1","3","1","","0","1","0","null","","","<img src = 'targets/10.png' width = '100%;'>","null","","","","","","","","","",""
"","html-keyboard-response","145","435423","0.0-8.0-3.13","ru82zmccpt","one_one","1","indirect_first","0","hn08er24","0","20","1","1","3","1","","0","1","0","811.2200000323355","","","<img src = 'targets/mask.png' width = '100%;'>","75","pos","GS","GSold","3","category3/CS9.png","targets/10.png","1","indirect","13",""
"","html-keyboard-response","146","436927","0.0-8.0-0.14","ru82zmccpt","one_one","1","indirect_first","0","hn08er24","0","20","1","1","3","1","","0","1","0","null","","","<div style=""font-size:60px;"">+</div>","null","","","","","","","","","",""
"","html-keyboard-response","147","437022","0.0-8.0-1.14","ru82zmccpt","one_one","1","indirect_first","0","hn08er24","0","20","1","1","3","1","","0","1","0","null","","","<img src = 'category1/CS4.png' width = '100%;'>","null","","","","","","","","","",""
"","html-keyboard-response","148","437275","0.0-8.0-2.14","ru82zmccpt","one_one","1","indirect_first","0","hn08er24","0","20","1","1","3","1","","0","1","0","null","","","<img src = 'targets/33.png' width = '100%;'>","null","","","","","","","","","",""
"","html-keyboard-response","149","437895","0.0-8.0-3.14","ru82zmccpt","one_one","1","indirect_first","0","hn08er24","0","20","1","1","3","1","","0","1","0","617.1849998645484","","","<img src = 'targets/mask.png' width = '100%;'>","75","neg","GS","GSold","1","category1/CS4.png","targets/33.png","1","indirect","14",""
"","html-keyboard-response","150","439400","0.0-8.0-0.15","ru82zmccpt","one_one","1","indirect_first","0","hn08er24","0","20","1","1","3","1","","0","1","0","null","","","<div style=""font-size:60px;"">+</div>","null","","","","","","","","","",""
"","html-keyboard-response","151","439493","0.0-8.0-1.15","ru82zmccpt","one_one","1","indirect_first","0","hn08er24","0","20","1","1","3","1","","0","1","0","null","","","<img src = 'category1/CS3.png' width = '100%;'>","null","","","","","","","","","",""
"","html-keyboard-response","152","439746","0.0-8.0-2.15","ru82zmccpt","one_one","1","indirect_first","0","hn08er24","0","20","1","1","3","1","","0","1","0","null","","","<img src = 'targets/4.png' width = '100%;'>","null","","","","","","","","","",""
"","html-keyboard-response","153","440247","0.0-8.0-3.15","ru82zmccpt","one_one","1","indirect_first","0","hn08er24","0","20","1","1","3","1","","0","1","0","497.7499998640269","","","<img src = 'targets/mask.png' width = '100%;'>","75","neg","GS","GSold","1","category1/CS3.png","targets/4.png","1","indirect","15",""
"","survey-html-form","154","445983","0.0-9.0","ru82zmccpt","one_one","1","indirect_first","0","hn08er24","0","20","1","1","3","1","","0","1","0","5232.895000139251","","{}","","","","","","","","","","","",""
"","html-keyboard-response","155","448987","0.0-10.0-0.0","ru82zmccpt","one_one","1","indirect_first","0","hn08er24","0","20","1","1","3","1","","0","1","0","null","","","<div style=""font-size:60px;"">+</div>","null","","","","","","","","","",""
"","html-keyboard-response","156","449080","0.0-10.0-1.0","ru82zmccpt","one_one","1","indirect_first","0","hn08er24","0","20","1","1","3","1","","0","1","0","null","","","<img src = 'category4/GS2.png' width = '100%;'>","null","","","","","","","","","",""
"","html-keyboard-response","157","449334","0.0-10.0-2.0","ru82zmccpt","one_one","1","indirect_first","0","hn08er24","0","20","1","1","3","1","","0","1","0","null","","","<img src = 'targets/46.png' width = '100%;'>","null","","","","","","","","","",""
"","html-keyboard-response","158","449861","0.0-10.0-3.0","ru82zmccpt","one_one","1","indirect_first","0","hn08er24","0","20","1","1","3","1","","0","1","0","523.4250000212342","","","<img src = 'targets/mask.png' width = '100%;'>","75","neg","GS","GSnew","4","category4/GS2.png","targets/46.png","1","indirect","16",""
"","html-keyboard-response","159","451365","0.0-10.0-0.1","ru82zmccpt","one_one","1","indirect_first","0","hn08er24","0","20","1","1","3","1","","0","1","0","null","","","<div style=""font-size:60px;"">+</div>","null","","","","","","","","","",""
"","html-keyboard-response","160","451458","0.0-10.0-1.1","ru82zmccpt","one_one","1","indirect_first","0","hn08er24","0","20","1","1","3","1","","0","1","0","null","","","<img src = 'category1/GS1.png' width = '100%;'>","null","","","","","","","","","",""
"","html-keyboard-response","161","451711","0.0-10.0-2.1","ru82zmccpt","one_one","1","indirect_first","0","hn08er24","0","20","1","1","3","1","","0","1","0","null","","","<img src = 'targets/44.png' width = '100%;'>","null","","","","","","","","","",""
"","html-keyboard-response","162","452033","0.0-10.0-3.1","ru82zmccpt","one_one","1","indirect_first","0","hn08er24","0","20","1","1","3","1","","0","1","0","318.13000002875924","","","<img src = 'targets/mask.png' width = '100%;'>","75","neg","GS","GSnew","1","category1/GS1.png","targets/44.png","1","indirect","17",""
"","html-keyboard-response","163","453535","0.0-10.0-0.2","ru82zmccpt","one_one","1","indirect_first","0","hn08er24","0","20","1","1","3","1","","0","1","0","null","","","<div style=""font-size:60px;"">+</div>","null","","","","","","","","","",""
"","html-keyboard-response","164","453627","0.0-10.0-1.2","ru82zmccpt","one_one","1","indirect_first","0","hn08er24","0","20","1","1","3","1","","0","1","0","null","","","<img src = 'category2/GS1.png' width = '100%;'>","null","","","","","","","","","",""
"","html-keyboard-response","165","453881","0.0-10.0-2.2","ru82zmccpt","one_one","1","indirect_first","0","hn08er24","0","20","1","1","3","1","","0","1","0","null","","","<img src = 'targets/43.png' width = '100%;'>","null","","","","","","","","","",""
"","html-keyboard-response","166","454665","0.0-10.0-3.2","ru82zmccpt","one_one","1","indirect_first","0","hn08er24","0","20","1","1","3","1","","0","1","0","781.734999967739","","","<img src = 'targets/mask.png' width = '100%;'>","68","pos","GS","GSnew","2","category2/GS1.png","targets/43.png","0","indirect","18",""
"","html-keyboard-response","167","456180","0.0-10.0-0.3","ru82zmccpt","one_one","1","indirect_first","0","hn08er24","0","20","1","1","3","1","","0","1","0","null","","","<div style=""font-size:60px;"">+</div>","null","","","","","","","","","",""
"","html-keyboard-response","168","456274","0.0-10.0-1.3","ru82zmccpt","one_one","1","indirect_first","0","hn08er24","0","20","1","1","3","1","","0","1","0","null","","","<img src = 'category1/GS2.png' width = '100%;'>","null","","","","","","","","","",""
"","html-keyboard-response","169","456526","0.0-10.0-2.3","ru82zmccpt","one_one","1","indirect_first","0","hn08er24","0","20","1","1","3","1","","0","1","0","null","","","<img src = 'targets/32.png' width = '100%;'>","null","","","","","","","","","",""
"","html-keyboard-response","170","456994","0.0-10.0-3.3","ru82zmccpt","one_one","1","indirect_first","0","hn08er24","0","20","1","1","3","1","","0","1","0","466.00000001490116","","","<img src = 'targets/mask.png' width = '100%;'>","75","neg","GS","GSnew","1","category1/GS2.png","targets/32.png","1","indirect","19",""
"","html-keyboard-response","171","458497","0.0-10.0-0.4","ru82zmccpt","one_one","1","indirect_first","0","hn08er24","0","20","1","1","3","1","","0","1","0","null","","","<div style=""font-size:60px;"">+</div>","null","","","","","","","","","",""
"","html-keyboard-response","172","458589","0.0-10.0-1.4","ru82zmccpt","one_one","1","indirect_first","0","hn08er24","0","20","1","1","3","1","","0","1","0","null","","","<img src = 'category3/GS2.png' width = '100%;'>","null","","","","","","","","","",""
"","html-keyboard-response","173","458842","0.0-10.0-2.4","ru82zmccpt","one_one","1","indirect_first","0","hn08er24","0","20","1","1","3","1","","0","1","0","null","","","<img src = 'targets/25.png' width = '100%;'>","null","","","","","","","","","",""
"","html-keyboard-response","174","459311","0.0-10.0-3.4","ru82zmccpt","one_one","1","indirect_first","0","hn08er24","0","20","1","1","3","1","","0","1","0","467.18999999575317","","","<img src = 'targets/mask.png' width = '100%;'>","75","pos","GS","GSnew","3","category3/GS2.png","targets/25.png","1","indirect","20",""
"","html-keyboard-response","175","460813","0.0-10.0-0.5","ru82zmccpt","one_one","1","indirect_first","0","hn08er24","0","20","1","1","3","1","","0","1","0","null","","","<div style=""font-size:60px;"">+</div>","null","","","","","","","","","",""
"","html-keyboard-response","176","460906","0.0-10.0-1.5","ru82zmccpt","one_one","1","indirect_first","0","hn08er24","0","20","1","1","3","1","","0","1","0","null","","","<img src = 'category4/GS1.png' width = '100%;'>","null","","","","","","","","","",""
"","html-keyboard-response","177","461160","0.0-10.0-2.5","ru82zmccpt","one_one","1","indirect_first","0","hn08er24","0","20","1","1","3","1","","0","1","0","null","","","<img src = 'targets/5.png' width = '100%;'>","null","","","","","","","","","",""
"","html-keyboard-response","178","461799","0.0-10.0-3.5","ru82zmccpt","one_one","1","indirect_first","0","hn08er24","0","20","1","1","3","1","","0","1","0","636.4899999462068","","","<img src = 'targets/mask.png' width = '100%;'>","68","neg","GS","GSnew","4","category4/GS1.png","targets/5.png","0","indirect","21",""
"","html-keyboard-response","179","463302","0.0-10.0-0.6","ru82zmccpt","one_one","1","indirect_first","0","hn08er24","0","20","1","1","3","1","","0","1","0","null","","","<div style=""font-size:60px;"">+</div>","null","","","","","","","","","",""
"","html-keyboard-response","180","463403","0.0-10.0-1.6","ru82zmccpt","one_one","1","indirect_first","0","hn08er24","0","20","1","1","3","1","","0","1","0","null","","","<img src = 'category2/GS3.png' width = '100%;'>","null","","","","","","","","","",""
"","html-keyboard-response","181","463657","0.0-10.0-2.6","ru82zmccpt","one_one","1","indirect_first","0","hn08er24","0","20","1","1","3","1","","0","1","0","null","","","<img src = 'targets/41.png' width = '100%;'>","null","","","","","","","","","",""
"","html-keyboard-response","182","464137","0.0-10.0-3.6","ru82zmccpt","one_one","1","indirect_first","0","hn08er24","0","20","1","1","3","1","","0","1","0","476.8700001295656","","","<img src = 'targets/mask.png' width = '100%;'>","68","pos","GS","GSnew","2","category2/GS3.png","targets/41.png","0","indirect","22",""
"","html-keyboard-response","183","465639","0.0-10.0-0.7","ru82zmccpt","one_one","1","indirect_first","0","hn08er24","0","20","1","1","3","1","","0","1","0","null","","","<div style=""font-size:60px;"">+</div>","null","","","","","","","","","",""
"","html-keyboard-response","184","465732","0.0-10.0-1.7","ru82zmccpt","one_one","1","indirect_first","0","hn08er24","0","20","1","1","3","1","","0","1","0","null","","","<img src = 'category3/wang.png' width = '100%;'>","null","","","","","","","","","",""
"","html-keyboard-response","185","465984","0.0-10.0-2.7","ru82zmccpt","one_one","1","indirect_first","0","hn08er24","0","20","1","1","3","1","","0","1","0","null","","","<img src = 'targets/48.png' width = '100%;'>","null","","","","","","","","","",""
"","html-keyboard-response","186","468454","0.0-10.0-3.7","ru82zmccpt","one_one","1","indirect_first","0","hn08er24","0","20","1","1","3","1","","0","1","0","2466.620000079274","","","<img src = 'targets/mask.png' width = '100%;'>","75","pos","GS","abstract","3","category3/wang.png","targets/48.png","1","indirect","23",""
"","html-keyboard-response","187","469958","0.0-10.0-0.8","ru82zmccpt","one_one","1","indirect_first","0","hn08er24","0","20","1","1","3","1","","0","1","0","null","","","<div style=""font-size:60px;"">+</div>","null","","","","","","","","","",""
"","html-keyboard-response","188","470050","0.0-10.0-1.8","ru82zmccpt","one_one","1","indirect_first","0","hn08er24","0","20","1","1","3","1","","0","1","0","null","","","<img src = 'category1/GS3.png' width = '100%;'>","null","","","","","","","","","",""
"","html-keyboard-response","189","470305","0.0-10.0-2.8","ru82zmccpt","one_one","1","indirect_first","0","hn08er24","0","20","1","1","3","1","","0","1","0","null","","","<img src = 'targets/35.png' width = '100%;'>","null","","","","","","","","","",""
"","html-keyboard-response","190","470746","0.0-10.0-3.8","ru82zmccpt","one_one","1","indirect_first","0","hn08er24","0","20","1","1","3","1","","0","1","0","437.7500000409782","","","<img src = 'targets/mask.png' width = '100%;'>","75","neg","GS","GSnew","1","category1/GS3.png","targets/35.png","1","indirect","24",""
"","html-keyboard-response","191","472250","0.0-10.0-0.9","ru82zmccpt","one_one","1","indirect_first","0","hn08er24","0","20","1","1","3","1","","0","1","0","null","","","<div style=""font-size:60px;"">+</div>","null","","","","","","","","","",""
"","html-keyboard-response","192","472345","0.0-10.0-1.9","ru82zmccpt","one_one","1","indirect_first","0","hn08er24","0","20","1","1","3","1","","0","1","0","null","","","<img src = 'category4/GS3.png' width = '100%;'>","null","","","","","","","","","",""
"","html-keyboard-response","193","472598","0.0-10.0-2.9","ru82zmccpt","one_one","1","indirect_first","0","hn08er24","0","20","1","1","3","1","","0","1","0","null","","","<img src = 'targets/40.png' width = '100%;'>","null","","","","","","","","","",""
"","html-keyboard-response","194","472860","0.0-10.0-3.9","ru82zmccpt","one_one","1","indirect_first","0","hn08er24","0","20","1","1","3","1","","0","1","0","259.4850000459701","","","<img src = 'targets/mask.png' width = '100%;'>","75","neg","GS","GSnew","4","category4/GS3.png","targets/40.png","1","indirect","25",""
"","html-keyboard-response","195","474363","0.0-10.0-0.10","ru82zmccpt","one_one","1","indirect_first","0","hn08er24","0","20","1","1","3","1","","0","1","0","null","","","<div style=""font-size:60px;"">+</div>","null","","","","","","","","","",""
"","html-keyboard-response","196","474455","0.0-10.0-1.10","ru82zmccpt","one_one","1","indirect_first","0","hn08er24","0","20","1","1","3","1","","0","1","0","null","","","<img src = 'category4/lin.png' width = '100%;'>","null","","","","","","","","","",""
"","html-keyboard-response","197","474720","0.0-10.0-2.10","ru82zmccpt","one_one","1","indirect_first","0","hn08er24","0","20","1","1","3","1","","0","1","0","null","","","<img src = 'targets/6.png' width = '100%;'>","null","","","","","","","","","",""
"","html-keyboard-response","198","476872","0.0-10.0-3.10","ru82zmccpt","one_one","1","indirect_first","0","hn08er24","0","20","1","1","3","1","","0","1","0","2149.5900000445545","","","<img src = 'targets/mask.png' width = '100%;'>","75","neg","GS","abstract","4","category4/lin.png","targets/6.png","1","indirect","26",""
"","html-keyboard-response","199","478374","0.0-10.0-0.11","ru82zmccpt","one_one","1","indirect_first","0","hn08er24","0","20","1","1","3","1","","0","1","0","null","","","<div style=""font-size:60px;"">+</div>","null","","","","","","","","","",""
"","html-keyboard-response","200","478467","0.0-10.0-1.11","ru82zmccpt","one_one","1","indirect_first","0","hn08er24","0","20","1","1","3","1","","0","1","0","null","","","<img src = 'category2/men.png' width = '100%;'>","null","","","","","","","","","",""
"","html-keyboard-response","201","478720","0.0-10.0-2.11","ru82zmccpt","one_one","1","indirect_first","0","hn08er24","0","20","1","1","3","1","","0","1","0","null","","","<img src = 'targets/21.png' width = '100%;'>","null","","","","","","","","","",""
"","html-keyboard-response","202","479262","0.0-10.0-3.11","ru82zmccpt","one_one","1","indirect_first","0","hn08er24","0","20","1","1","3","1","","0","1","0","537.6549998763949","","","<img src = 'targets/mask.png' width = '100%;'>","68","pos","GS","abstract","2","category2/men.png","targets/21.png","0","indirect","27",""
"","html-keyboard-response","203","480764","0.0-10.0-0.12","ru82zmccpt","one_one","1","indirect_first","0","hn08er24","0","20","1","1","3","1","","0","1","0","null","","","<div style=""font-size:60px;"">+</div>","null","","","","","","","","","",""
"","html-keyboard-response","204","480856","0.0-10.0-1.12","ru82zmccpt","one_one","1","indirect_first","0","hn08er24","0","20","1","1","3","1","","0","1","0","null","","","<img src = 'category2/GS2.png' width = '100%;'>","null","","","","","","","","","",""
"","html-keyboard-response","205","481120","0.0-10.0-2.12","ru82zmccpt","one_one","1","indirect_first","0","hn08er24","0","20","1","1","3","1","","0","1","0","null","","","<img src = 'targets/11.png' width = '100%;'>","null","","","","","","","","","",""
"","html-keyboard-response","206","481740","0.0-10.0-3.12","ru82zmccpt","one_one","1","indirect_first","0","hn08er24","0","20","1","1","3","1","","0","1","0","617.3000000417233","","","<img src = 'targets/mask.png' width = '100%;'>","68","pos","GS","GSnew","2","category2/GS2.png","targets/11.png","0","indirect","28",""
"","html-keyboard-response","207","483242","0.0-10.0-0.13","ru82zmccpt","one_one","1","indirect_first","0","hn08er24","0","20","1","1","3","1","","0","1","0","null","","","<div style=""font-size:60px;"">+</div>","null","","","","","","","","","",""
"","html-keyboard-response","208","483335","0.0-10.0-1.13","ru82zmccpt","one_one","1","indirect_first","0","hn08er24","0","20","1","1","3","1","","0","1","0","null","","","<img src = 'category3/GS3.png' width = '100%;'>","null","","","","","","","","","",""
"","html-keyboard-response","209","483589","0.0-10.0-2.13","ru82zmccpt","one_one","1","indirect_first","0","hn08er24","0","20","1","1","3","1","","0","1","0","null","","","<img src = 'targets/19.png' width = '100%;'>","null","","","","","","","","","",""
"","html-keyboard-response","210","484007","0.0-10.0-3.13","ru82zmccpt","one_one","1","indirect_first","0","hn08er24","0","20","1","1","3","1","","0","1","0","414.79500010609627","","","<img src = 'targets/mask.png' width = '100%;'>","75","pos","GS","GSnew","3","category3/GS3.png","targets/19.png","1","indirect","29",""
"","html-keyboard-response","211","485511","0.0-10.0-0.14","ru82zmccpt","one_one","1","indirect_first","0","hn08er24","0","20","1","1","3","1","","0","1","0","null","","","<div style=""font-size:60px;"">+</div>","null","","","","","","","","","",""
"","html-keyboard-response","212","485602","0.0-10.0-1.14","ru82zmccpt","one_one","1","indirect_first","0","hn08er24","0","20","1","1","3","1","","0","1","0","null","","","<img src = 'category1/ma.png' width = '100%;'>","null","","","","","","","","","",""
"","html-keyboard-response","213","485857","0.0-10.0-2.14","ru82zmccpt","one_one","1","indirect_first","0","hn08er24","0","20","1","1","3","1","","0","1","0","null","","","<img src = 'targets/29.png' width = '100%;'>","null","","","","","","","","","",""
"","html-keyboard-response","214","486736","0.0-10.0-3.14","ru82zmccpt","one_one","1","indirect_first","0","hn08er24","0","20","1","1","3","1","","0","1","0","876.2199999764562","","","<img src = 'targets/mask.png' width = '100%;'>","75","neg","GS","abstract","1","category1/ma.png","targets/29.png","1","indirect","30",""
"","html-keyboard-response","215","488240","0.0-10.0-0.15","ru82zmccpt","one_one","1","indirect_first","0","hn08er24","0","20","1","1","3","1","","0","1","0","null","","","<div style=""font-size:60px;"">+</div>","null","","","","","","","","","",""
"","html-keyboard-response","216","488333","0.0-10.0-1.15","ru82zmccpt","one_one","1","indirect_first","0","hn08er24","0","20","1","1","3","1","","0","1","0","null","","","<img src = 'category3/GS1.png' width = '100%;'>","null","","","","","","","","","",""
"","html-keyboard-response","217","488587","0.0-10.0-2.15","ru82zmccpt","one_one","1","indirect_first","0","hn08er24","0","20","1","1","3","1","","0","1","0","null","","","<img src = 'targets/7.png' width = '100%;'>","null","","","","","","","","","",""
"","html-keyboard-response","218","490730","0.0-10.0-3.15","ru82zmccpt","one_one","1","indirect_first","0","hn08er24","0","20","1","1","3","1","","0","1","0","2141.3050000555813","","","<img src = 'targets/mask.png' width = '100%;'>","75","pos","GS","GSnew","3","category3/GS1.png","targets/7.png","1","indirect","31",""
"","survey-html-form","219","497517","0.0-11.0","ru82zmccpt","one_one","1","indirect_first","0","hn08er24","0","20","1","1","3","1","","0","1","0","6284.505000105128","","{}","","","","","","","","","","","",""
"","image-slider-response","220","505201","0.0-12.0-0.0","ru82zmccpt","one_one","1","indirect_first","0","hn08er24","0","20","1","1","3","1","","0","1","0","5668.840000173077","","","","","pos","GS","GSold","3","category3/CS4.png","targets/2.png","","direct","","66"
"","image-slider-response","221","510166","0.0-12.0-0.1","ru82zmccpt","one_one","1","indirect_first","0","hn08er24","0","20","1","1","3","1","","0","1","0","4957.57000008598","","","","","neg","CS","CS","1","category1/CS7.png","targets/26.png","","direct","","-27"
"","image-slider-response","222","514639","0.0-12.0-0.2","ru82zmccpt","one_one","1","indirect_first","0","hn08er24","0","20","1","1","3","1","","0","1","0","4467.994999838993","","","","","pos","GS","GSold","2","category2/CS7.png","targets/14.png","","direct","","79"
"","image-slider-response","223","518480","0.0-12.0-0.3","ru82zmccpt","one_one","1","indirect_first","0","hn08er24","0","20","1","1","3","1","","0","1","0","3836.9100000709295","","","","","pos","GS","GSnew","2","category2/GS3.png","targets/41.png","","direct","","2"
"","image-slider-response","224","523403","0.0-12.0-0.4","ru82zmccpt","one_one","1","indirect_first","0","hn08er24","0","20","1","1","3","1","","0","1","0","4917.219999944791","","","","","pos","GS","GSold","3","category3/CS9.png","targets/10.png","","direct","","31"
"","image-slider-response","225","526419","0.0-12.0-0.5","ru82zmccpt","one_one","1","indirect_first","0","hn08er24","0","20","1","1","3","1","","0","1","0","3011.7950001731515","","","","","pos","GS","GSnew","3","category3/GS2.png","targets/25.png","","direct","","26"
"","image-slider-response","226","529424","0.0-12.0-0.6","ru82zmccpt","one_one","1","indirect_first","0","hn08er24","0","20","1","1","3","1","","0","1","0","3002.0699999295175","","","","","neg","GS","abstract","4","category4/lin.png","targets/6.png","","direct","","-45"
"","image-slider-response","227","532372","0.0-12.0-0.7","ru82zmccpt","one_one","1","indirect_first","0","hn08er24","0","20","1","1","3","1","","0","1","0","2944.7200000286102","","","","","pos","GS","GSnew","3","category3/GS3.png","targets/19.png","","direct","","34"
"","image-slider-response","228","538777","0.0-12.0-0.8","ru82zmccpt","one_one","1","indirect_first","0","hn08er24","0","20","1","1","3","1","","0","1","0","6401.745000155643","","","","","neg","GS","GSold","4","category4/CS8.png","targets/30.png","","direct","","30"
"","image-slider-response","229","545861","0.0-12.0-0.9","ru82zmccpt","one_one","1","indirect_first","0","hn08er24","0","20","1","1","3","1","","0","1","0","7079.900000011548","","","","","pos","GS","GSold","2","category2/CS10.png","targets/24.png","","direct","","36"
"","image-slider-response","230","549164","0.0-12.0-0.10","ru82zmccpt","one_one","1","indirect_first","0","hn08er24","0","20","1","1","3","1","","0","1","0","3297.474999912083","","","","","pos","GS","GSnew","2","category2/GS2.png","targets/11.png","","direct","","-42"
"","image-slider-response","231","552641","0.0-12.0-0.11","ru82zmccpt","one_one","1","indirect_first","0","hn08er24","0","20","1","1","3","1","","0","1","0","3472.844999982044","","","","","neg","GS","GSold","1","category1/CS4.png","targets/33.png","","direct","","-29"
"","image-slider-response","232","555626","0.0-12.0-0.12","ru82zmccpt","one_one","1","indirect_first","0","hn08er24","0","20","1","1","3","1","","0","1","0","2980.8650000486523","","","","","pos","GS","GSnew","3","category3/GS1.png","targets/7.png","","direct","","37"
"","image-slider-response","233","558782","0.0-12.0-0.13","ru82zmccpt","one_one","1","indirect_first","0","hn08er24","0","20","1","1","3","1","","0","1","0","3151.7949998378754","","","","","neg","GS","GSnew","1","category1/GS1.png","targets/44.png","","direct","","24"
"","image-slider-response","234","562394","0.0-12.0-0.14","ru82zmccpt","one_one","1","indirect_first","0","hn08er24","0","20","1","1","3","1","","0","1","0","3607.0600000675768","","","","","pos","GS","GSold","3","category3/CS6.png","targets/37.png","","direct","","75"
"","image-slider-response","235","566150","0.0-12.0-0.15","ru82zmccpt","one_one","1","indirect_first","0","hn08er24","0","20","1","1","3","1","","0","1","0","3751.6599998343736","","","","","neg","GS","GSold","4","category4/CS1.png","targets/28.png","","direct","","-29"
"","image-slider-response","236","569580","0.0-12.0-0.16","ru82zmccpt","one_one","1","indirect_first","0","hn08er24","0","20","1","1","3","1","","0","1","0","3425.624999916181","","","","","pos","CS","CS","2","category2/CS1.png","targets/39.png","","direct","","65"
"","image-slider-response","237","573461","0.0-12.0-0.17","ru82zmccpt","one_one","1","indirect_first","0","hn08er24","0","20","1","1","3","1","","0","1","0","3875.9850000496954","","","","","neg","GS","GSold","1","category1/CS8.png","targets/20.png","","direct","","-37"
"","image-slider-response","238","576737","0.0-12.0-0.18","ru82zmccpt","one_one","1","indirect_first","0","hn08er24","0","20","1","1","3","1","","0","1","0","3272.660000016913","","","","","neg","GS","GSnew","4","category4/GS2.png","targets/46.png","","direct","","-31"
"","image-slider-response","239","582072","0.0-12.0-0.19","ru82zmccpt","one_one","1","indirect_first","0","hn08er24","0","20","1","1","3","1","","0","1","0","5328.694999916479","","","","","neg","GS","GSnew","4","category4/GS3.png","targets/40.png","","direct","","-30"
"","image-slider-response","240","585521","0.0-12.0-0.20","ru82zmccpt","one_one","1","indirect_first","0","hn08er24","0","20","1","1","3","1","","0","1","0","3442.3450001049787","","","","","neg","GS","GSold","4","category4/CS10.png","targets/42.png","","direct","","-33"
"","image-slider-response","241","588675","0.0-12.0-0.21","ru82zmccpt","one_one","1","indirect_first","0","hn08er24","0","20","1","1","3","1","","0","1","0","3148.6750000622123","","","","","neg","CS","CS","4","category4/CS2.png","targets/8.png","","direct","","-49"
"","image-slider-response","242","593117","0.0-12.0-0.22","ru82zmccpt","one_one","1","indirect_first","0","hn08er24","0","20","1","1","3","1","","0","1","0","4436.435000039637","","","","","pos","GS","abstract","2","category2/men.png","targets/21.png","","direct","","-75"
"","image-slider-response","243","596589","0.0-12.0-0.23","ru82zmccpt","one_one","1","indirect_first","0","hn08er24","0","20","1","1","3","1","","0","1","0","3465.479999780655","","","","","neg","GS","GSnew","4","category4/GS1.png","targets/5.png","","direct","","-47"
"","image-slider-response","244","599741","0.0-12.0-0.24","ru82zmccpt","one_one","1","indirect_first","0","hn08er24","0","20","1","1","3","1","","0","1","0","3146.2600000668317","","","","","pos","CS","CS","3","category3/CS7.png","targets/22.png","","direct","","71"
"","image-slider-response","245","602511","0.0-12.0-0.25","ru82zmccpt","one_one","1","indirect_first","0","hn08er24","0","20","1","1","3","1","","0","1","0","2764.6300001069903","","","","","pos","GS","abstract","3","category3/wang.png","targets/48.png","","direct","","40"
"","image-slider-response","246","606347","0.0-12.0-0.26","ru82zmccpt","one_one","1","indirect_first","0","hn08er24","0","20","1","1","3","1","","0","1","0","3833.71499995701","","","","","neg","GS","GSnew","1","category1/GS3.png","targets/35.png","","direct","","21"
"","image-slider-response","247","609132","0.0-12.0-0.27","ru82zmccpt","one_one","1","indirect_first","0","hn08er24","0","20","1","1","3","1","","0","1","0","2781.2049998901784","","","","","pos","GS","GSnew","2","category2/GS1.png","targets/43.png","","direct","","16"
"","image-slider-response","248","613202","0.0-12.0-0.28","ru82zmccpt","one_one","1","indirect_first","0","hn08er24","0","20","1","1","3","1","","0","1","0","4063.9349999837577","","","","","neg","GS","GSnew","1","category1/GS2.png","targets/32.png","","direct","","-42"
"","image-slider-response","249","616379","0.0-12.0-0.29","ru82zmccpt","one_one","1","indirect_first","0","hn08er24","0","20","1","1","3","1","","0","1","0","3171.3000000454485","","","","","pos","GS","GSold","2","category2/CS8.png","targets/47.png","","direct","","23"
"","image-slider-response","250","619197","0.0-12.0-0.30","ru82zmccpt","one_one","1","indirect_first","0","hn08er24","0","20","1","1","3","1","","0","1","0","2811.784999910742","","","","","neg","GS","GSold","1","category1/CS3.png","targets/4.png","","direct","","23"
"","image-slider-response","251","621951","0.0-12.0-0.31","ru82zmccpt","one_one","1","indirect_first","0","hn08er24","0","20","1","1","3","1","","0","1","0","2748.7099999561906","","","","","neg","GS","abstract","1","category1/ma.png","targets/29.png","","direct","","-38"
"","survey-html-form","252","625349","0.0-13.0","ru82zmccpt","one_one","1","indirect_first","0","hn08er24","0","20","1","1","3","1","","0","1","0","3396.110000088811","","{}","","","","","","","","","","","",""
"","image-slider-response","253","637408","0.0-14.0-0.0","ru82zmccpt","one_one","1","indirect_first","0","hn08er24","0","20","1","1","3","1","","0","1","0","11057.104999898002","","","","","neg","All","all","1","category1/ma_all.png","","","all","","24"
"","image-slider-response","254","643818","0.0-14.0-0.1","ru82zmccpt","one_one","1","indirect_first","0","hn08er24","0","20","1","1","3","1","","0","1","0","6403.189999982715","","","","","pos","All","all","2","category2/men_all.png","","","all","","-30"
"","image-slider-response","255","656639","0.0-14.0-0.2","ru82zmccpt","one_one","1","indirect_first","0","hn08er24","0","20","1","1","3","1","","0","1","0","12817.614999832585","","","","","pos","All","all","3","category3/wang_all.png","","","all","","30"
"","image-slider-response","256","660794","0.0-14.0-0.3","ru82zmccpt","one_one","1","indirect_first","0","hn08er24","0","20","1","1","3","1","","0","1","0","4147.624999983236","","","","","neg","All","all","4","category4/lin_all.png","","","all","","-26"
"","survey-text","257","662641","0.0-15.0","ru82zmccpt","one_one","1","indirect_first","0","hn08er24","0","20","1","1","3","1","","0","1","0","1807.8449999447912","","{""comment"":""""}","","","","","","","","","","","",""
"","survey-html-form","258","673654","0.0-16.0","ru82zmccpt","one_one","1","indirect_first","0","hn08er24","0","20","1","1","3","1","","0","1","0","11008.630000054836","","{""hinschauen"":""0"",""ablenkung"":""1"",""gewissenhaft"":""0""}","","","","","","","","","","","",""
