"success","trial_type","trial_index","time_elapsed","internal_node_id","subject","condition","condition_code","measure","measure_code","codeword","gender","age","education","chinese","fach","handedness","comment","hinschauen","ablenkung","gewissenhaft","rt","url","responses","stimulus","key_press","val","type","type_specific","category","cs_selected","response","target","task","indirect","nr_pres"
"true","fullscreen","0","6128","0.0-0.0","jj140azzth","many_one","0","direct_first","1","er06er12","0","23","1","1","3","1","","0","1","0","","","","","","","","","","","","","","",""
"","external-html","1","11344","0.0-1.0","jj140azzth","many_one","0","direct_first","1","er06er12","0","23","1","1","3","1","","0","1","0","5138.610000023618","text/information.html","","","","","","","","","","","","",""
"","external-html","2","32629","0.0-2.0","jj140azzth","many_one","0","direct_first","1","er06er12","0","23","1","1","3","1","","0","1","0","21225.265000015497","text/consent.html","","","","","","","","","","","","",""
"","survey-html-form","3","148127","0.0-3.0","jj140azzth","many_one","0","direct_first","1","er06er12","0","23","1","1","3","1","","0","1","0","115491.85999995098","","{""codeword_enter"":""er06er12""}","","","","","","","","","","","",""
"","survey-html-form","4","168287","0.0-4.0","jj140azzth","many_one","0","direct_first","1","er06er12","0","23","1","1","3","1","","0","1","0","20149.385000113398","","{""age"":""23"",""education"":""1"",""subject"":""3"",""gender"":""0"",""handedness"":""1"",""chinese"":""1""}","","","","","","","","","","","",""
"","survey-html-form","5","182733","0.0-5.0","jj140azzth","many_one","0","direct_first","1","er06er12","0","23","1","1","3","1","","0","1","0","14441.490000113845","","{}","","","","","","","","","","","",""
"","html-keyboard-response","6","186758","0.0-6.0-0.0-0.0","jj140azzth","many_one","0","direct_first","1","er06er12","0","23","1","1","3","1","","0","1","0","null","","","<div class = 'row'><div class = 'column'><img src = 'usneg/2141.bmp' width = '100%;'></div><div class = 'column'><img src = 'category1/CS2.png' width = '70%;'></div></div>","null","neg","CS","CS","1","category1/CS2.png","","","","",""
"","html-keyboard-response","7","189474","0.0-6.0-0.0-0.1","jj140azzth","many_one","0","direct_first","1","er06er12","0","23","1","1","3","1","","0","1","0","null","","","<div class = 'row'><div class = 'column'><img src = 'uspos/8190.bmp' width = '100%;'></div><div class = 'column'><img src = 'category2/CS4.png' width = '70%;'></div></div>","null","pos","CS","CS","2","category2/CS4.png","","","","",""
"","html-keyboard-response","8","192289","0.0-6.0-0.0-0.2","jj140azzth","many_one","0","direct_first","1","er06er12","0","23","1","1","3","1","","0","1","0","null","","","<div class = 'row'><div class = 'column'><img src = 'uspos/4625.bmp' width = '100%;'></div><div class = 'column'><img src = 'category4/CS3.png' width = '70%;'></div></div>","null","pos","CS","CS","4","category4/CS3.png","","","","",""
"","html-keyboard-response","9","195047","0.0-6.0-0.0-0.3","jj140azzth","many_one","0","direct_first","1","er06er12","0","23","1","1","3","1","","0","1","0","null","","","<div class = 'row'><div class = 'column'><img src = 'category3/CS2.png' width = '70%;'></div><div class = 'column'><img src = 'usneg/9220.bmp' width = '100%;'></div></div>","null","neg","CS","CS","3","category3/CS2.png","","","","",""
"","html-keyboard-response","10","197794","0.0-6.0-0.0-0.4","jj140azzth","many_one","0","direct_first","1","er06er12","0","23","1","1","3","1","","0","1","0","null","","","<div class = 'row'><div class = 'column'><img src = 'uspos/7325.bmp' width = '100%;'></div><div class = 'column'><img src = 'category2/CS8.png' width = '70%;'></div></div>","null","pos","CS","CS","2","category2/CS8.png","","","","",""
"","html-keyboard-response","11","200508","0.0-6.0-0.0-0.5","jj140azzth","many_one","0","direct_first","1","er06er12","0","23","1","1","3","1","","0","1","0","null","","","<div class = 'row'><div class = 'column'><img src = 'uspos/7580.bmp' width = '100%;'></div><div class = 'column'><img src = 'category2/CS9.png' width = '70%;'></div></div>","null","pos","CS","CS","2","category2/CS9.png","","","","",""
"","html-keyboard-response","12","203152","0.0-6.0-0.0-0.6","jj140azzth","many_one","0","direct_first","1","er06er12","0","23","1","1","3","1","","0","1","0","null","","","<div class = 'row'><div class = 'column'><img src = 'usneg/7380.bmp' width = '100%;'></div><div class = 'column'><img src = 'category3/CS6.png' width = '70%;'></div></div>","null","neg","CS","CS","3","category3/CS6.png","","","","",""
"","html-keyboard-response","13","205753","0.0-6.0-0.0-0.7","jj140azzth","many_one","0","direct_first","1","er06er12","0","23","1","1","3","1","","0","1","0","null","","","<div class = 'row'><div class = 'column'><img src = 'usneg/3181.bmp' width = '100%;'></div><div class = 'column'><img src = 'category3/CS7.png' width = '70%;'></div></div>","null","neg","CS","CS","3","category3/CS7.png","","","","",""
"","html-keyboard-response","14","208394","0.0-6.0-0.0-0.8","jj140azzth","many_one","0","direct_first","1","er06er12","0","23","1","1","3","1","","0","1","0","null","","","<div class = 'row'><div class = 'column'><img src = 'category3/CS9.png' width = '70%;'></div><div class = 'column'><img src = 'usneg/9182.bmp' width = '100%;'></div></div>","null","neg","CS","CS","3","category3/CS9.png","","","","",""
"","html-keyboard-response","15","210973","0.0-6.0-0.0-0.9","jj140azzth","many_one","0","direct_first","1","er06er12","0","23","1","1","3","1","","0","1","0","null","","","<div class = 'row'><div class = 'column'><img src = 'usneg/9050.bmp' width = '100%;'></div><div class = 'column'><img src = 'category1/CS3.png' width = '70%;'></div></div>","null","neg","CS","CS","1","category1/CS3.png","","","","",""
"","html-keyboard-response","16","213517","0.0-6.0-0.0-0.10","jj140azzth","many_one","0","direct_first","1","er06er12","0","23","1","1","3","1","","0","1","0","null","","","<div class = 'row'><div class = 'column'><img src = 'category2/CS7.png' width = '70%;'></div><div class = 'column'><img src = 'uspos/1710.bmp' width = '100%;'></div></div>","null","pos","CS","CS","2","category2/CS7.png","","","","",""
"","html-keyboard-response","17","216037","0.0-6.0-0.0-0.11","jj140azzth","many_one","0","direct_first","1","er06er12","0","23","1","1","3","1","","0","1","0","null","","","<div class = 'row'><div class = 'column'><img src = 'uspos/2040.bmp' width = '100%;'></div><div class = 'column'><img src = 'category4/CS9.png' width = '70%;'></div></div>","null","pos","CS","CS","4","category4/CS9.png","","","","",""
"","html-keyboard-response","18","218560","0.0-6.0-0.0-0.12","jj140azzth","many_one","0","direct_first","1","er06er12","0","23","1","1","3","1","","0","1","0","null","","","<div class = 'row'><div class = 'column'><img src = 'category1/CS1.png' width = '70%;'></div><div class = 'column'><img src = 'usneg/9181.bmp' width = '100%;'></div></div>","null","neg","CS","CS","1","category1/CS1.png","","","","",""
"","html-keyboard-response","19","221085","0.0-6.0-0.0-0.13","jj140azzth","many_one","0","direct_first","1","er06er12","0","23","1","1","3","1","","0","1","0","null","","","<div class = 'row'><div class = 'column'><img src = 'category4/CS4.png' width = '70%;'></div><div class = 'column'><img src = 'uspos/2058.bmp' width = '100%;'></div></div>","null","pos","CS","CS","4","category4/CS4.png","","","","",""
"","html-keyboard-response","20","223602","0.0-6.0-0.0-0.14","jj140azzth","many_one","0","direct_first","1","er06er12","0","23","1","1","3","1","","0","1","0","null","","","<div class = 'row'><div class = 'column'><img src = 'uspos/2530.bmp' width = '100%;'></div><div class = 'column'><img src = 'category2/CS1.png' width = '70%;'></div></div>","null","pos","CS","CS","2","category2/CS1.png","","","","",""
"","html-keyboard-response","21","226123","0.0-6.0-0.0-0.15","jj140azzth","many_one","0","direct_first","1","er06er12","0","23","1","1","3","1","","0","1","0","null","","","<div class = 'row'><div class = 'column'><img src = 'category4/CS2.png' width = '70%;'></div><div class = 'column'><img src = 'uspos/1340.bmp' width = '100%;'></div></div>","null","pos","CS","CS","4","category4/CS2.png","","","","",""
"","html-keyboard-response","22","228638","0.0-6.0-0.0-0.16","jj140azzth","many_one","0","direct_first","1","er06er12","0","23","1","1","3","1","","0","1","0","null","","","<div class = 'row'><div class = 'column'><img src = 'category3/CS8.png' width = '70%;'></div><div class = 'column'><img src = 'usneg/8485.bmp' width = '100%;'></div></div>","null","neg","CS","CS","3","category3/CS8.png","","","","",""
"","html-keyboard-response","23","231153","0.0-6.0-0.0-0.17","jj140azzth","many_one","0","direct_first","1","er06er12","0","23","1","1","3","1","","0","1","0","null","","","<div class = 'row'><div class = 'column'><img src = 'category1/CS9.png' width = '70%;'></div><div class = 'column'><img src = 'usneg/9000.bmp' width = '100%;'></div></div>","null","neg","CS","CS","1","category1/CS9.png","","","","",""
"","html-keyboard-response","24","233668","0.0-6.0-0.0-0.18","jj140azzth","many_one","0","direct_first","1","er06er12","0","23","1","1","3","1","","0","1","0","null","","","<div class = 'row'><div class = 'column'><img src = 'usneg/6020.bmp' width = '100%;'></div><div class = 'column'><img src = 'category1/CS4.png' width = '70%;'></div></div>","null","neg","CS","CS","1","category1/CS4.png","","","","",""
"","html-keyboard-response","25","236206","0.0-6.0-0.0-0.19","jj140azzth","many_one","0","direct_first","1","er06er12","0","23","1","1","3","1","","0","1","0","null","","","<div class = 'row'><div class = 'column'><img src = 'uspos/5830.bmp' width = '100%;'></div><div class = 'column'><img src = 'category4/CS10.png' width = '70%;'></div></div>","null","pos","CS","CS","4","category4/CS10.png","","","","",""
"","survey-html-form","26","240629","0.0-6.0-1.0","jj140azzth","many_one","0","direct_first","1","er06er12","0","23","1","1","3","1","","0","1","0","3896.940000122413","","{}","","","","","","","","","","","",""
"","html-keyboard-response","27","244645","0.0-6.0-2.0-0.0","jj140azzth","many_one","0","direct_first","1","er06er12","0","23","1","1","3","1","","0","1","0","null","","","<div class = 'row'><div class = 'column'><img src = 'uspos/2530.bmp' width = '100%;'></div><div class = 'column'><img src = 'category2/CS1.png' width = '70%;'></div></div>","null","pos","CS","CS","2","category2/CS1.png","","","","",""
"","html-keyboard-response","28","247178","0.0-6.0-2.0-0.1","jj140azzth","many_one","0","direct_first","1","er06er12","0","23","1","1","3","1","","0","1","0","null","","","<div class = 'row'><div class = 'column'><img src = 'uspos/2058.bmp' width = '100%;'></div><div class = 'column'><img src = 'category4/CS4.png' width = '70%;'></div></div>","null","pos","CS","CS","4","category4/CS4.png","","","","",""
"","html-keyboard-response","29","249706","0.0-6.0-2.0-0.2","jj140azzth","many_one","0","direct_first","1","er06er12","0","23","1","1","3","1","","0","1","0","null","","","<div class = 'row'><div class = 'column'><img src = 'usneg/2141.bmp' width = '100%;'></div><div class = 'column'><img src = 'category1/CS2.png' width = '70%;'></div></div>","null","neg","CS","CS","1","category1/CS2.png","","","","",""
"","html-keyboard-response","30","252215","0.0-6.0-2.0-0.3","jj140azzth","many_one","0","direct_first","1","er06er12","0","23","1","1","3","1","","0","1","0","null","","","<div class = 'row'><div class = 'column'><img src = 'usneg/9220.bmp' width = '100%;'></div><div class = 'column'><img src = 'category3/CS2.png' width = '70%;'></div></div>","null","neg","CS","CS","3","category3/CS2.png","","","","",""
"","html-keyboard-response","31","254739","0.0-6.0-2.0-0.4","jj140azzth","many_one","0","direct_first","1","er06er12","0","23","1","1","3","1","","0","1","0","null","","","<div class = 'row'><div class = 'column'><img src = 'uspos/7325.bmp' width = '100%;'></div><div class = 'column'><img src = 'category2/CS8.png' width = '70%;'></div></div>","null","pos","CS","CS","2","category2/CS8.png","","","","",""
"","html-keyboard-response","32","257254","0.0-6.0-2.0-0.5","jj140azzth","many_one","0","direct_first","1","er06er12","0","23","1","1","3","1","","0","1","0","null","","","<div class = 'row'><div class = 'column'><img src = 'usneg/3181.bmp' width = '100%;'></div><div class = 'column'><img src = 'category3/CS7.png' width = '70%;'></div></div>","null","neg","CS","CS","3","category3/CS7.png","","","","",""
"","html-keyboard-response","33","259764","0.0-6.0-2.0-0.6","jj140azzth","many_one","0","direct_first","1","er06er12","0","23","1","1","3","1","","0","1","0","null","","","<div class = 'row'><div class = 'column'><img src = 'usneg/9000.bmp' width = '100%;'></div><div class = 'column'><img src = 'category1/CS9.png' width = '70%;'></div></div>","null","neg","CS","CS","1","category1/CS9.png","","","","",""
"","html-keyboard-response","34","262300","0.0-6.0-2.0-0.7","jj140azzth","many_one","0","direct_first","1","er06er12","0","23","1","1","3","1","","0","1","0","null","","","<div class = 'row'><div class = 'column'><img src = 'uspos/1710.bmp' width = '100%;'></div><div class = 'column'><img src = 'category2/CS7.png' width = '70%;'></div></div>","null","pos","CS","CS","2","category2/CS7.png","","","","",""
"","html-keyboard-response","35","264826","0.0-6.0-2.0-0.8","jj140azzth","many_one","0","direct_first","1","er06er12","0","23","1","1","3","1","","0","1","0","null","","","<div class = 'row'><div class = 'column'><img src = 'usneg/9182.bmp' width = '100%;'></div><div class = 'column'><img src = 'category3/CS9.png' width = '70%;'></div></div>","null","neg","CS","CS","3","category3/CS9.png","","","","",""
"","html-keyboard-response","36","267348","0.0-6.0-2.0-0.9","jj140azzth","many_one","0","direct_first","1","er06er12","0","23","1","1","3","1","","0","1","0","null","","","<div class = 'row'><div class = 'column'><img src = 'uspos/4625.bmp' width = '100%;'></div><div class = 'column'><img src = 'category4/CS3.png' width = '70%;'></div></div>","null","pos","CS","CS","4","category4/CS3.png","","","","",""
"","html-keyboard-response","37","269857","0.0-6.0-2.0-0.10","jj140azzth","many_one","0","direct_first","1","er06er12","0","23","1","1","3","1","","0","1","0","null","","","<div class = 'row'><div class = 'column'><img src = 'uspos/7580.bmp' width = '100%;'></div><div class = 'column'><img src = 'category2/CS9.png' width = '70%;'></div></div>","null","pos","CS","CS","2","category2/CS9.png","","","","",""
"","html-keyboard-response","38","272390","0.0-6.0-2.0-0.11","jj140azzth","many_one","0","direct_first","1","er06er12","0","23","1","1","3","1","","0","1","0","null","","","<div class = 'row'><div class = 'column'><img src = 'usneg/9050.bmp' width = '100%;'></div><div class = 'column'><img src = 'category1/CS3.png' width = '70%;'></div></div>","null","neg","CS","CS","1","category1/CS3.png","","","","",""
"","html-keyboard-response","39","274918","0.0-6.0-2.0-0.12","jj140azzth","many_one","0","direct_first","1","er06er12","0","23","1","1","3","1","","0","1","0","null","","","<div class = 'row'><div class = 'column'><img src = 'uspos/2040.bmp' width = '100%;'></div><div class = 'column'><img src = 'category4/CS9.png' width = '70%;'></div></div>","null","pos","CS","CS","4","category4/CS9.png","","","","",""
"","html-keyboard-response","40","277439","0.0-6.0-2.0-0.13","jj140azzth","many_one","0","direct_first","1","er06er12","0","23","1","1","3","1","","0","1","0","null","","","<div class = 'row'><div class = 'column'><img src = 'category1/CS1.png' width = '70%;'></div><div class = 'column'><img src = 'usneg/9181.bmp' width = '100%;'></div></div>","null","neg","CS","CS","1","category1/CS1.png","","","","",""
"","html-keyboard-response","41","279959","0.0-6.0-2.0-0.14","jj140azzth","many_one","0","direct_first","1","er06er12","0","23","1","1","3","1","","0","1","0","null","","","<div class = 'row'><div class = 'column'><img src = 'category4/CS10.png' width = '70%;'></div><div class = 'column'><img src = 'uspos/5830.bmp' width = '100%;'></div></div>","null","pos","CS","CS","4","category4/CS10.png","","","","",""
"","html-keyboard-response","42","282480","0.0-6.0-2.0-0.15","jj140azzth","many_one","0","direct_first","1","er06er12","0","23","1","1","3","1","","0","1","0","null","","","<div class = 'row'><div class = 'column'><img src = 'category3/CS6.png' width = '70%;'></div><div class = 'column'><img src = 'usneg/7380.bmp' width = '100%;'></div></div>","null","neg","CS","CS","3","category3/CS6.png","","","","",""
"","html-keyboard-response","43","285008","0.0-6.0-2.0-0.16","jj140azzth","many_one","0","direct_first","1","er06er12","0","23","1","1","3","1","","0","1","0","null","","","<div class = 'row'><div class = 'column'><img src = 'category1/CS4.png' width = '70%;'></div><div class = 'column'><img src = 'usneg/6020.bmp' width = '100%;'></div></div>","null","neg","CS","CS","1","category1/CS4.png","","","","",""
"","html-keyboard-response","44","287544","0.0-6.0-2.0-0.17","jj140azzth","many_one","0","direct_first","1","er06er12","0","23","1","1","3","1","","0","1","0","null","","","<div class = 'row'><div class = 'column'><img src = 'category2/CS4.png' width = '70%;'></div><div class = 'column'><img src = 'uspos/8190.bmp' width = '100%;'></div></div>","null","pos","CS","CS","2","category2/CS4.png","","","","",""
"","html-keyboard-response","45","290067","0.0-6.0-2.0-0.18","jj140azzth","many_one","0","direct_first","1","er06er12","0","23","1","1","3","1","","0","1","0","null","","","<div class = 'row'><div class = 'column'><img src = 'category3/CS8.png' width = '70%;'></div><div class = 'column'><img src = 'usneg/8485.bmp' width = '100%;'></div></div>","null","neg","CS","CS","3","category3/CS8.png","","","","",""
"","html-keyboard-response","46","292589","0.0-6.0-2.0-0.19","jj140azzth","many_one","0","direct_first","1","er06er12","0","23","1","1","3","1","","0","1","0","null","","","<div class = 'row'><div class = 'column'><img src = 'uspos/1340.bmp' width = '100%;'></div><div class = 'column'><img src = 'category4/CS2.png' width = '70%;'></div></div>","null","pos","CS","CS","4","category4/CS2.png","","","","",""
"","survey-html-form","47","294927","0.0-6.0-3.0","jj140azzth","many_one","0","direct_first","1","er06er12","0","23","1","1","3","1","","0","1","0","1823.0049998965114","","{}","","","","","","","","","","","",""
"","html-keyboard-response","48","298958","0.0-6.0-4.0-0.0","jj140azzth","many_one","0","direct_first","1","er06er12","0","23","1","1","3","1","","0","1","0","null","","","<div class = 'row'><div class = 'column'><img src = 'usneg/6020.bmp' width = '100%;'></div><div class = 'column'><img src = 'category1/CS4.png' width = '70%;'></div></div>","null","neg","CS","CS","1","category1/CS4.png","","","","",""
"","html-keyboard-response","49","301509","0.0-6.0-4.0-0.1","jj140azzth","many_one","0","direct_first","1","er06er12","0","23","1","1","3","1","","0","1","0","null","","","<div class = 'row'><div class = 'column'><img src = 'usneg/9182.bmp' width = '100%;'></div><div class = 'column'><img src = 'category3/CS9.png' width = '70%;'></div></div>","null","neg","CS","CS","3","category3/CS9.png","","","","",""
"","html-keyboard-response","50","304024","0.0-6.0-4.0-0.2","jj140azzth","many_one","0","direct_first","1","er06er12","0","23","1","1","3","1","","0","1","0","null","","","<div class = 'row'><div class = 'column'><img src = 'category4/CS2.png' width = '70%;'></div><div class = 'column'><img src = 'uspos/1340.bmp' width = '100%;'></div></div>","null","pos","CS","CS","4","category4/CS2.png","","","","",""
"","html-keyboard-response","51","306532","0.0-6.0-4.0-0.3","jj140azzth","many_one","0","direct_first","1","er06er12","0","23","1","1","3","1","","0","1","0","null","","","<div class = 'row'><div class = 'column'><img src = 'category4/CS4.png' width = '70%;'></div><div class = 'column'><img src = 'uspos/2058.bmp' width = '100%;'></div></div>","null","pos","CS","CS","4","category4/CS4.png","","","","",""
"","html-keyboard-response","52","309059","0.0-6.0-4.0-0.4","jj140azzth","many_one","0","direct_first","1","er06er12","0","23","1","1","3","1","","0","1","0","null","","","<div class = 'row'><div class = 'column'><img src = 'usneg/9181.bmp' width = '100%;'></div><div class = 'column'><img src = 'category1/CS1.png' width = '70%;'></div></div>","null","neg","CS","CS","1","category1/CS1.png","","","","",""
"","html-keyboard-response","53","311607","0.0-6.0-4.0-0.5","jj140azzth","many_one","0","direct_first","1","er06er12","0","23","1","1","3","1","","0","1","0","null","","","<div class = 'row'><div class = 'column'><img src = 'uspos/5830.bmp' width = '100%;'></div><div class = 'column'><img src = 'category4/CS10.png' width = '70%;'></div></div>","null","pos","CS","CS","4","category4/CS10.png","","","","",""
"","html-keyboard-response","54","314129","0.0-6.0-4.0-0.6","jj140azzth","many_one","0","direct_first","1","er06er12","0","23","1","1","3","1","","0","1","0","null","","","<div class = 'row'><div class = 'column'><img src = 'uspos/2530.bmp' width = '100%;'></div><div class = 'column'><img src = 'category2/CS1.png' width = '70%;'></div></div>","null","pos","CS","CS","2","category2/CS1.png","","","","",""
"","html-keyboard-response","55","316648","0.0-6.0-4.0-0.7","jj140azzth","many_one","0","direct_first","1","er06er12","0","23","1","1","3","1","","0","1","0","null","","","<div class = 'row'><div class = 'column'><img src = 'usneg/7380.bmp' width = '100%;'></div><div class = 'column'><img src = 'category3/CS6.png' width = '70%;'></div></div>","null","neg","CS","CS","3","category3/CS6.png","","","","",""
"","html-keyboard-response","56","319167","0.0-6.0-4.0-0.8","jj140azzth","many_one","0","direct_first","1","er06er12","0","23","1","1","3","1","","0","1","0","null","","","<div class = 'row'><div class = 'column'><img src = 'uspos/4625.bmp' width = '100%;'></div><div class = 'column'><img src = 'category4/CS3.png' width = '70%;'></div></div>","null","pos","CS","CS","4","category4/CS3.png","","","","",""
"","html-keyboard-response","57","321713","0.0-6.0-4.0-0.9","jj140azzth","many_one","0","direct_first","1","er06er12","0","23","1","1","3","1","","0","1","0","null","","","<div class = 'row'><div class = 'column'><img src = 'category2/CS7.png' width = '70%;'></div><div class = 'column'><img src = 'uspos/1710.bmp' width = '100%;'></div></div>","null","pos","CS","CS","2","category2/CS7.png","","","","",""
"","html-keyboard-response","58","324225","0.0-6.0-4.0-0.10","jj140azzth","many_one","0","direct_first","1","er06er12","0","23","1","1","3","1","","0","1","0","null","","","<div class = 'row'><div class = 'column'><img src = 'category3/CS2.png' width = '70%;'></div><div class = 'column'><img src = 'usneg/9220.bmp' width = '100%;'></div></div>","null","neg","CS","CS","3","category3/CS2.png","","","","",""
"","html-keyboard-response","59","326754","0.0-6.0-4.0-0.11","jj140azzth","many_one","0","direct_first","1","er06er12","0","23","1","1","3","1","","0","1","0","null","","","<div class = 'row'><div class = 'column'><img src = 'uspos/8190.bmp' width = '100%;'></div><div class = 'column'><img src = 'category2/CS4.png' width = '70%;'></div></div>","null","pos","CS","CS","2","category2/CS4.png","","","","",""
"","html-keyboard-response","60","329277","0.0-6.0-4.0-0.12","jj140azzth","many_one","0","direct_first","1","er06er12","0","23","1","1","3","1","","0","1","0","null","","","<div class = 'row'><div class = 'column'><img src = 'category4/CS9.png' width = '70%;'></div><div class = 'column'><img src = 'uspos/2040.bmp' width = '100%;'></div></div>","null","pos","CS","CS","4","category4/CS9.png","","","","",""
"","html-keyboard-response","61","331803","0.0-6.0-4.0-0.13","jj140azzth","many_one","0","direct_first","1","er06er12","0","23","1","1","3","1","","0","1","0","null","","","<div class = 'row'><div class = 'column'><img src = 'uspos/7325.bmp' width = '100%;'></div><div class = 'column'><img src = 'category2/CS8.png' width = '70%;'></div></div>","null","pos","CS","CS","2","category2/CS8.png","","","","",""
"","html-keyboard-response","62","334319","0.0-6.0-4.0-0.14","jj140azzth","many_one","0","direct_first","1","er06er12","0","23","1","1","3","1","","0","1","0","null","","","<div class = 'row'><div class = 'column'><img src = 'uspos/7580.bmp' width = '100%;'></div><div class = 'column'><img src = 'category2/CS9.png' width = '70%;'></div></div>","null","pos","CS","CS","2","category2/CS9.png","","","","",""
"","html-keyboard-response","63","336847","0.0-6.0-4.0-0.15","jj140azzth","many_one","0","direct_first","1","er06er12","0","23","1","1","3","1","","0","1","0","null","","","<div class = 'row'><div class = 'column'><img src = 'category1/CS9.png' width = '70%;'></div><div class = 'column'><img src = 'usneg/9000.bmp' width = '100%;'></div></div>","null","neg","CS","CS","1","category1/CS9.png","","","","",""
"","html-keyboard-response","64","339392","0.0-6.0-4.0-0.16","jj140azzth","many_one","0","direct_first","1","er06er12","0","23","1","1","3","1","","0","1","0","null","","","<div class = 'row'><div class = 'column'><img src = 'usneg/9050.bmp' width = '100%;'></div><div class = 'column'><img src = 'category1/CS3.png' width = '70%;'></div></div>","null","neg","CS","CS","1","category1/CS3.png","","","","",""
"","html-keyboard-response","65","341915","0.0-6.0-4.0-0.17","jj140azzth","many_one","0","direct_first","1","er06er12","0","23","1","1","3","1","","0","1","0","null","","","<div class = 'row'><div class = 'column'><img src = 'usneg/2141.bmp' width = '100%;'></div><div class = 'column'><img src = 'category1/CS2.png' width = '70%;'></div></div>","null","neg","CS","CS","1","category1/CS2.png","","","","",""
"","html-keyboard-response","66","344439","0.0-6.0-4.0-0.18","jj140azzth","many_one","0","direct_first","1","er06er12","0","23","1","1","3","1","","0","1","0","null","","","<div class = 'row'><div class = 'column'><img src = 'usneg/8485.bmp' width = '100%;'></div><div class = 'column'><img src = 'category3/CS8.png' width = '70%;'></div></div>","null","neg","CS","CS","3","category3/CS8.png","","","","",""
"","html-keyboard-response","67","346960","0.0-6.0-4.0-0.19","jj140azzth","many_one","0","direct_first","1","er06er12","0","23","1","1","3","1","","0","1","0","null","","","<div class = 'row'><div class = 'column'><img src = 'usneg/3181.bmp' width = '100%;'></div><div class = 'column'><img src = 'category3/CS7.png' width = '70%;'></div></div>","null","neg","CS","CS","3","category3/CS7.png","","","","",""
"","survey-html-form","68","348780","0.0-6.0-5.0","jj140azzth","many_one","0","direct_first","1","er06er12","0","23","1","1","3","1","","0","1","0","1317.2450000420213","","{}","","","","","","","","","","","",""
"","html-keyboard-response","69","352810","0.0-6.0-6.0-0.0","jj140azzth","many_one","0","direct_first","1","er06er12","0","23","1","1","3","1","","0","1","0","null","","","<div class = 'row'><div class = 'column'><img src = 'uspos/2040.bmp' width = '100%;'></div><div class = 'column'><img src = 'category4/CS9.png' width = '70%;'></div></div>","null","pos","CS","CS","4","category4/CS9.png","","","","",""
"","html-keyboard-response","70","355345","0.0-6.0-6.0-0.1","jj140azzth","many_one","0","direct_first","1","er06er12","0","23","1","1","3","1","","0","1","0","null","","","<div class = 'row'><div class = 'column'><img src = 'category4/CS10.png' width = '70%;'></div><div class = 'column'><img src = 'uspos/5830.bmp' width = '100%;'></div></div>","null","pos","CS","CS","4","category4/CS10.png","","","","",""
"","html-keyboard-response","71","357852","0.0-6.0-6.0-0.2","jj140azzth","many_one","0","direct_first","1","er06er12","0","23","1","1","3","1","","0","1","0","null","","","<div class = 'row'><div class = 'column'><img src = 'uspos/2530.bmp' width = '100%;'></div><div class = 'column'><img src = 'category2/CS1.png' width = '70%;'></div></div>","null","pos","CS","CS","2","category2/CS1.png","","","","",""
"","html-keyboard-response","72","360373","0.0-6.0-6.0-0.3","jj140azzth","many_one","0","direct_first","1","er06er12","0","23","1","1","3","1","","0","1","0","null","","","<div class = 'row'><div class = 'column'><img src = 'usneg/9181.bmp' width = '100%;'></div><div class = 'column'><img src = 'category1/CS1.png' width = '70%;'></div></div>","null","neg","CS","CS","1","category1/CS1.png","","","","",""
"","html-keyboard-response","73","362897","0.0-6.0-6.0-0.4","jj140azzth","many_one","0","direct_first","1","er06er12","0","23","1","1","3","1","","0","1","0","null","","","<div class = 'row'><div class = 'column'><img src = 'category4/CS4.png' width = '70%;'></div><div class = 'column'><img src = 'uspos/2058.bmp' width = '100%;'></div></div>","null","pos","CS","CS","4","category4/CS4.png","","","","",""
"","html-keyboard-response","74","365423","0.0-6.0-6.0-0.5","jj140azzth","many_one","0","direct_first","1","er06er12","0","23","1","1","3","1","","0","1","0","null","","","<div class = 'row'><div class = 'column'><img src = 'usneg/9220.bmp' width = '100%;'></div><div class = 'column'><img src = 'category3/CS2.png' width = '70%;'></div></div>","null","neg","CS","CS","3","category3/CS2.png","","","","",""
"","html-keyboard-response","75","367955","0.0-6.0-6.0-0.6","jj140azzth","many_one","0","direct_first","1","er06er12","0","23","1","1","3","1","","0","1","0","null","","","<div class = 'row'><div class = 'column'><img src = 'category3/CS6.png' width = '70%;'></div><div class = 'column'><img src = 'usneg/7380.bmp' width = '100%;'></div></div>","null","neg","CS","CS","3","category3/CS6.png","","","","",""
"","html-keyboard-response","76","370476","0.0-6.0-6.0-0.7","jj140azzth","many_one","0","direct_first","1","er06er12","0","23","1","1","3","1","","0","1","0","null","","","<div class = 'row'><div class = 'column'><img src = 'uspos/7325.bmp' width = '100%;'></div><div class = 'column'><img src = 'category2/CS8.png' width = '70%;'></div></div>","null","pos","CS","CS","2","category2/CS8.png","","","","",""
"","html-keyboard-response","77","373019","0.0-6.0-6.0-0.8","jj140azzth","many_one","0","direct_first","1","er06er12","0","23","1","1","3","1","","0","1","0","null","","","<div class = 'row'><div class = 'column'><img src = 'category1/CS9.png' width = '70%;'></div><div class = 'column'><img src = 'usneg/9000.bmp' width = '100%;'></div></div>","null","neg","CS","CS","1","category1/CS9.png","","","","",""
"","html-keyboard-response","78","375542","0.0-6.0-6.0-0.9","jj140azzth","many_one","0","direct_first","1","er06er12","0","23","1","1","3","1","","0","1","0","null","","","<div class = 'row'><div class = 'column'><img src = 'category3/CS8.png' width = '70%;'></div><div class = 'column'><img src = 'usneg/8485.bmp' width = '100%;'></div></div>","null","neg","CS","CS","3","category3/CS8.png","","","","",""
"","html-keyboard-response","79","378068","0.0-6.0-6.0-0.10","jj140azzth","many_one","0","direct_first","1","er06er12","0","23","1","1","3","1","","0","1","0","null","","","<div class = 'row'><div class = 'column'><img src = 'category2/CS4.png' width = '70%;'></div><div class = 'column'><img src = 'uspos/8190.bmp' width = '100%;'></div></div>","null","pos","CS","CS","2","category2/CS4.png","","","","",""
"","html-keyboard-response","80","380589","0.0-6.0-6.0-0.11","jj140azzth","many_one","0","direct_first","1","er06er12","0","23","1","1","3","1","","0","1","0","null","","","<div class = 'row'><div class = 'column'><img src = 'uspos/4625.bmp' width = '100%;'></div><div class = 'column'><img src = 'category4/CS3.png' width = '70%;'></div></div>","null","pos","CS","CS","4","category4/CS3.png","","","","",""
"","html-keyboard-response","81","383112","0.0-6.0-6.0-0.12","jj140azzth","many_one","0","direct_first","1","er06er12","0","23","1","1","3","1","","0","1","0","null","","","<div class = 'row'><div class = 'column'><img src = 'category3/CS9.png' width = '70%;'></div><div class = 'column'><img src = 'usneg/9182.bmp' width = '100%;'></div></div>","null","neg","CS","CS","3","category3/CS9.png","","","","",""
"","html-keyboard-response","82","385636","0.0-6.0-6.0-0.13","jj140azzth","many_one","0","direct_first","1","er06er12","0","23","1","1","3","1","","0","1","0","null","","","<div class = 'row'><div class = 'column'><img src = 'uspos/1340.bmp' width = '100%;'></div><div class = 'column'><img src = 'category4/CS2.png' width = '70%;'></div></div>","null","pos","CS","CS","4","category4/CS2.png","","","","",""
"","html-keyboard-response","83","388157","0.0-6.0-6.0-0.14","jj140azzth","many_one","0","direct_first","1","er06er12","0","23","1","1","3","1","","0","1","0","null","","","<div class = 'row'><div class = 'column'><img src = 'category1/CS3.png' width = '70%;'></div><div class = 'column'><img src = 'usneg/9050.bmp' width = '100%;'></div></div>","null","neg","CS","CS","1","category1/CS3.png","","","","",""
"","html-keyboard-response","84","390674","0.0-6.0-6.0-0.15","jj140azzth","many_one","0","direct_first","1","er06er12","0","23","1","1","3","1","","0","1","0","null","","","<div class = 'row'><div class = 'column'><img src = 'usneg/6020.bmp' width = '100%;'></div><div class = 'column'><img src = 'category1/CS4.png' width = '70%;'></div></div>","null","neg","CS","CS","1","category1/CS4.png","","","","",""
"","html-keyboard-response","85","393196","0.0-6.0-6.0-0.16","jj140azzth","many_one","0","direct_first","1","er06er12","0","23","1","1","3","1","","0","1","0","null","","","<div class = 'row'><div class = 'column'><img src = 'usneg/3181.bmp' width = '100%;'></div><div class = 'column'><img src = 'category3/CS7.png' width = '70%;'></div></div>","null","neg","CS","CS","3","category3/CS7.png","","","","",""
"","html-keyboard-response","86","395713","0.0-6.0-6.0-0.17","jj140azzth","many_one","0","direct_first","1","er06er12","0","23","1","1","3","1","","0","1","0","null","","","<div class = 'row'><div class = 'column'><img src = 'uspos/1710.bmp' width = '100%;'></div><div class = 'column'><img src = 'category2/CS7.png' width = '70%;'></div></div>","null","pos","CS","CS","2","category2/CS7.png","","","","",""
"","html-keyboard-response","87","398238","0.0-6.0-6.0-0.18","jj140azzth","many_one","0","direct_first","1","er06er12","0","23","1","1","3","1","","0","1","0","null","","","<div class = 'row'><div class = 'column'><img src = 'category1/CS2.png' width = '70%;'></div><div class = 'column'><img src = 'usneg/2141.bmp' width = '100%;'></div></div>","null","neg","CS","CS","1","category1/CS2.png","","","","",""
"","html-keyboard-response","88","400759","0.0-6.0-6.0-0.19","jj140azzth","many_one","0","direct_first","1","er06er12","0","23","1","1","3","1","","0","1","0","null","","","<div class = 'row'><div class = 'column'><img src = 'category2/CS9.png' width = '70%;'></div><div class = 'column'><img src = 'uspos/7580.bmp' width = '100%;'></div></div>","null","pos","CS","CS","2","category2/CS9.png","","","","",""
"","survey-html-form","89","416492","0.0-7.0","jj140azzth","many_one","0","direct_first","1","er06er12","0","23","1","1","3","1","","0","1","0","15222.760000033304","","{}","","","","","","","","","","","",""
"","image-slider-response","90","435886","0.0-8.0-0.0","jj140azzth","many_one","0","direct_first","1","er06er12","0","23","1","1","3","1","","0","1","0","17371.774999890476","","","","","pos","GS","abstract","2","category2/men.png","25","targets/15.png","direct","",""
"","image-slider-response","91","440924","0.0-8.0-0.1","jj140azzth","many_one","0","direct_first","1","er06er12","0","23","1","1","3","1","","0","1","0","5032.594999996945","","","","","neg","CS","CS","1","category1/CS4.png","-39","targets/27.png","direct","",""
"","image-slider-response","92","444844","0.0-8.0-0.2","jj140azzth","many_one","0","direct_first","1","er06er12","0","23","1","1","3","1","","0","1","0","3915.044999914244","","","","","neg","GS","GSold","3","category3/CS10.png","-60","targets/9.png","direct","",""
"","image-slider-response","93","448164","0.0-8.0-0.3","jj140azzth","many_one","0","direct_first","1","er06er12","0","23","1","1","3","1","","0","1","0","3315.429999958724","","","","","neg","GS","abstract","1","category1/ma.png","-27","targets/40.png","direct","",""
"","image-slider-response","94","453564","0.0-8.0-0.4","jj140azzth","many_one","0","direct_first","1","er06er12","0","23","1","1","3","1","","0","1","0","5392.985000042245","","","","","pos","GS","GSold","4","category4/CS1.png","29","targets/10.png","direct","",""
"","image-slider-response","95","456868","0.0-8.0-0.5","jj140azzth","many_one","0","direct_first","1","er06er12","0","23","1","1","3","1","","0","1","0","3296.3950000703335","","","","","pos","GS","GSnew","4","category4/GS2.png","-30","targets/5.png","direct","",""
"","image-slider-response","96","461539","0.0-8.0-0.6","jj140azzth","many_one","0","direct_first","1","er06er12","0","23","1","1","3","1","","0","1","0","4667.639999883249","","","","","pos","GS","GSnew","2","category2/GS3.png","-33","targets/11.png","direct","",""
"","image-slider-response","97","464779","0.0-8.0-0.7","jj140azzth","many_one","0","direct_first","1","er06er12","0","23","1","1","3","1","","0","1","0","3235.4349999222904","","","","","pos","GS","GSold","2","category2/CS2.png","-26","targets/4.png","direct","",""
"","image-slider-response","98","467691","0.0-8.0-0.8","jj140azzth","many_one","0","direct_first","1","er06er12","0","23","1","1","3","1","","0","1","0","2906.3699999824166","","","","","pos","CS","CS","2","category2/CS1.png","-12","targets/26.png","direct","",""
"","image-slider-response","99","471475","0.0-8.0-0.9","jj140azzth","many_one","0","direct_first","1","er06er12","0","23","1","1","3","1","","0","1","0","3780.650000087917","","","","","pos","CS","CS","4","category4/CS4.png","27","targets/36.png","direct","",""
"","image-slider-response","100","476565","0.0-8.0-0.10","jj140azzth","many_one","0","direct_first","1","er06er12","0","23","1","1","3","1","","0","1","0","5084.024999989197","","","","","neg","GS","GSnew","1","category1/GS2.png","-6","targets/20.png","direct","",""
"","image-slider-response","101","479860","0.0-8.0-0.11","jj140azzth","many_one","0","direct_first","1","er06er12","0","23","1","1","3","1","","0","1","0","3290.175000205636","","","","","pos","CS","CS","2","category2/CS9.png","-17","targets/35.png","direct","",""
"","image-slider-response","102","487475","0.0-8.0-0.12","jj140azzth","many_one","0","direct_first","1","er06er12","0","23","1","1","3","1","","0","1","0","7611.425000010058","","","","","pos","CS","CS","4","category4/CS3.png","68","targets/42.png","direct","",""
"","image-slider-response","103","490836","0.0-8.0-0.13","jj140azzth","many_one","0","direct_first","1","er06er12","0","23","1","1","3","1","","0","1","0","3356.239999877289","","","","","neg","GS","GSold","1","category1/CS6.png","8","targets/44.png","direct","",""
"","image-slider-response","104","493774","0.0-8.0-0.14","jj140azzth","many_one","0","direct_first","1","er06er12","0","23","1","1","3","1","","0","1","0","2933.824999956414","","","","","pos","CS","CS","2","category2/CS7.png","13","targets/37.png","direct","",""
"","image-slider-response","105","496428","0.0-8.0-0.15","jj140azzth","many_one","0","direct_first","1","er06er12","0","23","1","1","3","1","","0","1","0","2649.6200000401586","","","","","pos","CS","CS","2","category2/CS8.png","-10","targets/21.png","direct","",""
"","image-slider-response","106","498684","0.0-8.0-0.16","jj140azzth","many_one","0","direct_first","1","er06er12","0","23","1","1","3","1","","0","1","0","2249.7300000395626","","","","","neg","GS","GSnew","3","category3/GS1.png","-14","targets/6.png","direct","",""
"","image-slider-response","107","501356","0.0-8.0-0.17","jj140azzth","many_one","0","direct_first","1","er06er12","0","23","1","1","3","1","","0","1","0","2667.695000069216","","","","","neg","GS","GSold","3","category3/CS5.png","-25","targets/30.png","direct","",""
"","image-slider-response","108","504523","0.0-8.0-0.18","jj140azzth","many_one","0","direct_first","1","er06er12","0","23","1","1","3","1","","0","1","0","3163.6450001969934","","","","","neg","CS","CS","3","category3/CS2.png","-23","targets/14.png","direct","",""
"","image-slider-response","109","506739","0.0-8.0-0.19","jj140azzth","many_one","0","direct_first","1","er06er12","0","23","1","1","3","1","","0","1","0","2211.989999981597","","","","","neg","GS","GSold","3","category3/CS3.png","-33","targets/3.png","direct","",""
"","image-slider-response","110","510749","0.0-8.0-0.20","jj140azzth","many_one","0","direct_first","1","er06er12","0","23","1","1","3","1","","0","1","0","4005.919999908656","","","","","pos","CS","CS","4","category4/CS2.png","52","targets/38.png","direct","",""
"","image-slider-response","111","513198","0.0-8.0-0.21","jj140azzth","many_one","0","direct_first","1","er06er12","0","23","1","1","3","1","","0","1","0","2441.8349999468774","","","","","neg","CS","CS","1","category1/CS2.png","-19","targets/31.png","direct","",""
"","image-slider-response","112","515748","0.0-8.0-0.22","jj140azzth","many_one","0","direct_first","1","er06er12","0","23","1","1","3","1","","0","1","0","2545.4400000162423","","","","","neg","GS","GSnew","3","category3/GS2.png","-59","targets/2.png","direct","",""
"","image-slider-response","113","518148","0.0-8.0-0.23","jj140azzth","many_one","0","direct_first","1","er06er12","0","23","1","1","3","1","","0","1","0","2395.8349998574704","","","","","pos","CS","CS","2","category2/CS4.png","-38","targets/18.png","direct","",""
"","image-slider-response","114","520606","0.0-8.0-0.24","jj140azzth","many_one","0","direct_first","1","er06er12","0","23","1","1","3","1","","0","1","0","2453.7549999076873","","","","","pos","GS","GSold","2","category2/CS10.png","-10","targets/45.png","direct","",""
"","image-slider-response","115","523204","0.0-8.0-0.25","jj140azzth","many_one","0","direct_first","1","er06er12","0","23","1","1","3","1","","0","1","0","2594.485000008717","","","","","pos","GS","abstract","4","category4/lin.png","16","targets/29.png","direct","",""
"","image-slider-response","116","525844","0.0-8.0-0.26","jj140azzth","many_one","0","direct_first","1","er06er12","0","23","1","1","3","1","","0","1","0","2636.5750001277775","","","","","neg","GS","GSold","1","category1/CS7.png","-20","targets/39.png","direct","",""
"","image-slider-response","117","528092","0.0-8.0-0.27","jj140azzth","many_one","0","direct_first","1","er06er12","0","23","1","1","3","1","","0","1","0","2243.0799999274313","","","","","neg","CS","CS","1","category1/CS1.png","-18","targets/12.png","direct","",""
"","image-slider-response","118","530556","0.0-8.0-0.28","jj140azzth","many_one","0","direct_first","1","er06er12","0","23","1","1","3","1","","0","1","0","2457.4499998707324","","","","","pos","GS","GSnew","2","category2/GS1.png","-42","targets/24.png","direct","",""
"","image-slider-response","119","533356","0.0-8.0-0.29","jj140azzth","many_one","0","direct_first","1","er06er12","0","23","1","1","3","1","","0","1","0","2795.949999941513","","","","","neg","CS","CS","3","category3/CS7.png","-46","targets/47.png","direct","",""
"","image-slider-response","120","536564","0.0-8.0-0.30","jj140azzth","many_one","0","direct_first","1","er06er12","0","23","1","1","3","1","","0","1","0","3203.775000059977","","","","","neg","GS","abstract","3","category3/wang.png","-15","targets/34.png","direct","",""
"","image-slider-response","121","539331","0.0-8.0-0.31","jj140azzth","many_one","0","direct_first","1","er06er12","0","23","1","1","3","1","","0","1","0","2763.0600000265986","","","","","pos","GS","GSold","4","category4/CS7.png","40","targets/7.png","direct","",""
"","image-slider-response","122","541380","0.0-8.0-0.32","jj140azzth","many_one","0","direct_first","1","er06er12","0","23","1","1","3","1","","0","1","0","2045.410000020638","","","","","neg","CS","CS","3","category3/CS6.png","-18","targets/28.png","direct","",""
"","image-slider-response","123","543908","0.0-8.0-0.33","jj140azzth","many_one","0","direct_first","1","er06er12","0","23","1","1","3","1","","0","1","0","2523.365000030026","","","","","neg","CS","CS","1","category1/CS9.png","8","targets/33.png","direct","",""
"","image-slider-response","124","546764","0.0-8.0-0.34","jj140azzth","many_one","0","direct_first","1","er06er12","0","23","1","1","3","1","","0","1","0","2850.554999895394","","","","","neg","CS","CS","3","category3/CS8.png","-32","targets/41.png","direct","",""
"","image-slider-response","125","548980","0.0-8.0-0.35","jj140azzth","many_one","0","direct_first","1","er06er12","0","23","1","1","3","1","","0","1","0","2212.529999902472","","","","","neg","CS","CS","1","category1/CS3.png","-28","targets/22.png","direct","",""
"","image-slider-response","126","553564","0.0-8.0-0.36","jj140azzth","many_one","0","direct_first","1","er06er12","0","23","1","1","3","1","","0","1","0","4580.779999960214","","","","","pos","GS","GSnew","4","category4/GS3.png","18","targets/19.png","direct","",""
"","image-slider-response","127","555716","0.0-8.0-0.37","jj140azzth","many_one","0","direct_first","1","er06er12","0","23","1","1","3","1","","0","1","0","2147.215000120923","","","","","pos","GS","GSold","4","category4/CS8.png","-19","targets/8.png","direct","",""
"","image-slider-response","128","557924","0.0-8.0-0.38","jj140azzth","many_one","0","direct_first","1","er06er12","0","23","1","1","3","1","","0","1","0","2203.3549998886883","","","","","pos","CS","CS","4","category4/CS10.png","6","targets/46.png","direct","",""
"","image-slider-response","129","560140","0.0-8.0-0.39","jj140azzth","many_one","0","direct_first","1","er06er12","0","23","1","1","3","1","","0","1","0","2209.8250000271946","","","","","neg","GS","GSnew","1","category1/GS1.png","-12","targets/43.png","direct","",""
"","image-slider-response","130","562892","0.0-8.0-0.40","jj140azzth","many_one","0","direct_first","1","er06er12","0","23","1","1","3","1","","0","1","0","2745.2150001190603","","","","","pos","GS","GSnew","2","category2/GS2.png","-13","targets/25.png","direct","",""
"","image-slider-response","131","565252","0.0-8.0-0.41","jj140azzth","many_one","0","direct_first","1","er06er12","0","23","1","1","3","1","","0","1","0","2355.405000038445","","","","","pos","CS","CS","4","category4/CS9.png","-15","targets/32.png","direct","",""
"","image-slider-response","132","568446","0.0-8.0-0.42","jj140azzth","many_one","0","direct_first","1","er06er12","0","23","1","1","3","1","","0","1","0","3189.2200000584126","","","","","neg","CS","CS","3","category3/CS9.png","-51","targets/48.png","direct","",""
"","image-slider-response","133","573772","0.0-8.0-0.43","jj140azzth","many_one","0","direct_first","1","er06er12","0","23","1","1","3","1","","0","1","0","5321.514999959618","","","","","neg","GS","GSnew","1","category1/GS3.png","9","targets/17.png","direct","",""
"","image-slider-response","134","577745","0.0-8.0-0.44","jj140azzth","many_one","0","direct_first","1","er06er12","0","23","1","1","3","1","","0","1","0","3968.9750000834465","","","","","pos","GS","GSold","2","category2/CS5.png","14","targets/16.png","direct","",""
"","image-slider-response","135","580680","0.0-8.0-0.45","jj140azzth","many_one","0","direct_first","1","er06er12","0","23","1","1","3","1","","0","1","0","2930.0700000021607","","","","","neg","GS","GSnew","3","category3/GS3.png","-15","targets/23.png","direct","",""
"","image-slider-response","136","583461","0.0-8.0-0.46","jj140azzth","many_one","0","direct_first","1","er06er12","0","23","1","1","3","1","","0","1","0","2768.625000026077","","","","","neg","GS","GSold","1","category1/CS8.png","-18","targets/1.png","direct","",""
"","image-slider-response","137","586385","0.0-8.0-0.47","jj140azzth","many_one","0","direct_first","1","er06er12","0","23","1","1","3","1","","0","1","0","2914.9200001265854","","","","","pos","GS","GSnew","4","category4/GS1.png","14","targets/13.png","direct","",""
"","html-keyboard-response","138","636391","0.0-9.0","jj140azzth","many_one","0","direct_first","1","er06er12","0","23","1","1","3","1","","0","1","0","50000.08499994874","","","<p>Sie sehen nun die chinesischen Zeichen nur ganz kurz. Danach sehen Sie die jeweilige Aussprache der Zeichen als Silbe auf dem Bildschrim. Ihre Aufgabe ist es, für jede Silbe anzugeben, ob diese etwas angenehmes, oder unangenehmes bedeuten könnte. Verlassen Sie sich hier vor allem auf Ihre Intuition.<br><br>Die Zeichen werden nur zur Orientierung dargestellt, beachten Sie sie deshalb nicht. Konzentrieren Sie sich vor allem auf die Silben. <br>Reagieren Sie mit folgenden zwei Tasten: <br><br><b>'D' </b> wenn die Silbe etwas <b>unangenehmes</b> bedeuten könnte. <br><b>'K'</b> wenn die Silbe etwas <b>angenehmes</b> bedeuten könnte. <br><br>Bitte legen Sie nun den Zeigefinger der linken Hand auf die Taste 'D' und den Zeigefinger der rechten Hand auf die Taste 'K'. <br>Reagieren Sie auf jede Silbe so schnell wie möglich. Uns interessiert Ihre spontane Reaktion. <br> <br> <br>Drücken Sie 'D' oder 'K', um die nächste Aufgabe zu starten. </p>","75","","","","","","","","","",""
"","html-keyboard-response","139","639410","0.0-10.0-0.0","jj140azzth","many_one","0","direct_first","1","er06er12","0","23","1","1","3","1","","0","1","0","null","","","<div style=""font-size:60px;"">+</div>","null","","","","","","","","","",""
"","html-keyboard-response","140","639516","0.0-10.0-1.0","jj140azzth","many_one","0","direct_first","1","er06er12","0","23","1","1","3","1","","0","1","0","null","","","<img src = 'category2/CS8.png' width = '100%;'>","null","","","","","","","","","",""
"","html-keyboard-response","141","639789","0.0-10.0-2.0","jj140azzth","many_one","0","direct_first","1","er06er12","0","23","1","1","3","1","","0","1","0","null","","","<img src = 'targets/21.png' width = '100%;'>","null","","","","","","","","","",""
"","html-keyboard-response","142","642759","0.0-10.0-3.0","jj140azzth","many_one","0","direct_first","1","er06er12","0","23","1","1","3","1","","0","1","0","2967.2799999825656","","","<img src = 'targets/mask.png' width = '100%;'>","75","pos","CS","CS","2","category2/CS8.png","","targets/21.png","indirect","1","0"
"","html-keyboard-response","143","644270","0.0-10.0-0.1","jj140azzth","many_one","0","direct_first","1","er06er12","0","23","1","1","3","1","","0","1","0","null","","","<div style=""font-size:60px;"">+</div>","null","","","","","","","","","",""
"","html-keyboard-response","144","644368","0.0-10.0-1.1","jj140azzth","many_one","0","direct_first","1","er06er12","0","23","1","1","3","1","","0","1","0","null","","","<img src = 'category2/CS4.png' width = '100%;'>","null","","","","","","","","","",""
"","html-keyboard-response","145","644647","0.0-10.0-2.1","jj140azzth","many_one","0","direct_first","1","er06er12","0","23","1","1","3","1","","0","1","0","null","","","<img src = 'targets/18.png' width = '100%;'>","null","","","","","","","","","",""
"","html-keyboard-response","146","644942","0.0-10.0-3.1","jj140azzth","many_one","0","direct_first","1","er06er12","0","23","1","1","3","1","","0","1","0","292.3550000414252","","","<img src = 'targets/mask.png' width = '100%;'>","68","pos","CS","CS","2","category2/CS4.png","","targets/18.png","indirect","0","1"
"","html-keyboard-response","147","646457","0.0-10.0-0.2","jj140azzth","many_one","0","direct_first","1","er06er12","0","23","1","1","3","1","","0","1","0","null","","","<div style=""font-size:60px;"">+</div>","null","","","","","","","","","",""
"","html-keyboard-response","148","646553","0.0-10.0-1.2","jj140azzth","many_one","0","direct_first","1","er06er12","0","23","1","1","3","1","","0","1","0","null","","","<img src = 'category1/CS9.png' width = '100%;'>","null","","","","","","","","","",""
"","html-keyboard-response","149","646816","0.0-10.0-2.2","jj140azzth","many_one","0","direct_first","1","er06er12","0","23","1","1","3","1","","0","1","0","null","","","<img src = 'targets/33.png' width = '100%;'>","null","","","","","","","","","",""
"","html-keyboard-response","150","647475","0.0-10.0-3.2","jj140azzth","many_one","0","direct_first","1","er06er12","0","23","1","1","3","1","","0","1","0","656.6149999853224","","","<img src = 'targets/mask.png' width = '100%;'>","75","neg","CS","CS","1","category1/CS9.png","","targets/33.png","indirect","1","2"
"","html-keyboard-response","151","648999","0.0-10.0-0.3","jj140azzth","many_one","0","direct_first","1","er06er12","0","23","1","1","3","1","","0","1","0","null","","","<div style=""font-size:60px;"">+</div>","null","","","","","","","","","",""
"","html-keyboard-response","152","649104","0.0-10.0-1.3","jj140azzth","many_one","0","direct_first","1","er06er12","0","23","1","1","3","1","","0","1","0","null","","","<img src = 'category1/CS7.png' width = '100%;'>","null","","","","","","","","","",""
"","html-keyboard-response","153","649365","0.0-10.0-2.3","jj140azzth","many_one","0","direct_first","1","er06er12","0","23","1","1","3","1","","0","1","0","null","","","<img src = 'targets/39.png' width = '100%;'>","null","","","","","","","","","",""
"","html-keyboard-response","154","649593","0.0-10.0-3.3","jj140azzth","many_one","0","direct_first","1","er06er12","0","23","1","1","3","1","","0","1","0","225.15999991446733","","","<img src = 'targets/mask.png' width = '100%;'>","68","neg","GS","GSold","1","category1/CS7.png","","targets/39.png","indirect","0","3"
"","html-keyboard-response","155","651112","0.0-10.0-0.4","jj140azzth","many_one","0","direct_first","1","er06er12","0","23","1","1","3","1","","0","1","0","null","","","<div style=""font-size:60px;"">+</div>","null","","","","","","","","","",""
"","html-keyboard-response","156","651208","0.0-10.0-1.4","jj140azzth","many_one","0","direct_first","1","er06er12","0","23","1","1","3","1","","0","1","0","null","","","<img src = 'category1/CS2.png' width = '100%;'>","null","","","","","","","","","",""
"","html-keyboard-response","157","651464","0.0-10.0-2.4","jj140azzth","many_one","0","direct_first","1","er06er12","0","23","1","1","3","1","","0","1","0","null","","","<img src = 'targets/31.png' width = '100%;'>","null","","","","","","","","","",""
"","html-keyboard-response","158","652120","0.0-10.0-3.4","jj140azzth","many_one","0","direct_first","1","er06er12","0","23","1","1","3","1","","0","1","0","652.934999903664","","","<img src = 'targets/mask.png' width = '100%;'>","75","neg","CS","CS","1","category1/CS2.png","","targets/31.png","indirect","1","4"
"","html-keyboard-response","159","653632","0.0-10.0-0.5","jj140azzth","many_one","0","direct_first","1","er06er12","0","23","1","1","3","1","","0","1","0","null","","","<div style=""font-size:60px;"">+</div>","null","","","","","","","","","",""
"","html-keyboard-response","160","653736","0.0-10.0-1.5","jj140azzth","many_one","0","direct_first","1","er06er12","0","23","1","1","3","1","","0","1","0","null","","","<img src = 'category4/CS7.png' width = '100%;'>","null","","","","","","","","","",""
"","html-keyboard-response","161","654002","0.0-10.0-2.5","jj140azzth","many_one","0","direct_first","1","er06er12","0","23","1","1","3","1","","0","1","0","null","","","<img src = 'targets/7.png' width = '100%;'>","null","","","","","","","","","",""
"","html-keyboard-response","162","654851","0.0-10.0-3.5","jj140azzth","many_one","0","direct_first","1","er06er12","0","23","1","1","3","1","","0","1","0","846.3650001212955","","","<img src = 'targets/mask.png' width = '100%;'>","68","pos","GS","GSold","4","category4/CS7.png","","targets/7.png","indirect","0","5"
"","html-keyboard-response","163","656374","0.0-10.0-0.6","jj140azzth","many_one","0","direct_first","1","er06er12","0","23","1","1","3","1","","0","1","0","null","","","<div style=""font-size:60px;"">+</div>","null","","","","","","","","","",""
"","html-keyboard-response","164","656471","0.0-10.0-1.6","jj140azzth","many_one","0","direct_first","1","er06er12","0","23","1","1","3","1","","0","1","0","null","","","<img src = 'category4/CS2.png' width = '100%;'>","null","","","","","","","","","",""
"","html-keyboard-response","165","656730","0.0-10.0-2.6","jj140azzth","many_one","0","direct_first","1","er06er12","0","23","1","1","3","1","","0","1","0","null","","","<img src = 'targets/38.png' width = '100%;'>","null","","","","","","","","","",""
"","html-keyboard-response","166","657235","0.0-10.0-3.6","jj140azzth","many_one","0","direct_first","1","er06er12","0","23","1","1","3","1","","0","1","0","500.59000006876886","","","<img src = 'targets/mask.png' width = '100%;'>","68","pos","CS","CS","4","category4/CS2.png","","targets/38.png","indirect","0","6"
"","html-keyboard-response","167","658761","0.0-10.0-0.7","jj140azzth","many_one","0","direct_first","1","er06er12","0","23","1","1","3","1","","0","1","0","null","","","<div style=""font-size:60px;"">+</div>","null","","","","","","","","","",""
"","html-keyboard-response","168","658858","0.0-10.0-1.7","jj140azzth","many_one","0","direct_first","1","er06er12","0","23","1","1","3","1","","0","1","0","null","","","<img src = 'category4/CS4.png' width = '100%;'>","null","","","","","","","","","",""
"","html-keyboard-response","169","659115","0.0-10.0-2.7","jj140azzth","many_one","0","direct_first","1","er06er12","0","23","1","1","3","1","","0","1","0","null","","","<img src = 'targets/36.png' width = '100%;'>","null","","","","","","","","","",""
"","html-keyboard-response","170","659765","0.0-10.0-3.7","jj140azzth","many_one","0","direct_first","1","er06er12","0","23","1","1","3","1","","0","1","0","647.1750000491738","","","<img src = 'targets/mask.png' width = '100%;'>","75","pos","CS","CS","4","category4/CS4.png","","targets/36.png","indirect","1","7"
"","html-keyboard-response","171","661275","0.0-10.0-0.8","jj140azzth","many_one","0","direct_first","1","er06er12","0","23","1","1","3","1","","0","1","0","null","","","<div style=""font-size:60px;"">+</div>","null","","","","","","","","","",""
"","html-keyboard-response","172","661381","0.0-10.0-1.8","jj140azzth","many_one","0","direct_first","1","er06er12","0","23","1","1","3","1","","0","1","0","null","","","<img src = 'category3/CS6.png' width = '100%;'>","null","","","","","","","","","",""
"","html-keyboard-response","173","661647","0.0-10.0-2.8","jj140azzth","many_one","0","direct_first","1","er06er12","0","23","1","1","3","1","","0","1","0","null","","","<img src = 'targets/28.png' width = '100%;'>","null","","","","","","","","","",""
"","html-keyboard-response","174","662295","0.0-10.0-3.8","jj140azzth","many_one","0","direct_first","1","er06er12","0","23","1","1","3","1","","0","1","0","645.6250001210719","","","<img src = 'targets/mask.png' width = '100%;'>","68","neg","CS","CS","3","category3/CS6.png","","targets/28.png","indirect","0","8"
"","html-keyboard-response","175","663835","0.0-10.0-0.9","jj140azzth","many_one","0","direct_first","1","er06er12","0","23","1","1","3","1","","0","1","0","null","","","<div style=""font-size:60px;"">+</div>","null","","","","","","","","","",""
"","html-keyboard-response","176","663936","0.0-10.0-1.9","jj140azzth","many_one","0","direct_first","1","er06er12","0","23","1","1","3","1","","0","1","0","null","","","<img src = 'category3/CS9.png' width = '100%;'>","null","","","","","","","","","",""
"","html-keyboard-response","177","664201","0.0-10.0-2.9","jj140azzth","many_one","0","direct_first","1","er06er12","0","23","1","1","3","1","","0","1","0","null","","","<img src = 'targets/48.png' width = '100%;'>","null","","","","","","","","","",""
"","html-keyboard-response","178","664738","0.0-10.0-3.9","jj140azzth","many_one","0","direct_first","1","er06er12","0","23","1","1","3","1","","0","1","0","534.0599999763072","","","<img src = 'targets/mask.png' width = '100%;'>","68","neg","CS","CS","3","category3/CS9.png","","targets/48.png","indirect","0","9"
"","html-keyboard-response","179","666272","0.0-10.0-0.10","jj140azzth","many_one","0","direct_first","1","er06er12","0","23","1","1","3","1","","0","1","0","null","","","<div style=""font-size:60px;"">+</div>","null","","","","","","","","","",""
"","html-keyboard-response","180","666366","0.0-10.0-1.10","jj140azzth","many_one","0","direct_first","1","er06er12","0","23","1","1","3","1","","0","1","0","null","","","<img src = 'category2/CS7.png' width = '100%;'>","null","","","","","","","","","",""
"","html-keyboard-response","181","666630","0.0-10.0-2.10","jj140azzth","many_one","0","direct_first","1","er06er12","0","23","1","1","3","1","","0","1","0","null","","","<img src = 'targets/37.png' width = '100%;'>","null","","","","","","","","","",""
"","html-keyboard-response","182","667146","0.0-10.0-3.10","jj140azzth","many_one","0","direct_first","1","er06er12","0","23","1","1","3","1","","0","1","0","512.6100000925362","","","<img src = 'targets/mask.png' width = '100%;'>","75","pos","CS","CS","2","category2/CS7.png","","targets/37.png","indirect","1","10"
"","html-keyboard-response","183","668666","0.0-10.0-0.11","jj140azzth","many_one","0","direct_first","1","er06er12","0","23","1","1","3","1","","0","1","0","null","","","<div style=""font-size:60px;"">+</div>","null","","","","","","","","","",""
"","html-keyboard-response","184","668773","0.0-10.0-1.11","jj140azzth","many_one","0","direct_first","1","er06er12","0","23","1","1","3","1","","0","1","0","null","","","<img src = 'category4/CS10.png' width = '100%;'>","null","","","","","","","","","",""
"","html-keyboard-response","185","669038","0.0-10.0-2.11","jj140azzth","many_one","0","direct_first","1","er06er12","0","23","1","1","3","1","","0","1","0","null","","","<img src = 'targets/46.png' width = '100%;'>","null","","","","","","","","","",""
"","html-keyboard-response","186","669660","0.0-10.0-3.11","jj140azzth","many_one","0","direct_first","1","er06er12","0","23","1","1","3","1","","0","1","0","619.3699999712408","","","<img src = 'targets/mask.png' width = '100%;'>","75","pos","CS","CS","4","category4/CS10.png","","targets/46.png","indirect","1","11"
"","html-keyboard-response","187","671178","0.0-10.0-0.12","jj140azzth","many_one","0","direct_first","1","er06er12","0","23","1","1","3","1","","0","1","0","null","","","<div style=""font-size:60px;"">+</div>","null","","","","","","","","","",""
"","html-keyboard-response","188","671274","0.0-10.0-1.12","jj140azzth","many_one","0","direct_first","1","er06er12","0","23","1","1","3","1","","0","1","0","null","","","<img src = 'category4/CS3.png' width = '100%;'>","null","","","","","","","","","",""
"","html-keyboard-response","189","671532","0.0-10.0-2.12","jj140azzth","many_one","0","direct_first","1","er06er12","0","23","1","1","3","1","","0","1","0","null","","","<img src = 'targets/42.png' width = '100%;'>","null","","","","","","","","","",""
"","html-keyboard-response","190","672004","0.0-10.0-3.12","jj140azzth","many_one","0","direct_first","1","er06er12","0","23","1","1","3","1","","0","1","0","468.21000007912517","","","<img src = 'targets/mask.png' width = '100%;'>","75","pos","CS","CS","4","category4/CS3.png","","targets/42.png","indirect","1","12"
"","html-keyboard-response","191","673520","0.0-10.0-0.13","jj140azzth","many_one","0","direct_first","1","er06er12","0","23","1","1","3","1","","0","1","0","null","","","<div style=""font-size:60px;"">+</div>","null","","","","","","","","","",""
"","html-keyboard-response","192","673615","0.0-10.0-1.13","jj140azzth","many_one","0","direct_first","1","er06er12","0","23","1","1","3","1","","0","1","0","null","","","<img src = 'category1/CS4.png' width = '100%;'>","null","","","","","","","","","",""
"","html-keyboard-response","193","673888","0.0-10.0-2.13","jj140azzth","many_one","0","direct_first","1","er06er12","0","23","1","1","3","1","","0","1","0","null","","","<img src = 'targets/27.png' width = '100%;'>","null","","","","","","","","","",""
"","html-keyboard-response","194","674565","0.0-10.0-3.13","jj140azzth","many_one","0","direct_first","1","er06er12","0","23","1","1","3","1","","0","1","0","674.2250001989305","","","<img src = 'targets/mask.png' width = '100%;'>","68","neg","CS","CS","1","category1/CS4.png","","targets/27.png","indirect","0","13"
"","html-keyboard-response","195","676082","0.0-10.0-0.14","jj140azzth","many_one","0","direct_first","1","er06er12","0","23","1","1","3","1","","0","1","0","null","","","<div style=""font-size:60px;"">+</div>","null","","","","","","","","","",""
"","html-keyboard-response","196","676183","0.0-10.0-1.14","jj140azzth","many_one","0","direct_first","1","er06er12","0","23","1","1","3","1","","0","1","0","null","","","<img src = 'category3/CS2.png' width = '100%;'>","null","","","","","","","","","",""
"","html-keyboard-response","197","676462","0.0-10.0-2.14","jj140azzth","many_one","0","direct_first","1","er06er12","0","23","1","1","3","1","","0","1","0","null","","","<img src = 'targets/14.png' width = '100%;'>","null","","","","","","","","","",""
"","html-keyboard-response","198","676770","0.0-10.0-3.14","jj140azzth","many_one","0","direct_first","1","er06er12","0","23","1","1","3","1","","0","1","0","305.7300001382828","","","<img src = 'targets/mask.png' width = '100%;'>","75","neg","CS","CS","3","category3/CS2.png","","targets/14.png","indirect","1","14"
"","html-keyboard-response","199","678297","0.0-10.0-0.15","jj140azzth","many_one","0","direct_first","1","er06er12","0","23","1","1","3","1","","0","1","0","null","","","<div style=""font-size:60px;"">+</div>","null","","","","","","","","","",""
"","html-keyboard-response","200","678402","0.0-10.0-1.15","jj140azzth","many_one","0","direct_first","1","er06er12","0","23","1","1","3","1","","0","1","0","null","","","<img src = 'category1/CS1.png' width = '100%;'>","null","","","","","","","","","",""
"","html-keyboard-response","201","678667","0.0-10.0-2.15","jj140azzth","many_one","0","direct_first","1","er06er12","0","23","1","1","3","1","","0","1","0","null","","","<img src = 'targets/12.png' width = '100%;'>","null","","","","","","","","","",""
"","html-keyboard-response","202","679150","0.0-10.0-3.15","jj140azzth","many_one","0","direct_first","1","er06er12","0","23","1","1","3","1","","0","1","0","480.2399999462068","","","<img src = 'targets/mask.png' width = '100%;'>","75","neg","CS","CS","1","category1/CS1.png","","targets/12.png","indirect","1","15"
"","html-keyboard-response","203","680669","0.0-10.0-0.16","jj140azzth","many_one","0","direct_first","1","er06er12","0","23","1","1","3","1","","0","1","0","null","","","<div style=""font-size:60px;"">+</div>","null","","","","","","","","","",""
"","html-keyboard-response","204","680764","0.0-10.0-1.16","jj140azzth","many_one","0","direct_first","1","er06er12","0","23","1","1","3","1","","0","1","0","null","","","<img src = 'category2/CS1.png' width = '100%;'>","null","","","","","","","","","",""
"","html-keyboard-response","205","681058","0.0-10.0-2.16","jj140azzth","many_one","0","direct_first","1","er06er12","0","23","1","1","3","1","","0","1","0","null","","","<img src = 'targets/26.png' width = '100%;'>","null","","","","","","","","","",""
"","html-keyboard-response","206","681547","0.0-10.0-3.16","jj140azzth","many_one","0","direct_first","1","er06er12","0","23","1","1","3","1","","0","1","0","486.89999990165234","","","<img src = 'targets/mask.png' width = '100%;'>","75","pos","CS","CS","2","category2/CS1.png","","targets/26.png","indirect","1","16"
"","html-keyboard-response","207","683079","0.0-10.0-0.17","jj140azzth","many_one","0","direct_first","1","er06er12","0","23","1","1","3","1","","0","1","0","null","","","<div style=""font-size:60px;"">+</div>","null","","","","","","","","","",""
"","html-keyboard-response","208","683185","0.0-10.0-1.17","jj140azzth","many_one","0","direct_first","1","er06er12","0","23","1","1","3","1","","0","1","0","null","","","<img src = 'category4/CS9.png' width = '100%;'>","null","","","","","","","","","",""
"","html-keyboard-response","209","683449","0.0-10.0-2.17","jj140azzth","many_one","0","direct_first","1","er06er12","0","23","1","1","3","1","","0","1","0","null","","","<img src = 'targets/32.png' width = '100%;'>","null","","","","","","","","","",""
"","html-keyboard-response","210","683811","0.0-10.0-3.17","jj140azzth","many_one","0","direct_first","1","er06er12","0","23","1","1","3","1","","0","1","0","359.6949998755008","","","<img src = 'targets/mask.png' width = '100%;'>","68","pos","CS","CS","4","category4/CS9.png","","targets/32.png","indirect","0","17"
"","html-keyboard-response","211","685324","0.0-10.0-0.18","jj140azzth","many_one","0","direct_first","1","er06er12","0","23","1","1","3","1","","0","1","0","null","","","<div style=""font-size:60px;"">+</div>","null","","","","","","","","","",""
"","html-keyboard-response","212","685423","0.0-10.0-1.18","jj140azzth","many_one","0","direct_first","1","er06er12","0","23","1","1","3","1","","0","1","0","null","","","<img src = 'category1/CS8.png' width = '100%;'>","null","","","","","","","","","",""
"","html-keyboard-response","213","685692","0.0-10.0-2.18","jj140azzth","many_one","0","direct_first","1","er06er12","0","23","1","1","3","1","","0","1","0","null","","","<img src = 'targets/1.png' width = '100%;'>","null","","","","","","","","","",""
"","html-keyboard-response","214","686070","0.0-10.0-3.18","jj140azzth","many_one","0","direct_first","1","er06er12","0","23","1","1","3","1","","0","1","0","375.4199999384582","","","<img src = 'targets/mask.png' width = '100%;'>","75","neg","GS","GSold","1","category1/CS8.png","","targets/1.png","indirect","1","18"
"","html-keyboard-response","215","687594","0.0-10.0-0.19","jj140azzth","many_one","0","direct_first","1","er06er12","0","23","1","1","3","1","","0","1","0","null","","","<div style=""font-size:60px;"">+</div>","null","","","","","","","","","",""
"","html-keyboard-response","216","687689","0.0-10.0-1.19","jj140azzth","many_one","0","direct_first","1","er06er12","0","23","1","1","3","1","","0","1","0","null","","","<img src = 'category3/CS7.png' width = '100%;'>","null","","","","","","","","","",""
"","html-keyboard-response","217","687954","0.0-10.0-2.19","jj140azzth","many_one","0","direct_first","1","er06er12","0","23","1","1","3","1","","0","1","0","null","","","<img src = 'targets/47.png' width = '100%;'>","null","","","","","","","","","",""
"","html-keyboard-response","218","688364","0.0-10.0-3.19","jj140azzth","many_one","0","direct_first","1","er06er12","0","23","1","1","3","1","","0","1","0","407.4049999471754","","","<img src = 'targets/mask.png' width = '100%;'>","68","neg","CS","CS","3","category3/CS7.png","","targets/47.png","indirect","0","19"
"","html-keyboard-response","219","689887","0.0-10.0-0.20","jj140azzth","many_one","0","direct_first","1","er06er12","0","23","1","1","3","1","","0","1","0","null","","","<div style=""font-size:60px;"">+</div>","null","","","","","","","","","",""
"","html-keyboard-response","220","689980","0.0-10.0-1.20","jj140azzth","many_one","0","direct_first","1","er06er12","0","23","1","1","3","1","","0","1","0","null","","","<img src = 'category3/CS8.png' width = '100%;'>","null","","","","","","","","","",""
"","html-keyboard-response","221","690253","0.0-10.0-2.20","jj140azzth","many_one","0","direct_first","1","er06er12","0","23","1","1","3","1","","0","1","0","null","","","<img src = 'targets/41.png' width = '100%;'>","null","","","","","","","","","",""
"","html-keyboard-response","222","690956","0.0-10.0-3.20","jj140azzth","many_one","0","direct_first","1","er06er12","0","23","1","1","3","1","","0","1","0","699.9949999153614","","","<img src = 'targets/mask.png' width = '100%;'>","75","neg","CS","CS","3","category3/CS8.png","","targets/41.png","indirect","1","20"
"","html-keyboard-response","223","692465","0.0-10.0-0.21","jj140azzth","many_one","0","direct_first","1","er06er12","0","23","1","1","3","1","","0","1","0","null","","","<div style=""font-size:60px;"">+</div>","null","","","","","","","","","",""
"","html-keyboard-response","224","692572","0.0-10.0-1.21","jj140azzth","many_one","0","direct_first","1","er06er12","0","23","1","1","3","1","","0","1","0","null","","","<img src = 'category2/CS9.png' width = '100%;'>","null","","","","","","","","","",""
"","html-keyboard-response","225","692829","0.0-10.0-2.21","jj140azzth","many_one","0","direct_first","1","er06er12","0","23","1","1","3","1","","0","1","0","null","","","<img src = 'targets/35.png' width = '100%;'>","null","","","","","","","","","",""
"","html-keyboard-response","226","693409","0.0-10.0-3.21","jj140azzth","many_one","0","direct_first","1","er06er12","0","23","1","1","3","1","","0","1","0","576.8249998800457","","","<img src = 'targets/mask.png' width = '100%;'>","75","pos","CS","CS","2","category2/CS9.png","","targets/35.png","indirect","1","21"
"","html-keyboard-response","227","694922","0.0-10.0-0.22","jj140azzth","many_one","0","direct_first","1","er06er12","0","23","1","1","3","1","","0","1","0","null","","","<div style=""font-size:60px;"">+</div>","null","","","","","","","","","",""
"","html-keyboard-response","228","695029","0.0-10.0-1.22","jj140azzth","many_one","0","direct_first","1","er06er12","0","23","1","1","3","1","","0","1","0","null","","","<img src = 'category1/CS3.png' width = '100%;'>","null","","","","","","","","","",""
"","html-keyboard-response","229","695296","0.0-10.0-2.22","jj140azzth","many_one","0","direct_first","1","er06er12","0","23","1","1","3","1","","0","1","0","null","","","<img src = 'targets/22.png' width = '100%;'>","null","","","","","","","","","",""
"","html-keyboard-response","230","695785","0.0-10.0-3.22","jj140azzth","many_one","0","direct_first","1","er06er12","0","23","1","1","3","1","","0","1","0","486.4400001242757","","","<img src = 'targets/mask.png' width = '100%;'>","68","neg","CS","CS","1","category1/CS3.png","","targets/22.png","indirect","0","22"
"","html-keyboard-response","231","697293","0.0-10.0-0.23","jj140azzth","many_one","0","direct_first","1","er06er12","0","23","1","1","3","1","","0","1","0","null","","","<div style=""font-size:60px;"">+</div>","null","","","","","","","","","",""
"","html-keyboard-response","232","697398","0.0-10.0-1.23","jj140azzth","many_one","0","direct_first","1","er06er12","0","23","1","1","3","1","","0","1","0","null","","","<img src = 'category1/CS6.png' width = '100%;'>","null","","","","","","","","","",""
"","html-keyboard-response","233","697663","0.0-10.0-2.23","jj140azzth","many_one","0","direct_first","1","er06er12","0","23","1","1","3","1","","0","1","0","null","","","<img src = 'targets/44.png' width = '100%;'>","null","","","","","","","","","",""
"","html-keyboard-response","234","698143","0.0-10.0-3.23","jj140azzth","many_one","0","direct_first","1","er06er12","0","23","1","1","3","1","","0","1","0","475.8599998895079","","","<img src = 'targets/mask.png' width = '100%;'>","68","neg","GS","GSold","1","category1/CS6.png","","targets/44.png","indirect","0","23"
"","survey-html-form","235","703220","0.0-11.0","jj140azzth","many_one","0","direct_first","1","er06er12","0","23","1","1","3","1","","0","1","0","4540.400000056252","","{}","","","","","","","","","","","",""
"","html-keyboard-response","236","706250","0.0-12.0-0.0","jj140azzth","many_one","0","direct_first","1","er06er12","0","23","1","1","3","1","","0","1","0","null","","","<div style=""font-size:60px;"">+</div>","null","","","","","","","","","",""
"","html-keyboard-response","237","706349","0.0-12.0-1.0","jj140azzth","many_one","0","direct_first","1","er06er12","0","23","1","1","3","1","","0","1","0","null","","","<img src = 'category2/GS2.png' width = '100%;'>","null","","","","","","","","","",""
"","html-keyboard-response","238","706614","0.0-12.0-2.0","jj140azzth","many_one","0","direct_first","1","er06er12","0","23","1","1","3","1","","0","1","0","null","","","<img src = 'targets/25.png' width = '100%;'>","null","","","","","","","","","",""
"","html-keyboard-response","239","707241","0.0-12.0-3.0","jj140azzth","many_one","0","direct_first","1","er06er12","0","23","1","1","3","1","","0","1","0","623.3749999664724","","","<img src = 'targets/mask.png' width = '100%;'>","68","pos","GS","GSnew","2","category2/GS2.png","","targets/25.png","indirect","0","24"
"","html-keyboard-response","240","708765","0.0-12.0-0.1","jj140azzth","many_one","0","direct_first","1","er06er12","0","23","1","1","3","1","","0","1","0","null","","","<div style=""font-size:60px;"">+</div>","null","","","","","","","","","",""
"","html-keyboard-response","241","708869","0.0-12.0-1.1","jj140azzth","many_one","0","direct_first","1","er06er12","0","23","1","1","3","1","","0","1","0","null","","","<img src = 'category4/GS1.png' width = '100%;'>","null","","","","","","","","","",""
"","html-keyboard-response","242","709159","0.0-12.0-2.1","jj140azzth","many_one","0","direct_first","1","er06er12","0","23","1","1","3","1","","0","1","0","null","","","<img src = 'targets/13.png' width = '100%;'>","null","","","","","","","","","",""
"","html-keyboard-response","243","709618","0.0-12.0-3.1","jj140azzth","many_one","0","direct_first","1","er06er12","0","23","1","1","3","1","","0","1","0","456.47000009194016","","","<img src = 'targets/mask.png' width = '100%;'>","68","pos","GS","GSnew","4","category4/GS1.png","","targets/13.png","indirect","0","25"
"","html-keyboard-response","244","711145","0.0-12.0-0.2","jj140azzth","many_one","0","direct_first","1","er06er12","0","23","1","1","3","1","","0","1","0","null","","","<div style=""font-size:60px;"">+</div>","null","","","","","","","","","",""
"","html-keyboard-response","245","711250","0.0-12.0-1.2","jj140azzth","many_one","0","direct_first","1","er06er12","0","23","1","1","3","1","","0","1","0","null","","","<img src = 'category1/GS2.png' width = '100%;'>","null","","","","","","","","","",""
"","html-keyboard-response","246","711518","0.0-12.0-2.2","jj140azzth","many_one","0","direct_first","1","er06er12","0","23","1","1","3","1","","0","1","0","null","","","<img src = 'targets/20.png' width = '100%;'>","null","","","","","","","","","",""
"","html-keyboard-response","247","711968","0.0-12.0-3.2","jj140azzth","many_one","0","direct_first","1","er06er12","0","23","1","1","3","1","","0","1","0","447.2300000488758","","","<img src = 'targets/mask.png' width = '100%;'>","68","neg","GS","GSnew","1","category1/GS2.png","","targets/20.png","indirect","0","26"
"","html-keyboard-response","248","713495","0.0-12.0-0.3","jj140azzth","many_one","0","direct_first","1","er06er12","0","23","1","1","3","1","","0","1","0","null","","","<div style=""font-size:60px;"">+</div>","null","","","","","","","","","",""
"","html-keyboard-response","249","713600","0.0-12.0-1.3","jj140azzth","many_one","0","direct_first","1","er06er12","0","23","1","1","3","1","","0","1","0","null","","","<img src = 'category4/lin.png' width = '100%;'>","null","","","","","","","","","",""
"","html-keyboard-response","250","713879","0.0-12.0-2.3","jj140azzth","many_one","0","direct_first","1","er06er12","0","23","1","1","3","1","","0","1","0","null","","","<img src = 'targets/29.png' width = '100%;'>","null","","","","","","","","","",""
"","html-keyboard-response","251","714392","0.0-12.0-3.3","jj140azzth","many_one","0","direct_first","1","er06er12","0","23","1","1","3","1","","0","1","0","510.550000006333","","","<img src = 'targets/mask.png' width = '100%;'>","75","pos","GS","abstract","4","category4/lin.png","","targets/29.png","indirect","1","27"
"","html-keyboard-response","252","715907","0.0-12.0-0.4","jj140azzth","many_one","0","direct_first","1","er06er12","0","23","1","1","3","1","","0","1","0","null","","","<div style=""font-size:60px;"">+</div>","null","","","","","","","","","",""
"","html-keyboard-response","253","716014","0.0-12.0-1.4","jj140azzth","many_one","0","direct_first","1","er06er12","0","23","1","1","3","1","","0","1","0","null","","","<img src = 'category2/GS1.png' width = '100%;'>","null","","","","","","","","","",""
"","html-keyboard-response","254","716283","0.0-12.0-2.4","jj140azzth","many_one","0","direct_first","1","er06er12","0","23","1","1","3","1","","0","1","0","null","","","<img src = 'targets/24.png' width = '100%;'>","null","","","","","","","","","",""
"","html-keyboard-response","255","716829","0.0-12.0-3.4","jj140azzth","many_one","0","direct_first","1","er06er12","0","23","1","1","3","1","","0","1","0","542.8049999754876","","","<img src = 'targets/mask.png' width = '100%;'>","68","pos","GS","GSnew","2","category2/GS1.png","","targets/24.png","indirect","0","28"
"","html-keyboard-response","256","718360","0.0-12.0-0.5","jj140azzth","many_one","0","direct_first","1","er06er12","0","23","1","1","3","1","","0","1","0","null","","","<div style=""font-size:60px;"">+</div>","null","","","","","","","","","",""
"","html-keyboard-response","257","718458","0.0-12.0-1.5","jj140azzth","many_one","0","direct_first","1","er06er12","0","23","1","1","3","1","","0","1","0","null","","","<img src = 'category2/CS5.png' width = '100%;'>","null","","","","","","","","","",""
"","html-keyboard-response","258","718713","0.0-12.0-2.5","jj140azzth","many_one","0","direct_first","1","er06er12","0","23","1","1","3","1","","0","1","0","null","","","<img src = 'targets/16.png' width = '100%;'>","null","","","","","","","","","",""
"","html-keyboard-response","259","719147","0.0-12.0-3.5","jj140azzth","many_one","0","direct_first","1","er06er12","0","23","1","1","3","1","","0","1","0","430.6600000709295","","","<img src = 'targets/mask.png' width = '100%;'>","68","pos","GS","GSold","2","category2/CS5.png","","targets/16.png","indirect","0","29"
"","html-keyboard-response","260","720663","0.0-12.0-0.6","jj140azzth","many_one","0","direct_first","1","er06er12","0","23","1","1","3","1","","0","1","0","null","","","<div style=""font-size:60px;"">+</div>","null","","","","","","","","","",""
"","html-keyboard-response","261","720768","0.0-12.0-1.6","jj140azzth","many_one","0","direct_first","1","er06er12","0","23","1","1","3","1","","0","1","0","null","","","<img src = 'category2/GS3.png' width = '100%;'>","null","","","","","","","","","",""
"","html-keyboard-response","262","721030","0.0-12.0-2.6","jj140azzth","many_one","0","direct_first","1","er06er12","0","23","1","1","3","1","","0","1","0","null","","","<img src = 'targets/11.png' width = '100%;'>","null","","","","","","","","","",""
"","html-keyboard-response","263","721451","0.0-12.0-3.6","jj140azzth","many_one","0","direct_first","1","er06er12","0","23","1","1","3","1","","0","1","0","417.7700001746416","","","<img src = 'targets/mask.png' width = '100%;'>","75","pos","GS","GSnew","2","category2/GS3.png","","targets/11.png","indirect","1","30"
"","html-keyboard-response","264","722982","0.0-12.0-0.7","jj140azzth","many_one","0","direct_first","1","er06er12","0","23","1","1","3","1","","0","1","0","null","","","<div style=""font-size:60px;"">+</div>","null","","","","","","","","","",""
"","html-keyboard-response","265","723087","0.0-12.0-1.7","jj140azzth","many_one","0","direct_first","1","er06er12","0","23","1","1","3","1","","0","1","0","null","","","<img src = 'category4/CS1.png' width = '100%;'>","null","","","","","","","","","",""
"","html-keyboard-response","266","723355","0.0-12.0-2.7","jj140azzth","many_one","0","direct_first","1","er06er12","0","23","1","1","3","1","","0","1","0","null","","","<img src = 'targets/10.png' width = '100%;'>","null","","","","","","","","","",""
"","html-keyboard-response","267","723749","0.0-12.0-3.7","jj140azzth","many_one","0","direct_first","1","er06er12","0","23","1","1","3","1","","0","1","0","391.4399999193847","","","<img src = 'targets/mask.png' width = '100%;'>","68","pos","GS","GSold","4","category4/CS1.png","","targets/10.png","indirect","0","31"
"","html-keyboard-response","268","725273","0.0-12.0-0.8","jj140azzth","many_one","0","direct_first","1","er06er12","0","23","1","1","3","1","","0","1","0","null","","","<div style=""font-size:60px;"">+</div>","null","","","","","","","","","",""
"","html-keyboard-response","269","725381","0.0-12.0-1.8","jj140azzth","many_one","0","direct_first","1","er06er12","0","23","1","1","3","1","","0","1","0","null","","","<img src = 'category3/CS5.png' width = '100%;'>","null","","","","","","","","","",""
"","html-keyboard-response","270","725647","0.0-12.0-2.8","jj140azzth","many_one","0","direct_first","1","er06er12","0","23","1","1","3","1","","0","1","0","null","","","<img src = 'targets/30.png' width = '100%;'>","null","","","","","","","","","",""
"","html-keyboard-response","271","726083","0.0-12.0-3.8","jj140azzth","many_one","0","direct_first","1","er06er12","0","23","1","1","3","1","","0","1","0","433.20999993011355","","","<img src = 'targets/mask.png' width = '100%;'>","75","neg","GS","GSold","3","category3/CS5.png","","targets/30.png","indirect","1","32"
"","html-keyboard-response","272","727597","0.0-12.0-0.9","jj140azzth","many_one","0","direct_first","1","er06er12","0","23","1","1","3","1","","0","1","0","null","","","<div style=""font-size:60px;"">+</div>","null","","","","","","","","","",""
"","html-keyboard-response","273","727703","0.0-12.0-1.9","jj140azzth","many_one","0","direct_first","1","er06er12","0","23","1","1","3","1","","0","1","0","null","","","<img src = 'category3/GS2.png' width = '100%;'>","null","","","","","","","","","",""
"","html-keyboard-response","274","727967","0.0-12.0-2.9","jj140azzth","many_one","0","direct_first","1","er06er12","0","23","1","1","3","1","","0","1","0","null","","","<img src = 'targets/2.png' width = '100%;'>","null","","","","","","","","","",""
"","html-keyboard-response","275","728568","0.0-12.0-3.9","jj140azzth","many_one","0","direct_first","1","er06er12","0","23","1","1","3","1","","0","1","0","598.2600001152605","","","<img src = 'targets/mask.png' width = '100%;'>","68","neg","GS","GSnew","3","category3/GS2.png","","targets/2.png","indirect","0","33"
"","html-keyboard-response","276","730083","0.0-12.0-0.10","jj140azzth","many_one","0","direct_first","1","er06er12","0","23","1","1","3","1","","0","1","0","null","","","<div style=""font-size:60px;"">+</div>","null","","","","","","","","","",""
"","html-keyboard-response","277","730186","0.0-12.0-1.10","jj140azzth","many_one","0","direct_first","1","er06er12","0","23","1","1","3","1","","0","1","0","null","","","<img src = 'category3/wang.png' width = '100%;'>","null","","","","","","","","","",""
"","html-keyboard-response","278","730451","0.0-12.0-2.10","jj140azzth","many_one","0","direct_first","1","er06er12","0","23","1","1","3","1","","0","1","0","null","","","<img src = 'targets/34.png' width = '100%;'>","null","","","","","","","","","",""
"","html-keyboard-response","279","730854","0.0-12.0-3.10","jj140azzth","many_one","0","direct_first","1","er06er12","0","23","1","1","3","1","","0","1","0","400.42500011622906","","","<img src = 'targets/mask.png' width = '100%;'>","68","neg","GS","abstract","3","category3/wang.png","","targets/34.png","indirect","0","34"
"","html-keyboard-response","280","732373","0.0-12.0-0.11","jj140azzth","many_one","0","direct_first","1","er06er12","0","23","1","1","3","1","","0","1","0","null","","","<div style=""font-size:60px;"">+</div>","null","","","","","","","","","",""
"","html-keyboard-response","281","732480","0.0-12.0-1.11","jj140azzth","many_one","0","direct_first","1","er06er12","0","23","1","1","3","1","","0","1","0","null","","","<img src = 'category3/GS1.png' width = '100%;'>","null","","","","","","","","","",""
"","html-keyboard-response","282","732746","0.0-12.0-2.11","jj140azzth","many_one","0","direct_first","1","er06er12","0","23","1","1","3","1","","0","1","0","null","","","<img src = 'targets/6.png' width = '100%;'>","null","","","","","","","","","",""
"","html-keyboard-response","283","733051","0.0-12.0-3.11","jj140azzth","many_one","0","direct_first","1","er06er12","0","23","1","1","3","1","","0","1","0","301.43500003032386","","","<img src = 'targets/mask.png' width = '100%;'>","68","neg","GS","GSnew","3","category3/GS1.png","","targets/6.png","indirect","0","35"
"","html-keyboard-response","284","734577","0.0-12.0-0.12","jj140azzth","many_one","0","direct_first","1","er06er12","0","23","1","1","3","1","","0","1","0","null","","","<div style=""font-size:60px;"">+</div>","null","","","","","","","","","",""
"","html-keyboard-response","285","734683","0.0-12.0-1.12","jj140azzth","many_one","0","direct_first","1","er06er12","0","23","1","1","3","1","","0","1","0","null","","","<img src = 'category2/CS10.png' width = '100%;'>","null","","","","","","","","","",""
"","html-keyboard-response","286","734950","0.0-12.0-2.12","jj140azzth","many_one","0","direct_first","1","er06er12","0","23","1","1","3","1","","0","1","0","null","","","<img src = 'targets/45.png' width = '100%;'>","null","","","","","","","","","",""
"","html-keyboard-response","287","735364","0.0-12.0-3.12","jj140azzth","many_one","0","direct_first","1","er06er12","0","23","1","1","3","1","","0","1","0","410.85999994538724","","","<img src = 'targets/mask.png' width = '100%;'>","75","pos","GS","GSold","2","category2/CS10.png","","targets/45.png","indirect","1","36"
"","html-keyboard-response","288","736883","0.0-12.0-0.13","jj140azzth","many_one","0","direct_first","1","er06er12","0","23","1","1","3","1","","0","1","0","null","","","<div style=""font-size:60px;"">+</div>","null","","","","","","","","","",""
"","html-keyboard-response","289","736988","0.0-12.0-1.13","jj140azzth","many_one","0","direct_first","1","er06er12","0","23","1","1","3","1","","0","1","0","null","","","<img src = 'category1/GS3.png' width = '100%;'>","null","","","","","","","","","",""
"","html-keyboard-response","290","737253","0.0-12.0-2.13","jj140azzth","many_one","0","direct_first","1","er06er12","0","23","1","1","3","1","","0","1","0","null","","","<img src = 'targets/17.png' width = '100%;'>","null","","","","","","","","","",""
"","html-keyboard-response","291","737977","0.0-12.0-3.13","jj140azzth","many_one","0","direct_first","1","er06er12","0","23","1","1","3","1","","0","1","0","720.9049998782575","","","<img src = 'targets/mask.png' width = '100%;'>","75","neg","GS","GSnew","1","category1/GS3.png","","targets/17.png","indirect","1","37"
"","html-keyboard-response","292","739498","0.0-12.0-0.14","jj140azzth","many_one","0","direct_first","1","er06er12","0","23","1","1","3","1","","0","1","0","null","","","<div style=""font-size:60px;"">+</div>","null","","","","","","","","","",""
"","html-keyboard-response","293","739599","0.0-12.0-1.14","jj140azzth","many_one","0","direct_first","1","er06er12","0","23","1","1","3","1","","0","1","0","null","","","<img src = 'category3/CS10.png' width = '100%;'>","null","","","","","","","","","",""
"","html-keyboard-response","294","739873","0.0-12.0-2.14","jj140azzth","many_one","0","direct_first","1","er06er12","0","23","1","1","3","1","","0","1","0","null","","","<img src = 'targets/9.png' width = '100%;'>","null","","","","","","","","","",""
"","html-keyboard-response","295","740474","0.0-12.0-3.14","jj140azzth","many_one","0","direct_first","1","er06er12","0","23","1","1","3","1","","0","1","0","599.1650000214577","","","<img src = 'targets/mask.png' width = '100%;'>","75","neg","GS","GSold","3","category3/CS10.png","","targets/9.png","indirect","1","38"
"","html-keyboard-response","296","742002","0.0-12.0-0.15","jj140azzth","many_one","0","direct_first","1","er06er12","0","23","1","1","3","1","","0","1","0","null","","","<div style=""font-size:60px;"">+</div>","null","","","","","","","","","",""
"","html-keyboard-response","297","742103","0.0-12.0-1.15","jj140azzth","many_one","0","direct_first","1","er06er12","0","23","1","1","3","1","","0","1","0","null","","","<img src = 'category4/GS2.png' width = '100%;'>","null","","","","","","","","","",""
"","html-keyboard-response","298","742379","0.0-12.0-2.15","jj140azzth","many_one","0","direct_first","1","er06er12","0","23","1","1","3","1","","0","1","0","null","","","<img src = 'targets/5.png' width = '100%;'>","null","","","","","","","","","",""
"","html-keyboard-response","299","742582","0.0-12.0-3.15","jj140azzth","many_one","0","direct_first","1","er06er12","0","23","1","1","3","1","","0","1","0","199.77000006474555","","","<img src = 'targets/mask.png' width = '100%;'>","68","pos","GS","GSnew","4","category4/GS2.png","","targets/5.png","indirect","0","39"
"","html-keyboard-response","300","744093","0.0-12.0-0.16","jj140azzth","many_one","0","direct_first","1","er06er12","0","23","1","1","3","1","","0","1","0","null","","","<div style=""font-size:60px;"">+</div>","null","","","","","","","","","",""
"","html-keyboard-response","301","744188","0.0-12.0-1.16","jj140azzth","many_one","0","direct_first","1","er06er12","0","23","1","1","3","1","","0","1","0","null","","","<img src = 'category4/GS3.png' width = '100%;'>","null","","","","","","","","","",""
"","html-keyboard-response","302","744445","0.0-12.0-2.16","jj140azzth","many_one","0","direct_first","1","er06er12","0","23","1","1","3","1","","0","1","0","null","","","<img src = 'targets/19.png' width = '100%;'>","null","","","","","","","","","",""
"","html-keyboard-response","303","744810","0.0-12.0-3.16","jj140azzth","many_one","0","direct_first","1","er06er12","0","23","1","1","3","1","","0","1","0","361.74000008031726","","","<img src = 'targets/mask.png' width = '100%;'>","75","pos","GS","GSnew","4","category4/GS3.png","","targets/19.png","indirect","1","40"
"","html-keyboard-response","304","746318","0.0-12.0-0.17","jj140azzth","many_one","0","direct_first","1","er06er12","0","23","1","1","3","1","","0","1","0","null","","","<div style=""font-size:60px;"">+</div>","null","","","","","","","","","",""
"","html-keyboard-response","305","746415","0.0-12.0-1.17","jj140azzth","many_one","0","direct_first","1","er06er12","0","23","1","1","3","1","","0","1","0","null","","","<img src = 'category2/CS2.png' width = '100%;'>","null","","","","","","","","","",""
"","html-keyboard-response","306","746694","0.0-12.0-2.17","jj140azzth","many_one","0","direct_first","1","er06er12","0","23","1","1","3","1","","0","1","0","null","","","<img src = 'targets/4.png' width = '100%;'>","null","","","","","","","","","",""
"","html-keyboard-response","307","746913","0.0-12.0-3.17","jj140azzth","many_one","0","direct_first","1","er06er12","0","23","1","1","3","1","","0","1","0","216.03000001050532","","","<img src = 'targets/mask.png' width = '100%;'>","68","pos","GS","GSold","2","category2/CS2.png","","targets/4.png","indirect","0","41"
"","html-keyboard-response","308","748429","0.0-12.0-0.18","jj140azzth","many_one","0","direct_first","1","er06er12","0","23","1","1","3","1","","0","1","0","null","","","<div style=""font-size:60px;"">+</div>","null","","","","","","","","","",""
"","html-keyboard-response","309","748534","0.0-12.0-1.18","jj140azzth","many_one","0","direct_first","1","er06er12","0","23","1","1","3","1","","0","1","0","null","","","<img src = 'category3/GS3.png' width = '100%;'>","null","","","","","","","","","",""
"","html-keyboard-response","310","748798","0.0-12.0-2.18","jj140azzth","many_one","0","direct_first","1","er06er12","0","23","1","1","3","1","","0","1","0","null","","","<img src = 'targets/23.png' width = '100%;'>","null","","","","","","","","","",""
"","html-keyboard-response","311","748952","0.0-12.0-3.18","jj140azzth","many_one","0","direct_first","1","er06er12","0","23","1","1","3","1","","0","1","0","149.6099999640137","","","<img src = 'targets/mask.png' width = '100%;'>","68","neg","GS","GSnew","3","category3/GS3.png","","targets/23.png","indirect","0","42"
"","html-keyboard-response","312","750480","0.0-12.0-0.19","jj140azzth","many_one","0","direct_first","1","er06er12","0","23","1","1","3","1","","0","1","0","null","","","<div style=""font-size:60px;"">+</div>","null","","","","","","","","","",""
"","html-keyboard-response","313","750585","0.0-12.0-1.19","jj140azzth","many_one","0","direct_first","1","er06er12","0","23","1","1","3","1","","0","1","0","null","","","<img src = 'category1/GS1.png' width = '100%;'>","null","","","","","","","","","",""
"","html-keyboard-response","314","750850","0.0-12.0-2.19","jj140azzth","many_one","0","direct_first","1","er06er12","0","23","1","1","3","1","","0","1","0","null","","","<img src = 'targets/43.png' width = '100%;'>","null","","","","","","","","","",""
"","html-keyboard-response","315","752464","0.0-12.0-3.19","jj140azzth","many_one","0","direct_first","1","er06er12","0","23","1","1","3","1","","0","1","0","1606.205000076443","","","<img src = 'targets/mask.png' width = '100%;'>","68","neg","GS","GSnew","1","category1/GS1.png","","targets/43.png","indirect","0","43"
"","html-keyboard-response","316","753977","0.0-12.0-0.20","jj140azzth","many_one","0","direct_first","1","er06er12","0","23","1","1","3","1","","0","1","0","null","","","<div style=""font-size:60px;"">+</div>","null","","","","","","","","","",""
"","html-keyboard-response","317","754082","0.0-12.0-1.20","jj140azzth","many_one","0","direct_first","1","er06er12","0","23","1","1","3","1","","0","1","0","null","","","<img src = 'category2/men.png' width = '100%;'>","null","","","","","","","","","",""
"","html-keyboard-response","318","754356","0.0-12.0-2.20","jj140azzth","many_one","0","direct_first","1","er06er12","0","23","1","1","3","1","","0","1","0","null","","","<img src = 'targets/15.png' width = '100%;'>","null","","","","","","","","","",""
"","html-keyboard-response","319","755121","0.0-12.0-3.20","jj140azzth","many_one","0","direct_first","1","er06er12","0","23","1","1","3","1","","0","1","0","761.8749998509884","","","<img src = 'targets/mask.png' width = '100%;'>","68","pos","GS","abstract","2","category2/men.png","","targets/15.png","indirect","0","44"
"","html-keyboard-response","320","756639","0.0-12.0-0.21","jj140azzth","many_one","0","direct_first","1","er06er12","0","23","1","1","3","1","","0","1","0","null","","","<div style=""font-size:60px;"">+</div>","null","","","","","","","","","",""
"","html-keyboard-response","321","756746","0.0-12.0-1.21","jj140azzth","many_one","0","direct_first","1","er06er12","0","23","1","1","3","1","","0","1","0","null","","","<img src = 'category1/ma.png' width = '100%;'>","null","","","","","","","","","",""
"","html-keyboard-response","322","757026","0.0-12.0-2.21","jj140azzth","many_one","0","direct_first","1","er06er12","0","23","1","1","3","1","","0","1","0","null","","","<img src = 'targets/40.png' width = '100%;'>","null","","","","","","","","","",""
"","html-keyboard-response","323","757705","0.0-12.0-3.21","jj140azzth","many_one","0","direct_first","1","er06er12","0","23","1","1","3","1","","0","1","0","674.8649999499321","","","<img src = 'targets/mask.png' width = '100%;'>","75","neg","GS","abstract","1","category1/ma.png","","targets/40.png","indirect","1","45"
"","html-keyboard-response","324","759217","0.0-12.0-0.22","jj140azzth","many_one","0","direct_first","1","er06er12","0","23","1","1","3","1","","0","1","0","null","","","<div style=""font-size:60px;"">+</div>","null","","","","","","","","","",""
"","html-keyboard-response","325","759310","0.0-12.0-1.22","jj140azzth","many_one","0","direct_first","1","er06er12","0","23","1","1","3","1","","0","1","0","null","","","<img src = 'category4/CS8.png' width = '100%;'>","null","","","","","","","","","",""
"","html-keyboard-response","326","759587","0.0-12.0-2.22","jj140azzth","many_one","0","direct_first","1","er06er12","0","23","1","1","3","1","","0","1","0","null","","","<img src = 'targets/8.png' width = '100%;'>","null","","","","","","","","","",""
"","html-keyboard-response","327","759827","0.0-12.0-3.22","jj140azzth","many_one","0","direct_first","1","er06er12","0","23","1","1","3","1","","0","1","0","237.154999980703","","","<img src = 'targets/mask.png' width = '100%;'>","68","pos","GS","GSold","4","category4/CS8.png","","targets/8.png","indirect","0","46"
