"success","trial_type","trial_index","time_elapsed","internal_node_id","subject","condition","condition_code","measure","measure_code","codeword","gender","age","education","chinese","fach","handedness","comment","hinschauen","ablenkung","gewissenhaft","rt","url","responses","stimulus","key_press","val","type","type_specific","category","cs_selected","response","target","task","indirect","nr_pres"
"true","fullscreen","0","20696","0.0-0.0","cy52us1pbu","one_one","1","direct_first","1","IT04RD30","0","25","1","1","3","1","","0","1","0","","","","","","","","","","","","","","",""
"","external-html","1","25598","0.0-1.0","cy52us1pbu","one_one","1","direct_first","1","IT04RD30","0","25","1","1","3","1","","0","1","0","4828.469999999983","text/information.html","","","","","","","","","","","","",""
"","external-html","2","41131","0.0-2.0","cy52us1pbu","one_one","1","direct_first","1","IT04RD30","0","25","1","1","3","1","","0","1","0","15470.18500000002","text/consent.html","","","","","","","","","","","","",""
"","survey-html-form","3","63252","0.0-3.0","cy52us1pbu","one_one","1","direct_first","1","IT04RD30","0","25","1","1","3","1","","0","1","0","22118.79999999996","","{""codeword_enter"":""IT04RD30""}","","","","","","","","","","","",""
"","survey-html-form","4","79087","0.0-4.0","cy52us1pbu","one_one","1","direct_first","1","IT04RD30","0","25","1","1","3","1","","0","1","0","15832.48500000003","","{""age"":""25"",""education"":""1"",""subject"":""3"",""gender"":""0"",""handedness"":""1"",""chinese"":""1""}","","","","","","","","","","","",""
"","survey-html-form","5","101042","0.0-5.0","cy52us1pbu","one_one","1","direct_first","1","IT04RD30","0","25","1","1","3","1","","0","1","0","21951.829999999973","","{}","","","","","","","","","","","",""
"","html-keyboard-response","6","105048","0.0-6.0-0.0-0.0","cy52us1pbu","one_one","1","direct_first","1","IT04RD30","0","25","1","1","3","1","","0","1","0","null","","","<div class = 'row'><div class = 'column'><img src = 'category3/CS2.png' width = '70%;'></div><div class = 'column'><img src = 'uspos/5470.bmp' width = '100%;'></div></div>","null","pos","CS","CS","3","category3/CS2.png","","","","",""
"","html-keyboard-response","7","107551","0.0-6.0-0.0-0.1","cy52us1pbu","one_one","1","direct_first","1","IT04RD30","0","25","1","1","3","1","","0","1","0","null","","","<div class = 'row'><div class = 'column'><img src = 'category2/CS7.png' width = '70%;'></div><div class = 'column'><img src = 'uspos/2040.bmp' width = '100%;'></div></div>","null","pos","CS","CS","2","category2/CS7.png","","","","",""
"","html-keyboard-response","8","110055","0.0-6.0-0.0-0.2","cy52us1pbu","one_one","1","direct_first","1","IT04RD30","0","25","1","1","3","1","","0","1","0","null","","","<div class = 'row'><div class = 'column'><img src = 'usneg/6838.bmp' width = '100%;'></div><div class = 'column'><img src = 'category4/CS2.png' width = '70%;'></div></div>","null","neg","CS","CS","4","category4/CS2.png","","","","",""
"","html-keyboard-response","9","112558","0.0-6.0-0.0-0.3","cy52us1pbu","one_one","1","direct_first","1","IT04RD30","0","25","1","1","3","1","","0","1","0","null","","","<div class = 'row'><div class = 'column'><img src = 'uspos/5470.bmp' width = '100%;'></div><div class = 'column'><img src = 'category3/CS2.png' width = '70%;'></div></div>","null","pos","CS","CS","3","category3/CS2.png","","","","",""
"","html-keyboard-response","10","115062","0.0-6.0-0.0-0.4","cy52us1pbu","one_one","1","direct_first","1","IT04RD30","0","25","1","1","3","1","","0","1","0","null","","","<div class = 'row'><div class = 'column'><img src = 'usneg/6838.bmp' width = '100%;'></div><div class = 'column'><img src = 'category4/CS2.png' width = '70%;'></div></div>","null","neg","CS","CS","4","category4/CS2.png","","","","",""
"","html-keyboard-response","11","117565","0.0-6.0-0.0-0.5","cy52us1pbu","one_one","1","direct_first","1","IT04RD30","0","25","1","1","3","1","","0","1","0","null","","","<div class = 'row'><div class = 'column'><img src = 'category3/CS2.png' width = '70%;'></div><div class = 'column'><img src = 'uspos/5470.bmp' width = '100%;'></div></div>","null","pos","CS","CS","3","category3/CS2.png","","","","",""
"","html-keyboard-response","12","120068","0.0-6.0-0.0-0.6","cy52us1pbu","one_one","1","direct_first","1","IT04RD30","0","25","1","1","3","1","","0","1","0","null","","","<div class = 'row'><div class = 'column'><img src = 'usneg/6838.bmp' width = '100%;'></div><div class = 'column'><img src = 'category4/CS2.png' width = '70%;'></div></div>","null","neg","CS","CS","4","category4/CS2.png","","","","",""
"","html-keyboard-response","13","122571","0.0-6.0-0.0-0.7","cy52us1pbu","one_one","1","direct_first","1","IT04RD30","0","25","1","1","3","1","","0","1","0","null","","","<div class = 'row'><div class = 'column'><img src = 'category2/CS7.png' width = '70%;'></div><div class = 'column'><img src = 'uspos/2040.bmp' width = '100%;'></div></div>","null","pos","CS","CS","2","category2/CS7.png","","","","",""
"","html-keyboard-response","14","125074","0.0-6.0-0.0-0.8","cy52us1pbu","one_one","1","direct_first","1","IT04RD30","0","25","1","1","3","1","","0","1","0","null","","","<div class = 'row'><div class = 'column'><img src = 'usneg/6838.bmp' width = '100%;'></div><div class = 'column'><img src = 'category4/CS2.png' width = '70%;'></div></div>","null","neg","CS","CS","4","category4/CS2.png","","","","",""
"","html-keyboard-response","15","127577","0.0-6.0-0.0-0.9","cy52us1pbu","one_one","1","direct_first","1","IT04RD30","0","25","1","1","3","1","","0","1","0","null","","","<div class = 'row'><div class = 'column'><img src = 'category1/CS6.png' width = '70%;'></div><div class = 'column'><img src = 'usneg/2205.bmp' width = '100%;'></div></div>","null","neg","CS","CS","1","category1/CS6.png","","","","",""
"","html-keyboard-response","16","130080","0.0-6.0-0.0-0.10","cy52us1pbu","one_one","1","direct_first","1","IT04RD30","0","25","1","1","3","1","","0","1","0","null","","","<div class = 'row'><div class = 'column'><img src = 'uspos/5470.bmp' width = '100%;'></div><div class = 'column'><img src = 'category3/CS2.png' width = '70%;'></div></div>","null","pos","CS","CS","3","category3/CS2.png","","","","",""
"","html-keyboard-response","17","132583","0.0-6.0-0.0-0.11","cy52us1pbu","one_one","1","direct_first","1","IT04RD30","0","25","1","1","3","1","","0","1","0","null","","","<div class = 'row'><div class = 'column'><img src = 'category1/CS6.png' width = '70%;'></div><div class = 'column'><img src = 'usneg/2205.bmp' width = '100%;'></div></div>","null","neg","CS","CS","1","category1/CS6.png","","","","",""
"","html-keyboard-response","18","135086","0.0-6.0-0.0-0.12","cy52us1pbu","one_one","1","direct_first","1","IT04RD30","0","25","1","1","3","1","","0","1","0","null","","","<div class = 'row'><div class = 'column'><img src = 'category2/CS7.png' width = '70%;'></div><div class = 'column'><img src = 'uspos/2040.bmp' width = '100%;'></div></div>","null","pos","CS","CS","2","category2/CS7.png","","","","",""
"","html-keyboard-response","19","137589","0.0-6.0-0.0-0.13","cy52us1pbu","one_one","1","direct_first","1","IT04RD30","0","25","1","1","3","1","","0","1","0","null","","","<div class = 'row'><div class = 'column'><img src = 'usneg/6838.bmp' width = '100%;'></div><div class = 'column'><img src = 'category4/CS2.png' width = '70%;'></div></div>","null","neg","CS","CS","4","category4/CS2.png","","","","",""
"","html-keyboard-response","20","140093","0.0-6.0-0.0-0.14","cy52us1pbu","one_one","1","direct_first","1","IT04RD30","0","25","1","1","3","1","","0","1","0","null","","","<div class = 'row'><div class = 'column'><img src = 'usneg/2205.bmp' width = '100%;'></div><div class = 'column'><img src = 'category1/CS6.png' width = '70%;'></div></div>","null","neg","CS","CS","1","category1/CS6.png","","","","",""
"","html-keyboard-response","21","142596","0.0-6.0-0.0-0.15","cy52us1pbu","one_one","1","direct_first","1","IT04RD30","0","25","1","1","3","1","","0","1","0","null","","","<div class = 'row'><div class = 'column'><img src = 'uspos/2040.bmp' width = '100%;'></div><div class = 'column'><img src = 'category2/CS7.png' width = '70%;'></div></div>","null","pos","CS","CS","2","category2/CS7.png","","","","",""
"","html-keyboard-response","22","145100","0.0-6.0-0.0-0.16","cy52us1pbu","one_one","1","direct_first","1","IT04RD30","0","25","1","1","3","1","","0","1","0","null","","","<div class = 'row'><div class = 'column'><img src = 'category1/CS6.png' width = '70%;'></div><div class = 'column'><img src = 'usneg/2205.bmp' width = '100%;'></div></div>","null","neg","CS","CS","1","category1/CS6.png","","","","",""
"","html-keyboard-response","23","147603","0.0-6.0-0.0-0.17","cy52us1pbu","one_one","1","direct_first","1","IT04RD30","0","25","1","1","3","1","","0","1","0","null","","","<div class = 'row'><div class = 'column'><img src = 'uspos/5470.bmp' width = '100%;'></div><div class = 'column'><img src = 'category3/CS2.png' width = '70%;'></div></div>","null","pos","CS","CS","3","category3/CS2.png","","","","",""
"","html-keyboard-response","24","150106","0.0-6.0-0.0-0.18","cy52us1pbu","one_one","1","direct_first","1","IT04RD30","0","25","1","1","3","1","","0","1","0","null","","","<div class = 'row'><div class = 'column'><img src = 'category1/CS6.png' width = '70%;'></div><div class = 'column'><img src = 'usneg/2205.bmp' width = '100%;'></div></div>","null","neg","CS","CS","1","category1/CS6.png","","","","",""
"","html-keyboard-response","25","152609","0.0-6.0-0.0-0.19","cy52us1pbu","one_one","1","direct_first","1","IT04RD30","0","25","1","1","3","1","","0","1","0","null","","","<div class = 'row'><div class = 'column'><img src = 'uspos/2040.bmp' width = '100%;'></div><div class = 'column'><img src = 'category2/CS7.png' width = '70%;'></div></div>","null","pos","CS","CS","2","category2/CS7.png","","","","",""
"","survey-html-form","26","157758","0.0-6.0-1.0","cy52us1pbu","one_one","1","direct_first","1","IT04RD30","0","25","1","1","3","1","","0","1","0","4647.314999999973","","{}","","","","","","","","","","","",""
"","html-keyboard-response","27","161763","0.0-6.0-2.0-0.0","cy52us1pbu","one_one","1","direct_first","1","IT04RD30","0","25","1","1","3","1","","0","1","0","null","","","<div class = 'row'><div class = 'column'><img src = 'uspos/5470.bmp' width = '100%;'></div><div class = 'column'><img src = 'category3/CS2.png' width = '70%;'></div></div>","null","pos","CS","CS","3","category3/CS2.png","","","","",""
"","html-keyboard-response","28","164267","0.0-6.0-2.0-0.1","cy52us1pbu","one_one","1","direct_first","1","IT04RD30","0","25","1","1","3","1","","0","1","0","null","","","<div class = 'row'><div class = 'column'><img src = 'usneg/2205.bmp' width = '100%;'></div><div class = 'column'><img src = 'category1/CS6.png' width = '70%;'></div></div>","null","neg","CS","CS","1","category1/CS6.png","","","","",""
"","html-keyboard-response","29","166770","0.0-6.0-2.0-0.2","cy52us1pbu","one_one","1","direct_first","1","IT04RD30","0","25","1","1","3","1","","0","1","0","null","","","<div class = 'row'><div class = 'column'><img src = 'usneg/6838.bmp' width = '100%;'></div><div class = 'column'><img src = 'category4/CS2.png' width = '70%;'></div></div>","null","neg","CS","CS","4","category4/CS2.png","","","","",""
"","html-keyboard-response","30","169273","0.0-6.0-2.0-0.3","cy52us1pbu","one_one","1","direct_first","1","IT04RD30","0","25","1","1","3","1","","0","1","0","null","","","<div class = 'row'><div class = 'column'><img src = 'usneg/2205.bmp' width = '100%;'></div><div class = 'column'><img src = 'category1/CS6.png' width = '70%;'></div></div>","null","neg","CS","CS","1","category1/CS6.png","","","","",""
"","html-keyboard-response","31","171777","0.0-6.0-2.0-0.4","cy52us1pbu","one_one","1","direct_first","1","IT04RD30","0","25","1","1","3","1","","0","1","0","null","","","<div class = 'row'><div class = 'column'><img src = 'category2/CS7.png' width = '70%;'></div><div class = 'column'><img src = 'uspos/2040.bmp' width = '100%;'></div></div>","null","pos","CS","CS","2","category2/CS7.png","","","","",""
"","html-keyboard-response","32","174280","0.0-6.0-2.0-0.5","cy52us1pbu","one_one","1","direct_first","1","IT04RD30","0","25","1","1","3","1","","0","1","0","null","","","<div class = 'row'><div class = 'column'><img src = 'category1/CS6.png' width = '70%;'></div><div class = 'column'><img src = 'usneg/2205.bmp' width = '100%;'></div></div>","null","neg","CS","CS","1","category1/CS6.png","","","","",""
"","html-keyboard-response","33","176783","0.0-6.0-2.0-0.6","cy52us1pbu","one_one","1","direct_first","1","IT04RD30","0","25","1","1","3","1","","0","1","0","null","","","<div class = 'row'><div class = 'column'><img src = 'category2/CS7.png' width = '70%;'></div><div class = 'column'><img src = 'uspos/2040.bmp' width = '100%;'></div></div>","null","pos","CS","CS","2","category2/CS7.png","","","","",""
"","html-keyboard-response","34","179286","0.0-6.0-2.0-0.7","cy52us1pbu","one_one","1","direct_first","1","IT04RD30","0","25","1","1","3","1","","0","1","0","null","","","<div class = 'row'><div class = 'column'><img src = 'category3/CS2.png' width = '70%;'></div><div class = 'column'><img src = 'uspos/5470.bmp' width = '100%;'></div></div>","null","pos","CS","CS","3","category3/CS2.png","","","","",""
"","html-keyboard-response","35","181789","0.0-6.0-2.0-0.8","cy52us1pbu","one_one","1","direct_first","1","IT04RD30","0","25","1","1","3","1","","0","1","0","null","","","<div class = 'row'><div class = 'column'><img src = 'category1/CS6.png' width = '70%;'></div><div class = 'column'><img src = 'usneg/2205.bmp' width = '100%;'></div></div>","null","neg","CS","CS","1","category1/CS6.png","","","","",""
"","html-keyboard-response","36","184292","0.0-6.0-2.0-0.9","cy52us1pbu","one_one","1","direct_first","1","IT04RD30","0","25","1","1","3","1","","0","1","0","null","","","<div class = 'row'><div class = 'column'><img src = 'category4/CS2.png' width = '70%;'></div><div class = 'column'><img src = 'usneg/6838.bmp' width = '100%;'></div></div>","null","neg","CS","CS","4","category4/CS2.png","","","","",""
"","html-keyboard-response","37","186795","0.0-6.0-2.0-0.10","cy52us1pbu","one_one","1","direct_first","1","IT04RD30","0","25","1","1","3","1","","0","1","0","null","","","<div class = 'row'><div class = 'column'><img src = 'uspos/2040.bmp' width = '100%;'></div><div class = 'column'><img src = 'category2/CS7.png' width = '70%;'></div></div>","null","pos","CS","CS","2","category2/CS7.png","","","","",""
"","html-keyboard-response","38","189298","0.0-6.0-2.0-0.11","cy52us1pbu","one_one","1","direct_first","1","IT04RD30","0","25","1","1","3","1","","0","1","0","null","","","<div class = 'row'><div class = 'column'><img src = 'category4/CS2.png' width = '70%;'></div><div class = 'column'><img src = 'usneg/6838.bmp' width = '100%;'></div></div>","null","neg","CS","CS","4","category4/CS2.png","","","","",""
"","html-keyboard-response","39","191801","0.0-6.0-2.0-0.12","cy52us1pbu","one_one","1","direct_first","1","IT04RD30","0","25","1","1","3","1","","0","1","0","null","","","<div class = 'row'><div class = 'column'><img src = 'category2/CS7.png' width = '70%;'></div><div class = 'column'><img src = 'uspos/2040.bmp' width = '100%;'></div></div>","null","pos","CS","CS","2","category2/CS7.png","","","","",""
"","html-keyboard-response","40","194305","0.0-6.0-2.0-0.13","cy52us1pbu","one_one","1","direct_first","1","IT04RD30","0","25","1","1","3","1","","0","1","0","null","","","<div class = 'row'><div class = 'column'><img src = 'usneg/6838.bmp' width = '100%;'></div><div class = 'column'><img src = 'category4/CS2.png' width = '70%;'></div></div>","null","neg","CS","CS","4","category4/CS2.png","","","","",""
"","html-keyboard-response","41","196808","0.0-6.0-2.0-0.14","cy52us1pbu","one_one","1","direct_first","1","IT04RD30","0","25","1","1","3","1","","0","1","0","null","","","<div class = 'row'><div class = 'column'><img src = 'uspos/5470.bmp' width = '100%;'></div><div class = 'column'><img src = 'category3/CS2.png' width = '70%;'></div></div>","null","pos","CS","CS","3","category3/CS2.png","","","","",""
"","html-keyboard-response","42","199311","0.0-6.0-2.0-0.15","cy52us1pbu","one_one","1","direct_first","1","IT04RD30","0","25","1","1","3","1","","0","1","0","null","","","<div class = 'row'><div class = 'column'><img src = 'category2/CS7.png' width = '70%;'></div><div class = 'column'><img src = 'uspos/2040.bmp' width = '100%;'></div></div>","null","pos","CS","CS","2","category2/CS7.png","","","","",""
"","html-keyboard-response","43","201814","0.0-6.0-2.0-0.16","cy52us1pbu","one_one","1","direct_first","1","IT04RD30","0","25","1","1","3","1","","0","1","0","null","","","<div class = 'row'><div class = 'column'><img src = 'uspos/5470.bmp' width = '100%;'></div><div class = 'column'><img src = 'category3/CS2.png' width = '70%;'></div></div>","null","pos","CS","CS","3","category3/CS2.png","","","","",""
"","html-keyboard-response","44","204317","0.0-6.0-2.0-0.17","cy52us1pbu","one_one","1","direct_first","1","IT04RD30","0","25","1","1","3","1","","0","1","0","null","","","<div class = 'row'><div class = 'column'><img src = 'category4/CS2.png' width = '70%;'></div><div class = 'column'><img src = 'usneg/6838.bmp' width = '100%;'></div></div>","null","neg","CS","CS","4","category4/CS2.png","","","","",""
"","html-keyboard-response","45","206820","0.0-6.0-2.0-0.18","cy52us1pbu","one_one","1","direct_first","1","IT04RD30","0","25","1","1","3","1","","0","1","0","null","","","<div class = 'row'><div class = 'column'><img src = 'category3/CS2.png' width = '70%;'></div><div class = 'column'><img src = 'uspos/5470.bmp' width = '100%;'></div></div>","null","pos","CS","CS","3","category3/CS2.png","","","","",""
"","html-keyboard-response","46","209323","0.0-6.0-2.0-0.19","cy52us1pbu","one_one","1","direct_first","1","IT04RD30","0","25","1","1","3","1","","0","1","0","null","","","<div class = 'row'><div class = 'column'><img src = 'category1/CS6.png' width = '70%;'></div><div class = 'column'><img src = 'usneg/2205.bmp' width = '100%;'></div></div>","null","neg","CS","CS","1","category1/CS6.png","","","","",""
"","survey-html-form","47","220065","0.0-6.0-3.0","cy52us1pbu","one_one","1","direct_first","1","IT04RD30","0","25","1","1","3","1","","0","1","0","10240.34500000006","","{}","","","","","","","","","","","",""
"","html-keyboard-response","48","224070","0.0-6.0-4.0-0.0","cy52us1pbu","one_one","1","direct_first","1","IT04RD30","0","25","1","1","3","1","","0","1","0","null","","","<div class = 'row'><div class = 'column'><img src = 'category3/CS2.png' width = '70%;'></div><div class = 'column'><img src = 'uspos/5470.bmp' width = '100%;'></div></div>","null","pos","CS","CS","3","category3/CS2.png","","","","",""
"","html-keyboard-response","49","226573","0.0-6.0-4.0-0.1","cy52us1pbu","one_one","1","direct_first","1","IT04RD30","0","25","1","1","3","1","","0","1","0","null","","","<div class = 'row'><div class = 'column'><img src = 'category1/CS6.png' width = '70%;'></div><div class = 'column'><img src = 'usneg/2205.bmp' width = '100%;'></div></div>","null","neg","CS","CS","1","category1/CS6.png","","","","",""
"","html-keyboard-response","50","229076","0.0-6.0-4.0-0.2","cy52us1pbu","one_one","1","direct_first","1","IT04RD30","0","25","1","1","3","1","","0","1","0","null","","","<div class = 'row'><div class = 'column'><img src = 'uspos/2040.bmp' width = '100%;'></div><div class = 'column'><img src = 'category2/CS7.png' width = '70%;'></div></div>","null","pos","CS","CS","2","category2/CS7.png","","","","",""
"","html-keyboard-response","51","231579","0.0-6.0-4.0-0.3","cy52us1pbu","one_one","1","direct_first","1","IT04RD30","0","25","1","1","3","1","","0","1","0","null","","","<div class = 'row'><div class = 'column'><img src = 'category3/CS2.png' width = '70%;'></div><div class = 'column'><img src = 'uspos/5470.bmp' width = '100%;'></div></div>","null","pos","CS","CS","3","category3/CS2.png","","","","",""
"","html-keyboard-response","52","234082","0.0-6.0-4.0-0.4","cy52us1pbu","one_one","1","direct_first","1","IT04RD30","0","25","1","1","3","1","","0","1","0","null","","","<div class = 'row'><div class = 'column'><img src = 'usneg/2205.bmp' width = '100%;'></div><div class = 'column'><img src = 'category1/CS6.png' width = '70%;'></div></div>","null","neg","CS","CS","1","category1/CS6.png","","","","",""
"","html-keyboard-response","53","236585","0.0-6.0-4.0-0.5","cy52us1pbu","one_one","1","direct_first","1","IT04RD30","0","25","1","1","3","1","","0","1","0","null","","","<div class = 'row'><div class = 'column'><img src = 'category2/CS7.png' width = '70%;'></div><div class = 'column'><img src = 'uspos/2040.bmp' width = '100%;'></div></div>","null","pos","CS","CS","2","category2/CS7.png","","","","",""
"","html-keyboard-response","54","239088","0.0-6.0-4.0-0.6","cy52us1pbu","one_one","1","direct_first","1","IT04RD30","0","25","1","1","3","1","","0","1","0","null","","","<div class = 'row'><div class = 'column'><img src = 'usneg/6838.bmp' width = '100%;'></div><div class = 'column'><img src = 'category4/CS2.png' width = '70%;'></div></div>","null","neg","CS","CS","4","category4/CS2.png","","","","",""
"","html-keyboard-response","55","241591","0.0-6.0-4.0-0.7","cy52us1pbu","one_one","1","direct_first","1","IT04RD30","0","25","1","1","3","1","","0","1","0","null","","","<div class = 'row'><div class = 'column'><img src = 'usneg/2205.bmp' width = '100%;'></div><div class = 'column'><img src = 'category1/CS6.png' width = '70%;'></div></div>","null","neg","CS","CS","1","category1/CS6.png","","","","",""
"","html-keyboard-response","56","244095","0.0-6.0-4.0-0.8","cy52us1pbu","one_one","1","direct_first","1","IT04RD30","0","25","1","1","3","1","","0","1","0","null","","","<div class = 'row'><div class = 'column'><img src = 'usneg/6838.bmp' width = '100%;'></div><div class = 'column'><img src = 'category4/CS2.png' width = '70%;'></div></div>","null","neg","CS","CS","4","category4/CS2.png","","","","",""
"","html-keyboard-response","57","246599","0.0-6.0-4.0-0.9","cy52us1pbu","one_one","1","direct_first","1","IT04RD30","0","25","1","1","3","1","","0","1","0","null","","","<div class = 'row'><div class = 'column'><img src = 'category1/CS6.png' width = '70%;'></div><div class = 'column'><img src = 'usneg/2205.bmp' width = '100%;'></div></div>","null","neg","CS","CS","1","category1/CS6.png","","","","",""
"","html-keyboard-response","58","249102","0.0-6.0-4.0-0.10","cy52us1pbu","one_one","1","direct_first","1","IT04RD30","0","25","1","1","3","1","","0","1","0","null","","","<div class = 'row'><div class = 'column'><img src = 'uspos/5470.bmp' width = '100%;'></div><div class = 'column'><img src = 'category3/CS2.png' width = '70%;'></div></div>","null","pos","CS","CS","3","category3/CS2.png","","","","",""
"","html-keyboard-response","59","251605","0.0-6.0-4.0-0.11","cy52us1pbu","one_one","1","direct_first","1","IT04RD30","0","25","1","1","3","1","","0","1","0","null","","","<div class = 'row'><div class = 'column'><img src = 'uspos/2040.bmp' width = '100%;'></div><div class = 'column'><img src = 'category2/CS7.png' width = '70%;'></div></div>","null","pos","CS","CS","2","category2/CS7.png","","","","",""
"","html-keyboard-response","60","254108","0.0-6.0-4.0-0.12","cy52us1pbu","one_one","1","direct_first","1","IT04RD30","0","25","1","1","3","1","","0","1","0","null","","","<div class = 'row'><div class = 'column'><img src = 'category3/CS2.png' width = '70%;'></div><div class = 'column'><img src = 'uspos/5470.bmp' width = '100%;'></div></div>","null","pos","CS","CS","3","category3/CS2.png","","","","",""
"","html-keyboard-response","61","256611","0.0-6.0-4.0-0.13","cy52us1pbu","one_one","1","direct_first","1","IT04RD30","0","25","1","1","3","1","","0","1","0","null","","","<div class = 'row'><div class = 'column'><img src = 'usneg/6838.bmp' width = '100%;'></div><div class = 'column'><img src = 'category4/CS2.png' width = '70%;'></div></div>","null","neg","CS","CS","4","category4/CS2.png","","","","",""
"","html-keyboard-response","62","259114","0.0-6.0-4.0-0.14","cy52us1pbu","one_one","1","direct_first","1","IT04RD30","0","25","1","1","3","1","","0","1","0","null","","","<div class = 'row'><div class = 'column'><img src = 'uspos/2040.bmp' width = '100%;'></div><div class = 'column'><img src = 'category2/CS7.png' width = '70%;'></div></div>","null","pos","CS","CS","2","category2/CS7.png","","","","",""
"","html-keyboard-response","63","261617","0.0-6.0-4.0-0.15","cy52us1pbu","one_one","1","direct_first","1","IT04RD30","0","25","1","1","3","1","","0","1","0","null","","","<div class = 'row'><div class = 'column'><img src = 'usneg/6838.bmp' width = '100%;'></div><div class = 'column'><img src = 'category4/CS2.png' width = '70%;'></div></div>","null","neg","CS","CS","4","category4/CS2.png","","","","",""
"","html-keyboard-response","64","264120","0.0-6.0-4.0-0.16","cy52us1pbu","one_one","1","direct_first","1","IT04RD30","0","25","1","1","3","1","","0","1","0","null","","","<div class = 'row'><div class = 'column'><img src = 'category3/CS2.png' width = '70%;'></div><div class = 'column'><img src = 'uspos/5470.bmp' width = '100%;'></div></div>","null","pos","CS","CS","3","category3/CS2.png","","","","",""
"","html-keyboard-response","65","266623","0.0-6.0-4.0-0.17","cy52us1pbu","one_one","1","direct_first","1","IT04RD30","0","25","1","1","3","1","","0","1","0","null","","","<div class = 'row'><div class = 'column'><img src = 'category4/CS2.png' width = '70%;'></div><div class = 'column'><img src = 'usneg/6838.bmp' width = '100%;'></div></div>","null","neg","CS","CS","4","category4/CS2.png","","","","",""
"","html-keyboard-response","66","269126","0.0-6.0-4.0-0.18","cy52us1pbu","one_one","1","direct_first","1","IT04RD30","0","25","1","1","3","1","","0","1","0","null","","","<div class = 'row'><div class = 'column'><img src = 'uspos/2040.bmp' width = '100%;'></div><div class = 'column'><img src = 'category2/CS7.png' width = '70%;'></div></div>","null","pos","CS","CS","2","category2/CS7.png","","","","",""
"","html-keyboard-response","67","271629","0.0-6.0-4.0-0.19","cy52us1pbu","one_one","1","direct_first","1","IT04RD30","0","25","1","1","3","1","","0","1","0","null","","","<div class = 'row'><div class = 'column'><img src = 'usneg/2205.bmp' width = '100%;'></div><div class = 'column'><img src = 'category1/CS6.png' width = '70%;'></div></div>","null","neg","CS","CS","1","category1/CS6.png","","","","",""
"","survey-html-form","68","276121","0.0-6.0-5.0","cy52us1pbu","one_one","1","direct_first","1","IT04RD30","0","25","1","1","3","1","","0","1","0","3989.814999999886","","{}","","","","","","","","","","","",""
"","html-keyboard-response","69","280126","0.0-6.0-6.0-0.0","cy52us1pbu","one_one","1","direct_first","1","IT04RD30","0","25","1","1","3","1","","0","1","0","null","","","<div class = 'row'><div class = 'column'><img src = 'category2/CS7.png' width = '70%;'></div><div class = 'column'><img src = 'uspos/2040.bmp' width = '100%;'></div></div>","null","pos","CS","CS","2","category2/CS7.png","","","","",""
"","html-keyboard-response","70","282630","0.0-6.0-6.0-0.1","cy52us1pbu","one_one","1","direct_first","1","IT04RD30","0","25","1","1","3","1","","0","1","0","null","","","<div class = 'row'><div class = 'column'><img src = 'usneg/2205.bmp' width = '100%;'></div><div class = 'column'><img src = 'category1/CS6.png' width = '70%;'></div></div>","null","neg","CS","CS","1","category1/CS6.png","","","","",""
"","html-keyboard-response","71","285134","0.0-6.0-6.0-0.2","cy52us1pbu","one_one","1","direct_first","1","IT04RD30","0","25","1","1","3","1","","0","1","0","null","","","<div class = 'row'><div class = 'column'><img src = 'category3/CS2.png' width = '70%;'></div><div class = 'column'><img src = 'uspos/5470.bmp' width = '100%;'></div></div>","null","pos","CS","CS","3","category3/CS2.png","","","","",""
"","html-keyboard-response","72","287637","0.0-6.0-6.0-0.3","cy52us1pbu","one_one","1","direct_first","1","IT04RD30","0","25","1","1","3","1","","0","1","0","null","","","<div class = 'row'><div class = 'column'><img src = 'uspos/2040.bmp' width = '100%;'></div><div class = 'column'><img src = 'category2/CS7.png' width = '70%;'></div></div>","null","pos","CS","CS","2","category2/CS7.png","","","","",""
"","html-keyboard-response","73","290141","0.0-6.0-6.0-0.4","cy52us1pbu","one_one","1","direct_first","1","IT04RD30","0","25","1","1","3","1","","0","1","0","null","","","<div class = 'row'><div class = 'column'><img src = 'category4/CS2.png' width = '70%;'></div><div class = 'column'><img src = 'usneg/6838.bmp' width = '100%;'></div></div>","null","neg","CS","CS","4","category4/CS2.png","","","","",""
"","html-keyboard-response","74","292644","0.0-6.0-6.0-0.5","cy52us1pbu","one_one","1","direct_first","1","IT04RD30","0","25","1","1","3","1","","0","1","0","null","","","<div class = 'row'><div class = 'column'><img src = 'category1/CS6.png' width = '70%;'></div><div class = 'column'><img src = 'usneg/2205.bmp' width = '100%;'></div></div>","null","neg","CS","CS","1","category1/CS6.png","","","","",""
"","html-keyboard-response","75","295147","0.0-6.0-6.0-0.6","cy52us1pbu","one_one","1","direct_first","1","IT04RD30","0","25","1","1","3","1","","0","1","0","null","","","<div class = 'row'><div class = 'column'><img src = 'uspos/5470.bmp' width = '100%;'></div><div class = 'column'><img src = 'category3/CS2.png' width = '70%;'></div></div>","null","pos","CS","CS","3","category3/CS2.png","","","","",""
"","html-keyboard-response","76","297650","0.0-6.0-6.0-0.7","cy52us1pbu","one_one","1","direct_first","1","IT04RD30","0","25","1","1","3","1","","0","1","0","null","","","<div class = 'row'><div class = 'column'><img src = 'uspos/2040.bmp' width = '100%;'></div><div class = 'column'><img src = 'category2/CS7.png' width = '70%;'></div></div>","null","pos","CS","CS","2","category2/CS7.png","","","","",""
"","html-keyboard-response","77","300153","0.0-6.0-6.0-0.8","cy52us1pbu","one_one","1","direct_first","1","IT04RD30","0","25","1","1","3","1","","0","1","0","null","","","<div class = 'row'><div class = 'column'><img src = 'usneg/6838.bmp' width = '100%;'></div><div class = 'column'><img src = 'category4/CS2.png' width = '70%;'></div></div>","null","neg","CS","CS","4","category4/CS2.png","","","","",""
"","html-keyboard-response","78","302656","0.0-6.0-6.0-0.9","cy52us1pbu","one_one","1","direct_first","1","IT04RD30","0","25","1","1","3","1","","0","1","0","null","","","<div class = 'row'><div class = 'column'><img src = 'uspos/5470.bmp' width = '100%;'></div><div class = 'column'><img src = 'category3/CS2.png' width = '70%;'></div></div>","null","pos","CS","CS","3","category3/CS2.png","","","","",""
"","html-keyboard-response","79","305159","0.0-6.0-6.0-0.10","cy52us1pbu","one_one","1","direct_first","1","IT04RD30","0","25","1","1","3","1","","0","1","0","null","","","<div class = 'row'><div class = 'column'><img src = 'category4/CS2.png' width = '70%;'></div><div class = 'column'><img src = 'usneg/6838.bmp' width = '100%;'></div></div>","null","neg","CS","CS","4","category4/CS2.png","","","","",""
"","html-keyboard-response","80","307662","0.0-6.0-6.0-0.11","cy52us1pbu","one_one","1","direct_first","1","IT04RD30","0","25","1","1","3","1","","0","1","0","null","","","<div class = 'row'><div class = 'column'><img src = 'category2/CS7.png' width = '70%;'></div><div class = 'column'><img src = 'uspos/2040.bmp' width = '100%;'></div></div>","null","pos","CS","CS","2","category2/CS7.png","","","","",""
"","html-keyboard-response","81","310166","0.0-6.0-6.0-0.12","cy52us1pbu","one_one","1","direct_first","1","IT04RD30","0","25","1","1","3","1","","0","1","0","null","","","<div class = 'row'><div class = 'column'><img src = 'category3/CS2.png' width = '70%;'></div><div class = 'column'><img src = 'uspos/5470.bmp' width = '100%;'></div></div>","null","pos","CS","CS","3","category3/CS2.png","","","","",""
"","html-keyboard-response","82","312670","0.0-6.0-6.0-0.13","cy52us1pbu","one_one","1","direct_first","1","IT04RD30","0","25","1","1","3","1","","0","1","0","null","","","<div class = 'row'><div class = 'column'><img src = 'usneg/6838.bmp' width = '100%;'></div><div class = 'column'><img src = 'category4/CS2.png' width = '70%;'></div></div>","null","neg","CS","CS","4","category4/CS2.png","","","","",""
"","html-keyboard-response","83","315173","0.0-6.0-6.0-0.14","cy52us1pbu","one_one","1","direct_first","1","IT04RD30","0","25","1","1","3","1","","0","1","0","null","","","<div class = 'row'><div class = 'column'><img src = 'usneg/2205.bmp' width = '100%;'></div><div class = 'column'><img src = 'category1/CS6.png' width = '70%;'></div></div>","null","neg","CS","CS","1","category1/CS6.png","","","","",""
"","html-keyboard-response","84","317676","0.0-6.0-6.0-0.15","cy52us1pbu","one_one","1","direct_first","1","IT04RD30","0","25","1","1","3","1","","0","1","0","null","","","<div class = 'row'><div class = 'column'><img src = 'category4/CS2.png' width = '70%;'></div><div class = 'column'><img src = 'usneg/6838.bmp' width = '100%;'></div></div>","null","neg","CS","CS","4","category4/CS2.png","","","","",""
"","html-keyboard-response","85","320180","0.0-6.0-6.0-0.16","cy52us1pbu","one_one","1","direct_first","1","IT04RD30","0","25","1","1","3","1","","0","1","0","null","","","<div class = 'row'><div class = 'column'><img src = 'category1/CS6.png' width = '70%;'></div><div class = 'column'><img src = 'usneg/2205.bmp' width = '100%;'></div></div>","null","neg","CS","CS","1","category1/CS6.png","","","","",""
"","html-keyboard-response","86","322683","0.0-6.0-6.0-0.17","cy52us1pbu","one_one","1","direct_first","1","IT04RD30","0","25","1","1","3","1","","0","1","0","null","","","<div class = 'row'><div class = 'column'><img src = 'category2/CS7.png' width = '70%;'></div><div class = 'column'><img src = 'uspos/2040.bmp' width = '100%;'></div></div>","null","pos","CS","CS","2","category2/CS7.png","","","","",""
"","html-keyboard-response","87","325186","0.0-6.0-6.0-0.18","cy52us1pbu","one_one","1","direct_first","1","IT04RD30","0","25","1","1","3","1","","0","1","0","null","","","<div class = 'row'><div class = 'column'><img src = 'uspos/5470.bmp' width = '100%;'></div><div class = 'column'><img src = 'category3/CS2.png' width = '70%;'></div></div>","null","pos","CS","CS","3","category3/CS2.png","","","","",""
"","html-keyboard-response","88","327689","0.0-6.0-6.0-0.19","cy52us1pbu","one_one","1","direct_first","1","IT04RD30","0","25","1","1","3","1","","0","1","0","null","","","<div class = 'row'><div class = 'column'><img src = 'usneg/2205.bmp' width = '100%;'></div><div class = 'column'><img src = 'category1/CS6.png' width = '70%;'></div></div>","null","neg","CS","CS","1","category1/CS6.png","","","","",""
"","survey-html-form","89","332486","0.0-7.0","cy52us1pbu","one_one","1","direct_first","1","IT04RD30","0","25","1","1","3","1","","0","1","0","4295.109999999986","","{}","","","","","","","","","","","",""
"","image-slider-response","90","340491","0.0-8.0-0.0","cy52us1pbu","one_one","1","direct_first","1","IT04RD30","0","25","1","1","3","1","","0","1","0","6002.284999999858","","","","","pos","GS","GSnew","2","category2/GS3.png","-51","targets/32.png","direct","",""
"","image-slider-response","91","344656","0.0-8.0-0.1","cy52us1pbu","one_one","1","direct_first","1","IT04RD30","0","25","1","1","3","1","","0","1","0","4162.069999999949","","","","","neg","GS","GSold","1","category1/CS8.png","-81","targets/39.png","direct","",""
"","image-slider-response","92","347741","0.0-8.0-0.2","cy52us1pbu","one_one","1","direct_first","1","IT04RD30","0","25","1","1","3","1","","0","1","0","3083.2850000000326","","","","","neg","GS","GSnew","1","category1/GS2.png","-70","targets/16.png","direct","",""
"","image-slider-response","93","352821","0.0-8.0-0.3","cy52us1pbu","one_one","1","direct_first","1","IT04RD30","0","25","1","1","3","1","","0","1","0","5078.680000000051","","","","","neg","GS","GSnew","4","category4/GS3.png","50","targets/24.png","direct","",""
"","image-slider-response","94","355688","0.0-8.0-0.4","cy52us1pbu","one_one","1","direct_first","1","IT04RD30","0","25","1","1","3","1","","0","1","0","2864.640000000014","","","","","pos","GS","GSnew","3","category3/GS2.png","-73","targets/6.png","direct","",""
"","image-slider-response","95","359144","0.0-8.0-0.5","cy52us1pbu","one_one","1","direct_first","1","IT04RD30","0","25","1","1","3","1","","0","1","0","3454.679999999935","","","","","pos","GS","GSnew","3","category3/GS3.png","68","targets/5.png","direct","",""
"","image-slider-response","96","363516","0.0-8.0-0.6","cy52us1pbu","one_one","1","direct_first","1","IT04RD30","0","25","1","1","3","1","","0","1","0","4369.800000000047","","","","","neg","GS","GSnew","4","category4/GS2.png","-45","targets/36.png","direct","",""
"","image-slider-response","97","366463","0.0-8.0-0.7","cy52us1pbu","one_one","1","direct_first","1","IT04RD30","0","25","1","1","3","1","","0","1","0","2945.7700000000186","","","","","pos","GS","abstract","2","category2/men.png","87","targets/1.png","direct","",""
"","image-slider-response","98","370344","0.0-8.0-0.8","cy52us1pbu","one_one","1","direct_first","1","IT04RD30","0","25","1","1","3","1","","0","1","0","3879.4649999999674","","","","","pos","GS","GSold","2","category2/CS4.png","60","targets/43.png","direct","",""
"","image-slider-response","99","373760","0.0-8.0-0.9","cy52us1pbu","one_one","1","direct_first","1","IT04RD30","0","25","1","1","3","1","","0","1","0","3413.9049999999697","","","","","pos","GS","GSold","3","category3/CS5.png","46","targets/4.png","direct","",""
"","image-slider-response","100","378763","0.0-8.0-0.10","cy52us1pbu","one_one","1","direct_first","1","IT04RD30","0","25","1","1","3","1","","0","1","0","5001.8150000000605","","","","","neg","GS","abstract","1","category1/ma.png","47","targets/15.png","direct","",""
"","image-slider-response","101","381888","0.0-8.0-0.11","cy52us1pbu","one_one","1","direct_first","1","IT04RD30","0","25","1","1","3","1","","0","1","0","3122.439999999944","","","","","neg","GS","GSnew","1","category1/GS1.png","29","targets/42.png","direct","",""
"","image-slider-response","102","386462","0.0-8.0-0.12","cy52us1pbu","one_one","1","direct_first","1","IT04RD30","0","25","1","1","3","1","","0","1","0","4573.155000000028","","","","","neg","GS","GSnew","4","category4/GS1.png","54","targets/29.png","direct","",""
"","image-slider-response","103","389408","0.0-8.0-0.13","cy52us1pbu","one_one","1","direct_first","1","IT04RD30","0","25","1","1","3","1","","0","1","0","2943.505000000063","","","","","pos","GS","GSnew","2","category2/GS2.png","7","targets/20.png","direct","",""
"","image-slider-response","104","392404","0.0-8.0-0.14","cy52us1pbu","one_one","1","direct_first","1","IT04RD30","0","25","1","1","3","1","","0","1","0","2994.274999999907","","","","","neg","GS","GSold","1","category1/CS3.png","4","targets/23.png","direct","",""
"","image-slider-response","105","395483","0.0-8.0-0.15","cy52us1pbu","one_one","1","direct_first","1","IT04RD30","0","25","1","1","3","1","","0","1","0","3077.8600000001024","","","","","pos","GS","GSold","2","category2/CS1.png","68","targets/38.png","direct","",""
"","image-slider-response","106","398613","0.0-8.0-0.16","cy52us1pbu","one_one","1","direct_first","1","IT04RD30","0","25","1","1","3","1","","0","1","0","3128.024999999965","","","","","pos","GS","GSnew","3","category3/GS1.png","-49","targets/34.png","direct","",""
"","image-slider-response","107","404428","0.0-8.0-0.17","cy52us1pbu","one_one","1","direct_first","1","IT04RD30","0","25","1","1","3","1","","0","1","0","5812.104999999981","","","","","pos","CS","CS","2","category2/CS7.png","69","targets/45.png","direct","",""
"","image-slider-response","108","407239","0.0-8.0-0.18","cy52us1pbu","one_one","1","direct_first","1","IT04RD30","0","25","1","1","3","1","","0","1","0","2808.9800000000396","","","","","neg","GS","GSold","1","category1/CS4.png","-82","targets/11.png","direct","",""
"","image-slider-response","109","410278","0.0-8.0-0.19","cy52us1pbu","one_one","1","direct_first","1","IT04RD30","0","25","1","1","3","1","","0","1","0","3037.850000000035","","","","","neg","GS","abstract","4","category4/lin.png","51","targets/9.png","direct","",""
"","image-slider-response","110","413721","0.0-8.0-0.20","cy52us1pbu","one_one","1","direct_first","1","IT04RD30","0","25","1","1","3","1","","0","1","0","3441.1750000000466","","","","","pos","GS","abstract","3","category3/wang.png","27","targets/48.png","direct","",""
"","image-slider-response","111","417879","0.0-8.0-0.21","cy52us1pbu","one_one","1","direct_first","1","IT04RD30","0","25","1","1","3","1","","0","1","0","4156.100000000035","","","","","neg","CS","CS","4","category4/CS2.png","-52","targets/35.png","direct","",""
"","image-slider-response","112","420764","0.0-8.0-0.22","cy52us1pbu","one_one","1","direct_first","1","IT04RD30","0","25","1","1","3","1","","0","1","0","2883.210000000079","","","","","pos","GS","GSold","3","category3/CS7.png","-66","targets/26.png","direct","",""
"","image-slider-response","113","423923","0.0-8.0-0.23","cy52us1pbu","one_one","1","direct_first","1","IT04RD30","0","25","1","1","3","1","","0","1","0","3157.2350000000442","","","","","pos","GS","GSold","3","category3/CS3.png","57","targets/47.png","direct","",""
"","image-slider-response","114","426896","0.0-8.0-0.24","cy52us1pbu","one_one","1","direct_first","1","IT04RD30","0","25","1","1","3","1","","0","1","0","2971.4300000001094","","","","","neg","CS","CS","1","category1/CS6.png","-74","targets/12.png","direct","",""
"","image-slider-response","115","430367","0.0-8.0-0.25","cy52us1pbu","one_one","1","direct_first","1","IT04RD30","0","25","1","1","3","1","","0","1","0","3470.140000000014","","","","","neg","GS","GSold","4","category4/CS5.png","-32","targets/21.png","direct","",""
"","image-slider-response","116","433304","0.0-8.0-0.26","cy52us1pbu","one_one","1","direct_first","1","IT04RD30","0","25","1","1","3","1","","0","1","0","2935.3400000000256","","","","","neg","GS","GSold","4","category4/CS7.png","-21","targets/22.png","direct","",""
"","image-slider-response","117","437090","0.0-8.0-0.27","cy52us1pbu","one_one","1","direct_first","1","IT04RD30","0","25","1","1","3","1","","0","1","0","3784.1500000000815","","","","","neg","GS","GSold","4","category4/CS1.png","10","targets/17.png","direct","",""
"","image-slider-response","118","440264","0.0-8.0-0.28","cy52us1pbu","one_one","1","direct_first","1","IT04RD30","0","25","1","1","3","1","","0","1","0","3171.960000000021","","","","","pos","GS","GSold","2","category2/CS3.png","24","targets/13.png","direct","",""
"","image-slider-response","119","444936","0.0-8.0-0.29","cy52us1pbu","one_one","1","direct_first","1","IT04RD30","0","25","1","1","3","1","","0","1","0","4670.539999999921","","","","","pos","GS","GSnew","2","category2/GS1.png","30","targets/40.png","direct","",""
"","image-slider-response","120","447658","0.0-8.0-0.30","cy52us1pbu","one_one","1","direct_first","1","IT04RD30","0","25","1","1","3","1","","0","1","0","2719.9500000000116","","","","","pos","CS","CS","3","category3/CS2.png","51","targets/8.png","direct","",""
"","image-slider-response","121","450558","0.0-8.0-0.31","cy52us1pbu","one_one","1","direct_first","1","IT04RD30","0","25","1","1","3","1","","0","1","0","2898.70000000007","","","","","neg","GS","GSnew","1","category1/GS3.png","-68","targets/44.png","direct","",""
"","html-keyboard-response","122","473258","0.0-9.0","cy52us1pbu","one_one","1","direct_first","1","IT04RD30","0","25","1","1","3","1","","0","1","0","22697.840000000026","","","<p>Sie sehen nun die chinesischen Zeichen nur ganz kurz. Danach sehen Sie die jeweilige Aussprache der Zeichen als Silbe auf dem Bildschrim. Ihre Aufgabe ist es, für jede Silbe anzugeben, ob diese etwas angenehmes, oder unangenehmes bedeuten könnte. Verlassen Sie sich hier vor allem auf Ihre Intuition.<br><br>Die Zeichen werden nur zur Orientierung dargestellt, beachten Sie sie deshalb nicht. Konzentrieren Sie sich vor allem auf die Silben. <br>Reagieren Sie mit folgenden zwei Tasten: <br><br><b>'D' </b> wenn die Silbe etwas <b>unangenehmes</b> bedeuten könnte. <br><b>'K'</b> wenn die Silbe etwas <b>angenehmes</b> bedeuten könnte. <br><br>Bitte legen Sie nun den Zeigefinger der linken Hand auf die Taste 'D' und den Zeigefinger der rechten Hand auf die Taste 'K'. <br>Reagieren Sie auf jede Silbe so schnell wie möglich. Uns interessiert Ihre spontane Reaktion. <br> <br> <br>Drücken Sie 'D' oder 'K', um die nächste Aufgabe zu starten. </p>","68","","","","","","","","","",""
"","html-keyboard-response","123","476260","0.0-10.0-0.0","cy52us1pbu","one_one","1","direct_first","1","IT04RD30","0","25","1","1","3","1","","0","1","0","null","","","<div style=""font-size:60px;"">+</div>","null","","","","","","","","","",""
"","html-keyboard-response","124","476352","0.0-10.0-1.0","cy52us1pbu","one_one","1","direct_first","1","IT04RD30","0","25","1","1","3","1","","0","1","0","null","","","<img src = 'category2/CS3.png' width = '100%;'>","null","","","","","","","","","",""
"","html-keyboard-response","125","476604","0.0-10.0-2.0","cy52us1pbu","one_one","1","direct_first","1","IT04RD30","0","25","1","1","3","1","","0","1","0","null","","","<img src = 'targets/13.png' width = '100%;'>","null","","","","","","","","","",""
"","html-keyboard-response","126","479813","0.0-10.0-3.0","cy52us1pbu","one_one","1","direct_first","1","IT04RD30","0","25","1","1","3","1","","0","1","0","3208.4899999999907","","","<img src = 'targets/mask.png' width = '100%;'>","75","pos","GS","GSold","2","category2/CS3.png","","targets/13.png","indirect","1","0"
"","html-keyboard-response","127","481316","0.0-10.0-0.1","cy52us1pbu","one_one","1","direct_first","1","IT04RD30","0","25","1","1","3","1","","0","1","0","null","","","<div style=""font-size:60px;"">+</div>","null","","","","","","","","","",""
"","html-keyboard-response","128","481407","0.0-10.0-1.1","cy52us1pbu","one_one","1","direct_first","1","IT04RD30","0","25","1","1","3","1","","0","1","0","null","","","<img src = 'category2/CS4.png' width = '100%;'>","null","","","","","","","","","",""
"","html-keyboard-response","129","481659","0.0-10.0-2.1","cy52us1pbu","one_one","1","direct_first","1","IT04RD30","0","25","1","1","3","1","","0","1","0","null","","","<img src = 'targets/43.png' width = '100%;'>","null","","","","","","","","","",""
"","html-keyboard-response","130","483099","0.0-10.0-3.1","cy52us1pbu","one_one","1","direct_first","1","IT04RD30","0","25","1","1","3","1","","0","1","0","1439.3149999999441","","","<img src = 'targets/mask.png' width = '100%;'>","75","pos","GS","GSold","2","category2/CS4.png","","targets/43.png","indirect","1","1"
"","html-keyboard-response","131","484601","0.0-10.0-0.2","cy52us1pbu","one_one","1","direct_first","1","IT04RD30","0","25","1","1","3","1","","0","1","0","null","","","<div style=""font-size:60px;"">+</div>","null","","","","","","","","","",""
"","html-keyboard-response","132","484692","0.0-10.0-1.2","cy52us1pbu","one_one","1","direct_first","1","IT04RD30","0","25","1","1","3","1","","0","1","0","null","","","<img src = 'category4/CS5.png' width = '100%;'>","null","","","","","","","","","",""
"","html-keyboard-response","133","484944","0.0-10.0-2.2","cy52us1pbu","one_one","1","direct_first","1","IT04RD30","0","25","1","1","3","1","","0","1","0","null","","","<img src = 'targets/21.png' width = '100%;'>","null","","","","","","","","","",""
"","html-keyboard-response","134","485685","0.0-10.0-3.2","cy52us1pbu","one_one","1","direct_first","1","IT04RD30","0","25","1","1","3","1","","0","1","0","739.3849999999511","","","<img src = 'targets/mask.png' width = '100%;'>","68","neg","GS","GSold","4","category4/CS5.png","","targets/21.png","indirect","0","2"
"","html-keyboard-response","135","487186","0.0-10.0-0.3","cy52us1pbu","one_one","1","direct_first","1","IT04RD30","0","25","1","1","3","1","","0","1","0","null","","","<div style=""font-size:60px;"">+</div>","null","","","","","","","","","",""
"","html-keyboard-response","136","487277","0.0-10.0-1.3","cy52us1pbu","one_one","1","direct_first","1","IT04RD30","0","25","1","1","3","1","","0","1","0","null","","","<img src = 'category3/CS3.png' width = '100%;'>","null","","","","","","","","","",""
"","html-keyboard-response","137","487529","0.0-10.0-2.3","cy52us1pbu","one_one","1","direct_first","1","IT04RD30","0","25","1","1","3","1","","0","1","0","null","","","<img src = 'targets/47.png' width = '100%;'>","null","","","","","","","","","",""
"","html-keyboard-response","138","488961","0.0-10.0-3.3","cy52us1pbu","one_one","1","direct_first","1","IT04RD30","0","25","1","1","3","1","","0","1","0","1430.5899999999674","","","<img src = 'targets/mask.png' width = '100%;'>","68","pos","GS","GSold","3","category3/CS3.png","","targets/47.png","indirect","0","3"
"","html-keyboard-response","139","490463","0.0-10.0-0.4","cy52us1pbu","one_one","1","direct_first","1","IT04RD30","0","25","1","1","3","1","","0","1","0","null","","","<div style=""font-size:60px;"">+</div>","null","","","","","","","","","",""
"","html-keyboard-response","140","490555","0.0-10.0-1.4","cy52us1pbu","one_one","1","direct_first","1","IT04RD30","0","25","1","1","3","1","","0","1","0","null","","","<img src = 'category3/CS2.png' width = '100%;'>","null","","","","","","","","","",""
"","html-keyboard-response","141","490807","0.0-10.0-2.4","cy52us1pbu","one_one","1","direct_first","1","IT04RD30","0","25","1","1","3","1","","0","1","0","null","","","<img src = 'targets/8.png' width = '100%;'>","null","","","","","","","","","",""
"","html-keyboard-response","142","491766","0.0-10.0-3.4","cy52us1pbu","one_one","1","direct_first","1","IT04RD30","0","25","1","1","3","1","","0","1","0","958.2450000000536","","","<img src = 'targets/mask.png' width = '100%;'>","75","pos","CS","CS","3","category3/CS2.png","","targets/8.png","indirect","1","4"
"","html-keyboard-response","143","493268","0.0-10.0-0.5","cy52us1pbu","one_one","1","direct_first","1","IT04RD30","0","25","1","1","3","1","","0","1","0","null","","","<div style=""font-size:60px;"">+</div>","null","","","","","","","","","",""
"","html-keyboard-response","144","493359","0.0-10.0-1.5","cy52us1pbu","one_one","1","direct_first","1","IT04RD30","0","25","1","1","3","1","","0","1","0","null","","","<img src = 'category4/CS2.png' width = '100%;'>","null","","","","","","","","","",""
"","html-keyboard-response","145","493611","0.0-10.0-2.5","cy52us1pbu","one_one","1","direct_first","1","IT04RD30","0","25","1","1","3","1","","0","1","0","null","","","<img src = 'targets/35.png' width = '100%;'>","null","","","","","","","","","",""
"","html-keyboard-response","146","494992","0.0-10.0-3.5","cy52us1pbu","one_one","1","direct_first","1","IT04RD30","0","25","1","1","3","1","","0","1","0","1379.8550000000396","","","<img src = 'targets/mask.png' width = '100%;'>","75","neg","CS","CS","4","category4/CS2.png","","targets/35.png","indirect","1","5"
"","html-keyboard-response","147","496494","0.0-10.0-0.6","cy52us1pbu","one_one","1","direct_first","1","IT04RD30","0","25","1","1","3","1","","0","1","0","null","","","<div style=""font-size:60px;"">+</div>","null","","","","","","","","","",""
"","html-keyboard-response","148","496585","0.0-10.0-1.6","cy52us1pbu","one_one","1","direct_first","1","IT04RD30","0","25","1","1","3","1","","0","1","0","null","","","<img src = 'category1/CS4.png' width = '100%;'>","null","","","","","","","","","",""
"","html-keyboard-response","149","496837","0.0-10.0-2.6","cy52us1pbu","one_one","1","direct_first","1","IT04RD30","0","25","1","1","3","1","","0","1","0","null","","","<img src = 'targets/11.png' width = '100%;'>","null","","","","","","","","","",""
"","html-keyboard-response","150","497298","0.0-10.0-3.6","cy52us1pbu","one_one","1","direct_first","1","IT04RD30","0","25","1","1","3","1","","0","1","0","460.43000000010943","","","<img src = 'targets/mask.png' width = '100%;'>","68","neg","GS","GSold","1","category1/CS4.png","","targets/11.png","indirect","0","6"
"","html-keyboard-response","151","498800","0.0-10.0-0.7","cy52us1pbu","one_one","1","direct_first","1","IT04RD30","0","25","1","1","3","1","","0","1","0","null","","","<div style=""font-size:60px;"">+</div>","null","","","","","","","","","",""
"","html-keyboard-response","152","498891","0.0-10.0-1.7","cy52us1pbu","one_one","1","direct_first","1","IT04RD30","0","25","1","1","3","1","","0","1","0","null","","","<img src = 'category1/CS6.png' width = '100%;'>","null","","","","","","","","","",""
"","html-keyboard-response","153","499143","0.0-10.0-2.7","cy52us1pbu","one_one","1","direct_first","1","IT04RD30","0","25","1","1","3","1","","0","1","0","null","","","<img src = 'targets/12.png' width = '100%;'>","null","","","","","","","","","",""
"","html-keyboard-response","154","500285","0.0-10.0-3.7","cy52us1pbu","one_one","1","direct_first","1","IT04RD30","0","25","1","1","3","1","","0","1","0","1141.304999999993","","","<img src = 'targets/mask.png' width = '100%;'>","75","neg","CS","CS","1","category1/CS6.png","","targets/12.png","indirect","1","7"
"","html-keyboard-response","155","501787","0.0-10.0-0.8","cy52us1pbu","one_one","1","direct_first","1","IT04RD30","0","25","1","1","3","1","","0","1","0","null","","","<div style=""font-size:60px;"">+</div>","null","","","","","","","","","",""
"","html-keyboard-response","156","501878","0.0-10.0-1.8","cy52us1pbu","one_one","1","direct_first","1","IT04RD30","0","25","1","1","3","1","","0","1","0","null","","","<img src = 'category1/CS3.png' width = '100%;'>","null","","","","","","","","","",""
"","html-keyboard-response","157","502130","0.0-10.0-2.8","cy52us1pbu","one_one","1","direct_first","1","IT04RD30","0","25","1","1","3","1","","0","1","0","null","","","<img src = 'targets/23.png' width = '100%;'>","null","","","","","","","","","",""
"","html-keyboard-response","158","503070","0.0-10.0-3.8","cy52us1pbu","one_one","1","direct_first","1","IT04RD30","0","25","1","1","3","1","","0","1","0","938.4800000000396","","","<img src = 'targets/mask.png' width = '100%;'>","75","neg","GS","GSold","1","category1/CS3.png","","targets/23.png","indirect","1","8"
"","html-keyboard-response","159","504572","0.0-10.0-0.9","cy52us1pbu","one_one","1","direct_first","1","IT04RD30","0","25","1","1","3","1","","0","1","0","null","","","<div style=""font-size:60px;"">+</div>","null","","","","","","","","","",""
"","html-keyboard-response","160","504663","0.0-10.0-1.9","cy52us1pbu","one_one","1","direct_first","1","IT04RD30","0","25","1","1","3","1","","0","1","0","null","","","<img src = 'category1/CS8.png' width = '100%;'>","null","","","","","","","","","",""
"","html-keyboard-response","161","504915","0.0-10.0-2.9","cy52us1pbu","one_one","1","direct_first","1","IT04RD30","0","25","1","1","3","1","","0","1","0","null","","","<img src = 'targets/39.png' width = '100%;'>","null","","","","","","","","","",""
"","html-keyboard-response","162","505653","0.0-10.0-3.9","cy52us1pbu","one_one","1","direct_first","1","IT04RD30","0","25","1","1","3","1","","0","1","0","736.6600000000326","","","<img src = 'targets/mask.png' width = '100%;'>","68","neg","GS","GSold","1","category1/CS8.png","","targets/39.png","indirect","0","9"
"","html-keyboard-response","163","507154","0.0-10.0-0.10","cy52us1pbu","one_one","1","direct_first","1","IT04RD30","0","25","1","1","3","1","","0","1","0","null","","","<div style=""font-size:60px;"">+</div>","null","","","","","","","","","",""
"","html-keyboard-response","164","507245","0.0-10.0-1.10","cy52us1pbu","one_one","1","direct_first","1","IT04RD30","0","25","1","1","3","1","","0","1","0","null","","","<img src = 'category4/CS7.png' width = '100%;'>","null","","","","","","","","","",""
"","html-keyboard-response","165","507497","0.0-10.0-2.10","cy52us1pbu","one_one","1","direct_first","1","IT04RD30","0","25","1","1","3","1","","0","1","0","null","","","<img src = 'targets/22.png' width = '100%;'>","null","","","","","","","","","",""
"","html-keyboard-response","166","508251","0.0-10.0-3.10","cy52us1pbu","one_one","1","direct_first","1","IT04RD30","0","25","1","1","3","1","","0","1","0","752.414999999979","","","<img src = 'targets/mask.png' width = '100%;'>","75","neg","GS","GSold","4","category4/CS7.png","","targets/22.png","indirect","1","10"
"","html-keyboard-response","167","509752","0.0-10.0-0.11","cy52us1pbu","one_one","1","direct_first","1","IT04RD30","0","25","1","1","3","1","","0","1","0","null","","","<div style=""font-size:60px;"">+</div>","null","","","","","","","","","",""
"","html-keyboard-response","168","509843","0.0-10.0-1.11","cy52us1pbu","one_one","1","direct_first","1","IT04RD30","0","25","1","1","3","1","","0","1","0","null","","","<img src = 'category2/CS7.png' width = '100%;'>","null","","","","","","","","","",""
"","html-keyboard-response","169","510095","0.0-10.0-2.11","cy52us1pbu","one_one","1","direct_first","1","IT04RD30","0","25","1","1","3","1","","0","1","0","null","","","<img src = 'targets/45.png' width = '100%;'>","null","","","","","","","","","",""
"","html-keyboard-response","170","511438","0.0-10.0-3.11","cy52us1pbu","one_one","1","direct_first","1","IT04RD30","0","25","1","1","3","1","","0","1","0","1341.8099999999395","","","<img src = 'targets/mask.png' width = '100%;'>","68","pos","CS","CS","2","category2/CS7.png","","targets/45.png","indirect","0","11"
"","html-keyboard-response","171","512939","0.0-10.0-0.12","cy52us1pbu","one_one","1","direct_first","1","IT04RD30","0","25","1","1","3","1","","0","1","0","null","","","<div style=""font-size:60px;"">+</div>","null","","","","","","","","","",""
"","html-keyboard-response","172","513030","0.0-10.0-1.12","cy52us1pbu","one_one","1","direct_first","1","IT04RD30","0","25","1","1","3","1","","0","1","0","null","","","<img src = 'category3/CS7.png' width = '100%;'>","null","","","","","","","","","",""
"","html-keyboard-response","173","513282","0.0-10.0-2.12","cy52us1pbu","one_one","1","direct_first","1","IT04RD30","0","25","1","1","3","1","","0","1","0","null","","","<img src = 'targets/26.png' width = '100%;'>","null","","","","","","","","","",""
"","html-keyboard-response","174","513996","0.0-10.0-3.12","cy52us1pbu","one_one","1","direct_first","1","IT04RD30","0","25","1","1","3","1","","0","1","0","712.6249999998836","","","<img src = 'targets/mask.png' width = '100%;'>","68","pos","GS","GSold","3","category3/CS7.png","","targets/26.png","indirect","0","12"
"","html-keyboard-response","175","515498","0.0-10.0-0.13","cy52us1pbu","one_one","1","direct_first","1","IT04RD30","0","25","1","1","3","1","","0","1","0","null","","","<div style=""font-size:60px;"">+</div>","null","","","","","","","","","",""
"","html-keyboard-response","176","515589","0.0-10.0-1.13","cy52us1pbu","one_one","1","direct_first","1","IT04RD30","0","25","1","1","3","1","","0","1","0","null","","","<img src = 'category2/CS1.png' width = '100%;'>","null","","","","","","","","","",""
"","html-keyboard-response","177","515841","0.0-10.0-2.13","cy52us1pbu","one_one","1","direct_first","1","IT04RD30","0","25","1","1","3","1","","0","1","0","null","","","<img src = 'targets/38.png' width = '100%;'>","null","","","","","","","","","",""
"","html-keyboard-response","178","517219","0.0-10.0-3.13","cy52us1pbu","one_one","1","direct_first","1","IT04RD30","0","25","1","1","3","1","","0","1","0","1377.1850000000559","","","<img src = 'targets/mask.png' width = '100%;'>","68","pos","GS","GSold","2","category2/CS1.png","","targets/38.png","indirect","0","13"
"","html-keyboard-response","179","518722","0.0-10.0-0.14","cy52us1pbu","one_one","1","direct_first","1","IT04RD30","0","25","1","1","3","1","","0","1","0","null","","","<div style=""font-size:60px;"">+</div>","null","","","","","","","","","",""
"","html-keyboard-response","180","518813","0.0-10.0-1.14","cy52us1pbu","one_one","1","direct_first","1","IT04RD30","0","25","1","1","3","1","","0","1","0","null","","","<img src = 'category3/CS5.png' width = '100%;'>","null","","","","","","","","","",""
"","html-keyboard-response","181","519065","0.0-10.0-2.14","cy52us1pbu","one_one","1","direct_first","1","IT04RD30","0","25","1","1","3","1","","0","1","0","null","","","<img src = 'targets/4.png' width = '100%;'>","null","","","","","","","","","",""
"","html-keyboard-response","182","520972","0.0-10.0-3.14","cy52us1pbu","one_one","1","direct_first","1","IT04RD30","0","25","1","1","3","1","","0","1","0","1906.3850000000093","","","<img src = 'targets/mask.png' width = '100%;'>","75","pos","GS","GSold","3","category3/CS5.png","","targets/4.png","indirect","1","14"
"","html-keyboard-response","183","522474","0.0-10.0-0.15","cy52us1pbu","one_one","1","direct_first","1","IT04RD30","0","25","1","1","3","1","","0","1","0","null","","","<div style=""font-size:60px;"">+</div>","null","","","","","","","","","",""
"","html-keyboard-response","184","522565","0.0-10.0-1.15","cy52us1pbu","one_one","1","direct_first","1","IT04RD30","0","25","1","1","3","1","","0","1","0","null","","","<img src = 'category4/CS1.png' width = '100%;'>","null","","","","","","","","","",""
"","html-keyboard-response","185","522817","0.0-10.0-2.15","cy52us1pbu","one_one","1","direct_first","1","IT04RD30","0","25","1","1","3","1","","0","1","0","null","","","<img src = 'targets/17.png' width = '100%;'>","null","","","","","","","","","",""
"","html-keyboard-response","186","523480","0.0-10.0-3.15","cy52us1pbu","one_one","1","direct_first","1","IT04RD30","0","25","1","1","3","1","","0","1","0","662.5449999999255","","","<img src = 'targets/mask.png' width = '100%;'>","75","neg","GS","GSold","4","category4/CS1.png","","targets/17.png","indirect","1","15"
"","survey-html-form","187","527474","0.0-11.0","cy52us1pbu","one_one","1","direct_first","1","IT04RD30","0","25","1","1","3","1","","0","1","0","3492","","{}","","","","","","","","","","","",""
"","html-keyboard-response","188","530476","0.0-12.0-0.0","cy52us1pbu","one_one","1","direct_first","1","IT04RD30","0","25","1","1","3","1","","0","1","0","null","","","<div style=""font-size:60px;"">+</div>","null","","","","","","","","","",""
"","html-keyboard-response","189","530567","0.0-12.0-1.0","cy52us1pbu","one_one","1","direct_first","1","IT04RD30","0","25","1","1","3","1","","0","1","0","null","","","<img src = 'category1/GS3.png' width = '100%;'>","null","","","","","","","","","",""
"","html-keyboard-response","190","530819","0.0-12.0-2.0","cy52us1pbu","one_one","1","direct_first","1","IT04RD30","0","25","1","1","3","1","","0","1","0","null","","","<img src = 'targets/44.png' width = '100%;'>","null","","","","","","","","","",""
"","html-keyboard-response","191","532259","0.0-12.0-3.0","cy52us1pbu","one_one","1","direct_first","1","IT04RD30","0","25","1","1","3","1","","0","1","0","1439.1049999999814","","","<img src = 'targets/mask.png' width = '100%;'>","68","neg","GS","GSnew","1","category1/GS3.png","","targets/44.png","indirect","0","16"
"","html-keyboard-response","192","533763","0.0-12.0-0.1","cy52us1pbu","one_one","1","direct_first","1","IT04RD30","0","25","1","1","3","1","","0","1","0","null","","","<div style=""font-size:60px;"">+</div>","null","","","","","","","","","",""
"","html-keyboard-response","193","533854","0.0-12.0-1.1","cy52us1pbu","one_one","1","direct_first","1","IT04RD30","0","25","1","1","3","1","","0","1","0","null","","","<img src = 'category3/GS2.png' width = '100%;'>","null","","","","","","","","","",""
"","html-keyboard-response","194","534106","0.0-12.0-2.1","cy52us1pbu","one_one","1","direct_first","1","IT04RD30","0","25","1","1","3","1","","0","1","0","null","","","<img src = 'targets/6.png' width = '100%;'>","null","","","","","","","","","",""
"","html-keyboard-response","195","535689","0.0-12.0-3.1","cy52us1pbu","one_one","1","direct_first","1","IT04RD30","0","25","1","1","3","1","","0","1","0","1582.0650000000605","","","<img src = 'targets/mask.png' width = '100%;'>","68","pos","GS","GSnew","3","category3/GS2.png","","targets/6.png","indirect","0","17"
"","html-keyboard-response","196","537191","0.0-12.0-0.2","cy52us1pbu","one_one","1","direct_first","1","IT04RD30","0","25","1","1","3","1","","0","1","0","null","","","<div style=""font-size:60px;"">+</div>","null","","","","","","","","","",""
"","html-keyboard-response","197","537282","0.0-12.0-1.2","cy52us1pbu","one_one","1","direct_first","1","IT04RD30","0","25","1","1","3","1","","0","1","0","null","","","<img src = 'category1/GS2.png' width = '100%;'>","null","","","","","","","","","",""
"","html-keyboard-response","198","537534","0.0-12.0-2.2","cy52us1pbu","one_one","1","direct_first","1","IT04RD30","0","25","1","1","3","1","","0","1","0","null","","","<img src = 'targets/16.png' width = '100%;'>","null","","","","","","","","","",""
"","html-keyboard-response","199","538349","0.0-12.0-3.2","cy52us1pbu","one_one","1","direct_first","1","IT04RD30","0","25","1","1","3","1","","0","1","0","813.7200000002049","","","<img src = 'targets/mask.png' width = '100%;'>","75","neg","GS","GSnew","1","category1/GS2.png","","targets/16.png","indirect","1","18"
"","html-keyboard-response","200","539851","0.0-12.0-0.3","cy52us1pbu","one_one","1","direct_first","1","IT04RD30","0","25","1","1","3","1","","0","1","0","null","","","<div style=""font-size:60px;"">+</div>","null","","","","","","","","","",""
"","html-keyboard-response","201","539942","0.0-12.0-1.3","cy52us1pbu","one_one","1","direct_first","1","IT04RD30","0","25","1","1","3","1","","0","1","0","null","","","<img src = 'category4/GS1.png' width = '100%;'>","null","","","","","","","","","",""
"","html-keyboard-response","202","540194","0.0-12.0-2.3","cy52us1pbu","one_one","1","direct_first","1","IT04RD30","0","25","1","1","3","1","","0","1","0","null","","","<img src = 'targets/29.png' width = '100%;'>","null","","","","","","","","","",""
"","html-keyboard-response","203","540959","0.0-12.0-3.3","cy52us1pbu","one_one","1","direct_first","1","IT04RD30","0","25","1","1","3","1","","0","1","0","764.5899999999674","","","<img src = 'targets/mask.png' width = '100%;'>","75","neg","GS","GSnew","4","category4/GS1.png","","targets/29.png","indirect","1","19"
"","html-keyboard-response","204","542461","0.0-12.0-0.4","cy52us1pbu","one_one","1","direct_first","1","IT04RD30","0","25","1","1","3","1","","0","1","0","null","","","<div style=""font-size:60px;"">+</div>","null","","","","","","","","","",""
"","html-keyboard-response","205","542552","0.0-12.0-1.4","cy52us1pbu","one_one","1","direct_first","1","IT04RD30","0","25","1","1","3","1","","0","1","0","null","","","<img src = 'category3/GS1.png' width = '100%;'>","null","","","","","","","","","",""
"","html-keyboard-response","206","542804","0.0-12.0-2.4","cy52us1pbu","one_one","1","direct_first","1","IT04RD30","0","25","1","1","3","1","","0","1","0","null","","","<img src = 'targets/34.png' width = '100%;'>","null","","","","","","","","","",""
"","html-keyboard-response","207","543568","0.0-12.0-3.4","cy52us1pbu","one_one","1","direct_first","1","IT04RD30","0","25","1","1","3","1","","0","1","0","763.3399999999674","","","<img src = 'targets/mask.png' width = '100%;'>","68","pos","GS","GSnew","3","category3/GS1.png","","targets/34.png","indirect","0","20"
"","html-keyboard-response","208","545070","0.0-12.0-0.5","cy52us1pbu","one_one","1","direct_first","1","IT04RD30","0","25","1","1","3","1","","0","1","0","null","","","<div style=""font-size:60px;"">+</div>","null","","","","","","","","","",""
"","html-keyboard-response","209","545161","0.0-12.0-1.5","cy52us1pbu","one_one","1","direct_first","1","IT04RD30","0","25","1","1","3","1","","0","1","0","null","","","<img src = 'category4/GS2.png' width = '100%;'>","null","","","","","","","","","",""
"","html-keyboard-response","210","545413","0.0-12.0-2.5","cy52us1pbu","one_one","1","direct_first","1","IT04RD30","0","25","1","1","3","1","","0","1","0","null","","","<img src = 'targets/36.png' width = '100%;'>","null","","","","","","","","","",""
"","html-keyboard-response","211","546157","0.0-12.0-3.5","cy52us1pbu","one_one","1","direct_first","1","IT04RD30","0","25","1","1","3","1","","0","1","0","742.8049999999348","","","<img src = 'targets/mask.png' width = '100%;'>","68","neg","GS","GSnew","4","category4/GS2.png","","targets/36.png","indirect","0","21"
"","html-keyboard-response","212","547659","0.0-12.0-0.6","cy52us1pbu","one_one","1","direct_first","1","IT04RD30","0","25","1","1","3","1","","0","1","0","null","","","<div style=""font-size:60px;"">+</div>","null","","","","","","","","","",""
"","html-keyboard-response","213","547750","0.0-12.0-1.6","cy52us1pbu","one_one","1","direct_first","1","IT04RD30","0","25","1","1","3","1","","0","1","0","null","","","<img src = 'category3/GS3.png' width = '100%;'>","null","","","","","","","","","",""
"","html-keyboard-response","214","548002","0.0-12.0-2.6","cy52us1pbu","one_one","1","direct_first","1","IT04RD30","0","25","1","1","3","1","","0","1","0","null","","","<img src = 'targets/5.png' width = '100%;'>","null","","","","","","","","","",""
"","html-keyboard-response","215","548789","0.0-12.0-3.6","cy52us1pbu","one_one","1","direct_first","1","IT04RD30","0","25","1","1","3","1","","0","1","0","785.9100000000326","","","<img src = 'targets/mask.png' width = '100%;'>","75","pos","GS","GSnew","3","category3/GS3.png","","targets/5.png","indirect","1","22"
"","html-keyboard-response","216","550291","0.0-12.0-0.7","cy52us1pbu","one_one","1","direct_first","1","IT04RD30","0","25","1","1","3","1","","0","1","0","null","","","<div style=""font-size:60px;"">+</div>","null","","","","","","","","","",""
"","html-keyboard-response","217","550382","0.0-12.0-1.7","cy52us1pbu","one_one","1","direct_first","1","IT04RD30","0","25","1","1","3","1","","0","1","0","null","","","<img src = 'category1/GS1.png' width = '100%;'>","null","","","","","","","","","",""
"","html-keyboard-response","218","550634","0.0-12.0-2.7","cy52us1pbu","one_one","1","direct_first","1","IT04RD30","0","25","1","1","3","1","","0","1","0","null","","","<img src = 'targets/42.png' width = '100%;'>","null","","","","","","","","","",""
"","html-keyboard-response","219","551365","0.0-12.0-3.7","cy52us1pbu","one_one","1","direct_first","1","IT04RD30","0","25","1","1","3","1","","0","1","0","729.7750000000233","","","<img src = 'targets/mask.png' width = '100%;'>","68","neg","GS","GSnew","1","category1/GS1.png","","targets/42.png","indirect","0","23"
"","html-keyboard-response","220","552866","0.0-12.0-0.8","cy52us1pbu","one_one","1","direct_first","1","IT04RD30","0","25","1","1","3","1","","0","1","0","null","","","<div style=""font-size:60px;"">+</div>","null","","","","","","","","","",""
"","html-keyboard-response","221","552957","0.0-12.0-1.8","cy52us1pbu","one_one","1","direct_first","1","IT04RD30","0","25","1","1","3","1","","0","1","0","null","","","<img src = 'category2/GS2.png' width = '100%;'>","null","","","","","","","","","",""
"","html-keyboard-response","222","553209","0.0-12.0-2.8","cy52us1pbu","one_one","1","direct_first","1","IT04RD30","0","25","1","1","3","1","","0","1","0","null","","","<img src = 'targets/20.png' width = '100%;'>","null","","","","","","","","","",""
"","html-keyboard-response","223","554229","0.0-12.0-3.8","cy52us1pbu","one_one","1","direct_first","1","IT04RD30","0","25","1","1","3","1","","0","1","0","1018.3600000001024","","","<img src = 'targets/mask.png' width = '100%;'>","68","pos","GS","GSnew","2","category2/GS2.png","","targets/20.png","indirect","0","24"
"","html-keyboard-response","224","555730","0.0-12.0-0.9","cy52us1pbu","one_one","1","direct_first","1","IT04RD30","0","25","1","1","3","1","","0","1","0","null","","","<div style=""font-size:60px;"">+</div>","null","","","","","","","","","",""
"","html-keyboard-response","225","555821","0.0-12.0-1.9","cy52us1pbu","one_one","1","direct_first","1","IT04RD30","0","25","1","1","3","1","","0","1","0","null","","","<img src = 'category2/GS3.png' width = '100%;'>","null","","","","","","","","","",""
"","html-keyboard-response","226","556073","0.0-12.0-2.9","cy52us1pbu","one_one","1","direct_first","1","IT04RD30","0","25","1","1","3","1","","0","1","0","null","","","<img src = 'targets/32.png' width = '100%;'>","null","","","","","","","","","",""
"","html-keyboard-response","227","556647","0.0-12.0-3.9","cy52us1pbu","one_one","1","direct_first","1","IT04RD30","0","25","1","1","3","1","","0","1","0","572.1699999999255","","","<img src = 'targets/mask.png' width = '100%;'>","75","pos","GS","GSnew","2","category2/GS3.png","","targets/32.png","indirect","1","25"
"","html-keyboard-response","228","558149","0.0-12.0-0.10","cy52us1pbu","one_one","1","direct_first","1","IT04RD30","0","25","1","1","3","1","","0","1","0","null","","","<div style=""font-size:60px;"">+</div>","null","","","","","","","","","",""
"","html-keyboard-response","229","558240","0.0-12.0-1.10","cy52us1pbu","one_one","1","direct_first","1","IT04RD30","0","25","1","1","3","1","","0","1","0","null","","","<img src = 'category4/lin.png' width = '100%;'>","null","","","","","","","","","",""
"","html-keyboard-response","230","558492","0.0-12.0-2.10","cy52us1pbu","one_one","1","direct_first","1","IT04RD30","0","25","1","1","3","1","","0","1","0","null","","","<img src = 'targets/9.png' width = '100%;'>","null","","","","","","","","","",""
"","html-keyboard-response","231","559496","0.0-12.0-3.10","cy52us1pbu","one_one","1","direct_first","1","IT04RD30","0","25","1","1","3","1","","0","1","0","1004.0500000000466","","","<img src = 'targets/mask.png' width = '100%;'>","75","neg","GS","abstract","4","category4/lin.png","","targets/9.png","indirect","1","26"
"","html-keyboard-response","232","560999","0.0-12.0-0.11","cy52us1pbu","one_one","1","direct_first","1","IT04RD30","0","25","1","1","3","1","","0","1","0","null","","","<div style=""font-size:60px;"">+</div>","null","","","","","","","","","",""
"","html-keyboard-response","233","561090","0.0-12.0-1.11","cy52us1pbu","one_one","1","direct_first","1","IT04RD30","0","25","1","1","3","1","","0","1","0","null","","","<img src = 'category1/ma.png' width = '100%;'>","null","","","","","","","","","",""
"","html-keyboard-response","234","561342","0.0-12.0-2.11","cy52us1pbu","one_one","1","direct_first","1","IT04RD30","0","25","1","1","3","1","","0","1","0","null","","","<img src = 'targets/15.png' width = '100%;'>","null","","","","","","","","","",""
"","html-keyboard-response","235","562050","0.0-12.0-3.11","cy52us1pbu","one_one","1","direct_first","1","IT04RD30","0","25","1","1","3","1","","0","1","0","706.5999999999767","","","<img src = 'targets/mask.png' width = '100%;'>","75","neg","GS","abstract","1","category1/ma.png","","targets/15.png","indirect","1","27"
"","html-keyboard-response","236","563552","0.0-12.0-0.12","cy52us1pbu","one_one","1","direct_first","1","IT04RD30","0","25","1","1","3","1","","0","1","0","null","","","<div style=""font-size:60px;"">+</div>","null","","","","","","","","","",""
"","html-keyboard-response","237","563643","0.0-12.0-1.12","cy52us1pbu","one_one","1","direct_first","1","IT04RD30","0","25","1","1","3","1","","0","1","0","null","","","<img src = 'category2/men.png' width = '100%;'>","null","","","","","","","","","",""
"","html-keyboard-response","238","563895","0.0-12.0-2.12","cy52us1pbu","one_one","1","direct_first","1","IT04RD30","0","25","1","1","3","1","","0","1","0","null","","","<img src = 'targets/1.png' width = '100%;'>","null","","","","","","","","","",""
"","html-keyboard-response","239","564590","0.0-12.0-3.12","cy52us1pbu","one_one","1","direct_first","1","IT04RD30","0","25","1","1","3","1","","0","1","0","694.3699999998789","","","<img src = 'targets/mask.png' width = '100%;'>","75","pos","GS","abstract","2","category2/men.png","","targets/1.png","indirect","1","28"
"","html-keyboard-response","240","566092","0.0-12.0-0.13","cy52us1pbu","one_one","1","direct_first","1","IT04RD30","0","25","1","1","3","1","","0","1","0","null","","","<div style=""font-size:60px;"">+</div>","null","","","","","","","","","",""
"","html-keyboard-response","241","566183","0.0-12.0-1.13","cy52us1pbu","one_one","1","direct_first","1","IT04RD30","0","25","1","1","3","1","","0","1","0","null","","","<img src = 'category3/wang.png' width = '100%;'>","null","","","","","","","","","",""
"","html-keyboard-response","242","566435","0.0-12.0-2.13","cy52us1pbu","one_one","1","direct_first","1","IT04RD30","0","25","1","1","3","1","","0","1","0","null","","","<img src = 'targets/48.png' width = '100%;'>","null","","","","","","","","","",""
"","html-keyboard-response","243","566847","0.0-12.0-3.13","cy52us1pbu","one_one","1","direct_first","1","IT04RD30","0","25","1","1","3","1","","0","1","0","411.20999999996275","","","<img src = 'targets/mask.png' width = '100%;'>","75","pos","GS","abstract","3","category3/wang.png","","targets/48.png","indirect","1","29"
"","html-keyboard-response","244","568349","0.0-12.0-0.14","cy52us1pbu","one_one","1","direct_first","1","IT04RD30","0","25","1","1","3","1","","0","1","0","null","","","<div style=""font-size:60px;"">+</div>","null","","","","","","","","","",""
"","html-keyboard-response","245","568440","0.0-12.0-1.14","cy52us1pbu","one_one","1","direct_first","1","IT04RD30","0","25","1","1","3","1","","0","1","0","null","","","<img src = 'category4/GS3.png' width = '100%;'>","null","","","","","","","","","",""
"","html-keyboard-response","246","568692","0.0-12.0-2.14","cy52us1pbu","one_one","1","direct_first","1","IT04RD30","0","25","1","1","3","1","","0","1","0","null","","","<img src = 'targets/24.png' width = '100%;'>","null","","","","","","","","","",""
"","html-keyboard-response","247","569438","0.0-12.0-3.14","cy52us1pbu","one_one","1","direct_first","1","IT04RD30","0","25","1","1","3","1","","0","1","0","744.8699999999953","","","<img src = 'targets/mask.png' width = '100%;'>","68","neg","GS","GSnew","4","category4/GS3.png","","targets/24.png","indirect","0","30"
"","html-keyboard-response","248","570939","0.0-12.0-0.15","cy52us1pbu","one_one","1","direct_first","1","IT04RD30","0","25","1","1","3","1","","0","1","0","null","","","<div style=""font-size:60px;"">+</div>","null","","","","","","","","","",""
"","html-keyboard-response","249","571030","0.0-12.0-1.15","cy52us1pbu","one_one","1","direct_first","1","IT04RD30","0","25","1","1","3","1","","0","1","0","null","","","<img src = 'category2/GS1.png' width = '100%;'>","null","","","","","","","","","",""
"","html-keyboard-response","250","571282","0.0-12.0-2.15","cy52us1pbu","one_one","1","direct_first","1","IT04RD30","0","25","1","1","3","1","","0","1","0","null","","","<img src = 'targets/40.png' width = '100%;'>","null","","","","","","","","","",""
"","html-keyboard-response","251","571643","0.0-12.0-3.15","cy52us1pbu","one_one","1","direct_first","1","IT04RD30","0","25","1","1","3","1","","0","1","0","360.14500000013504","","","<img src = 'targets/mask.png' width = '100%;'>","68","pos","GS","GSnew","2","category2/GS1.png","","targets/40.png","indirect","0","31"
"","survey-html-form","252","575044","0.0-13.0","cy52us1pbu","one_one","1","direct_first","1","IT04RD30","0","25","1","1","3","1","","0","1","0","2899.6299999998882","","{}","","","","","","","","","","","",""
"","image-slider-response","253","580992","0.0-14.0-0.0","cy52us1pbu","one_one","1","direct_first","1","IT04RD30","0","25","1","1","3","1","","0","1","0","4945.890000000014","","","","","neg","All","all","1","category1/ma_all.png","-82","","all","",""
"","image-slider-response","254","584173","0.0-14.0-0.1","cy52us1pbu","one_one","1","direct_first","1","IT04RD30","0","25","1","1","3","1","","0","1","0","3178.810000000056","","","","","neg","All","all","4","category4/lin_all.png","40","","all","",""
"","image-slider-response","255","588942","0.0-14.0-0.2","cy52us1pbu","one_one","1","direct_first","1","IT04RD30","0","25","1","1","3","1","","0","1","0","4767.610000000102","","","","","pos","All","all","3","category3/wang_all.png","15","","all","",""
"","image-slider-response","256","593166","0.0-14.0-0.3","cy52us1pbu","one_one","1","direct_first","1","IT04RD30","0","25","1","1","3","1","","0","1","0","4222.314999999944","","","","","pos","All","all","2","category2/men_all.png","40","","all","",""
"","survey-text","257","598284","0.0-15.0","cy52us1pbu","one_one","1","direct_first","1","IT04RD30","0","25","1","1","3","1","","0","1","0","5108.175000000163","","{""comment"":""""}","","","","","","","","","","","",""
"","survey-html-form","258","606996","0.0-16.0","cy52us1pbu","one_one","1","direct_first","1","IT04RD30","0","25","1","1","3","1","","0","1","0","8709.945000000065","","{""hinschauen"":""0"",""ablenkung"":""1"",""gewissenhaft"":""0""}","","","","","","","","","","","",""
