"success","trial_type","trial_index","time_elapsed","internal_node_id","subject","condition","condition_code","measure","measure_code","codeword","gender","age","education","chinese","fach","handedness","comment","hinschauen","ablenkung","gewissenhaft","rt","url","responses","stimulus","key_press","val","type","type_specific","category","cs_selected","response","target","task","indirect","nr_pres"
"true","fullscreen","0","9720","0.0-0.0","m6y3257hb6","one_one","1","direct_first","1","on03as27","0","26","1","1","2","1","Ton hat nicht funktioniert","0","1","0","","","","","","","","","","","","","","",""
"","external-html","1","22024","0.0-1.0","m6y3257hb6","one_one","1","direct_first","1","on03as27","0","26","1","1","2","1","Ton hat nicht funktioniert","0","1","0","12255","text/information.html","","","","","","","","","","","","",""
"","external-html","2","32569","0.0-2.0","m6y3257hb6","one_one","1","direct_first","1","on03as27","0","26","1","1","2","1","Ton hat nicht funktioniert","0","1","0","10433","text/consent.html","","","","","","","","","","","","",""
"","survey-html-form","3","63786","0.0-3.0","m6y3257hb6","one_one","1","direct_first","1","on03as27","0","26","1","1","2","1","Ton hat nicht funktioniert","0","1","0","31213","","{""codeword_enter"":""on03as27""}","","","","","","","","","","","",""
"","survey-html-form","4","84469","0.0-4.0","m6y3257hb6","one_one","1","direct_first","1","on03as27","0","26","1","1","2","1","Ton hat nicht funktioniert","0","1","0","20676","","{""age"":""26"",""education"":""1"",""subject"":""2"",""gender"":""0"",""handedness"":""1"",""chinese"":""1""}","","","","","","","","","","","",""
"","survey-html-form","5","98969","0.0-5.0","m6y3257hb6","one_one","1","direct_first","1","on03as27","0","26","1","1","2","1","Ton hat nicht funktioniert","0","1","0","14496","","{}","","","","","","","","","","","",""
"","html-keyboard-response","6","103000","0.0-6.0-0.0-0.0","m6y3257hb6","one_one","1","direct_first","1","on03as27","0","26","1","1","2","1","Ton hat nicht funktioniert","0","1","0","null","","","<div class = 'row'><div class = 'column'><img src = 'category2/CS3.png' width = '70%;'></div><div class = 'column'><img src = 'usneg/9342.bmp' width = '100%;'></div></div>","null","neg","CS","CS","2","category2/CS3.png","","","","",""
"","html-keyboard-response","7","105539","0.0-6.0-0.0-0.1","m6y3257hb6","one_one","1","direct_first","1","on03as27","0","26","1","1","2","1","Ton hat nicht funktioniert","0","1","0","null","","","<div class = 'row'><div class = 'column'><img src = 'category3/CS10.png' width = '70%;'></div><div class = 'column'><img src = 'uspos/1440.bmp' width = '100%;'></div></div>","null","pos","CS","CS","3","category3/CS10.png","","","","",""
"","html-keyboard-response","8","108079","0.0-6.0-0.0-0.2","m6y3257hb6","one_one","1","direct_first","1","on03as27","0","26","1","1","2","1","Ton hat nicht funktioniert","0","1","0","null","","","<div class = 'row'><div class = 'column'><img src = 'usneg/9180.bmp' width = '100%;'></div><div class = 'column'><img src = 'category4/CS1.png' width = '70%;'></div></div>","null","neg","CS","CS","4","category4/CS1.png","","","","",""
"","html-keyboard-response","9","110619","0.0-6.0-0.0-0.3","m6y3257hb6","one_one","1","direct_first","1","on03as27","0","26","1","1","2","1","Ton hat nicht funktioniert","0","1","0","null","","","<div class = 'row'><div class = 'column'><img src = 'uspos/1440.bmp' width = '100%;'></div><div class = 'column'><img src = 'category3/CS10.png' width = '70%;'></div></div>","null","pos","CS","CS","3","category3/CS10.png","","","","",""
"","html-keyboard-response","10","113137","0.0-6.0-0.0-0.4","m6y3257hb6","one_one","1","direct_first","1","on03as27","0","26","1","1","2","1","Ton hat nicht funktioniert","0","1","0","null","","","<div class = 'row'><div class = 'column'><img src = 'uspos/8490.bmp' width = '100%;'></div><div class = 'column'><img src = 'category1/CS7.png' width = '70%;'></div></div>","null","pos","CS","CS","1","category1/CS7.png","","","","",""
"","html-keyboard-response","11","115658","0.0-6.0-0.0-0.5","m6y3257hb6","one_one","1","direct_first","1","on03as27","0","26","1","1","2","1","Ton hat nicht funktioniert","0","1","0","null","","","<div class = 'row'><div class = 'column'><img src = 'category2/CS3.png' width = '70%;'></div><div class = 'column'><img src = 'usneg/9342.bmp' width = '100%;'></div></div>","null","neg","CS","CS","2","category2/CS3.png","","","","",""
"","html-keyboard-response","12","118181","0.0-6.0-0.0-0.6","m6y3257hb6","one_one","1","direct_first","1","on03as27","0","26","1","1","2","1","Ton hat nicht funktioniert","0","1","0","null","","","<div class = 'row'><div class = 'column'><img src = 'category3/CS10.png' width = '70%;'></div><div class = 'column'><img src = 'uspos/1440.bmp' width = '100%;'></div></div>","null","pos","CS","CS","3","category3/CS10.png","","","","",""
"","html-keyboard-response","13","120719","0.0-6.0-0.0-0.7","m6y3257hb6","one_one","1","direct_first","1","on03as27","0","26","1","1","2","1","Ton hat nicht funktioniert","0","1","0","null","","","<div class = 'row'><div class = 'column'><img src = 'category4/CS1.png' width = '70%;'></div><div class = 'column'><img src = 'usneg/9180.bmp' width = '100%;'></div></div>","null","neg","CS","CS","4","category4/CS1.png","","","","",""
"","html-keyboard-response","14","123249","0.0-6.0-0.0-0.8","m6y3257hb6","one_one","1","direct_first","1","on03as27","0","26","1","1","2","1","Ton hat nicht funktioniert","0","1","0","null","","","<div class = 'row'><div class = 'column'><img src = 'category1/CS7.png' width = '70%;'></div><div class = 'column'><img src = 'uspos/8490.bmp' width = '100%;'></div></div>","null","pos","CS","CS","1","category1/CS7.png","","","","",""
"","html-keyboard-response","15","125779","0.0-6.0-0.0-0.9","m6y3257hb6","one_one","1","direct_first","1","on03as27","0","26","1","1","2","1","Ton hat nicht funktioniert","0","1","0","null","","","<div class = 'row'><div class = 'column'><img src = 'usneg/9180.bmp' width = '100%;'></div><div class = 'column'><img src = 'category4/CS1.png' width = '70%;'></div></div>","null","neg","CS","CS","4","category4/CS1.png","","","","",""
"","html-keyboard-response","16","128299","0.0-6.0-0.0-0.10","m6y3257hb6","one_one","1","direct_first","1","on03as27","0","26","1","1","2","1","Ton hat nicht funktioniert","0","1","0","null","","","<div class = 'row'><div class = 'column'><img src = 'category1/CS7.png' width = '70%;'></div><div class = 'column'><img src = 'uspos/8490.bmp' width = '100%;'></div></div>","null","pos","CS","CS","1","category1/CS7.png","","","","",""
"","html-keyboard-response","17","130834","0.0-6.0-0.0-0.11","m6y3257hb6","one_one","1","direct_first","1","on03as27","0","26","1","1","2","1","Ton hat nicht funktioniert","0","1","0","null","","","<div class = 'row'><div class = 'column'><img src = 'usneg/9342.bmp' width = '100%;'></div><div class = 'column'><img src = 'category2/CS3.png' width = '70%;'></div></div>","null","neg","CS","CS","2","category2/CS3.png","","","","",""
"","html-keyboard-response","18","133358","0.0-6.0-0.0-0.12","m6y3257hb6","one_one","1","direct_first","1","on03as27","0","26","1","1","2","1","Ton hat nicht funktioniert","0","1","0","null","","","<div class = 'row'><div class = 'column'><img src = 'usneg/9180.bmp' width = '100%;'></div><div class = 'column'><img src = 'category4/CS1.png' width = '70%;'></div></div>","null","neg","CS","CS","4","category4/CS1.png","","","","",""
"","html-keyboard-response","19","135899","0.0-6.0-0.0-0.13","m6y3257hb6","one_one","1","direct_first","1","on03as27","0","26","1","1","2","1","Ton hat nicht funktioniert","0","1","0","null","","","<div class = 'row'><div class = 'column'><img src = 'category2/CS3.png' width = '70%;'></div><div class = 'column'><img src = 'usneg/9342.bmp' width = '100%;'></div></div>","null","neg","CS","CS","2","category2/CS3.png","","","","",""
"","html-keyboard-response","20","138439","0.0-6.0-0.0-0.14","m6y3257hb6","one_one","1","direct_first","1","on03as27","0","26","1","1","2","1","Ton hat nicht funktioniert","0","1","0","null","","","<div class = 'row'><div class = 'column'><img src = 'uspos/1440.bmp' width = '100%;'></div><div class = 'column'><img src = 'category3/CS10.png' width = '70%;'></div></div>","null","pos","CS","CS","3","category3/CS10.png","","","","",""
"","html-keyboard-response","21","140968","0.0-6.0-0.0-0.15","m6y3257hb6","one_one","1","direct_first","1","on03as27","0","26","1","1","2","1","Ton hat nicht funktioniert","0","1","0","null","","","<div class = 'row'><div class = 'column'><img src = 'category1/CS7.png' width = '70%;'></div><div class = 'column'><img src = 'uspos/8490.bmp' width = '100%;'></div></div>","null","pos","CS","CS","1","category1/CS7.png","","","","",""
"","html-keyboard-response","22","143479","0.0-6.0-0.0-0.16","m6y3257hb6","one_one","1","direct_first","1","on03as27","0","26","1","1","2","1","Ton hat nicht funktioniert","0","1","0","null","","","<div class = 'row'><div class = 'column'><img src = 'category3/CS10.png' width = '70%;'></div><div class = 'column'><img src = 'uspos/1440.bmp' width = '100%;'></div></div>","null","pos","CS","CS","3","category3/CS10.png","","","","",""
"","html-keyboard-response","23","146019","0.0-6.0-0.0-0.17","m6y3257hb6","one_one","1","direct_first","1","on03as27","0","26","1","1","2","1","Ton hat nicht funktioniert","0","1","0","null","","","<div class = 'row'><div class = 'column'><img src = 'category1/CS7.png' width = '70%;'></div><div class = 'column'><img src = 'uspos/8490.bmp' width = '100%;'></div></div>","null","pos","CS","CS","1","category1/CS7.png","","","","",""
"","html-keyboard-response","24","148559","0.0-6.0-0.0-0.18","m6y3257hb6","one_one","1","direct_first","1","on03as27","0","26","1","1","2","1","Ton hat nicht funktioniert","0","1","0","null","","","<div class = 'row'><div class = 'column'><img src = 'category4/CS1.png' width = '70%;'></div><div class = 'column'><img src = 'usneg/9180.bmp' width = '100%;'></div></div>","null","neg","CS","CS","4","category4/CS1.png","","","","",""
"","html-keyboard-response","25","151099","0.0-6.0-0.0-0.19","m6y3257hb6","one_one","1","direct_first","1","on03as27","0","26","1","1","2","1","Ton hat nicht funktioniert","0","1","0","null","","","<div class = 'row'><div class = 'column'><img src = 'category2/CS3.png' width = '70%;'></div><div class = 'column'><img src = 'usneg/9342.bmp' width = '100%;'></div></div>","null","neg","CS","CS","2","category2/CS3.png","","","","",""
"","survey-html-form","26","155246","0.0-6.0-1.0","m6y3257hb6","one_one","1","direct_first","1","on03as27","0","26","1","1","2","1","Ton hat nicht funktioniert","0","1","0","3626","","{}","","","","","","","","","","","",""
"","html-keyboard-response","27","159265","0.0-6.0-2.0-0.0","m6y3257hb6","one_one","1","direct_first","1","on03as27","0","26","1","1","2","1","Ton hat nicht funktioniert","0","1","0","null","","","<div class = 'row'><div class = 'column'><img src = 'category3/CS10.png' width = '70%;'></div><div class = 'column'><img src = 'uspos/1440.bmp' width = '100%;'></div></div>","null","pos","CS","CS","3","category3/CS10.png","","","","",""
"","html-keyboard-response","28","161798","0.0-6.0-2.0-0.1","m6y3257hb6","one_one","1","direct_first","1","on03as27","0","26","1","1","2","1","Ton hat nicht funktioniert","0","1","0","null","","","<div class = 'row'><div class = 'column'><img src = 'usneg/9180.bmp' width = '100%;'></div><div class = 'column'><img src = 'category4/CS1.png' width = '70%;'></div></div>","null","neg","CS","CS","4","category4/CS1.png","","","","",""
"","html-keyboard-response","29","164323","0.0-6.0-2.0-0.2","m6y3257hb6","one_one","1","direct_first","1","on03as27","0","26","1","1","2","1","Ton hat nicht funktioniert","0","1","0","null","","","<div class = 'row'><div class = 'column'><img src = 'uspos/1440.bmp' width = '100%;'></div><div class = 'column'><img src = 'category3/CS10.png' width = '70%;'></div></div>","null","pos","CS","CS","3","category3/CS10.png","","","","",""
"","html-keyboard-response","30","166859","0.0-6.0-2.0-0.3","m6y3257hb6","one_one","1","direct_first","1","on03as27","0","26","1","1","2","1","Ton hat nicht funktioniert","0","1","0","null","","","<div class = 'row'><div class = 'column'><img src = 'category2/CS3.png' width = '70%;'></div><div class = 'column'><img src = 'usneg/9342.bmp' width = '100%;'></div></div>","null","neg","CS","CS","2","category2/CS3.png","","","","",""
"","html-keyboard-response","31","169389","0.0-6.0-2.0-0.4","m6y3257hb6","one_one","1","direct_first","1","on03as27","0","26","1","1","2","1","Ton hat nicht funktioniert","0","1","0","null","","","<div class = 'row'><div class = 'column'><img src = 'category3/CS10.png' width = '70%;'></div><div class = 'column'><img src = 'uspos/1440.bmp' width = '100%;'></div></div>","null","pos","CS","CS","3","category3/CS10.png","","","","",""
"","html-keyboard-response","32","171919","0.0-6.0-2.0-0.5","m6y3257hb6","one_one","1","direct_first","1","on03as27","0","26","1","1","2","1","Ton hat nicht funktioniert","0","1","0","null","","","<div class = 'row'><div class = 'column'><img src = 'usneg/9180.bmp' width = '100%;'></div><div class = 'column'><img src = 'category4/CS1.png' width = '70%;'></div></div>","null","neg","CS","CS","4","category4/CS1.png","","","","",""
"","html-keyboard-response","33","174448","0.0-6.0-2.0-0.6","m6y3257hb6","one_one","1","direct_first","1","on03as27","0","26","1","1","2","1","Ton hat nicht funktioniert","0","1","0","null","","","<div class = 'row'><div class = 'column'><img src = 'uspos/8490.bmp' width = '100%;'></div><div class = 'column'><img src = 'category1/CS7.png' width = '70%;'></div></div>","null","pos","CS","CS","1","category1/CS7.png","","","","",""
"","html-keyboard-response","34","176978","0.0-6.0-2.0-0.7","m6y3257hb6","one_one","1","direct_first","1","on03as27","0","26","1","1","2","1","Ton hat nicht funktioniert","0","1","0","null","","","<div class = 'row'><div class = 'column'><img src = 'category2/CS3.png' width = '70%;'></div><div class = 'column'><img src = 'usneg/9342.bmp' width = '100%;'></div></div>","null","neg","CS","CS","2","category2/CS3.png","","","","",""
"","html-keyboard-response","35","179508","0.0-6.0-2.0-0.8","m6y3257hb6","one_one","1","direct_first","1","on03as27","0","26","1","1","2","1","Ton hat nicht funktioniert","0","1","0","null","","","<div class = 'row'><div class = 'column'><img src = 'category1/CS7.png' width = '70%;'></div><div class = 'column'><img src = 'uspos/8490.bmp' width = '100%;'></div></div>","null","pos","CS","CS","1","category1/CS7.png","","","","",""
"","html-keyboard-response","36","182039","0.0-6.0-2.0-0.9","m6y3257hb6","one_one","1","direct_first","1","on03as27","0","26","1","1","2","1","Ton hat nicht funktioniert","0","1","0","null","","","<div class = 'row'><div class = 'column'><img src = 'usneg/9342.bmp' width = '100%;'></div><div class = 'column'><img src = 'category2/CS3.png' width = '70%;'></div></div>","null","neg","CS","CS","2","category2/CS3.png","","","","",""
"","html-keyboard-response","37","184578","0.0-6.0-2.0-0.10","m6y3257hb6","one_one","1","direct_first","1","on03as27","0","26","1","1","2","1","Ton hat nicht funktioniert","0","1","0","null","","","<div class = 'row'><div class = 'column'><img src = 'category1/CS7.png' width = '70%;'></div><div class = 'column'><img src = 'uspos/8490.bmp' width = '100%;'></div></div>","null","pos","CS","CS","1","category1/CS7.png","","","","",""
"","html-keyboard-response","38","187119","0.0-6.0-2.0-0.11","m6y3257hb6","one_one","1","direct_first","1","on03as27","0","26","1","1","2","1","Ton hat nicht funktioniert","0","1","0","null","","","<div class = 'row'><div class = 'column'><img src = 'usneg/9180.bmp' width = '100%;'></div><div class = 'column'><img src = 'category4/CS1.png' width = '70%;'></div></div>","null","neg","CS","CS","4","category4/CS1.png","","","","",""
"","html-keyboard-response","39","189659","0.0-6.0-2.0-0.12","m6y3257hb6","one_one","1","direct_first","1","on03as27","0","26","1","1","2","1","Ton hat nicht funktioniert","0","1","0","null","","","<div class = 'row'><div class = 'column'><img src = 'uspos/8490.bmp' width = '100%;'></div><div class = 'column'><img src = 'category1/CS7.png' width = '70%;'></div></div>","null","pos","CS","CS","1","category1/CS7.png","","","","",""
"","html-keyboard-response","40","192198","0.0-6.0-2.0-0.13","m6y3257hb6","one_one","1","direct_first","1","on03as27","0","26","1","1","2","1","Ton hat nicht funktioniert","0","1","0","null","","","<div class = 'row'><div class = 'column'><img src = 'usneg/9180.bmp' width = '100%;'></div><div class = 'column'><img src = 'category4/CS1.png' width = '70%;'></div></div>","null","neg","CS","CS","4","category4/CS1.png","","","","",""
"","html-keyboard-response","41","194735","0.0-6.0-2.0-0.14","m6y3257hb6","one_one","1","direct_first","1","on03as27","0","26","1","1","2","1","Ton hat nicht funktioniert","0","1","0","null","","","<div class = 'row'><div class = 'column'><img src = 'category2/CS3.png' width = '70%;'></div><div class = 'column'><img src = 'usneg/9342.bmp' width = '100%;'></div></div>","null","neg","CS","CS","2","category2/CS3.png","","","","",""
"","html-keyboard-response","42","197266","0.0-6.0-2.0-0.15","m6y3257hb6","one_one","1","direct_first","1","on03as27","0","26","1","1","2","1","Ton hat nicht funktioniert","0","1","0","null","","","<div class = 'row'><div class = 'column'><img src = 'uspos/8490.bmp' width = '100%;'></div><div class = 'column'><img src = 'category1/CS7.png' width = '70%;'></div></div>","null","pos","CS","CS","1","category1/CS7.png","","","","",""
"","html-keyboard-response","43","199784","0.0-6.0-2.0-0.16","m6y3257hb6","one_one","1","direct_first","1","on03as27","0","26","1","1","2","1","Ton hat nicht funktioniert","0","1","0","null","","","<div class = 'row'><div class = 'column'><img src = 'category2/CS3.png' width = '70%;'></div><div class = 'column'><img src = 'usneg/9342.bmp' width = '100%;'></div></div>","null","neg","CS","CS","2","category2/CS3.png","","","","",""
"","html-keyboard-response","44","202289","0.0-6.0-2.0-0.17","m6y3257hb6","one_one","1","direct_first","1","on03as27","0","26","1","1","2","1","Ton hat nicht funktioniert","0","1","0","null","","","<div class = 'row'><div class = 'column'><img src = 'uspos/1440.bmp' width = '100%;'></div><div class = 'column'><img src = 'category3/CS10.png' width = '70%;'></div></div>","null","pos","CS","CS","3","category3/CS10.png","","","","",""
"","html-keyboard-response","45","204808","0.0-6.0-2.0-0.18","m6y3257hb6","one_one","1","direct_first","1","on03as27","0","26","1","1","2","1","Ton hat nicht funktioniert","0","1","0","null","","","<div class = 'row'><div class = 'column'><img src = 'category4/CS1.png' width = '70%;'></div><div class = 'column'><img src = 'usneg/9180.bmp' width = '100%;'></div></div>","null","neg","CS","CS","4","category4/CS1.png","","","","",""
"","html-keyboard-response","46","207339","0.0-6.0-2.0-0.19","m6y3257hb6","one_one","1","direct_first","1","on03as27","0","26","1","1","2","1","Ton hat nicht funktioniert","0","1","0","null","","","<div class = 'row'><div class = 'column'><img src = 'uspos/1440.bmp' width = '100%;'></div><div class = 'column'><img src = 'category3/CS10.png' width = '70%;'></div></div>","null","pos","CS","CS","3","category3/CS10.png","","","","",""
"","survey-html-form","47","209573","0.0-6.0-3.0","m6y3257hb6","one_one","1","direct_first","1","on03as27","0","26","1","1","2","1","Ton hat nicht funktioniert","0","1","0","1713","","{}","","","","","","","","","","","",""
"","html-keyboard-response","48","213598","0.0-6.0-4.0-0.0","m6y3257hb6","one_one","1","direct_first","1","on03as27","0","26","1","1","2","1","Ton hat nicht funktioniert","0","1","0","null","","","<div class = 'row'><div class = 'column'><img src = 'uspos/8490.bmp' width = '100%;'></div><div class = 'column'><img src = 'category1/CS7.png' width = '70%;'></div></div>","null","pos","CS","CS","1","category1/CS7.png","","","","",""
"","html-keyboard-response","49","216139","0.0-6.0-4.0-0.1","m6y3257hb6","one_one","1","direct_first","1","on03as27","0","26","1","1","2","1","Ton hat nicht funktioniert","0","1","0","null","","","<div class = 'row'><div class = 'column'><img src = 'category3/CS10.png' width = '70%;'></div><div class = 'column'><img src = 'uspos/1440.bmp' width = '100%;'></div></div>","null","pos","CS","CS","3","category3/CS10.png","","","","",""
"","html-keyboard-response","50","218658","0.0-6.0-4.0-0.2","m6y3257hb6","one_one","1","direct_first","1","on03as27","0","26","1","1","2","1","Ton hat nicht funktioniert","0","1","0","null","","","<div class = 'row'><div class = 'column'><img src = 'category2/CS3.png' width = '70%;'></div><div class = 'column'><img src = 'usneg/9342.bmp' width = '100%;'></div></div>","null","neg","CS","CS","2","category2/CS3.png","","","","",""
"","html-keyboard-response","51","221199","0.0-6.0-4.0-0.3","m6y3257hb6","one_one","1","direct_first","1","on03as27","0","26","1","1","2","1","Ton hat nicht funktioniert","0","1","0","null","","","<div class = 'row'><div class = 'column'><img src = 'category4/CS1.png' width = '70%;'></div><div class = 'column'><img src = 'usneg/9180.bmp' width = '100%;'></div></div>","null","neg","CS","CS","4","category4/CS1.png","","","","",""
"","html-keyboard-response","52","223734","0.0-6.0-4.0-0.4","m6y3257hb6","one_one","1","direct_first","1","on03as27","0","26","1","1","2","1","Ton hat nicht funktioniert","0","1","0","null","","","<div class = 'row'><div class = 'column'><img src = 'uspos/1440.bmp' width = '100%;'></div><div class = 'column'><img src = 'category3/CS10.png' width = '70%;'></div></div>","null","pos","CS","CS","3","category3/CS10.png","","","","",""
"","html-keyboard-response","53","226250","0.0-6.0-4.0-0.5","m6y3257hb6","one_one","1","direct_first","1","on03as27","0","26","1","1","2","1","Ton hat nicht funktioniert","0","1","0","null","","","<div class = 'row'><div class = 'column'><img src = 'category2/CS3.png' width = '70%;'></div><div class = 'column'><img src = 'usneg/9342.bmp' width = '100%;'></div></div>","null","neg","CS","CS","2","category2/CS3.png","","","","",""
"","html-keyboard-response","54","228765","0.0-6.0-4.0-0.6","m6y3257hb6","one_one","1","direct_first","1","on03as27","0","26","1","1","2","1","Ton hat nicht funktioniert","0","1","0","null","","","<div class = 'row'><div class = 'column'><img src = 'category3/CS10.png' width = '70%;'></div><div class = 'column'><img src = 'uspos/1440.bmp' width = '100%;'></div></div>","null","pos","CS","CS","3","category3/CS10.png","","","","",""
"","html-keyboard-response","55","231289","0.0-6.0-4.0-0.7","m6y3257hb6","one_one","1","direct_first","1","on03as27","0","26","1","1","2","1","Ton hat nicht funktioniert","0","1","0","null","","","<div class = 'row'><div class = 'column'><img src = 'usneg/9180.bmp' width = '100%;'></div><div class = 'column'><img src = 'category4/CS1.png' width = '70%;'></div></div>","null","neg","CS","CS","4","category4/CS1.png","","","","",""
"","html-keyboard-response","56","233819","0.0-6.0-4.0-0.8","m6y3257hb6","one_one","1","direct_first","1","on03as27","0","26","1","1","2","1","Ton hat nicht funktioniert","0","1","0","null","","","<div class = 'row'><div class = 'column'><img src = 'usneg/9342.bmp' width = '100%;'></div><div class = 'column'><img src = 'category2/CS3.png' width = '70%;'></div></div>","null","neg","CS","CS","2","category2/CS3.png","","","","",""
"","html-keyboard-response","57","236339","0.0-6.0-4.0-0.9","m6y3257hb6","one_one","1","direct_first","1","on03as27","0","26","1","1","2","1","Ton hat nicht funktioniert","0","1","0","null","","","<div class = 'row'><div class = 'column'><img src = 'uspos/8490.bmp' width = '100%;'></div><div class = 'column'><img src = 'category1/CS7.png' width = '70%;'></div></div>","null","pos","CS","CS","1","category1/CS7.png","","","","",""
"","html-keyboard-response","58","238859","0.0-6.0-4.0-0.10","m6y3257hb6","one_one","1","direct_first","1","on03as27","0","26","1","1","2","1","Ton hat nicht funktioniert","0","1","0","null","","","<div class = 'row'><div class = 'column'><img src = 'usneg/9180.bmp' width = '100%;'></div><div class = 'column'><img src = 'category4/CS1.png' width = '70%;'></div></div>","null","neg","CS","CS","4","category4/CS1.png","","","","",""
"","html-keyboard-response","59","241379","0.0-6.0-4.0-0.11","m6y3257hb6","one_one","1","direct_first","1","on03as27","0","26","1","1","2","1","Ton hat nicht funktioniert","0","1","0","null","","","<div class = 'row'><div class = 'column'><img src = 'uspos/8490.bmp' width = '100%;'></div><div class = 'column'><img src = 'category1/CS7.png' width = '70%;'></div></div>","null","pos","CS","CS","1","category1/CS7.png","","","","",""
"","html-keyboard-response","60","243899","0.0-6.0-4.0-0.12","m6y3257hb6","one_one","1","direct_first","1","on03as27","0","26","1","1","2","1","Ton hat nicht funktioniert","0","1","0","null","","","<div class = 'row'><div class = 'column'><img src = 'usneg/9342.bmp' width = '100%;'></div><div class = 'column'><img src = 'category2/CS3.png' width = '70%;'></div></div>","null","neg","CS","CS","2","category2/CS3.png","","","","",""
"","html-keyboard-response","61","246418","0.0-6.0-4.0-0.13","m6y3257hb6","one_one","1","direct_first","1","on03as27","0","26","1","1","2","1","Ton hat nicht funktioniert","0","1","0","null","","","<div class = 'row'><div class = 'column'><img src = 'category4/CS1.png' width = '70%;'></div><div class = 'column'><img src = 'usneg/9180.bmp' width = '100%;'></div></div>","null","neg","CS","CS","4","category4/CS1.png","","","","",""
"","html-keyboard-response","62","248958","0.0-6.0-4.0-0.14","m6y3257hb6","one_one","1","direct_first","1","on03as27","0","26","1","1","2","1","Ton hat nicht funktioniert","0","1","0","null","","","<div class = 'row'><div class = 'column'><img src = 'uspos/1440.bmp' width = '100%;'></div><div class = 'column'><img src = 'category3/CS10.png' width = '70%;'></div></div>","null","pos","CS","CS","3","category3/CS10.png","","","","",""
"","html-keyboard-response","63","251498","0.0-6.0-4.0-0.15","m6y3257hb6","one_one","1","direct_first","1","on03as27","0","26","1","1","2","1","Ton hat nicht funktioniert","0","1","0","null","","","<div class = 'row'><div class = 'column'><img src = 'usneg/9180.bmp' width = '100%;'></div><div class = 'column'><img src = 'category4/CS1.png' width = '70%;'></div></div>","null","neg","CS","CS","4","category4/CS1.png","","","","",""
"","html-keyboard-response","64","254038","0.0-6.0-4.0-0.16","m6y3257hb6","one_one","1","direct_first","1","on03as27","0","26","1","1","2","1","Ton hat nicht funktioniert","0","1","0","null","","","<div class = 'row'><div class = 'column'><img src = 'usneg/9342.bmp' width = '100%;'></div><div class = 'column'><img src = 'category2/CS3.png' width = '70%;'></div></div>","null","neg","CS","CS","2","category2/CS3.png","","","","",""
"","html-keyboard-response","65","256579","0.0-6.0-4.0-0.17","m6y3257hb6","one_one","1","direct_first","1","on03as27","0","26","1","1","2","1","Ton hat nicht funktioniert","0","1","0","null","","","<div class = 'row'><div class = 'column'><img src = 'uspos/8490.bmp' width = '100%;'></div><div class = 'column'><img src = 'category1/CS7.png' width = '70%;'></div></div>","null","pos","CS","CS","1","category1/CS7.png","","","","",""
"","html-keyboard-response","66","259119","0.0-6.0-4.0-0.18","m6y3257hb6","one_one","1","direct_first","1","on03as27","0","26","1","1","2","1","Ton hat nicht funktioniert","0","1","0","null","","","<div class = 'row'><div class = 'column'><img src = 'uspos/1440.bmp' width = '100%;'></div><div class = 'column'><img src = 'category3/CS10.png' width = '70%;'></div></div>","null","pos","CS","CS","3","category3/CS10.png","","","","",""
"","html-keyboard-response","67","261659","0.0-6.0-4.0-0.19","m6y3257hb6","one_one","1","direct_first","1","on03as27","0","26","1","1","2","1","Ton hat nicht funktioniert","0","1","0","null","","","<div class = 'row'><div class = 'column'><img src = 'category1/CS7.png' width = '70%;'></div><div class = 'column'><img src = 'uspos/8490.bmp' width = '100%;'></div></div>","null","pos","CS","CS","1","category1/CS7.png","","","","",""
"","survey-html-form","68","263469","0.0-6.0-5.0","m6y3257hb6","one_one","1","direct_first","1","on03as27","0","26","1","1","2","1","Ton hat nicht funktioniert","0","1","0","1290","","{}","","","","","","","","","","","",""
"","html-keyboard-response","69","267499","0.0-6.0-6.0-0.0","m6y3257hb6","one_one","1","direct_first","1","on03as27","0","26","1","1","2","1","Ton hat nicht funktioniert","0","1","0","null","","","<div class = 'row'><div class = 'column'><img src = 'uspos/1440.bmp' width = '100%;'></div><div class = 'column'><img src = 'category3/CS10.png' width = '70%;'></div></div>","null","pos","CS","CS","3","category3/CS10.png","","","","",""
"","html-keyboard-response","70","270038","0.0-6.0-6.0-0.1","m6y3257hb6","one_one","1","direct_first","1","on03as27","0","26","1","1","2","1","Ton hat nicht funktioniert","0","1","0","null","","","<div class = 'row'><div class = 'column'><img src = 'category4/CS1.png' width = '70%;'></div><div class = 'column'><img src = 'usneg/9180.bmp' width = '100%;'></div></div>","null","neg","CS","CS","4","category4/CS1.png","","","","",""
"","html-keyboard-response","71","272579","0.0-6.0-6.0-0.2","m6y3257hb6","one_one","1","direct_first","1","on03as27","0","26","1","1","2","1","Ton hat nicht funktioniert","0","1","0","null","","","<div class = 'row'><div class = 'column'><img src = 'category2/CS3.png' width = '70%;'></div><div class = 'column'><img src = 'usneg/9342.bmp' width = '100%;'></div></div>","null","neg","CS","CS","2","category2/CS3.png","","","","",""
"","html-keyboard-response","72","275118","0.0-6.0-6.0-0.3","m6y3257hb6","one_one","1","direct_first","1","on03as27","0","26","1","1","2","1","Ton hat nicht funktioniert","0","1","0","null","","","<div class = 'row'><div class = 'column'><img src = 'category4/CS1.png' width = '70%;'></div><div class = 'column'><img src = 'usneg/9180.bmp' width = '100%;'></div></div>","null","neg","CS","CS","4","category4/CS1.png","","","","",""
"","html-keyboard-response","73","277659","0.0-6.0-6.0-0.4","m6y3257hb6","one_one","1","direct_first","1","on03as27","0","26","1","1","2","1","Ton hat nicht funktioniert","0","1","0","null","","","<div class = 'row'><div class = 'column'><img src = 'uspos/1440.bmp' width = '100%;'></div><div class = 'column'><img src = 'category3/CS10.png' width = '70%;'></div></div>","null","pos","CS","CS","3","category3/CS10.png","","","","",""
"","html-keyboard-response","74","280199","0.0-6.0-6.0-0.5","m6y3257hb6","one_one","1","direct_first","1","on03as27","0","26","1","1","2","1","Ton hat nicht funktioniert","0","1","0","null","","","<div class = 'row'><div class = 'column'><img src = 'category4/CS1.png' width = '70%;'></div><div class = 'column'><img src = 'usneg/9180.bmp' width = '100%;'></div></div>","null","neg","CS","CS","4","category4/CS1.png","","","","",""
"","html-keyboard-response","75","282734","0.0-6.0-6.0-0.6","m6y3257hb6","one_one","1","direct_first","1","on03as27","0","26","1","1","2","1","Ton hat nicht funktioniert","0","1","0","null","","","<div class = 'row'><div class = 'column'><img src = 'category1/CS7.png' width = '70%;'></div><div class = 'column'><img src = 'uspos/8490.bmp' width = '100%;'></div></div>","null","pos","CS","CS","1","category1/CS7.png","","","","",""
"","html-keyboard-response","76","285266","0.0-6.0-6.0-0.7","m6y3257hb6","one_one","1","direct_first","1","on03as27","0","26","1","1","2","1","Ton hat nicht funktioniert","0","1","0","null","","","<div class = 'row'><div class = 'column'><img src = 'category4/CS1.png' width = '70%;'></div><div class = 'column'><img src = 'usneg/9180.bmp' width = '100%;'></div></div>","null","neg","CS","CS","4","category4/CS1.png","","","","",""
"","html-keyboard-response","77","287784","0.0-6.0-6.0-0.8","m6y3257hb6","one_one","1","direct_first","1","on03as27","0","26","1","1","2","1","Ton hat nicht funktioniert","0","1","0","null","","","<div class = 'row'><div class = 'column'><img src = 'usneg/9342.bmp' width = '100%;'></div><div class = 'column'><img src = 'category2/CS3.png' width = '70%;'></div></div>","null","neg","CS","CS","2","category2/CS3.png","","","","",""
"","html-keyboard-response","78","290288","0.0-6.0-6.0-0.9","m6y3257hb6","one_one","1","direct_first","1","on03as27","0","26","1","1","2","1","Ton hat nicht funktioniert","0","1","0","null","","","<div class = 'row'><div class = 'column'><img src = 'category3/CS10.png' width = '70%;'></div><div class = 'column'><img src = 'uspos/1440.bmp' width = '100%;'></div></div>","null","pos","CS","CS","3","category3/CS10.png","","","","",""
"","html-keyboard-response","79","292813","0.0-6.0-6.0-0.10","m6y3257hb6","one_one","1","direct_first","1","on03as27","0","26","1","1","2","1","Ton hat nicht funktioniert","0","1","0","null","","","<div class = 'row'><div class = 'column'><img src = 'usneg/9342.bmp' width = '100%;'></div><div class = 'column'><img src = 'category2/CS3.png' width = '70%;'></div></div>","null","neg","CS","CS","2","category2/CS3.png","","","","",""
"","html-keyboard-response","80","295339","0.0-6.0-6.0-0.11","m6y3257hb6","one_one","1","direct_first","1","on03as27","0","26","1","1","2","1","Ton hat nicht funktioniert","0","1","0","null","","","<div class = 'row'><div class = 'column'><img src = 'uspos/8490.bmp' width = '100%;'></div><div class = 'column'><img src = 'category1/CS7.png' width = '70%;'></div></div>","null","pos","CS","CS","1","category1/CS7.png","","","","",""
"","html-keyboard-response","81","297878","0.0-6.0-6.0-0.12","m6y3257hb6","one_one","1","direct_first","1","on03as27","0","26","1","1","2","1","Ton hat nicht funktioniert","0","1","0","null","","","<div class = 'row'><div class = 'column'><img src = 'category3/CS10.png' width = '70%;'></div><div class = 'column'><img src = 'uspos/1440.bmp' width = '100%;'></div></div>","null","pos","CS","CS","3","category3/CS10.png","","","","",""
"","html-keyboard-response","82","300418","0.0-6.0-6.0-0.13","m6y3257hb6","one_one","1","direct_first","1","on03as27","0","26","1","1","2","1","Ton hat nicht funktioniert","0","1","0","null","","","<div class = 'row'><div class = 'column'><img src = 'category2/CS3.png' width = '70%;'></div><div class = 'column'><img src = 'usneg/9342.bmp' width = '100%;'></div></div>","null","neg","CS","CS","2","category2/CS3.png","","","","",""
"","html-keyboard-response","83","302958","0.0-6.0-6.0-0.14","m6y3257hb6","one_one","1","direct_first","1","on03as27","0","26","1","1","2","1","Ton hat nicht funktioniert","0","1","0","null","","","<div class = 'row'><div class = 'column'><img src = 'category1/CS7.png' width = '70%;'></div><div class = 'column'><img src = 'uspos/8490.bmp' width = '100%;'></div></div>","null","pos","CS","CS","1","category1/CS7.png","","","","",""
"","html-keyboard-response","84","305493","0.0-6.0-6.0-0.15","m6y3257hb6","one_one","1","direct_first","1","on03as27","0","26","1","1","2","1","Ton hat nicht funktioniert","0","1","0","null","","","<div class = 'row'><div class = 'column'><img src = 'category3/CS10.png' width = '70%;'></div><div class = 'column'><img src = 'uspos/1440.bmp' width = '100%;'></div></div>","null","pos","CS","CS","3","category3/CS10.png","","","","",""
"","html-keyboard-response","85","308016","0.0-6.0-6.0-0.16","m6y3257hb6","one_one","1","direct_first","1","on03as27","0","26","1","1","2","1","Ton hat nicht funktioniert","0","1","0","null","","","<div class = 'row'><div class = 'column'><img src = 'category1/CS7.png' width = '70%;'></div><div class = 'column'><img src = 'uspos/8490.bmp' width = '100%;'></div></div>","null","pos","CS","CS","1","category1/CS7.png","","","","",""
"","html-keyboard-response","86","310559","0.0-6.0-6.0-0.17","m6y3257hb6","one_one","1","direct_first","1","on03as27","0","26","1","1","2","1","Ton hat nicht funktioniert","0","1","0","null","","","<div class = 'row'><div class = 'column'><img src = 'usneg/9180.bmp' width = '100%;'></div><div class = 'column'><img src = 'category4/CS1.png' width = '70%;'></div></div>","null","neg","CS","CS","4","category4/CS1.png","","","","",""
"","html-keyboard-response","87","313079","0.0-6.0-6.0-0.18","m6y3257hb6","one_one","1","direct_first","1","on03as27","0","26","1","1","2","1","Ton hat nicht funktioniert","0","1","0","null","","","<div class = 'row'><div class = 'column'><img src = 'usneg/9342.bmp' width = '100%;'></div><div class = 'column'><img src = 'category2/CS3.png' width = '70%;'></div></div>","null","neg","CS","CS","2","category2/CS3.png","","","","",""
"","html-keyboard-response","88","315619","0.0-6.0-6.0-0.19","m6y3257hb6","one_one","1","direct_first","1","on03as27","0","26","1","1","2","1","Ton hat nicht funktioniert","0","1","0","null","","","<div class = 'row'><div class = 'column'><img src = 'category1/CS7.png' width = '70%;'></div><div class = 'column'><img src = 'uspos/8490.bmp' width = '100%;'></div></div>","null","pos","CS","CS","1","category1/CS7.png","","","","",""
"","survey-html-form","89","329178","0.0-7.0","m6y3257hb6","one_one","1","direct_first","1","on03as27","0","26","1","1","2","1","Ton hat nicht funktioniert","0","1","0","13038","","{}","","","","","","","","","","","",""
"","image-slider-response","90","341596","0.0-8.0-0.0","m6y3257hb6","one_one","1","direct_first","1","on03as27","0","26","1","1","2","1","Ton hat nicht funktioniert","0","1","0","10388","","","","","neg","GS","GSold","4","category4/CS10.png","25","targets/31.png","direct","",""
"","image-slider-response","91","349376","0.0-8.0-0.1","m6y3257hb6","one_one","1","direct_first","1","on03as27","0","26","1","1","2","1","Ton hat nicht funktioniert","0","1","0","7774","","","","","neg","GS","abstract","4","category4/lin.png","28","targets/42.png","direct","",""
"","image-slider-response","92","354544","0.0-8.0-0.2","m6y3257hb6","one_one","1","direct_first","1","on03as27","0","26","1","1","2","1","Ton hat nicht funktioniert","0","1","0","5163","","","","","pos","GS","GSnew","1","category1/GS2.png","23","targets/48.png","direct","",""
"","image-slider-response","93","358048","0.0-8.0-0.3","m6y3257hb6","one_one","1","direct_first","1","on03as27","0","26","1","1","2","1","Ton hat nicht funktioniert","0","1","0","3500","","","","","neg","GS","GSold","2","category2/CS7.png","-32","targets/23.png","direct","",""
"","image-slider-response","94","360727","0.0-8.0-0.4","m6y3257hb6","one_one","1","direct_first","1","on03as27","0","26","1","1","2","1","Ton hat nicht funktioniert","0","1","0","2675","","","","","pos","GS","GSold","1","category1/CS9.png","32","targets/7.png","direct","",""
"","image-slider-response","95","363174","0.0-8.0-0.5","m6y3257hb6","one_one","1","direct_first","1","on03as27","0","26","1","1","2","1","Ton hat nicht funktioniert","0","1","0","2442","","","","","neg","GS","GSold","2","category2/CS8.png","-32","targets/6.png","direct","",""
"","image-slider-response","96","366772","0.0-8.0-0.6","m6y3257hb6","one_one","1","direct_first","1","on03as27","0","26","1","1","2","1","Ton hat nicht funktioniert","0","1","0","3593","","","","","pos","GS","GSnew","1","category1/GS3.png","19","targets/1.png","direct","",""
"","image-slider-response","97","368776","0.0-8.0-0.7","m6y3257hb6","one_one","1","direct_first","1","on03as27","0","26","1","1","2","1","Ton hat nicht funktioniert","0","1","0","1998","","","","","neg","GS","GSold","2","category2/CS6.png","-42","targets/44.png","direct","",""
"","image-slider-response","98","372704","0.0-8.0-0.8","m6y3257hb6","one_one","1","direct_first","1","on03as27","0","26","1","1","2","1","Ton hat nicht funktioniert","0","1","0","3920","","","","","pos","GS","abstract","1","category1/ma.png","26","targets/14.png","direct","",""
"","image-slider-response","99","375657","0.0-8.0-0.9","m6y3257hb6","one_one","1","direct_first","1","on03as27","0","26","1","1","2","1","Ton hat nicht funktioniert","0","1","0","2947","","","","","pos","CS","CS","1","category1/CS7.png","51","targets/26.png","direct","",""
"","image-slider-response","100","378582","0.0-8.0-0.10","m6y3257hb6","one_one","1","direct_first","1","on03as27","0","26","1","1","2","1","Ton hat nicht funktioniert","0","1","0","2919","","","","","pos","GS","GSnew","1","category1/GS1.png","28","targets/4.png","direct","",""
"","image-slider-response","101","381543","0.0-8.0-0.11","m6y3257hb6","one_one","1","direct_first","1","on03as27","0","26","1","1","2","1","Ton hat nicht funktioniert","0","1","0","2957","","","","","pos","GS","GSold","1","category1/CS8.png","25","targets/40.png","direct","",""
"","image-slider-response","102","384688","0.0-8.0-0.12","m6y3257hb6","one_one","1","direct_first","1","on03as27","0","26","1","1","2","1","Ton hat nicht funktioniert","0","1","0","3140","","","","","pos","GS","GSnew","3","category3/GS3.png","23","targets/37.png","direct","",""
"","image-slider-response","103","386924","0.0-8.0-0.13","m6y3257hb6","one_one","1","direct_first","1","on03as27","0","26","1","1","2","1","Ton hat nicht funktioniert","0","1","0","2230","","","","","neg","CS","CS","2","category2/CS3.png","-39","targets/5.png","direct","",""
"","image-slider-response","104","389312","0.0-8.0-0.14","m6y3257hb6","one_one","1","direct_first","1","on03as27","0","26","1","1","2","1","Ton hat nicht funktioniert","0","1","0","2384","","","","","pos","GS","GSold","1","category1/CS2.png","29","targets/20.png","direct","",""
"","image-slider-response","105","391800","0.0-8.0-0.15","m6y3257hb6","one_one","1","direct_first","1","on03as27","0","26","1","1","2","1","Ton hat nicht funktioniert","0","1","0","2485","","","","","pos","GS","GSnew","3","category3/GS1.png","22","targets/19.png","direct","",""
"","image-slider-response","106","396655","0.0-8.0-0.16","m6y3257hb6","one_one","1","direct_first","1","on03as27","0","26","1","1","2","1","Ton hat nicht funktioniert","0","1","0","4849","","","","","pos","GS","abstract","3","category3/wang.png","-74","targets/10.png","direct","",""
"","image-slider-response","107","401024","0.0-8.0-0.17","m6y3257hb6","one_one","1","direct_first","1","on03as27","0","26","1","1","2","1","Ton hat nicht funktioniert","0","1","0","4365","","","","","pos","CS","CS","3","category3/CS10.png","22","targets/38.png","direct","",""
"","image-slider-response","108","404751","0.0-8.0-0.18","m6y3257hb6","one_one","1","direct_first","1","on03as27","0","26","1","1","2","1","Ton hat nicht funktioniert","0","1","0","3723","","","","","neg","GS","GSnew","4","category4/GS2.png","87","targets/41.png","direct","",""
"","image-slider-response","109","407760","0.0-8.0-0.19","m6y3257hb6","one_one","1","direct_first","1","on03as27","0","26","1","1","2","1","Ton hat nicht funktioniert","0","1","0","3004","","","","","pos","GS","GSold","3","category3/CS4.png","75","targets/27.png","direct","",""
"","image-slider-response","110","410128","0.0-8.0-0.20","m6y3257hb6","one_one","1","direct_first","1","on03as27","0","26","1","1","2","1","Ton hat nicht funktioniert","0","1","0","2364","","","","","pos","GS","GSnew","3","category3/GS2.png","-37","targets/36.png","direct","",""
"","image-slider-response","111","412736","0.0-8.0-0.21","m6y3257hb6","one_one","1","direct_first","1","on03as27","0","26","1","1","2","1","Ton hat nicht funktioniert","0","1","0","2604","","","","","pos","GS","GSold","3","category3/CS5.png","-62","targets/47.png","direct","",""
"","image-slider-response","112","415123","0.0-8.0-0.22","m6y3257hb6","one_one","1","direct_first","1","on03as27","0","26","1","1","2","1","Ton hat nicht funktioniert","0","1","0","2383","","","","","neg","GS","GSnew","2","category2/GS3.png","-89","targets/16.png","direct","",""
"","image-slider-response","113","417417","0.0-8.0-0.23","m6y3257hb6","one_one","1","direct_first","1","on03as27","0","26","1","1","2","1","Ton hat nicht funktioniert","0","1","0","2291","","","","","neg","GS","GSnew","2","category2/GS2.png","-74","targets/24.png","direct","",""
"","image-slider-response","114","422144","0.0-8.0-0.24","m6y3257hb6","one_one","1","direct_first","1","on03as27","0","26","1","1","2","1","Ton hat nicht funktioniert","0","1","0","4720","","","","","neg","CS","CS","4","category4/CS1.png","-34","targets/11.png","direct","",""
"","image-slider-response","115","424856","0.0-8.0-0.25","m6y3257hb6","one_one","1","direct_first","1","on03as27","0","26","1","1","2","1","Ton hat nicht funktioniert","0","1","0","2707","","","","","neg","GS","GSnew","4","category4/GS1.png","67","targets/28.png","direct","",""
"","image-slider-response","116","427528","0.0-8.0-0.26","m6y3257hb6","one_one","1","direct_first","1","on03as27","0","26","1","1","2","1","Ton hat nicht funktioniert","0","1","0","2668","","","","","neg","GS","GSnew","4","category4/GS3.png","63","targets/21.png","direct","",""
"","image-slider-response","117","429656","0.0-8.0-0.27","m6y3257hb6","one_one","1","direct_first","1","on03as27","0","26","1","1","2","1","Ton hat nicht funktioniert","0","1","0","2122","","","","","neg","GS","GSnew","2","category2/GS1.png","-37","targets/33.png","direct","",""
"","image-slider-response","118","431783","0.0-8.0-0.28","m6y3257hb6","one_one","1","direct_first","1","on03as27","0","26","1","1","2","1","Ton hat nicht funktioniert","0","1","0","2123","","","","","neg","GS","abstract","2","category2/men.png","-56","targets/9.png","direct","",""
"","image-slider-response","119","434072","0.0-8.0-0.29","m6y3257hb6","one_one","1","direct_first","1","on03as27","0","26","1","1","2","1","Ton hat nicht funktioniert","0","1","0","2283","","","","","pos","GS","GSold","3","category3/CS9.png","-74","targets/39.png","direct","",""
"","image-slider-response","120","436440","0.0-8.0-0.30","m6y3257hb6","one_one","1","direct_first","1","on03as27","0","26","1","1","2","1","Ton hat nicht funktioniert","0","1","0","2364","","","","","neg","GS","GSold","4","category4/CS6.png","21","targets/13.png","direct","",""
"","image-slider-response","121","439132","0.0-8.0-0.31","m6y3257hb6","one_one","1","direct_first","1","on03as27","0","26","1","1","2","1","Ton hat nicht funktioniert","0","1","0","2688","","","","","neg","GS","GSold","4","category4/CS8.png","86","targets/17.png","direct","",""
"","html-keyboard-response","122","468682","0.0-9.0","m6y3257hb6","one_one","1","direct_first","1","on03as27","0","26","1","1","2","1","Ton hat nicht funktioniert","0","1","0","29548","","","<p>Sie sehen nun die chinesischen Zeichen nur ganz kurz. Danach sehen Sie die jeweilige Aussprache der Zeichen als Silbe auf dem Bildschrim. Ihre Aufgabe ist es, für jede Silbe anzugeben, ob diese etwas angenehmes, oder unangenehmes bedeuten könnte. Verlassen Sie sich hier vor allem auf Ihre Intuition.<br><br>Die Zeichen werden nur zur Orientierung dargestellt, beachten Sie sie deshalb nicht. Konzentrieren Sie sich vor allem auf die Silben. <br>Reagieren Sie mit folgenden zwei Tasten: <br><br><b>'D' </b> wenn die Silbe etwas <b>unangenehmes</b> bedeuten könnte. <br><b>'K'</b> wenn die Silbe etwas <b>angenehmes</b> bedeuten könnte. <br><br>Bitte legen Sie nun den Zeigefinger der linken Hand auf die Taste 'D' und den Zeigefinger der rechten Hand auf die Taste 'K'. <br>Reagieren Sie auf jede Silbe so schnell wie möglich. Uns interessiert Ihre spontane Reaktion. <br> <br> <br>Drücken Sie 'D' oder 'K', um die nächste Aufgabe zu starten. </p>","75","","","","","","","","","",""
"","html-keyboard-response","123","471718","0.0-10.0-0.0","m6y3257hb6","one_one","1","direct_first","1","on03as27","0","26","1","1","2","1","Ton hat nicht funktioniert","0","1","0","null","","","<div style=""font-size:60px;"">+</div>","null","","","","","","","","","",""
"","html-keyboard-response","124","471818","0.0-10.0-1.0","m6y3257hb6","one_one","1","direct_first","1","on03as27","0","26","1","1","2","1","Ton hat nicht funktioniert","0","1","0","null","","","<img src = 'category2/CS3.png' width = '100%;'>","null","","","","","","","","","",""
"","html-keyboard-response","125","472098","0.0-10.0-2.0","m6y3257hb6","one_one","1","direct_first","1","on03as27","0","26","1","1","2","1","Ton hat nicht funktioniert","0","1","0","null","","","<img src = 'targets/5.png' width = '100%;'>","null","","","","","","","","","",""
"","html-keyboard-response","126","476896","0.0-10.0-3.0","m6y3257hb6","one_one","1","direct_first","1","on03as27","0","26","1","1","2","1","Ton hat nicht funktioniert","0","1","0","4795","","","<img src = 'targets/mask.png' width = '100%;'>","68","neg","CS","CS","2","category2/CS3.png","","targets/5.png","indirect","0","0"
"","html-keyboard-response","127","478416","0.0-10.0-0.1","m6y3257hb6","one_one","1","direct_first","1","on03as27","0","26","1","1","2","1","Ton hat nicht funktioniert","0","1","0","null","","","<div style=""font-size:60px;"">+</div>","null","","","","","","","","","",""
"","html-keyboard-response","128","478523","0.0-10.0-1.1","m6y3257hb6","one_one","1","direct_first","1","on03as27","0","26","1","1","2","1","Ton hat nicht funktioniert","0","1","0","null","","","<img src = 'category1/CS8.png' width = '100%;'>","null","","","","","","","","","",""
"","html-keyboard-response","129","478798","0.0-10.0-2.1","m6y3257hb6","one_one","1","direct_first","1","on03as27","0","26","1","1","2","1","Ton hat nicht funktioniert","0","1","0","null","","","<img src = 'targets/40.png' width = '100%;'>","null","","","","","","","","","",""
"","html-keyboard-response","130","486432","0.0-10.0-3.1","m6y3257hb6","one_one","1","direct_first","1","on03as27","0","26","1","1","2","1","Ton hat nicht funktioniert","0","1","0","7632","","","<img src = 'targets/mask.png' width = '100%;'>","75","pos","GS","GSold","1","category1/CS8.png","","targets/40.png","indirect","1","1"
"","html-keyboard-response","131","487958","0.0-10.0-0.2","m6y3257hb6","one_one","1","direct_first","1","on03as27","0","26","1","1","2","1","Ton hat nicht funktioniert","0","1","0","null","","","<div style=""font-size:60px;"">+</div>","null","","","","","","","","","",""
"","html-keyboard-response","132","488053","0.0-10.0-1.2","m6y3257hb6","one_one","1","direct_first","1","on03as27","0","26","1","1","2","1","Ton hat nicht funktioniert","0","1","0","null","","","<img src = 'category4/CS10.png' width = '100%;'>","null","","","","","","","","","",""
"","html-keyboard-response","133","488339","0.0-10.0-2.2","m6y3257hb6","one_one","1","direct_first","1","on03as27","0","26","1","1","2","1","Ton hat nicht funktioniert","0","1","0","null","","","<img src = 'targets/31.png' width = '100%;'>","null","","","","","","","","","",""
"","html-keyboard-response","134","490511","0.0-10.0-3.2","m6y3257hb6","one_one","1","direct_first","1","on03as27","0","26","1","1","2","1","Ton hat nicht funktioniert","0","1","0","2170","","","<img src = 'targets/mask.png' width = '100%;'>","75","neg","GS","GSold","4","category4/CS10.png","","targets/31.png","indirect","1","2"
"","html-keyboard-response","135","492039","0.0-10.0-0.3","m6y3257hb6","one_one","1","direct_first","1","on03as27","0","26","1","1","2","1","Ton hat nicht funktioniert","0","1","0","null","","","<div style=""font-size:60px;"">+</div>","null","","","","","","","","","",""
"","html-keyboard-response","136","492139","0.0-10.0-1.3","m6y3257hb6","one_one","1","direct_first","1","on03as27","0","26","1","1","2","1","Ton hat nicht funktioniert","0","1","0","null","","","<img src = 'category3/CS5.png' width = '100%;'>","null","","","","","","","","","",""
"","html-keyboard-response","137","492398","0.0-10.0-2.3","m6y3257hb6","one_one","1","direct_first","1","on03as27","0","26","1","1","2","1","Ton hat nicht funktioniert","0","1","0","null","","","<img src = 'targets/47.png' width = '100%;'>","null","","","","","","","","","",""
"","html-keyboard-response","138","495600","0.0-10.0-3.3","m6y3257hb6","one_one","1","direct_first","1","on03as27","0","26","1","1","2","1","Ton hat nicht funktioniert","0","1","0","3200","","","<img src = 'targets/mask.png' width = '100%;'>","75","pos","GS","GSold","3","category3/CS5.png","","targets/47.png","indirect","1","3"
"","html-keyboard-response","139","497138","0.0-10.0-0.4","m6y3257hb6","one_one","1","direct_first","1","on03as27","0","26","1","1","2","1","Ton hat nicht funktioniert","0","1","0","null","","","<div style=""font-size:60px;"">+</div>","null","","","","","","","","","",""
"","html-keyboard-response","140","497234","0.0-10.0-1.4","m6y3257hb6","one_one","1","direct_first","1","on03as27","0","26","1","1","2","1","Ton hat nicht funktioniert","0","1","0","null","","","<img src = 'category4/CS8.png' width = '100%;'>","null","","","","","","","","","",""
"","html-keyboard-response","141","497519","0.0-10.0-2.4","m6y3257hb6","one_one","1","direct_first","1","on03as27","0","26","1","1","2","1","Ton hat nicht funktioniert","0","1","0","null","","","<img src = 'targets/17.png' width = '100%;'>","null","","","","","","","","","",""
"","html-keyboard-response","142","499296","0.0-10.0-3.4","m6y3257hb6","one_one","1","direct_first","1","on03as27","0","26","1","1","2","1","Ton hat nicht funktioniert","0","1","0","1774","","","<img src = 'targets/mask.png' width = '100%;'>","68","neg","GS","GSold","4","category4/CS8.png","","targets/17.png","indirect","0","4"
"","html-keyboard-response","143","500818","0.0-10.0-0.5","m6y3257hb6","one_one","1","direct_first","1","on03as27","0","26","1","1","2","1","Ton hat nicht funktioniert","0","1","0","null","","","<div style=""font-size:60px;"">+</div>","null","","","","","","","","","",""
"","html-keyboard-response","144","500918","0.0-10.0-1.5","m6y3257hb6","one_one","1","direct_first","1","on03as27","0","26","1","1","2","1","Ton hat nicht funktioniert","0","1","0","null","","","<img src = 'category4/CS6.png' width = '100%;'>","null","","","","","","","","","",""
"","html-keyboard-response","145","501188","0.0-10.0-2.5","m6y3257hb6","one_one","1","direct_first","1","on03as27","0","26","1","1","2","1","Ton hat nicht funktioniert","0","1","0","null","","","<img src = 'targets/13.png' width = '100%;'>","null","","","","","","","","","",""
"","html-keyboard-response","146","501823","0.0-10.0-3.5","m6y3257hb6","one_one","1","direct_first","1","on03as27","0","26","1","1","2","1","Ton hat nicht funktioniert","0","1","0","635","","","<img src = 'targets/mask.png' width = '100%;'>","68","neg","GS","GSold","4","category4/CS6.png","","targets/13.png","indirect","0","5"
"","html-keyboard-response","147","503348","0.0-10.0-0.6","m6y3257hb6","one_one","1","direct_first","1","on03as27","0","26","1","1","2","1","Ton hat nicht funktioniert","0","1","0","null","","","<div style=""font-size:60px;"">+</div>","null","","","","","","","","","",""
"","html-keyboard-response","148","503448","0.0-10.0-1.6","m6y3257hb6","one_one","1","direct_first","1","on03as27","0","26","1","1","2","1","Ton hat nicht funktioniert","0","1","0","null","","","<img src = 'category2/CS6.png' width = '100%;'>","null","","","","","","","","","",""
"","html-keyboard-response","149","503719","0.0-10.0-2.6","m6y3257hb6","one_one","1","direct_first","1","on03as27","0","26","1","1","2","1","Ton hat nicht funktioniert","0","1","0","null","","","<img src = 'targets/44.png' width = '100%;'>","null","","","","","","","","","",""
"","html-keyboard-response","150","508520","0.0-10.0-3.6","m6y3257hb6","one_one","1","direct_first","1","on03as27","0","26","1","1","2","1","Ton hat nicht funktioniert","0","1","0","4799","","","<img src = 'targets/mask.png' width = '100%;'>","75","neg","GS","GSold","2","category2/CS6.png","","targets/44.png","indirect","1","6"
"","html-keyboard-response","151","510058","0.0-10.0-0.7","m6y3257hb6","one_one","1","direct_first","1","on03as27","0","26","1","1","2","1","Ton hat nicht funktioniert","0","1","0","null","","","<div style=""font-size:60px;"">+</div>","null","","","","","","","","","",""
"","html-keyboard-response","152","510158","0.0-10.0-1.7","m6y3257hb6","one_one","1","direct_first","1","on03as27","0","26","1","1","2","1","Ton hat nicht funktioniert","0","1","0","null","","","<img src = 'category1/CS2.png' width = '100%;'>","null","","","","","","","","","",""
"","html-keyboard-response","153","510418","0.0-10.0-2.7","m6y3257hb6","one_one","1","direct_first","1","on03as27","0","26","1","1","2","1","Ton hat nicht funktioniert","0","1","0","null","","","<img src = 'targets/20.png' width = '100%;'>","null","","","","","","","","","",""
"","html-keyboard-response","154","510695","0.0-10.0-3.7","m6y3257hb6","one_one","1","direct_first","1","on03as27","0","26","1","1","2","1","Ton hat nicht funktioniert","0","1","0","276","","","<img src = 'targets/mask.png' width = '100%;'>","68","pos","GS","GSold","1","category1/CS2.png","","targets/20.png","indirect","0","7"
"","html-keyboard-response","155","512218","0.0-10.0-0.8","m6y3257hb6","one_one","1","direct_first","1","on03as27","0","26","1","1","2","1","Ton hat nicht funktioniert","0","1","0","null","","","<div style=""font-size:60px;"">+</div>","null","","","","","","","","","",""
"","html-keyboard-response","156","512319","0.0-10.0-1.8","m6y3257hb6","one_one","1","direct_first","1","on03as27","0","26","1","1","2","1","Ton hat nicht funktioniert","0","1","0","null","","","<img src = 'category2/CS7.png' width = '100%;'>","null","","","","","","","","","",""
"","html-keyboard-response","157","512598","0.0-10.0-2.8","m6y3257hb6","one_one","1","direct_first","1","on03as27","0","26","1","1","2","1","Ton hat nicht funktioniert","0","1","0","null","","","<img src = 'targets/23.png' width = '100%;'>","null","","","","","","","","","",""
"","html-keyboard-response","158","512880","0.0-10.0-3.8","m6y3257hb6","one_one","1","direct_first","1","on03as27","0","26","1","1","2","1","Ton hat nicht funktioniert","0","1","0","280","","","<img src = 'targets/mask.png' width = '100%;'>","68","neg","GS","GSold","2","category2/CS7.png","","targets/23.png","indirect","0","8"
"","html-keyboard-response","159","514418","0.0-10.0-0.9","m6y3257hb6","one_one","1","direct_first","1","on03as27","0","26","1","1","2","1","Ton hat nicht funktioniert","0","1","0","null","","","<div style=""font-size:60px;"">+</div>","null","","","","","","","","","",""
"","html-keyboard-response","160","514519","0.0-10.0-1.9","m6y3257hb6","one_one","1","direct_first","1","on03as27","0","26","1","1","2","1","Ton hat nicht funktioniert","0","1","0","null","","","<img src = 'category1/CS7.png' width = '100%;'>","null","","","","","","","","","",""
"","html-keyboard-response","161","514788","0.0-10.0-2.9","m6y3257hb6","one_one","1","direct_first","1","on03as27","0","26","1","1","2","1","Ton hat nicht funktioniert","0","1","0","null","","","<img src = 'targets/26.png' width = '100%;'>","null","","","","","","","","","",""
"","html-keyboard-response","162","514800","0.0-10.0-3.9","m6y3257hb6","one_one","1","direct_first","1","on03as27","0","26","1","1","2","1","Ton hat nicht funktioniert","0","1","0","10","","","<img src = 'targets/mask.png' width = '100%;'>","68","pos","CS","CS","1","category1/CS7.png","","targets/26.png","indirect","0","9"
"","html-keyboard-response","163","516338","0.0-10.0-0.10","m6y3257hb6","one_one","1","direct_first","1","on03as27","0","26","1","1","2","1","Ton hat nicht funktioniert","0","1","0","null","","","<div style=""font-size:60px;"">+</div>","null","","","","","","","","","",""
"","html-keyboard-response","164","516438","0.0-10.0-1.10","m6y3257hb6","one_one","1","direct_first","1","on03as27","0","26","1","1","2","1","Ton hat nicht funktioniert","0","1","0","null","","","<img src = 'category3/CS4.png' width = '100%;'>","null","","","","","","","","","",""
"","html-keyboard-response","165","516718","0.0-10.0-2.10","m6y3257hb6","one_one","1","direct_first","1","on03as27","0","26","1","1","2","1","Ton hat nicht funktioniert","0","1","0","null","","","<img src = 'targets/27.png' width = '100%;'>","null","","","","","","","","","",""
"","html-keyboard-response","166","516784","0.0-10.0-3.10","m6y3257hb6","one_one","1","direct_first","1","on03as27","0","26","1","1","2","1","Ton hat nicht funktioniert","0","1","0","64","","","<img src = 'targets/mask.png' width = '100%;'>","68","pos","GS","GSold","3","category3/CS4.png","","targets/27.png","indirect","0","10"
"","html-keyboard-response","167","518318","0.0-10.0-0.11","m6y3257hb6","one_one","1","direct_first","1","on03as27","0","26","1","1","2","1","Ton hat nicht funktioniert","0","1","0","null","","","<div style=""font-size:60px;"">+</div>","null","","","","","","","","","",""
"","html-keyboard-response","168","518418","0.0-10.0-1.11","m6y3257hb6","one_one","1","direct_first","1","on03as27","0","26","1","1","2","1","Ton hat nicht funktioniert","0","1","0","null","","","<img src = 'category1/CS9.png' width = '100%;'>","null","","","","","","","","","",""
"","html-keyboard-response","169","518698","0.0-10.0-2.11","m6y3257hb6","one_one","1","direct_first","1","on03as27","0","26","1","1","2","1","Ton hat nicht funktioniert","0","1","0","null","","","<img src = 'targets/7.png' width = '100%;'>","null","","","","","","","","","",""
"","html-keyboard-response","170","518919","0.0-10.0-3.11","m6y3257hb6","one_one","1","direct_first","1","on03as27","0","26","1","1","2","1","Ton hat nicht funktioniert","0","1","0","220","","","<img src = 'targets/mask.png' width = '100%;'>","75","pos","GS","GSold","1","category1/CS9.png","","targets/7.png","indirect","1","11"
"","html-keyboard-response","171","520458","0.0-10.0-0.12","m6y3257hb6","one_one","1","direct_first","1","on03as27","0","26","1","1","2","1","Ton hat nicht funktioniert","0","1","0","null","","","<div style=""font-size:60px;"">+</div>","null","","","","","","","","","",""
"","html-keyboard-response","172","520559","0.0-10.0-1.12","m6y3257hb6","one_one","1","direct_first","1","on03as27","0","26","1","1","2","1","Ton hat nicht funktioniert","0","1","0","null","","","<img src = 'category3/CS9.png' width = '100%;'>","null","","","","","","","","","",""
"","html-keyboard-response","173","520838","0.0-10.0-2.12","m6y3257hb6","one_one","1","direct_first","1","on03as27","0","26","1","1","2","1","Ton hat nicht funktioniert","0","1","0","null","","","<img src = 'targets/39.png' width = '100%;'>","null","","","","","","","","","",""
"","html-keyboard-response","174","520887","0.0-10.0-3.12","m6y3257hb6","one_one","1","direct_first","1","on03as27","0","26","1","1","2","1","Ton hat nicht funktioniert","0","1","0","47","","","<img src = 'targets/mask.png' width = '100%;'>","75","pos","GS","GSold","3","category3/CS9.png","","targets/39.png","indirect","1","12"
"","html-keyboard-response","175","522399","0.0-10.0-0.13","m6y3257hb6","one_one","1","direct_first","1","on03as27","0","26","1","1","2","1","Ton hat nicht funktioniert","0","1","0","null","","","<div style=""font-size:60px;"">+</div>","null","","","","","","","","","",""
"","html-keyboard-response","176","522499","0.0-10.0-1.13","m6y3257hb6","one_one","1","direct_first","1","on03as27","0","26","1","1","2","1","Ton hat nicht funktioniert","0","1","0","null","","","<img src = 'category2/CS8.png' width = '100%;'>","null","","","","","","","","","",""
"","html-keyboard-response","177","522765","0.0-10.0-2.13","m6y3257hb6","one_one","1","direct_first","1","on03as27","0","26","1","1","2","1","Ton hat nicht funktioniert","0","1","0","null","","","<img src = 'targets/6.png' width = '100%;'>","null","","","","","","","","","",""
"","html-keyboard-response","178","523095","0.0-10.0-3.13","m6y3257hb6","one_one","1","direct_first","1","on03as27","0","26","1","1","2","1","Ton hat nicht funktioniert","0","1","0","330","","","<img src = 'targets/mask.png' width = '100%;'>","75","neg","GS","GSold","2","category2/CS8.png","","targets/6.png","indirect","1","13"
"","html-keyboard-response","179","524629","0.0-10.0-0.14","m6y3257hb6","one_one","1","direct_first","1","on03as27","0","26","1","1","2","1","Ton hat nicht funktioniert","0","1","0","null","","","<div style=""font-size:60px;"">+</div>","null","","","","","","","","","",""
"","html-keyboard-response","180","524729","0.0-10.0-1.14","m6y3257hb6","one_one","1","direct_first","1","on03as27","0","26","1","1","2","1","Ton hat nicht funktioniert","0","1","0","null","","","<img src = 'category3/CS10.png' width = '100%;'>","null","","","","","","","","","",""
"","html-keyboard-response","181","524998","0.0-10.0-2.14","m6y3257hb6","one_one","1","direct_first","1","on03as27","0","26","1","1","2","1","Ton hat nicht funktioniert","0","1","0","null","","","<img src = 'targets/38.png' width = '100%;'>","null","","","","","","","","","",""
"","html-keyboard-response","182","525271","0.0-10.0-3.14","m6y3257hb6","one_one","1","direct_first","1","on03as27","0","26","1","1","2","1","Ton hat nicht funktioniert","0","1","0","270","","","<img src = 'targets/mask.png' width = '100%;'>","75","pos","CS","CS","3","category3/CS10.png","","targets/38.png","indirect","1","14"
"","html-keyboard-response","183","526788","0.0-10.0-0.15","m6y3257hb6","one_one","1","direct_first","1","on03as27","0","26","1","1","2","1","Ton hat nicht funktioniert","0","1","0","null","","","<div style=""font-size:60px;"">+</div>","null","","","","","","","","","",""
"","html-keyboard-response","184","526899","0.0-10.0-1.15","m6y3257hb6","one_one","1","direct_first","1","on03as27","0","26","1","1","2","1","Ton hat nicht funktioniert","0","1","0","null","","","<img src = 'category4/CS1.png' width = '100%;'>","null","","","","","","","","","",""
"","html-keyboard-response","185","527178","0.0-10.0-2.15","m6y3257hb6","one_one","1","direct_first","1","on03as27","0","26","1","1","2","1","Ton hat nicht funktioniert","0","1","0","null","","","<img src = 'targets/11.png' width = '100%;'>","null","","","","","","","","","",""
"","html-keyboard-response","186","527471","0.0-10.0-3.15","m6y3257hb6","one_one","1","direct_first","1","on03as27","0","26","1","1","2","1","Ton hat nicht funktioniert","0","1","0","291","","","<img src = 'targets/mask.png' width = '100%;'>","75","neg","CS","CS","4","category4/CS1.png","","targets/11.png","indirect","1","15"
"","survey-html-form","187","530996","0.0-11.0","m6y3257hb6","one_one","1","direct_first","1","on03as27","0","26","1","1","2","1","Ton hat nicht funktioniert","0","1","0","3017","","{}","","","","","","","","","","","",""
"","html-keyboard-response","188","534018","0.0-12.0-0.0","m6y3257hb6","one_one","1","direct_first","1","on03as27","0","26","1","1","2","1","Ton hat nicht funktioniert","0","1","0","null","","","<div style=""font-size:60px;"">+</div>","null","","","","","","","","","",""
"","html-keyboard-response","189","534119","0.0-12.0-1.0","m6y3257hb6","one_one","1","direct_first","1","on03as27","0","26","1","1","2","1","Ton hat nicht funktioniert","0","1","0","null","","","<img src = 'category2/men.png' width = '100%;'>","null","","","","","","","","","",""
"","html-keyboard-response","190","534378","0.0-12.0-2.0","m6y3257hb6","one_one","1","direct_first","1","on03as27","0","26","1","1","2","1","Ton hat nicht funktioniert","0","1","0","null","","","<img src = 'targets/9.png' width = '100%;'>","null","","","","","","","","","",""
"","html-keyboard-response","191","535375","0.0-12.0-3.0","m6y3257hb6","one_one","1","direct_first","1","on03as27","0","26","1","1","2","1","Ton hat nicht funktioniert","0","1","0","995","","","<img src = 'targets/mask.png' width = '100%;'>","75","neg","GS","abstract","2","category2/men.png","","targets/9.png","indirect","1","16"
"","html-keyboard-response","192","536898","0.0-12.0-0.1","m6y3257hb6","one_one","1","direct_first","1","on03as27","0","26","1","1","2","1","Ton hat nicht funktioniert","0","1","0","null","","","<div style=""font-size:60px;"">+</div>","null","","","","","","","","","",""
"","html-keyboard-response","193","536999","0.0-12.0-1.1","m6y3257hb6","one_one","1","direct_first","1","on03as27","0","26","1","1","2","1","Ton hat nicht funktioniert","0","1","0","null","","","<img src = 'category1/ma.png' width = '100%;'>","null","","","","","","","","","",""
"","html-keyboard-response","194","537265","0.0-12.0-2.1","m6y3257hb6","one_one","1","direct_first","1","on03as27","0","26","1","1","2","1","Ton hat nicht funktioniert","0","1","0","null","","","<img src = 'targets/14.png' width = '100%;'>","null","","","","","","","","","",""
"","html-keyboard-response","195","537664","0.0-12.0-3.1","m6y3257hb6","one_one","1","direct_first","1","on03as27","0","26","1","1","2","1","Ton hat nicht funktioniert","0","1","0","398","","","<img src = 'targets/mask.png' width = '100%;'>","75","pos","GS","abstract","1","category1/ma.png","","targets/14.png","indirect","1","17"
"","html-keyboard-response","196","539188","0.0-12.0-0.2","m6y3257hb6","one_one","1","direct_first","1","on03as27","0","26","1","1","2","1","Ton hat nicht funktioniert","0","1","0","null","","","<div style=""font-size:60px;"">+</div>","null","","","","","","","","","",""
"","html-keyboard-response","197","539298","0.0-12.0-1.2","m6y3257hb6","one_one","1","direct_first","1","on03as27","0","26","1","1","2","1","Ton hat nicht funktioniert","0","1","0","null","","","<img src = 'category1/GS2.png' width = '100%;'>","null","","","","","","","","","",""
"","html-keyboard-response","198","539578","0.0-12.0-2.2","m6y3257hb6","one_one","1","direct_first","1","on03as27","0","26","1","1","2","1","Ton hat nicht funktioniert","0","1","0","null","","","<img src = 'targets/48.png' width = '100%;'>","null","","","","","","","","","",""
"","html-keyboard-response","199","540727","0.0-12.0-3.2","m6y3257hb6","one_one","1","direct_first","1","on03as27","0","26","1","1","2","1","Ton hat nicht funktioniert","0","1","0","1148","","","<img src = 'targets/mask.png' width = '100%;'>","75","pos","GS","GSnew","1","category1/GS2.png","","targets/48.png","indirect","1","18"
"","html-keyboard-response","200","542249","0.0-12.0-0.3","m6y3257hb6","one_one","1","direct_first","1","on03as27","0","26","1","1","2","1","Ton hat nicht funktioniert","0","1","0","null","","","<div style=""font-size:60px;"">+</div>","null","","","","","","","","","",""
"","html-keyboard-response","201","542358","0.0-12.0-1.3","m6y3257hb6","one_one","1","direct_first","1","on03as27","0","26","1","1","2","1","Ton hat nicht funktioniert","0","1","0","null","","","<img src = 'category4/lin.png' width = '100%;'>","null","","","","","","","","","",""
"","html-keyboard-response","202","542638","0.0-12.0-2.3","m6y3257hb6","one_one","1","direct_first","1","on03as27","0","26","1","1","2","1","Ton hat nicht funktioniert","0","1","0","null","","","<img src = 'targets/42.png' width = '100%;'>","null","","","","","","","","","",""
"","html-keyboard-response","203","547335","0.0-12.0-3.3","m6y3257hb6","one_one","1","direct_first","1","on03as27","0","26","1","1","2","1","Ton hat nicht funktioniert","0","1","0","4696","","","<img src = 'targets/mask.png' width = '100%;'>","75","neg","GS","abstract","4","category4/lin.png","","targets/42.png","indirect","1","19"
"","html-keyboard-response","204","548859","0.0-12.0-0.4","m6y3257hb6","one_one","1","direct_first","1","on03as27","0","26","1","1","2","1","Ton hat nicht funktioniert","0","1","0","null","","","<div style=""font-size:60px;"">+</div>","null","","","","","","","","","",""
"","html-keyboard-response","205","548959","0.0-12.0-1.4","m6y3257hb6","one_one","1","direct_first","1","on03as27","0","26","1","1","2","1","Ton hat nicht funktioniert","0","1","0","null","","","<img src = 'category1/GS1.png' width = '100%;'>","null","","","","","","","","","",""
"","html-keyboard-response","206","549234","0.0-12.0-2.4","m6y3257hb6","one_one","1","direct_first","1","on03as27","0","26","1","1","2","1","Ton hat nicht funktioniert","0","1","0","null","","","<img src = 'targets/4.png' width = '100%;'>","null","","","","","","","","","",""
"","html-keyboard-response","207","549664","0.0-12.0-3.4","m6y3257hb6","one_one","1","direct_first","1","on03as27","0","26","1","1","2","1","Ton hat nicht funktioniert","0","1","0","428","","","<img src = 'targets/mask.png' width = '100%;'>","75","pos","GS","GSnew","1","category1/GS1.png","","targets/4.png","indirect","1","20"
"","html-keyboard-response","208","551198","0.0-12.0-0.5","m6y3257hb6","one_one","1","direct_first","1","on03as27","0","26","1","1","2","1","Ton hat nicht funktioniert","0","1","0","null","","","<div style=""font-size:60px;"">+</div>","null","","","","","","","","","",""
"","html-keyboard-response","209","551298","0.0-12.0-1.5","m6y3257hb6","one_one","1","direct_first","1","on03as27","0","26","1","1","2","1","Ton hat nicht funktioniert","0","1","0","null","","","<img src = 'category3/GS3.png' width = '100%;'>","null","","","","","","","","","",""
"","html-keyboard-response","210","551579","0.0-12.0-2.5","m6y3257hb6","one_one","1","direct_first","1","on03as27","0","26","1","1","2","1","Ton hat nicht funktioniert","0","1","0","null","","","<img src = 'targets/37.png' width = '100%;'>","null","","","","","","","","","",""
"","html-keyboard-response","211","551823","0.0-12.0-3.5","m6y3257hb6","one_one","1","direct_first","1","on03as27","0","26","1","1","2","1","Ton hat nicht funktioniert","0","1","0","243","","","<img src = 'targets/mask.png' width = '100%;'>","75","pos","GS","GSnew","3","category3/GS3.png","","targets/37.png","indirect","1","21"
"","html-keyboard-response","212","553358","0.0-12.0-0.6","m6y3257hb6","one_one","1","direct_first","1","on03as27","0","26","1","1","2","1","Ton hat nicht funktioniert","0","1","0","null","","","<div style=""font-size:60px;"">+</div>","null","","","","","","","","","",""
"","html-keyboard-response","213","553459","0.0-12.0-1.6","m6y3257hb6","one_one","1","direct_first","1","on03as27","0","26","1","1","2","1","Ton hat nicht funktioniert","0","1","0","null","","","<img src = 'category3/GS2.png' width = '100%;'>","null","","","","","","","","","",""
"","html-keyboard-response","214","553734","0.0-12.0-2.6","m6y3257hb6","one_one","1","direct_first","1","on03as27","0","26","1","1","2","1","Ton hat nicht funktioniert","0","1","0","null","","","<img src = 'targets/36.png' width = '100%;'>","null","","","","","","","","","",""
"","html-keyboard-response","215","553984","0.0-12.0-3.6","m6y3257hb6","one_one","1","direct_first","1","on03as27","0","26","1","1","2","1","Ton hat nicht funktioniert","0","1","0","249","","","<img src = 'targets/mask.png' width = '100%;'>","75","pos","GS","GSnew","3","category3/GS2.png","","targets/36.png","indirect","1","22"
"","html-keyboard-response","216","555519","0.0-12.0-0.7","m6y3257hb6","one_one","1","direct_first","1","on03as27","0","26","1","1","2","1","Ton hat nicht funktioniert","0","1","0","null","","","<div style=""font-size:60px;"">+</div>","null","","","","","","","","","",""
"","html-keyboard-response","217","555619","0.0-12.0-1.7","m6y3257hb6","one_one","1","direct_first","1","on03as27","0","26","1","1","2","1","Ton hat nicht funktioniert","0","1","0","null","","","<img src = 'category2/GS1.png' width = '100%;'>","null","","","","","","","","","",""
"","html-keyboard-response","218","555875","0.0-12.0-2.7","m6y3257hb6","one_one","1","direct_first","1","on03as27","0","26","1","1","2","1","Ton hat nicht funktioniert","0","1","0","null","","","<img src = 'targets/33.png' width = '100%;'>","null","","","","","","","","","",""
"","html-keyboard-response","219","556071","0.0-12.0-3.7","m6y3257hb6","one_one","1","direct_first","1","on03as27","0","26","1","1","2","1","Ton hat nicht funktioniert","0","1","0","196","","","<img src = 'targets/mask.png' width = '100%;'>","75","neg","GS","GSnew","2","category2/GS1.png","","targets/33.png","indirect","1","23"
"","html-keyboard-response","220","557579","0.0-12.0-0.8","m6y3257hb6","one_one","1","direct_first","1","on03as27","0","26","1","1","2","1","Ton hat nicht funktioniert","0","1","0","null","","","<div style=""font-size:60px;"">+</div>","null","","","","","","","","","",""
"","html-keyboard-response","221","557678","0.0-12.0-1.8","m6y3257hb6","one_one","1","direct_first","1","on03as27","0","26","1","1","2","1","Ton hat nicht funktioniert","0","1","0","null","","","<img src = 'category1/GS3.png' width = '100%;'>","null","","","","","","","","","",""
"","html-keyboard-response","222","557958","0.0-12.0-2.8","m6y3257hb6","one_one","1","direct_first","1","on03as27","0","26","1","1","2","1","Ton hat nicht funktioniert","0","1","0","null","","","<img src = 'targets/1.png' width = '100%;'>","null","","","","","","","","","",""
"","html-keyboard-response","223","557960","0.0-12.0-3.8","m6y3257hb6","one_one","1","direct_first","1","on03as27","0","26","1","1","2","1","Ton hat nicht funktioniert","0","1","0","1","","","<img src = 'targets/mask.png' width = '100%;'>","75","pos","GS","GSnew","1","category1/GS3.png","","targets/1.png","indirect","1","24"
"","html-keyboard-response","224","559498","0.0-12.0-0.9","m6y3257hb6","one_one","1","direct_first","1","on03as27","0","26","1","1","2","1","Ton hat nicht funktioniert","0","1","0","null","","","<div style=""font-size:60px;"">+</div>","null","","","","","","","","","",""
"","html-keyboard-response","225","559598","0.0-12.0-1.9","m6y3257hb6","one_one","1","direct_first","1","on03as27","0","26","1","1","2","1","Ton hat nicht funktioniert","0","1","0","null","","","<img src = 'category3/GS1.png' width = '100%;'>","null","","","","","","","","","",""
"","html-keyboard-response","226","559879","0.0-12.0-2.9","m6y3257hb6","one_one","1","direct_first","1","on03as27","0","26","1","1","2","1","Ton hat nicht funktioniert","0","1","0","null","","","<img src = 'targets/19.png' width = '100%;'>","null","","","","","","","","","",""
"","html-keyboard-response","227","560120","0.0-12.0-3.9","m6y3257hb6","one_one","1","direct_first","1","on03as27","0","26","1","1","2","1","Ton hat nicht funktioniert","0","1","0","240","","","<img src = 'targets/mask.png' width = '100%;'>","75","pos","GS","GSnew","3","category3/GS1.png","","targets/19.png","indirect","1","25"
"","html-keyboard-response","228","561659","0.0-12.0-0.10","m6y3257hb6","one_one","1","direct_first","1","on03as27","0","26","1","1","2","1","Ton hat nicht funktioniert","0","1","0","null","","","<div style=""font-size:60px;"">+</div>","null","","","","","","","","","",""
"","html-keyboard-response","229","561750","0.0-12.0-1.10","m6y3257hb6","one_one","1","direct_first","1","on03as27","0","26","1","1","2","1","Ton hat nicht funktioniert","0","1","0","null","","","<img src = 'category3/wang.png' width = '100%;'>","null","","","","","","","","","",""
"","html-keyboard-response","230","562019","0.0-12.0-2.10","m6y3257hb6","one_one","1","direct_first","1","on03as27","0","26","1","1","2","1","Ton hat nicht funktioniert","0","1","0","null","","","<img src = 'targets/10.png' width = '100%;'>","null","","","","","","","","","",""
"","html-keyboard-response","231","562255","0.0-12.0-3.10","m6y3257hb6","one_one","1","direct_first","1","on03as27","0","26","1","1","2","1","Ton hat nicht funktioniert","0","1","0","236","","","<img src = 'targets/mask.png' width = '100%;'>","75","pos","GS","abstract","3","category3/wang.png","","targets/10.png","indirect","1","26"
"","html-keyboard-response","232","563774","0.0-12.0-0.11","m6y3257hb6","one_one","1","direct_first","1","on03as27","0","26","1","1","2","1","Ton hat nicht funktioniert","0","1","0","null","","","<div style=""font-size:60px;"">+</div>","null","","","","","","","","","",""
"","html-keyboard-response","233","563878","0.0-12.0-1.11","m6y3257hb6","one_one","1","direct_first","1","on03as27","0","26","1","1","2","1","Ton hat nicht funktioniert","0","1","0","null","","","<img src = 'category2/GS2.png' width = '100%;'>","null","","","","","","","","","",""
"","html-keyboard-response","234","564158","0.0-12.0-2.11","m6y3257hb6","one_one","1","direct_first","1","on03as27","0","26","1","1","2","1","Ton hat nicht funktioniert","0","1","0","null","","","<img src = 'targets/24.png' width = '100%;'>","null","","","","","","","","","",""
"","html-keyboard-response","235","564472","0.0-12.0-3.11","m6y3257hb6","one_one","1","direct_first","1","on03as27","0","26","1","1","2","1","Ton hat nicht funktioniert","0","1","0","312","","","<img src = 'targets/mask.png' width = '100%;'>","75","neg","GS","GSnew","2","category2/GS2.png","","targets/24.png","indirect","1","27"
"","html-keyboard-response","236","565996","0.0-12.0-0.12","m6y3257hb6","one_one","1","direct_first","1","on03as27","0","26","1","1","2","1","Ton hat nicht funktioniert","0","1","0","null","","","<div style=""font-size:60px;"">+</div>","null","","","","","","","","","",""
"","html-keyboard-response","237","566096","0.0-12.0-1.12","m6y3257hb6","one_one","1","direct_first","1","on03as27","0","26","1","1","2","1","Ton hat nicht funktioniert","0","1","0","null","","","<img src = 'category4/GS1.png' width = '100%;'>","null","","","","","","","","","",""
"","html-keyboard-response","238","566378","0.0-12.0-2.12","m6y3257hb6","one_one","1","direct_first","1","on03as27","0","26","1","1","2","1","Ton hat nicht funktioniert","0","1","0","null","","","<img src = 'targets/28.png' width = '100%;'>","null","","","","","","","","","",""
"","html-keyboard-response","239","566728","0.0-12.0-3.12","m6y3257hb6","one_one","1","direct_first","1","on03as27","0","26","1","1","2","1","Ton hat nicht funktioniert","0","1","0","348","","","<img src = 'targets/mask.png' width = '100%;'>","75","neg","GS","GSnew","4","category4/GS1.png","","targets/28.png","indirect","1","28"
"","html-keyboard-response","240","568249","0.0-12.0-0.13","m6y3257hb6","one_one","1","direct_first","1","on03as27","0","26","1","1","2","1","Ton hat nicht funktioniert","0","1","0","null","","","<div style=""font-size:60px;"">+</div>","null","","","","","","","","","",""
"","html-keyboard-response","241","568358","0.0-12.0-1.13","m6y3257hb6","one_one","1","direct_first","1","on03as27","0","26","1","1","2","1","Ton hat nicht funktioniert","0","1","0","null","","","<img src = 'category4/GS3.png' width = '100%;'>","null","","","","","","","","","",""
"","html-keyboard-response","242","568628","0.0-12.0-2.13","m6y3257hb6","one_one","1","direct_first","1","on03as27","0","26","1","1","2","1","Ton hat nicht funktioniert","0","1","0","null","","","<img src = 'targets/21.png' width = '100%;'>","null","","","","","","","","","",""
"","html-keyboard-response","243","568951","0.0-12.0-3.13","m6y3257hb6","one_one","1","direct_first","1","on03as27","0","26","1","1","2","1","Ton hat nicht funktioniert","0","1","0","321","","","<img src = 'targets/mask.png' width = '100%;'>","75","neg","GS","GSnew","4","category4/GS3.png","","targets/21.png","indirect","1","29"
"","html-keyboard-response","244","570478","0.0-12.0-0.14","m6y3257hb6","one_one","1","direct_first","1","on03as27","0","26","1","1","2","1","Ton hat nicht funktioniert","0","1","0","null","","","<div style=""font-size:60px;"">+</div>","null","","","","","","","","","",""
"","html-keyboard-response","245","570578","0.0-12.0-1.14","m6y3257hb6","one_one","1","direct_first","1","on03as27","0","26","1","1","2","1","Ton hat nicht funktioniert","0","1","0","null","","","<img src = 'category2/GS3.png' width = '100%;'>","null","","","","","","","","","",""
"","html-keyboard-response","246","570858","0.0-12.0-2.14","m6y3257hb6","one_one","1","direct_first","1","on03as27","0","26","1","1","2","1","Ton hat nicht funktioniert","0","1","0","null","","","<img src = 'targets/16.png' width = '100%;'>","null","","","","","","","","","",""
"","html-keyboard-response","247","571239","0.0-12.0-3.14","m6y3257hb6","one_one","1","direct_first","1","on03as27","0","26","1","1","2","1","Ton hat nicht funktioniert","0","1","0","380","","","<img src = 'targets/mask.png' width = '100%;'>","75","neg","GS","GSnew","2","category2/GS3.png","","targets/16.png","indirect","1","30"
"","html-keyboard-response","248","572764","0.0-12.0-0.15","m6y3257hb6","one_one","1","direct_first","1","on03as27","0","26","1","1","2","1","Ton hat nicht funktioniert","0","1","0","null","","","<div style=""font-size:60px;"">+</div>","null","","","","","","","","","",""
"","html-keyboard-response","249","572858","0.0-12.0-1.15","m6y3257hb6","one_one","1","direct_first","1","on03as27","0","26","1","1","2","1","Ton hat nicht funktioniert","0","1","0","null","","","<img src = 'category4/GS2.png' width = '100%;'>","null","","","","","","","","","",""
"","html-keyboard-response","250","573138","0.0-12.0-2.15","m6y3257hb6","one_one","1","direct_first","1","on03as27","0","26","1","1","2","1","Ton hat nicht funktioniert","0","1","0","null","","","<img src = 'targets/41.png' width = '100%;'>","null","","","","","","","","","",""
"","html-keyboard-response","251","573856","0.0-12.0-3.15","m6y3257hb6","one_one","1","direct_first","1","on03as27","0","26","1","1","2","1","Ton hat nicht funktioniert","0","1","0","716","","","<img src = 'targets/mask.png' width = '100%;'>","75","neg","GS","GSnew","4","category4/GS2.png","","targets/41.png","indirect","1","31"
"","survey-html-form","252","579529","0.0-13.0","m6y3257hb6","one_one","1","direct_first","1","on03as27","0","26","1","1","2","1","Ton hat nicht funktioniert","0","1","0","5170","","{}","","","","","","","","","","","",""
"","image-slider-response","253","584023","0.0-14.0-0.0","m6y3257hb6","one_one","1","direct_first","1","on03as27","0","26","1","1","2","1","Ton hat nicht funktioniert","0","1","0","3480","","","","","neg","All","all","4","category4/lin_all.png","87","","all","",""
"","image-slider-response","254","586396","0.0-14.0-0.1","m6y3257hb6","one_one","1","direct_first","1","on03as27","0","26","1","1","2","1","Ton hat nicht funktioniert","0","1","0","2367","","","","","neg","All","all","2","category2/men_all.png","-82","","all","",""
"","image-slider-response","255","589299","0.0-14.0-0.2","m6y3257hb6","one_one","1","direct_first","1","on03as27","0","26","1","1","2","1","Ton hat nicht funktioniert","0","1","0","2899","","","","","pos","All","all","3","category3/wang_all.png","-83","","all","",""
"","image-slider-response","256","591780","0.0-14.0-0.3","m6y3257hb6","one_one","1","direct_first","1","on03as27","0","26","1","1","2","1","Ton hat nicht funktioniert","0","1","0","2475","","","","","pos","All","all","1","category1/ma_all.png","86","","all","",""
"","survey-text","257","609900","0.0-15.0","m6y3257hb6","one_one","1","direct_first","1","on03as27","0","26","1","1","2","1","Ton hat nicht funktioniert","0","1","0","18069","","{""comment"":""Ton hat nicht funktioniert""}","","","","","","","","","","","",""
"","survey-html-form","258","629071","0.0-16.0","m6y3257hb6","one_one","1","direct_first","1","on03as27","0","26","1","1","2","1","Ton hat nicht funktioniert","0","1","0","19167","","{""hinschauen"":""0"",""ablenkung"":""1"",""gewissenhaft"":""0""}","","","","","","","","","","","",""
