"success","trial_type","trial_index","time_elapsed","internal_node_id","subject","condition","condition_code","measure","measure_code","codeword","gender","age","education","chinese","fach","handedness","comment","hinschauen","ablenkung","gewissenhaft","rt","url","responses","stimulus","key_press","val","type","type_specific","category","cs_selected","target","indirect","task","nr_pres","response"
"true","fullscreen","0","2548","0.0-0.0","qyw4d75s75","many_one","0","indirect_first","0","ia05nz21","0","18","1","1","3","1","-","0","1","0","","","","","","","","","","","","","","",""
"","external-html","1","5652","0.0-1.0","qyw4d75s75","many_one","0","indirect_first","0","ia05nz21","0","18","1","1","3","1","-","0","1","0","3064.459999965038","text/information.html","","","","","","","","","","","","",""
"","external-html","2","15064","0.0-2.0","qyw4d75s75","many_one","0","indirect_first","0","ia05nz21","0","18","1","1","3","1","-","0","1","0","9377.205000026152","text/consent.html","","","","","","","","","","","","",""
"","survey-html-form","3","93218","0.0-3.0","qyw4d75s75","many_one","0","indirect_first","0","ia05nz21","0","18","1","1","3","1","-","0","1","0","78149.22000002116","","{""codeword_enter"":""ia05nz21""}","","","","","","","","","","","",""
"","survey-html-form","4","113287","0.0-4.0","qyw4d75s75","many_one","0","indirect_first","0","ia05nz21","0","18","1","1","3","1","-","0","1","0","20064.04999998631","","{""age"":""18"",""education"":""1"",""subject"":""3"",""gender"":""0"",""handedness"":""1"",""chinese"":""1""}","","","","","","","","","","","",""
"","survey-html-form","5","125096","0.0-5.0","qyw4d75s75","many_one","0","indirect_first","0","ia05nz21","0","18","1","1","3","1","-","0","1","0","11807.979999983218","","{}","","","","","","","","","","","",""
"","html-keyboard-response","6","129129","0.0-6.0-0.0-0.0","qyw4d75s75","many_one","0","indirect_first","0","ia05nz21","0","18","1","1","3","1","-","0","1","0","null","","","<div class = 'row'><div class = 'column'><img src = 'usneg/9340.bmp' width = '100%;'></div><div class = 'column'><img src = 'category3/CS6.png' width = '70%;'></div></div>","null","neg","CS","CS","3","category3/CS6.png","","","","",""
"","html-keyboard-response","7","131658","0.0-6.0-0.0-0.1","qyw4d75s75","many_one","0","indirect_first","0","ia05nz21","0","18","1","1","3","1","-","0","1","0","null","","","<div class = 'row'><div class = 'column'><img src = 'category3/CS7.png' width = '70%;'></div><div class = 'column'><img src = 'usneg/9584.bmp' width = '100%;'></div></div>","null","neg","CS","CS","3","category3/CS7.png","","","","",""
"","html-keyboard-response","8","134180","0.0-6.0-0.0-0.2","qyw4d75s75","many_one","0","indirect_first","0","ia05nz21","0","18","1","1","3","1","-","0","1","0","null","","","<div class = 'row'><div class = 'column'><img src = 'category4/CS7.png' width = '70%;'></div><div class = 'column'><img src = 'usneg/9415.bmp' width = '100%;'></div></div>","null","neg","CS","CS","4","category4/CS7.png","","","","",""
"","html-keyboard-response","9","136704","0.0-6.0-0.0-0.3","qyw4d75s75","many_one","0","indirect_first","0","ia05nz21","0","18","1","1","3","1","-","0","1","0","null","","","<div class = 'row'><div class = 'column'><img src = 'category2/CS9.png' width = '70%;'></div><div class = 'column'><img src = 'uspos/2341.bmp' width = '100%;'></div></div>","null","pos","CS","CS","2","category2/CS9.png","","","","",""
"","html-keyboard-response","10","139235","0.0-6.0-0.0-0.4","qyw4d75s75","many_one","0","indirect_first","0","ia05nz21","0","18","1","1","3","1","-","0","1","0","null","","","<div class = 'row'><div class = 'column'><img src = 'category2/CS6.png' width = '70%;'></div><div class = 'column'><img src = 'uspos/2030.bmp' width = '100%;'></div></div>","null","pos","CS","CS","2","category2/CS6.png","","","","",""
"","html-keyboard-response","11","141750","0.0-6.0-0.0-0.5","qyw4d75s75","many_one","0","indirect_first","0","ia05nz21","0","18","1","1","3","1","-","0","1","0","null","","","<div class = 'row'><div class = 'column'><img src = 'uspos/5621.bmp' width = '100%;'></div><div class = 'column'><img src = 'category1/CS5.png' width = '70%;'></div></div>","null","pos","CS","CS","1","category1/CS5.png","","","","",""
"","html-keyboard-response","12","144273","0.0-6.0-0.0-0.6","qyw4d75s75","many_one","0","indirect_first","0","ia05nz21","0","18","1","1","3","1","-","0","1","0","null","","","<div class = 'row'><div class = 'column'><img src = 'category1/CS3.png' width = '70%;'></div><div class = 'column'><img src = 'uspos/5629.bmp' width = '100%;'></div></div>","null","pos","CS","CS","1","category1/CS3.png","","","","",""
"","html-keyboard-response","13","146781","0.0-6.0-0.0-0.7","qyw4d75s75","many_one","0","indirect_first","0","ia05nz21","0","18","1","1","3","1","-","0","1","0","null","","","<div class = 'row'><div class = 'column'><img src = 'category2/CS5.png' width = '70%;'></div><div class = 'column'><img src = 'uspos/5700.bmp' width = '100%;'></div></div>","null","pos","CS","CS","2","category2/CS5.png","","","","",""
"","html-keyboard-response","14","149312","0.0-6.0-0.0-0.8","qyw4d75s75","many_one","0","indirect_first","0","ia05nz21","0","18","1","1","3","1","-","0","1","0","null","","","<div class = 'row'><div class = 'column'><img src = 'uspos/7580.bmp' width = '100%;'></div><div class = 'column'><img src = 'category1/CS10.png' width = '70%;'></div></div>","null","pos","CS","CS","1","category1/CS10.png","","","","",""
"","html-keyboard-response","15","151830","0.0-6.0-0.0-0.9","qyw4d75s75","many_one","0","indirect_first","0","ia05nz21","0","18","1","1","3","1","-","0","1","0","null","","","<div class = 'row'><div class = 'column'><img src = 'category4/CS6.png' width = '70%;'></div><div class = 'column'><img src = 'usneg/3181.bmp' width = '100%;'></div></div>","null","neg","CS","CS","4","category4/CS6.png","","","","",""
"","html-keyboard-response","16","154344","0.0-6.0-0.0-0.10","qyw4d75s75","many_one","0","indirect_first","0","ia05nz21","0","18","1","1","3","1","-","0","1","0","null","","","<div class = 'row'><div class = 'column'><img src = 'category3/CS4.png' width = '70%;'></div><div class = 'column'><img src = 'usneg/9560.bmp' width = '100%;'></div></div>","null","neg","CS","CS","3","category3/CS4.png","","","","",""
"","html-keyboard-response","17","156855","0.0-6.0-0.0-0.11","qyw4d75s75","many_one","0","indirect_first","0","ia05nz21","0","18","1","1","3","1","-","0","1","0","null","","","<div class = 'row'><div class = 'column'><img src = 'category4/CS9.png' width = '70%;'></div><div class = 'column'><img src = 'usneg/9920.bmp' width = '100%;'></div></div>","null","neg","CS","CS","4","category4/CS9.png","","","","",""
"","html-keyboard-response","18","159369","0.0-6.0-0.0-0.12","qyw4d75s75","many_one","0","indirect_first","0","ia05nz21","0","18","1","1","3","1","-","0","1","0","null","","","<div class = 'row'><div class = 'column'><img src = 'uspos/2058.bmp' width = '100%;'></div><div class = 'column'><img src = 'category2/CS8.png' width = '70%;'></div></div>","null","pos","CS","CS","2","category2/CS8.png","","","","",""
"","html-keyboard-response","19","161900","0.0-6.0-0.0-0.13","qyw4d75s75","many_one","0","indirect_first","0","ia05nz21","0","18","1","1","3","1","-","0","1","0","null","","","<div class = 'row'><div class = 'column'><img src = 'category2/CS3.png' width = '70%;'></div><div class = 'column'><img src = 'uspos/8540.bmp' width = '100%;'></div></div>","null","pos","CS","CS","2","category2/CS3.png","","","","",""
"","html-keyboard-response","20","164425","0.0-6.0-0.0-0.14","qyw4d75s75","many_one","0","indirect_first","0","ia05nz21","0","18","1","1","3","1","-","0","1","0","null","","","<div class = 'row'><div class = 'column'><img src = 'usneg/9220.bmp' width = '100%;'></div><div class = 'column'><img src = 'category4/CS4.png' width = '70%;'></div></div>","null","neg","CS","CS","4","category4/CS4.png","","","","",""
"","html-keyboard-response","21","166948","0.0-6.0-0.0-0.15","qyw4d75s75","many_one","0","indirect_first","0","ia05nz21","0","18","1","1","3","1","-","0","1","0","null","","","<div class = 'row'><div class = 'column'><img src = 'category1/CS7.png' width = '70%;'></div><div class = 'column'><img src = 'uspos/2360.bmp' width = '100%;'></div></div>","null","pos","CS","CS","1","category1/CS7.png","","","","",""
"","html-keyboard-response","22","169468","0.0-6.0-0.0-0.16","qyw4d75s75","many_one","0","indirect_first","0","ia05nz21","0","18","1","1","3","1","-","0","1","0","null","","","<div class = 'row'><div class = 'column'><img src = 'category3/CS8.png' width = '70%;'></div><div class = 'column'><img src = 'usneg/9404.bmp' width = '100%;'></div></div>","null","neg","CS","CS","3","category3/CS8.png","","","","",""
"","html-keyboard-response","23","171980","0.0-6.0-0.0-0.17","qyw4d75s75","many_one","0","indirect_first","0","ia05nz21","0","18","1","1","3","1","-","0","1","0","null","","","<div class = 'row'><div class = 'column'><img src = 'category3/CS5.png' width = '70%;'></div><div class = 'column'><img src = 'usneg/6020.bmp' width = '100%;'></div></div>","null","neg","CS","CS","3","category3/CS5.png","","","","",""
"","html-keyboard-response","24","174494","0.0-6.0-0.0-0.18","qyw4d75s75","many_one","0","indirect_first","0","ia05nz21","0","18","1","1","3","1","-","0","1","0","null","","","<div class = 'row'><div class = 'column'><img src = 'uspos/5830.bmp' width = '100%;'></div><div class = 'column'><img src = 'category1/CS2.png' width = '70%;'></div></div>","null","pos","CS","CS","1","category1/CS2.png","","","","",""
"","html-keyboard-response","25","177021","0.0-6.0-0.0-0.19","qyw4d75s75","many_one","0","indirect_first","0","ia05nz21","0","18","1","1","3","1","-","0","1","0","null","","","<div class = 'row'><div class = 'column'><img src = 'category4/CS1.png' width = '70%;'></div><div class = 'column'><img src = 'usneg/3160.bmp' width = '100%;'></div></div>","null","neg","CS","CS","4","category4/CS1.png","","","","",""
"","survey-html-form","26","180433","0.0-6.0-1.0","qyw4d75s75","many_one","0","indirect_first","0","ia05nz21","0","18","1","1","3","1","-","0","1","0","2894.224999996368","","{}","","","","","","","","","","","",""
"","html-keyboard-response","27","184448","0.0-6.0-2.0-0.0","qyw4d75s75","many_one","0","indirect_first","0","ia05nz21","0","18","1","1","3","1","-","0","1","0","null","","","<div class = 'row'><div class = 'column'><img src = 'category1/CS2.png' width = '70%;'></div><div class = 'column'><img src = 'uspos/5830.bmp' width = '100%;'></div></div>","null","pos","CS","CS","1","category1/CS2.png","","","","",""
"","html-keyboard-response","28","186974","0.0-6.0-2.0-0.1","qyw4d75s75","many_one","0","indirect_first","0","ia05nz21","0","18","1","1","3","1","-","0","1","0","null","","","<div class = 'row'><div class = 'column'><img src = 'usneg/3181.bmp' width = '100%;'></div><div class = 'column'><img src = 'category4/CS6.png' width = '70%;'></div></div>","null","neg","CS","CS","4","category4/CS6.png","","","","",""
"","html-keyboard-response","29","189489","0.0-6.0-2.0-0.2","qyw4d75s75","many_one","0","indirect_first","0","ia05nz21","0","18","1","1","3","1","-","0","1","0","null","","","<div class = 'row'><div class = 'column'><img src = 'uspos/7580.bmp' width = '100%;'></div><div class = 'column'><img src = 'category1/CS10.png' width = '70%;'></div></div>","null","pos","CS","CS","1","category1/CS10.png","","","","",""
"","html-keyboard-response","30","192010","0.0-6.0-2.0-0.3","qyw4d75s75","many_one","0","indirect_first","0","ia05nz21","0","18","1","1","3","1","-","0","1","0","null","","","<div class = 'row'><div class = 'column'><img src = 'category1/CS5.png' width = '70%;'></div><div class = 'column'><img src = 'uspos/5621.bmp' width = '100%;'></div></div>","null","pos","CS","CS","1","category1/CS5.png","","","","",""
"","html-keyboard-response","31","194541","0.0-6.0-2.0-0.4","qyw4d75s75","many_one","0","indirect_first","0","ia05nz21","0","18","1","1","3","1","-","0","1","0","null","","","<div class = 'row'><div class = 'column'><img src = 'category3/CS4.png' width = '70%;'></div><div class = 'column'><img src = 'usneg/9560.bmp' width = '100%;'></div></div>","null","neg","CS","CS","3","category3/CS4.png","","","","",""
"","html-keyboard-response","32","197071","0.0-6.0-2.0-0.5","qyw4d75s75","many_one","0","indirect_first","0","ia05nz21","0","18","1","1","3","1","-","0","1","0","null","","","<div class = 'row'><div class = 'column'><img src = 'uspos/8540.bmp' width = '100%;'></div><div class = 'column'><img src = 'category2/CS3.png' width = '70%;'></div></div>","null","pos","CS","CS","2","category2/CS3.png","","","","",""
"","html-keyboard-response","33","199594","0.0-6.0-2.0-0.6","qyw4d75s75","many_one","0","indirect_first","0","ia05nz21","0","18","1","1","3","1","-","0","1","0","null","","","<div class = 'row'><div class = 'column'><img src = 'usneg/9340.bmp' width = '100%;'></div><div class = 'column'><img src = 'category3/CS6.png' width = '70%;'></div></div>","null","neg","CS","CS","3","category3/CS6.png","","","","",""
"","html-keyboard-response","34","202120","0.0-6.0-2.0-0.7","qyw4d75s75","many_one","0","indirect_first","0","ia05nz21","0","18","1","1","3","1","-","0","1","0","null","","","<div class = 'row'><div class = 'column'><img src = 'category1/CS3.png' width = '70%;'></div><div class = 'column'><img src = 'uspos/5629.bmp' width = '100%;'></div></div>","null","pos","CS","CS","1","category1/CS3.png","","","","",""
"","html-keyboard-response","35","204641","0.0-6.0-2.0-0.8","qyw4d75s75","many_one","0","indirect_first","0","ia05nz21","0","18","1","1","3","1","-","0","1","0","null","","","<div class = 'row'><div class = 'column'><img src = 'uspos/2360.bmp' width = '100%;'></div><div class = 'column'><img src = 'category1/CS7.png' width = '70%;'></div></div>","null","pos","CS","CS","1","category1/CS7.png","","","","",""
"","html-keyboard-response","36","207166","0.0-6.0-2.0-0.9","qyw4d75s75","many_one","0","indirect_first","0","ia05nz21","0","18","1","1","3","1","-","0","1","0","null","","","<div class = 'row'><div class = 'column'><img src = 'category4/CS7.png' width = '70%;'></div><div class = 'column'><img src = 'usneg/9415.bmp' width = '100%;'></div></div>","null","neg","CS","CS","4","category4/CS7.png","","","","",""
"","html-keyboard-response","37","209695","0.0-6.0-2.0-0.10","qyw4d75s75","many_one","0","indirect_first","0","ia05nz21","0","18","1","1","3","1","-","0","1","0","null","","","<div class = 'row'><div class = 'column'><img src = 'usneg/9584.bmp' width = '100%;'></div><div class = 'column'><img src = 'category3/CS7.png' width = '70%;'></div></div>","null","neg","CS","CS","3","category3/CS7.png","","","","",""
"","html-keyboard-response","38","212202","0.0-6.0-2.0-0.11","qyw4d75s75","many_one","0","indirect_first","0","ia05nz21","0","18","1","1","3","1","-","0","1","0","null","","","<div class = 'row'><div class = 'column'><img src = 'uspos/2058.bmp' width = '100%;'></div><div class = 'column'><img src = 'category2/CS8.png' width = '70%;'></div></div>","null","pos","CS","CS","2","category2/CS8.png","","","","",""
"","html-keyboard-response","39","214725","0.0-6.0-2.0-0.12","qyw4d75s75","many_one","0","indirect_first","0","ia05nz21","0","18","1","1","3","1","-","0","1","0","null","","","<div class = 'row'><div class = 'column'><img src = 'usneg/6020.bmp' width = '100%;'></div><div class = 'column'><img src = 'category3/CS5.png' width = '70%;'></div></div>","null","neg","CS","CS","3","category3/CS5.png","","","","",""
"","html-keyboard-response","40","217252","0.0-6.0-2.0-0.13","qyw4d75s75","many_one","0","indirect_first","0","ia05nz21","0","18","1","1","3","1","-","0","1","0","null","","","<div class = 'row'><div class = 'column'><img src = 'uspos/2030.bmp' width = '100%;'></div><div class = 'column'><img src = 'category2/CS6.png' width = '70%;'></div></div>","null","pos","CS","CS","2","category2/CS6.png","","","","",""
"","html-keyboard-response","41","219762","0.0-6.0-2.0-0.14","qyw4d75s75","many_one","0","indirect_first","0","ia05nz21","0","18","1","1","3","1","-","0","1","0","null","","","<div class = 'row'><div class = 'column'><img src = 'category3/CS8.png' width = '70%;'></div><div class = 'column'><img src = 'usneg/9404.bmp' width = '100%;'></div></div>","null","neg","CS","CS","3","category3/CS8.png","","","","",""
"","html-keyboard-response","42","222272","0.0-6.0-2.0-0.15","qyw4d75s75","many_one","0","indirect_first","0","ia05nz21","0","18","1","1","3","1","-","0","1","0","null","","","<div class = 'row'><div class = 'column'><img src = 'uspos/5700.bmp' width = '100%;'></div><div class = 'column'><img src = 'category2/CS5.png' width = '70%;'></div></div>","null","pos","CS","CS","2","category2/CS5.png","","","","",""
"","html-keyboard-response","43","224788","0.0-6.0-2.0-0.16","qyw4d75s75","many_one","0","indirect_first","0","ia05nz21","0","18","1","1","3","1","-","0","1","0","null","","","<div class = 'row'><div class = 'column'><img src = 'category4/CS1.png' width = '70%;'></div><div class = 'column'><img src = 'usneg/3160.bmp' width = '100%;'></div></div>","null","neg","CS","CS","4","category4/CS1.png","","","","",""
"","html-keyboard-response","44","227297","0.0-6.0-2.0-0.17","qyw4d75s75","many_one","0","indirect_first","0","ia05nz21","0","18","1","1","3","1","-","0","1","0","null","","","<div class = 'row'><div class = 'column'><img src = 'category4/CS9.png' width = '70%;'></div><div class = 'column'><img src = 'usneg/9920.bmp' width = '100%;'></div></div>","null","neg","CS","CS","4","category4/CS9.png","","","","",""
"","html-keyboard-response","45","229810","0.0-6.0-2.0-0.18","qyw4d75s75","many_one","0","indirect_first","0","ia05nz21","0","18","1","1","3","1","-","0","1","0","null","","","<div class = 'row'><div class = 'column'><img src = 'category2/CS9.png' width = '70%;'></div><div class = 'column'><img src = 'uspos/2341.bmp' width = '100%;'></div></div>","null","pos","CS","CS","2","category2/CS9.png","","","","",""
"","html-keyboard-response","46","232327","0.0-6.0-2.0-0.19","qyw4d75s75","many_one","0","indirect_first","0","ia05nz21","0","18","1","1","3","1","-","0","1","0","null","","","<div class = 'row'><div class = 'column'><img src = 'category4/CS4.png' width = '70%;'></div><div class = 'column'><img src = 'usneg/9220.bmp' width = '100%;'></div></div>","null","neg","CS","CS","4","category4/CS4.png","","","","",""
"","survey-html-form","47","235997","0.0-6.0-3.0","qyw4d75s75","many_one","0","indirect_first","0","ia05nz21","0","18","1","1","3","1","-","0","1","0","3167.375000019092","","{}","","","","","","","","","","","",""
"","html-keyboard-response","48","240021","0.0-6.0-4.0-0.0","qyw4d75s75","many_one","0","indirect_first","0","ia05nz21","0","18","1","1","3","1","-","0","1","0","null","","","<div class = 'row'><div class = 'column'><img src = 'category3/CS5.png' width = '70%;'></div><div class = 'column'><img src = 'usneg/6020.bmp' width = '100%;'></div></div>","null","neg","CS","CS","3","category3/CS5.png","","","","",""
"","html-keyboard-response","49","242537","0.0-6.0-4.0-0.1","qyw4d75s75","many_one","0","indirect_first","0","ia05nz21","0","18","1","1","3","1","-","0","1","0","null","","","<div class = 'row'><div class = 'column'><img src = 'uspos/2030.bmp' width = '100%;'></div><div class = 'column'><img src = 'category2/CS6.png' width = '70%;'></div></div>","null","pos","CS","CS","2","category2/CS6.png","","","","",""
"","html-keyboard-response","50","245067","0.0-6.0-4.0-0.2","qyw4d75s75","many_one","0","indirect_first","0","ia05nz21","0","18","1","1","3","1","-","0","1","0","null","","","<div class = 'row'><div class = 'column'><img src = 'category2/CS3.png' width = '70%;'></div><div class = 'column'><img src = 'uspos/8540.bmp' width = '100%;'></div></div>","null","pos","CS","CS","2","category2/CS3.png","","","","",""
"","html-keyboard-response","51","247582","0.0-6.0-4.0-0.3","qyw4d75s75","many_one","0","indirect_first","0","ia05nz21","0","18","1","1","3","1","-","0","1","0","null","","","<div class = 'row'><div class = 'column'><img src = 'uspos/5830.bmp' width = '100%;'></div><div class = 'column'><img src = 'category1/CS2.png' width = '70%;'></div></div>","null","pos","CS","CS","1","category1/CS2.png","","","","",""
"","html-keyboard-response","52","250111","0.0-6.0-4.0-0.4","qyw4d75s75","many_one","0","indirect_first","0","ia05nz21","0","18","1","1","3","1","-","0","1","0","null","","","<div class = 'row'><div class = 'column'><img src = 'usneg/3160.bmp' width = '100%;'></div><div class = 'column'><img src = 'category4/CS1.png' width = '70%;'></div></div>","null","neg","CS","CS","4","category4/CS1.png","","","","",""
"","html-keyboard-response","53","252632","0.0-6.0-4.0-0.5","qyw4d75s75","many_one","0","indirect_first","0","ia05nz21","0","18","1","1","3","1","-","0","1","0","null","","","<div class = 'row'><div class = 'column'><img src = 'category2/CS9.png' width = '70%;'></div><div class = 'column'><img src = 'uspos/2341.bmp' width = '100%;'></div></div>","null","pos","CS","CS","2","category2/CS9.png","","","","",""
"","html-keyboard-response","54","255157","0.0-6.0-4.0-0.6","qyw4d75s75","many_one","0","indirect_first","0","ia05nz21","0","18","1","1","3","1","-","0","1","0","null","","","<div class = 'row'><div class = 'column'><img src = 'category4/CS7.png' width = '70%;'></div><div class = 'column'><img src = 'usneg/9415.bmp' width = '100%;'></div></div>","null","neg","CS","CS","4","category4/CS7.png","","","","",""
"","html-keyboard-response","55","257676","0.0-6.0-4.0-0.7","qyw4d75s75","many_one","0","indirect_first","0","ia05nz21","0","18","1","1","3","1","-","0","1","0","null","","","<div class = 'row'><div class = 'column'><img src = 'category1/CS3.png' width = '70%;'></div><div class = 'column'><img src = 'uspos/5629.bmp' width = '100%;'></div></div>","null","pos","CS","CS","1","category1/CS3.png","","","","",""
"","html-keyboard-response","56","260204","0.0-6.0-4.0-0.8","qyw4d75s75","many_one","0","indirect_first","0","ia05nz21","0","18","1","1","3","1","-","0","1","0","null","","","<div class = 'row'><div class = 'column'><img src = 'uspos/5621.bmp' width = '100%;'></div><div class = 'column'><img src = 'category1/CS5.png' width = '70%;'></div></div>","null","pos","CS","CS","1","category1/CS5.png","","","","",""
"","html-keyboard-response","57","262731","0.0-6.0-4.0-0.9","qyw4d75s75","many_one","0","indirect_first","0","ia05nz21","0","18","1","1","3","1","-","0","1","0","null","","","<div class = 'row'><div class = 'column'><img src = 'category4/CS4.png' width = '70%;'></div><div class = 'column'><img src = 'usneg/9220.bmp' width = '100%;'></div></div>","null","neg","CS","CS","4","category4/CS4.png","","","","",""
"","html-keyboard-response","58","265242","0.0-6.0-4.0-0.10","qyw4d75s75","many_one","0","indirect_first","0","ia05nz21","0","18","1","1","3","1","-","0","1","0","null","","","<div class = 'row'><div class = 'column'><img src = 'category2/CS5.png' width = '70%;'></div><div class = 'column'><img src = 'uspos/5700.bmp' width = '100%;'></div></div>","null","pos","CS","CS","2","category2/CS5.png","","","","",""
"","html-keyboard-response","59","267769","0.0-6.0-4.0-0.11","qyw4d75s75","many_one","0","indirect_first","0","ia05nz21","0","18","1","1","3","1","-","0","1","0","null","","","<div class = 'row'><div class = 'column'><img src = 'category1/CS10.png' width = '70%;'></div><div class = 'column'><img src = 'uspos/7580.bmp' width = '100%;'></div></div>","null","pos","CS","CS","1","category1/CS10.png","","","","",""
"","html-keyboard-response","60","270290","0.0-6.0-4.0-0.12","qyw4d75s75","many_one","0","indirect_first","0","ia05nz21","0","18","1","1","3","1","-","0","1","0","null","","","<div class = 'row'><div class = 'column'><img src = 'category3/CS4.png' width = '70%;'></div><div class = 'column'><img src = 'usneg/9560.bmp' width = '100%;'></div></div>","null","neg","CS","CS","3","category3/CS4.png","","","","",""
"","html-keyboard-response","61","272803","0.0-6.0-4.0-0.13","qyw4d75s75","many_one","0","indirect_first","0","ia05nz21","0","18","1","1","3","1","-","0","1","0","null","","","<div class = 'row'><div class = 'column'><img src = 'category4/CS9.png' width = '70%;'></div><div class = 'column'><img src = 'usneg/9920.bmp' width = '100%;'></div></div>","null","neg","CS","CS","4","category4/CS9.png","","","","",""
"","html-keyboard-response","62","275325","0.0-6.0-4.0-0.14","qyw4d75s75","many_one","0","indirect_first","0","ia05nz21","0","18","1","1","3","1","-","0","1","0","null","","","<div class = 'row'><div class = 'column'><img src = 'usneg/9340.bmp' width = '100%;'></div><div class = 'column'><img src = 'category3/CS6.png' width = '70%;'></div></div>","null","neg","CS","CS","3","category3/CS6.png","","","","",""
"","html-keyboard-response","63","277845","0.0-6.0-4.0-0.15","qyw4d75s75","many_one","0","indirect_first","0","ia05nz21","0","18","1","1","3","1","-","0","1","0","null","","","<div class = 'row'><div class = 'column'><img src = 'usneg/9404.bmp' width = '100%;'></div><div class = 'column'><img src = 'category3/CS8.png' width = '70%;'></div></div>","null","neg","CS","CS","3","category3/CS8.png","","","","",""
"","html-keyboard-response","64","280371","0.0-6.0-4.0-0.16","qyw4d75s75","many_one","0","indirect_first","0","ia05nz21","0","18","1","1","3","1","-","0","1","0","null","","","<div class = 'row'><div class = 'column'><img src = 'usneg/3181.bmp' width = '100%;'></div><div class = 'column'><img src = 'category4/CS6.png' width = '70%;'></div></div>","null","neg","CS","CS","4","category4/CS6.png","","","","",""
"","html-keyboard-response","65","282887","0.0-6.0-4.0-0.17","qyw4d75s75","many_one","0","indirect_first","0","ia05nz21","0","18","1","1","3","1","-","0","1","0","null","","","<div class = 'row'><div class = 'column'><img src = 'usneg/9584.bmp' width = '100%;'></div><div class = 'column'><img src = 'category3/CS7.png' width = '70%;'></div></div>","null","neg","CS","CS","3","category3/CS7.png","","","","",""
"","html-keyboard-response","66","285404","0.0-6.0-4.0-0.18","qyw4d75s75","many_one","0","indirect_first","0","ia05nz21","0","18","1","1","3","1","-","0","1","0","null","","","<div class = 'row'><div class = 'column'><img src = 'category1/CS7.png' width = '70%;'></div><div class = 'column'><img src = 'uspos/2360.bmp' width = '100%;'></div></div>","null","pos","CS","CS","1","category1/CS7.png","","","","",""
"","html-keyboard-response","67","287928","0.0-6.0-4.0-0.19","qyw4d75s75","many_one","0","indirect_first","0","ia05nz21","0","18","1","1","3","1","-","0","1","0","null","","","<div class = 'row'><div class = 'column'><img src = 'category2/CS8.png' width = '70%;'></div><div class = 'column'><img src = 'uspos/2058.bmp' width = '100%;'></div></div>","null","pos","CS","CS","2","category2/CS8.png","","","","",""
"","survey-html-form","68","290690","0.0-6.0-5.0","qyw4d75s75","many_one","0","indirect_first","0","ia05nz21","0","18","1","1","3","1","-","0","1","0","2253.2650000066496","","{}","","","","","","","","","","","",""
"","html-keyboard-response","69","294713","0.0-6.0-6.0-0.0","qyw4d75s75","many_one","0","indirect_first","0","ia05nz21","0","18","1","1","3","1","-","0","1","0","null","","","<div class = 'row'><div class = 'column'><img src = 'uspos/5700.bmp' width = '100%;'></div><div class = 'column'><img src = 'category2/CS5.png' width = '70%;'></div></div>","null","pos","CS","CS","2","category2/CS5.png","","","","",""
"","html-keyboard-response","70","297241","0.0-6.0-6.0-0.1","qyw4d75s75","many_one","0","indirect_first","0","ia05nz21","0","18","1","1","3","1","-","0","1","0","null","","","<div class = 'row'><div class = 'column'><img src = 'category3/CS6.png' width = '70%;'></div><div class = 'column'><img src = 'usneg/9340.bmp' width = '100%;'></div></div>","null","neg","CS","CS","3","category3/CS6.png","","","","",""
"","html-keyboard-response","71","299768","0.0-6.0-6.0-0.2","qyw4d75s75","many_one","0","indirect_first","0","ia05nz21","0","18","1","1","3","1","-","0","1","0","null","","","<div class = 'row'><div class = 'column'><img src = 'category4/CS6.png' width = '70%;'></div><div class = 'column'><img src = 'usneg/3181.bmp' width = '100%;'></div></div>","null","neg","CS","CS","4","category4/CS6.png","","","","",""
"","html-keyboard-response","72","302282","0.0-6.0-6.0-0.3","qyw4d75s75","many_one","0","indirect_first","0","ia05nz21","0","18","1","1","3","1","-","0","1","0","null","","","<div class = 'row'><div class = 'column'><img src = 'category1/CS10.png' width = '70%;'></div><div class = 'column'><img src = 'uspos/7580.bmp' width = '100%;'></div></div>","null","pos","CS","CS","1","category1/CS10.png","","","","",""
"","html-keyboard-response","73","304796","0.0-6.0-6.0-0.4","qyw4d75s75","many_one","0","indirect_first","0","ia05nz21","0","18","1","1","3","1","-","0","1","0","null","","","<div class = 'row'><div class = 'column'><img src = 'category4/CS9.png' width = '70%;'></div><div class = 'column'><img src = 'usneg/9920.bmp' width = '100%;'></div></div>","null","neg","CS","CS","4","category4/CS9.png","","","","",""
"","html-keyboard-response","74","307324","0.0-6.0-6.0-0.5","qyw4d75s75","many_one","0","indirect_first","0","ia05nz21","0","18","1","1","3","1","-","0","1","0","null","","","<div class = 'row'><div class = 'column'><img src = 'category3/CS7.png' width = '70%;'></div><div class = 'column'><img src = 'usneg/9584.bmp' width = '100%;'></div></div>","null","neg","CS","CS","3","category3/CS7.png","","","","",""
"","html-keyboard-response","75","309851","0.0-6.0-6.0-0.6","qyw4d75s75","many_one","0","indirect_first","0","ia05nz21","0","18","1","1","3","1","-","0","1","0","null","","","<div class = 'row'><div class = 'column'><img src = 'category4/CS1.png' width = '70%;'></div><div class = 'column'><img src = 'usneg/3160.bmp' width = '100%;'></div></div>","null","neg","CS","CS","4","category4/CS1.png","","","","",""
"","html-keyboard-response","76","312374","0.0-6.0-6.0-0.7","qyw4d75s75","many_one","0","indirect_first","0","ia05nz21","0","18","1","1","3","1","-","0","1","0","null","","","<div class = 'row'><div class = 'column'><img src = 'category2/CS9.png' width = '70%;'></div><div class = 'column'><img src = 'uspos/2341.bmp' width = '100%;'></div></div>","null","pos","CS","CS","2","category2/CS9.png","","","","",""
"","html-keyboard-response","77","314888","0.0-6.0-6.0-0.8","qyw4d75s75","many_one","0","indirect_first","0","ia05nz21","0","18","1","1","3","1","-","0","1","0","null","","","<div class = 'row'><div class = 'column'><img src = 'category1/CS7.png' width = '70%;'></div><div class = 'column'><img src = 'uspos/2360.bmp' width = '100%;'></div></div>","null","pos","CS","CS","1","category1/CS7.png","","","","",""
"","html-keyboard-response","78","317407","0.0-6.0-6.0-0.9","qyw4d75s75","many_one","0","indirect_first","0","ia05nz21","0","18","1","1","3","1","-","0","1","0","null","","","<div class = 'row'><div class = 'column'><img src = 'category4/CS4.png' width = '70%;'></div><div class = 'column'><img src = 'usneg/9220.bmp' width = '100%;'></div></div>","null","neg","CS","CS","4","category4/CS4.png","","","","",""
"","html-keyboard-response","79","319930","0.0-6.0-6.0-0.10","qyw4d75s75","many_one","0","indirect_first","0","ia05nz21","0","18","1","1","3","1","-","0","1","0","null","","","<div class = 'row'><div class = 'column'><img src = 'uspos/5621.bmp' width = '100%;'></div><div class = 'column'><img src = 'category1/CS5.png' width = '70%;'></div></div>","null","pos","CS","CS","1","category1/CS5.png","","","","",""
"","html-keyboard-response","80","322453","0.0-6.0-6.0-0.11","qyw4d75s75","many_one","0","indirect_first","0","ia05nz21","0","18","1","1","3","1","-","0","1","0","null","","","<div class = 'row'><div class = 'column'><img src = 'usneg/9404.bmp' width = '100%;'></div><div class = 'column'><img src = 'category3/CS8.png' width = '70%;'></div></div>","null","neg","CS","CS","3","category3/CS8.png","","","","",""
"","html-keyboard-response","81","324968","0.0-6.0-6.0-0.12","qyw4d75s75","many_one","0","indirect_first","0","ia05nz21","0","18","1","1","3","1","-","0","1","0","null","","","<div class = 'row'><div class = 'column'><img src = 'category2/CS3.png' width = '70%;'></div><div class = 'column'><img src = 'uspos/8540.bmp' width = '100%;'></div></div>","null","pos","CS","CS","2","category2/CS3.png","","","","",""
"","html-keyboard-response","82","327477","0.0-6.0-6.0-0.13","qyw4d75s75","many_one","0","indirect_first","0","ia05nz21","0","18","1","1","3","1","-","0","1","0","null","","","<div class = 'row'><div class = 'column'><img src = 'category1/CS2.png' width = '70%;'></div><div class = 'column'><img src = 'uspos/5830.bmp' width = '100%;'></div></div>","null","pos","CS","CS","1","category1/CS2.png","","","","",""
"","html-keyboard-response","83","329986","0.0-6.0-6.0-0.14","qyw4d75s75","many_one","0","indirect_first","0","ia05nz21","0","18","1","1","3","1","-","0","1","0","null","","","<div class = 'row'><div class = 'column'><img src = 'category2/CS8.png' width = '70%;'></div><div class = 'column'><img src = 'uspos/2058.bmp' width = '100%;'></div></div>","null","pos","CS","CS","2","category2/CS8.png","","","","",""
"","html-keyboard-response","84","332512","0.0-6.0-6.0-0.15","qyw4d75s75","many_one","0","indirect_first","0","ia05nz21","0","18","1","1","3","1","-","0","1","0","null","","","<div class = 'row'><div class = 'column'><img src = 'usneg/6020.bmp' width = '100%;'></div><div class = 'column'><img src = 'category3/CS5.png' width = '70%;'></div></div>","null","neg","CS","CS","3","category3/CS5.png","","","","",""
"","html-keyboard-response","85","335031","0.0-6.0-6.0-0.16","qyw4d75s75","many_one","0","indirect_first","0","ia05nz21","0","18","1","1","3","1","-","0","1","0","null","","","<div class = 'row'><div class = 'column'><img src = 'category4/CS7.png' width = '70%;'></div><div class = 'column'><img src = 'usneg/9415.bmp' width = '100%;'></div></div>","null","neg","CS","CS","4","category4/CS7.png","","","","",""
"","html-keyboard-response","86","337556","0.0-6.0-6.0-0.17","qyw4d75s75","many_one","0","indirect_first","0","ia05nz21","0","18","1","1","3","1","-","0","1","0","null","","","<div class = 'row'><div class = 'column'><img src = 'category1/CS3.png' width = '70%;'></div><div class = 'column'><img src = 'uspos/5629.bmp' width = '100%;'></div></div>","null","pos","CS","CS","1","category1/CS3.png","","","","",""
"","html-keyboard-response","87","340071","0.0-6.0-6.0-0.18","qyw4d75s75","many_one","0","indirect_first","0","ia05nz21","0","18","1","1","3","1","-","0","1","0","null","","","<div class = 'row'><div class = 'column'><img src = 'usneg/9560.bmp' width = '100%;'></div><div class = 'column'><img src = 'category3/CS4.png' width = '70%;'></div></div>","null","neg","CS","CS","3","category3/CS4.png","","","","",""
"","html-keyboard-response","88","342587","0.0-6.0-6.0-0.19","qyw4d75s75","many_one","0","indirect_first","0","ia05nz21","0","18","1","1","3","1","-","0","1","0","null","","","<div class = 'row'><div class = 'column'><img src = 'uspos/2030.bmp' width = '100%;'></div><div class = 'column'><img src = 'category2/CS6.png' width = '70%;'></div></div>","null","pos","CS","CS","2","category2/CS6.png","","","","",""
"","html-keyboard-response","89","387179","0.0-7.0","qyw4d75s75","many_one","0","indirect_first","0","ia05nz21","0","18","1","1","3","1","-","0","1","0","44086.01500000805","","","<p>Sie sehen nun die chinesischen Zeichen nur ganz kurz. Danach sehen Sie die jeweilige Aussprache der Zeichen als Silbe auf dem Bildschrim. Ihre Aufgabe ist es, für jede Silbe anzugeben, ob diese etwas angenehmes, oder unangenehmes bedeuten könnte. Verlassen Sie sich hier vor allem auf Ihre Intuition.<br><br>Die Zeichen werden nur zur Orientierung dargestellt, beachten Sie sie deshalb nicht. Konzentrieren Sie sich vor allem auf die Silben. <br>Reagieren Sie mit folgenden zwei Tasten: <br><br><b>'D' </b> wenn die Silbe etwas <b>unangenehmes</b> bedeuten könnte. <br><b>'K'</b> wenn die Silbe etwas <b>angenehmes</b> bedeuten könnte. <br><br>Bitte legen Sie nun den Zeigefinger der linken Hand auf die Taste 'D' und den Zeigefinger der rechten Hand auf die Taste 'K'. <br>Reagieren Sie auf jede Silbe so schnell wie möglich. Uns interessiert Ihre spontane Reaktion. <br> <br> <br>Drücken Sie 'D' oder 'K', um die nächste Aufgabe zu starten. </p>","68","","","","","","","","","",""
"","html-keyboard-response","90","390186","0.0-8.0-0.0","qyw4d75s75","many_one","0","indirect_first","0","ia05nz21","0","18","1","1","3","1","-","0","1","0","null","","","<div style=""font-size:60px;"">+</div>","null","","","","","","","","","",""
"","html-keyboard-response","91","390281","0.0-8.0-1.0","qyw4d75s75","many_one","0","indirect_first","0","ia05nz21","0","18","1","1","3","1","-","0","1","0","null","","","<img src = 'category4/CS10.png' width = '100%;'>","null","","","","","","","","","",""
"","html-keyboard-response","92","390543","0.0-8.0-2.0","qyw4d75s75","many_one","0","indirect_first","0","ia05nz21","0","18","1","1","3","1","-","0","1","0","null","","","<img src = 'targets/47.png' width = '100%;'>","null","","","","","","","","","",""
"","html-keyboard-response","93","392744","0.0-8.0-3.0","qyw4d75s75","many_one","0","indirect_first","0","ia05nz21","0","18","1","1","3","1","-","0","1","0","2199.8700000112876","","","<img src = 'targets/mask.png' width = '100%;'>","68","neg","GS","GSold","4","category4/CS10.png","targets/47.png","0","indirect","0",""
"","html-keyboard-response","94","394277","0.0-8.0-0.1","qyw4d75s75","many_one","0","indirect_first","0","ia05nz21","0","18","1","1","3","1","-","0","1","0","null","","","<div style=""font-size:60px;"">+</div>","null","","","","","","","","","",""
"","html-keyboard-response","95","394370","0.0-8.0-1.1","qyw4d75s75","many_one","0","indirect_first","0","ia05nz21","0","18","1","1","3","1","-","0","1","0","null","","","<img src = 'category4/CS4.png' width = '100%;'>","null","","","","","","","","","",""
"","html-keyboard-response","96","394634","0.0-8.0-2.1","qyw4d75s75","many_one","0","indirect_first","0","ia05nz21","0","18","1","1","3","1","-","0","1","0","null","","","<img src = 'targets/22.png' width = '100%;'>","null","","","","","","","","","",""
"","html-keyboard-response","97","395610","0.0-8.0-3.1","qyw4d75s75","many_one","0","indirect_first","0","ia05nz21","0","18","1","1","3","1","-","0","1","0","973.6599999596365","","","<img src = 'targets/mask.png' width = '100%;'>","75","neg","CS","CS","4","category4/CS4.png","targets/22.png","1","indirect","1",""
"","html-keyboard-response","98","397116","0.0-8.0-0.2","qyw4d75s75","many_one","0","indirect_first","0","ia05nz21","0","18","1","1","3","1","-","0","1","0","null","","","<div style=""font-size:60px;"">+</div>","null","","","","","","","","","",""
"","html-keyboard-response","99","397208","0.0-8.0-1.2","qyw4d75s75","many_one","0","indirect_first","0","ia05nz21","0","18","1","1","3","1","-","0","1","0","null","","","<img src = 'category3/CS7.png' width = '100%;'>","null","","","","","","","","","",""
"","html-keyboard-response","100","397483","0.0-8.0-2.2","qyw4d75s75","many_one","0","indirect_first","0","ia05nz21","0","18","1","1","3","1","-","0","1","0","null","","","<img src = 'targets/38.png' width = '100%;'>","null","","","","","","","","","",""
"","html-keyboard-response","101","398652","0.0-8.0-3.2","qyw4d75s75","many_one","0","indirect_first","0","ia05nz21","0","18","1","1","3","1","-","0","1","0","1166.3599999737926","","","<img src = 'targets/mask.png' width = '100%;'>","68","neg","CS","CS","3","category3/CS7.png","targets/38.png","0","indirect","2",""
"","html-keyboard-response","102","400160","0.0-8.0-0.3","qyw4d75s75","many_one","0","indirect_first","0","ia05nz21","0","18","1","1","3","1","-","0","1","0","null","","","<div style=""font-size:60px;"">+</div>","null","","","","","","","","","",""
"","html-keyboard-response","103","400264","0.0-8.0-1.3","qyw4d75s75","many_one","0","indirect_first","0","ia05nz21","0","18","1","1","3","1","-","0","1","0","null","","","<img src = 'category2/CS9.png' width = '100%;'>","null","","","","","","","","","",""
"","html-keyboard-response","104","400538","0.0-8.0-2.3","qyw4d75s75","many_one","0","indirect_first","0","ia05nz21","0","18","1","1","3","1","-","0","1","0","null","","","<img src = 'targets/42.png' width = '100%;'>","null","","","","","","","","","",""
"","html-keyboard-response","105","401508","0.0-8.0-3.3","qyw4d75s75","many_one","0","indirect_first","0","ia05nz21","0","18","1","1","3","1","-","0","1","0","968.1850000051782","","","<img src = 'targets/mask.png' width = '100%;'>","75","pos","CS","CS","2","category2/CS9.png","targets/42.png","1","indirect","3",""
"","html-keyboard-response","106","403023","0.0-8.0-0.4","qyw4d75s75","many_one","0","indirect_first","0","ia05nz21","0","18","1","1","3","1","-","0","1","0","null","","","<div style=""font-size:60px;"">+</div>","null","","","","","","","","","",""
"","html-keyboard-response","107","403125","0.0-8.0-1.4","qyw4d75s75","many_one","0","indirect_first","0","ia05nz21","0","18","1","1","3","1","-","0","1","0","null","","","<img src = 'category4/CS1.png' width = '100%;'>","null","","","","","","","","","",""
"","html-keyboard-response","108","403394","0.0-8.0-2.4","qyw4d75s75","many_one","0","indirect_first","0","ia05nz21","0","18","1","1","3","1","-","0","1","0","null","","","<img src = 'targets/20.png' width = '100%;'>","null","","","","","","","","","",""
"","html-keyboard-response","109","404714","0.0-8.0-3.4","qyw4d75s75","many_one","0","indirect_first","0","ia05nz21","0","18","1","1","3","1","-","0","1","0","1317.490000044927","","","<img src = 'targets/mask.png' width = '100%;'>","68","neg","CS","CS","4","category4/CS1.png","targets/20.png","0","indirect","4",""
"","html-keyboard-response","110","406235","0.0-8.0-0.5","qyw4d75s75","many_one","0","indirect_first","0","ia05nz21","0","18","1","1","3","1","-","0","1","0","null","","","<div style=""font-size:60px;"">+</div>","null","","","","","","","","","",""
"","html-keyboard-response","111","406333","0.0-8.0-1.5","qyw4d75s75","many_one","0","indirect_first","0","ia05nz21","0","18","1","1","3","1","-","0","1","0","null","","","<img src = 'category1/CS5.png' width = '100%;'>","null","","","","","","","","","",""
"","html-keyboard-response","112","406600","0.0-8.0-2.5","qyw4d75s75","many_one","0","indirect_first","0","ia05nz21","0","18","1","1","3","1","-","0","1","0","null","","","<img src = 'targets/34.png' width = '100%;'>","null","","","","","","","","","",""
"","html-keyboard-response","113","408553","0.0-8.0-3.5","qyw4d75s75","many_one","0","indirect_first","0","ia05nz21","0","18","1","1","3","1","-","0","1","0","1951.5700000338256","","","<img src = 'targets/mask.png' width = '100%;'>","75","pos","CS","CS","1","category1/CS5.png","targets/34.png","1","indirect","5",""
"","html-keyboard-response","114","410066","0.0-8.0-0.6","qyw4d75s75","many_one","0","indirect_first","0","ia05nz21","0","18","1","1","3","1","-","0","1","0","null","","","<div style=""font-size:60px;"">+</div>","null","","","","","","","","","",""
"","html-keyboard-response","115","410170","0.0-8.0-1.6","qyw4d75s75","many_one","0","indirect_first","0","ia05nz21","0","18","1","1","3","1","-","0","1","0","null","","","<img src = 'category4/CS6.png' width = '100%;'>","null","","","","","","","","","",""
"","html-keyboard-response","116","410428","0.0-8.0-2.6","qyw4d75s75","many_one","0","indirect_first","0","ia05nz21","0","18","1","1","3","1","-","0","1","0","null","","","<img src = 'targets/5.png' width = '100%;'>","null","","","","","","","","","",""
"","html-keyboard-response","117","412368","0.0-8.0-3.6","qyw4d75s75","many_one","0","indirect_first","0","ia05nz21","0","18","1","1","3","1","-","0","1","0","1938.079999992624","","","<img src = 'targets/mask.png' width = '100%;'>","68","neg","CS","CS","4","category4/CS6.png","targets/5.png","0","indirect","6",""
"","html-keyboard-response","118","413886","0.0-8.0-0.7","qyw4d75s75","many_one","0","indirect_first","0","ia05nz21","0","18","1","1","3","1","-","0","1","0","null","","","<div style=""font-size:60px;"">+</div>","null","","","","","","","","","",""
"","html-keyboard-response","119","413977","0.0-8.0-1.7","qyw4d75s75","many_one","0","indirect_first","0","ia05nz21","0","18","1","1","3","1","-","0","1","0","null","","","<img src = 'category1/CS7.png' width = '100%;'>","null","","","","","","","","","",""
"","html-keyboard-response","120","414230","0.0-8.0-2.7","qyw4d75s75","many_one","0","indirect_first","0","ia05nz21","0","18","1","1","3","1","-","0","1","0","null","","","<img src = 'targets/37.png' width = '100%;'>","null","","","","","","","","","",""
"","html-keyboard-response","121","416150","0.0-8.0-3.7","qyw4d75s75","many_one","0","indirect_first","0","ia05nz21","0","18","1","1","3","1","-","0","1","0","1918.3499999926426","","","<img src = 'targets/mask.png' width = '100%;'>","75","pos","CS","CS","1","category1/CS7.png","targets/37.png","1","indirect","7",""
"","html-keyboard-response","122","417675","0.0-8.0-0.8","qyw4d75s75","many_one","0","indirect_first","0","ia05nz21","0","18","1","1","3","1","-","0","1","0","null","","","<div style=""font-size:60px;"">+</div>","null","","","","","","","","","",""
"","html-keyboard-response","123","417769","0.0-8.0-1.8","qyw4d75s75","many_one","0","indirect_first","0","ia05nz21","0","18","1","1","3","1","-","0","1","0","null","","","<img src = 'category3/CS4.png' width = '100%;'>","null","","","","","","","","","",""
"","html-keyboard-response","124","418037","0.0-8.0-2.8","qyw4d75s75","many_one","0","indirect_first","0","ia05nz21","0","18","1","1","3","1","-","0","1","0","null","","","<img src = 'targets/6.png' width = '100%;'>","null","","","","","","","","","",""
"","html-keyboard-response","125","419005","0.0-8.0-3.8","qyw4d75s75","many_one","0","indirect_first","0","ia05nz21","0","18","1","1","3","1","-","0","1","0","966.0400000284426","","","<img src = 'targets/mask.png' width = '100%;'>","75","neg","CS","CS","3","category3/CS4.png","targets/6.png","1","indirect","8",""
"","html-keyboard-response","126","420522","0.0-8.0-0.9","qyw4d75s75","many_one","0","indirect_first","0","ia05nz21","0","18","1","1","3","1","-","0","1","0","null","","","<div style=""font-size:60px;"">+</div>","null","","","","","","","","","",""
"","html-keyboard-response","127","420618","0.0-8.0-1.9","qyw4d75s75","many_one","0","indirect_first","0","ia05nz21","0","18","1","1","3","1","-","0","1","0","null","","","<img src = 'category3/CS6.png' width = '100%;'>","null","","","","","","","","","",""
"","html-keyboard-response","128","420888","0.0-8.0-2.9","qyw4d75s75","many_one","0","indirect_first","0","ia05nz21","0","18","1","1","3","1","-","0","1","0","null","","","<img src = 'targets/29.png' width = '100%;'>","null","","","","","","","","","",""
"","html-keyboard-response","129","422082","0.0-8.0-3.9","qyw4d75s75","many_one","0","indirect_first","0","ia05nz21","0","18","1","1","3","1","-","0","1","0","1192.125000001397","","","<img src = 'targets/mask.png' width = '100%;'>","75","neg","CS","CS","3","category3/CS6.png","targets/29.png","1","indirect","9",""
"","html-keyboard-response","130","423603","0.0-8.0-0.10","qyw4d75s75","many_one","0","indirect_first","0","ia05nz21","0","18","1","1","3","1","-","0","1","0","null","","","<div style=""font-size:60px;"">+</div>","null","","","","","","","","","",""
"","html-keyboard-response","131","423698","0.0-8.0-1.10","qyw4d75s75","many_one","0","indirect_first","0","ia05nz21","0","18","1","1","3","1","-","0","1","0","null","","","<img src = 'category4/CS2.png' width = '100%;'>","null","","","","","","","","","",""
"","html-keyboard-response","132","423964","0.0-8.0-2.10","qyw4d75s75","many_one","0","indirect_first","0","ia05nz21","0","18","1","1","3","1","-","0","1","0","null","","","<img src = 'targets/12.png' width = '100%;'>","null","","","","","","","","","",""
"","html-keyboard-response","133","424703","0.0-8.0-3.10","qyw4d75s75","many_one","0","indirect_first","0","ia05nz21","0","18","1","1","3","1","-","0","1","0","736.5899999858811","","","<img src = 'targets/mask.png' width = '100%;'>","75","neg","GS","GSold","4","category4/CS2.png","targets/12.png","1","indirect","10",""
"","html-keyboard-response","134","426217","0.0-8.0-0.11","qyw4d75s75","many_one","0","indirect_first","0","ia05nz21","0","18","1","1","3","1","-","0","1","0","null","","","<div style=""font-size:60px;"">+</div>","null","","","","","","","","","",""
"","html-keyboard-response","135","426317","0.0-8.0-1.11","qyw4d75s75","many_one","0","indirect_first","0","ia05nz21","0","18","1","1","3","1","-","0","1","0","null","","","<img src = 'category2/CS8.png' width = '100%;'>","null","","","","","","","","","",""
"","html-keyboard-response","136","426580","0.0-8.0-2.11","qyw4d75s75","many_one","0","indirect_first","0","ia05nz21","0","18","1","1","3","1","-","0","1","0","null","","","<img src = 'targets/14.png' width = '100%;'>","null","","","","","","","","","",""
"","html-keyboard-response","137","427305","0.0-8.0-3.11","qyw4d75s75","many_one","0","indirect_first","0","ia05nz21","0","18","1","1","3","1","-","0","1","0","724.2450000485405","","","<img src = 'targets/mask.png' width = '100%;'>","68","pos","CS","CS","2","category2/CS8.png","targets/14.png","0","indirect","11",""
"","html-keyboard-response","138","428828","0.0-8.0-0.12","qyw4d75s75","many_one","0","indirect_first","0","ia05nz21","0","18","1","1","3","1","-","0","1","0","null","","","<div style=""font-size:60px;"">+</div>","null","","","","","","","","","",""
"","html-keyboard-response","139","428931","0.0-8.0-1.12","qyw4d75s75","many_one","0","indirect_first","0","ia05nz21","0","18","1","1","3","1","-","0","1","0","null","","","<img src = 'category2/CS7.png' width = '100%;'>","null","","","","","","","","","",""
"","html-keyboard-response","140","429199","0.0-8.0-2.12","qyw4d75s75","many_one","0","indirect_first","0","ia05nz21","0","18","1","1","3","1","-","0","1","0","null","","","<img src = 'targets/7.png' width = '100%;'>","null","","","","","","","","","",""
"","html-keyboard-response","141","431386","0.0-8.0-3.12","qyw4d75s75","many_one","0","indirect_first","0","ia05nz21","0","18","1","1","3","1","-","0","1","0","2185.5349999968894","","","<img src = 'targets/mask.png' width = '100%;'>","68","pos","GS","GSold","2","category2/CS7.png","targets/7.png","0","indirect","12",""
"","html-keyboard-response","142","432900","0.0-8.0-0.13","qyw4d75s75","many_one","0","indirect_first","0","ia05nz21","0","18","1","1","3","1","-","0","1","0","null","","","<div style=""font-size:60px;"">+</div>","null","","","","","","","","","",""
"","html-keyboard-response","143","433004","0.0-8.0-1.13","qyw4d75s75","many_one","0","indirect_first","0","ia05nz21","0","18","1","1","3","1","-","0","1","0","null","","","<img src = 'category2/CS3.png' width = '100%;'>","null","","","","","","","","","",""
"","html-keyboard-response","144","433282","0.0-8.0-2.13","qyw4d75s75","many_one","0","indirect_first","0","ia05nz21","0","18","1","1","3","1","-","0","1","0","null","","","<img src = 'targets/45.png' width = '100%;'>","null","","","","","","","","","",""
"","html-keyboard-response","145","436345","0.0-8.0-3.13","qyw4d75s75","many_one","0","indirect_first","0","ia05nz21","0","18","1","1","3","1","-","0","1","0","3061.440000019502","","","<img src = 'targets/mask.png' width = '100%;'>","68","pos","CS","CS","2","category2/CS3.png","targets/45.png","0","indirect","13",""
"","html-keyboard-response","146","437865","0.0-8.0-0.14","qyw4d75s75","many_one","0","indirect_first","0","ia05nz21","0","18","1","1","3","1","-","0","1","0","null","","","<div style=""font-size:60px;"">+</div>","null","","","","","","","","","",""
"","html-keyboard-response","147","437958","0.0-8.0-1.14","qyw4d75s75","many_one","0","indirect_first","0","ia05nz21","0","18","1","1","3","1","-","0","1","0","null","","","<img src = 'category4/CS7.png' width = '100%;'>","null","","","","","","","","","",""
"","html-keyboard-response","148","438227","0.0-8.0-2.14","qyw4d75s75","many_one","0","indirect_first","0","ia05nz21","0","18","1","1","3","1","-","0","1","0","null","","","<img src = 'targets/21.png' width = '100%;'>","null","","","","","","","","","",""
"","html-keyboard-response","149","440501","0.0-8.0-3.14","qyw4d75s75","many_one","0","indirect_first","0","ia05nz21","0","18","1","1","3","1","-","0","1","0","2272.1199999796227","","","<img src = 'targets/mask.png' width = '100%;'>","75","neg","CS","CS","4","category4/CS7.png","targets/21.png","1","indirect","14",""
"","html-keyboard-response","150","442009","0.0-8.0-0.15","qyw4d75s75","many_one","0","indirect_first","0","ia05nz21","0","18","1","1","3","1","-","0","1","0","null","","","<div style=""font-size:60px;"">+</div>","null","","","","","","","","","",""
"","html-keyboard-response","151","442106","0.0-8.0-1.15","qyw4d75s75","many_one","0","indirect_first","0","ia05nz21","0","18","1","1","3","1","-","0","1","0","null","","","<img src = 'category2/CS6.png' width = '100%;'>","null","","","","","","","","","",""
"","html-keyboard-response","152","442375","0.0-8.0-2.15","qyw4d75s75","many_one","0","indirect_first","0","ia05nz21","0","18","1","1","3","1","-","0","1","0","null","","","<img src = 'targets/44.png' width = '100%;'>","null","","","","","","","","","",""
"","html-keyboard-response","153","443976","0.0-8.0-3.15","qyw4d75s75","many_one","0","indirect_first","0","ia05nz21","0","18","1","1","3","1","-","0","1","0","1599.8649999964982","","","<img src = 'targets/mask.png' width = '100%;'>","68","pos","CS","CS","2","category2/CS6.png","targets/44.png","0","indirect","15",""
"","html-keyboard-response","154","445510","0.0-8.0-0.16","qyw4d75s75","many_one","0","indirect_first","0","ia05nz21","0","18","1","1","3","1","-","0","1","0","null","","","<div style=""font-size:60px;"">+</div>","null","","","","","","","","","",""
"","html-keyboard-response","155","445609","0.0-8.0-1.16","qyw4d75s75","many_one","0","indirect_first","0","ia05nz21","0","18","1","1","3","1","-","0","1","0","null","","","<img src = 'category3/CS5.png' width = '100%;'>","null","","","","","","","","","",""
"","html-keyboard-response","156","445872","0.0-8.0-2.16","qyw4d75s75","many_one","0","indirect_first","0","ia05nz21","0","18","1","1","3","1","-","0","1","0","null","","","<img src = 'targets/32.png' width = '100%;'>","null","","","","","","","","","",""
"","html-keyboard-response","157","446910","0.0-8.0-3.16","qyw4d75s75","many_one","0","indirect_first","0","ia05nz21","0","18","1","1","3","1","-","0","1","0","1035.169999988284","","","<img src = 'targets/mask.png' width = '100%;'>","75","neg","CS","CS","3","category3/CS5.png","targets/32.png","1","indirect","16",""
"","html-keyboard-response","158","448421","0.0-8.0-0.17","qyw4d75s75","many_one","0","indirect_first","0","ia05nz21","0","18","1","1","3","1","-","0","1","0","null","","","<div style=""font-size:60px;"">+</div>","null","","","","","","","","","",""
"","html-keyboard-response","159","448516","0.0-8.0-1.17","qyw4d75s75","many_one","0","indirect_first","0","ia05nz21","0","18","1","1","3","1","-","0","1","0","null","","","<img src = 'category1/CS2.png' width = '100%;'>","null","","","","","","","","","",""
"","html-keyboard-response","160","448771","0.0-8.0-2.17","qyw4d75s75","many_one","0","indirect_first","0","ia05nz21","0","18","1","1","3","1","-","0","1","0","null","","","<img src = 'targets/8.png' width = '100%;'>","null","","","","","","","","","",""
"","html-keyboard-response","161","449671","0.0-8.0-3.17","qyw4d75s75","many_one","0","indirect_first","0","ia05nz21","0","18","1","1","3","1","-","0","1","0","899.1099999984726","","","<img src = 'targets/mask.png' width = '100%;'>","75","pos","CS","CS","1","category1/CS2.png","targets/8.png","1","indirect","17",""
"","html-keyboard-response","162","451189","0.0-8.0-0.18","qyw4d75s75","many_one","0","indirect_first","0","ia05nz21","0","18","1","1","3","1","-","0","1","0","null","","","<div style=""font-size:60px;"">+</div>","null","","","","","","","","","",""
"","html-keyboard-response","163","451293","0.0-8.0-1.18","qyw4d75s75","many_one","0","indirect_first","0","ia05nz21","0","18","1","1","3","1","-","0","1","0","null","","","<img src = 'category2/CS5.png' width = '100%;'>","null","","","","","","","","","",""
"","html-keyboard-response","164","451564","0.0-8.0-2.18","qyw4d75s75","many_one","0","indirect_first","0","ia05nz21","0","18","1","1","3","1","-","0","1","0","null","","","<img src = 'targets/25.png' width = '100%;'>","null","","","","","","","","","",""
"","html-keyboard-response","165","452183","0.0-8.0-3.18","qyw4d75s75","many_one","0","indirect_first","0","ia05nz21","0","18","1","1","3","1","-","0","1","0","616.9649999937974","","","<img src = 'targets/mask.png' width = '100%;'>","75","pos","CS","CS","2","category2/CS5.png","targets/25.png","1","indirect","18",""
"","html-keyboard-response","166","453712","0.0-8.0-0.19","qyw4d75s75","many_one","0","indirect_first","0","ia05nz21","0","18","1","1","3","1","-","0","1","0","null","","","<div style=""font-size:60px;"">+</div>","null","","","","","","","","","",""
"","html-keyboard-response","167","453804","0.0-8.0-1.19","qyw4d75s75","many_one","0","indirect_first","0","ia05nz21","0","18","1","1","3","1","-","0","1","0","null","","","<img src = 'category4/CS9.png' width = '100%;'>","null","","","","","","","","","",""
"","html-keyboard-response","168","454079","0.0-8.0-2.19","qyw4d75s75","many_one","0","indirect_first","0","ia05nz21","0","18","1","1","3","1","-","0","1","0","null","","","<img src = 'targets/24.png' width = '100%;'>","null","","","","","","","","","",""
"","html-keyboard-response","169","456074","0.0-8.0-3.19","qyw4d75s75","many_one","0","indirect_first","0","ia05nz21","0","18","1","1","3","1","-","0","1","0","1993.6499999603257","","","<img src = 'targets/mask.png' width = '100%;'>","68","neg","CS","CS","4","category4/CS9.png","targets/24.png","0","indirect","19",""
"","html-keyboard-response","170","457581","0.0-8.0-0.20","qyw4d75s75","many_one","0","indirect_first","0","ia05nz21","0","18","1","1","3","1","-","0","1","0","null","","","<div style=""font-size:60px;"">+</div>","null","","","","","","","","","",""
"","html-keyboard-response","171","457686","0.0-8.0-1.20","qyw4d75s75","many_one","0","indirect_first","0","ia05nz21","0","18","1","1","3","1","-","0","1","0","null","","","<img src = 'category3/CS8.png' width = '100%;'>","null","","","","","","","","","",""
"","html-keyboard-response","172","457958","0.0-8.0-2.20","qyw4d75s75","many_one","0","indirect_first","0","ia05nz21","0","18","1","1","3","1","-","0","1","0","null","","","<img src = 'targets/23.png' width = '100%;'>","null","","","","","","","","","",""
"","html-keyboard-response","173","459965","0.0-8.0-3.20","qyw4d75s75","many_one","0","indirect_first","0","ia05nz21","0","18","1","1","3","1","-","0","1","0","2004.9350000335835","","","<img src = 'targets/mask.png' width = '100%;'>","68","neg","CS","CS","3","category3/CS8.png","targets/23.png","0","indirect","20",""
"","html-keyboard-response","174","461473","0.0-8.0-0.21","qyw4d75s75","many_one","0","indirect_first","0","ia05nz21","0","18","1","1","3","1","-","0","1","0","null","","","<div style=""font-size:60px;"">+</div>","null","","","","","","","","","",""
"","html-keyboard-response","175","461572","0.0-8.0-1.21","qyw4d75s75","many_one","0","indirect_first","0","ia05nz21","0","18","1","1","3","1","-","0","1","0","null","","","<img src = 'category1/CS10.png' width = '100%;'>","null","","","","","","","","","",""
"","html-keyboard-response","176","461848","0.0-8.0-2.21","qyw4d75s75","many_one","0","indirect_first","0","ia05nz21","0","18","1","1","3","1","-","0","1","0","null","","","<img src = 'targets/1.png' width = '100%;'>","null","","","","","","","","","",""
"","html-keyboard-response","177","464750","0.0-8.0-3.21","qyw4d75s75","many_one","0","indirect_first","0","ia05nz21","0","18","1","1","3","1","-","0","1","0","2900.054999976419","","","<img src = 'targets/mask.png' width = '100%;'>","68","pos","CS","CS","1","category1/CS10.png","targets/1.png","0","indirect","21",""
"","html-keyboard-response","178","466259","0.0-8.0-0.22","qyw4d75s75","many_one","0","indirect_first","0","ia05nz21","0","18","1","1","3","1","-","0","1","0","null","","","<div style=""font-size:60px;"">+</div>","null","","","","","","","","","",""
"","html-keyboard-response","179","466358","0.0-8.0-1.22","qyw4d75s75","many_one","0","indirect_first","0","ia05nz21","0","18","1","1","3","1","-","0","1","0","null","","","<img src = 'category4/CS8.png' width = '100%;'>","null","","","","","","","","","",""
"","html-keyboard-response","180","466617","0.0-8.0-2.22","qyw4d75s75","many_one","0","indirect_first","0","ia05nz21","0","18","1","1","3","1","-","0","1","0","null","","","<img src = 'targets/11.png' width = '100%;'>","null","","","","","","","","","",""
"","html-keyboard-response","181","468613","0.0-8.0-3.22","qyw4d75s75","many_one","0","indirect_first","0","ia05nz21","0","18","1","1","3","1","-","0","1","0","1993.689999973867","","","<img src = 'targets/mask.png' width = '100%;'>","75","neg","GS","GSold","4","category4/CS8.png","targets/11.png","1","indirect","22",""
"","html-keyboard-response","182","470120","0.0-8.0-0.23","qyw4d75s75","many_one","0","indirect_first","0","ia05nz21","0","18","1","1","3","1","-","0","1","0","null","","","<div style=""font-size:60px;"">+</div>","null","","","","","","","","","",""
"","html-keyboard-response","183","470212","0.0-8.0-1.23","qyw4d75s75","many_one","0","indirect_first","0","ia05nz21","0","18","1","1","3","1","-","0","1","0","null","","","<img src = 'category1/CS3.png' width = '100%;'>","null","","","","","","","","","",""
"","html-keyboard-response","184","470486","0.0-8.0-2.23","qyw4d75s75","many_one","0","indirect_first","0","ia05nz21","0","18","1","1","3","1","-","0","1","0","null","","","<img src = 'targets/41.png' width = '100%;'>","null","","","","","","","","","",""
"","html-keyboard-response","185","471341","0.0-8.0-3.23","qyw4d75s75","many_one","0","indirect_first","0","ia05nz21","0","18","1","1","3","1","-","0","1","0","852.6149999815971","","","<img src = 'targets/mask.png' width = '100%;'>","75","pos","CS","CS","1","category1/CS3.png","targets/41.png","1","indirect","23",""
"","survey-html-form","186","480883","0.0-9.0","qyw4d75s75","many_one","0","indirect_first","0","ia05nz21","0","18","1","1","3","1","-","0","1","0","9031.480000005104","","{}","","","","","","","","","","","",""
"","html-keyboard-response","187","483887","0.0-10.0-0.0","qyw4d75s75","many_one","0","indirect_first","0","ia05nz21","0","18","1","1","3","1","-","0","1","0","null","","","<div style=""font-size:60px;"">+</div>","null","","","","","","","","","",""
"","html-keyboard-response","188","483991","0.0-10.0-1.0","qyw4d75s75","many_one","0","indirect_first","0","ia05nz21","0","18","1","1","3","1","-","0","1","0","null","","","<img src = 'category3/GS2.png' width = '100%;'>","null","","","","","","","","","",""
"","html-keyboard-response","189","484246","0.0-10.0-2.0","qyw4d75s75","many_one","0","indirect_first","0","ia05nz21","0","18","1","1","3","1","-","0","1","0","null","","","<img src = 'targets/48.png' width = '100%;'>","null","","","","","","","","","",""
"","html-keyboard-response","190","488099","0.0-10.0-3.0","qyw4d75s75","many_one","0","indirect_first","0","ia05nz21","0","18","1","1","3","1","-","0","1","0","3851.074999955017","","","<img src = 'targets/mask.png' width = '100%;'>","75","neg","GS","GSnew","3","category3/GS2.png","targets/48.png","1","indirect","24",""
"","html-keyboard-response","191","489616","0.0-10.0-0.1","qyw4d75s75","many_one","0","indirect_first","0","ia05nz21","0","18","1","1","3","1","-","0","1","0","null","","","<div style=""font-size:60px;"">+</div>","null","","","","","","","","","",""
"","html-keyboard-response","192","489711","0.0-10.0-1.1","qyw4d75s75","many_one","0","indirect_first","0","ia05nz21","0","18","1","1","3","1","-","0","1","0","null","","","<img src = 'category3/CS1.png' width = '100%;'>","null","","","","","","","","","",""
"","html-keyboard-response","193","489967","0.0-10.0-2.1","qyw4d75s75","many_one","0","indirect_first","0","ia05nz21","0","18","1","1","3","1","-","0","1","0","null","","","<img src = 'targets/19.png' width = '100%;'>","null","","","","","","","","","",""
"","html-keyboard-response","194","490392","0.0-10.0-3.1","qyw4d75s75","many_one","0","indirect_first","0","ia05nz21","0","18","1","1","3","1","-","0","1","0","422.25499998312443","","","<img src = 'targets/mask.png' width = '100%;'>","68","neg","GS","GSold","3","category3/CS1.png","targets/19.png","0","indirect","25",""
"","html-keyboard-response","195","491911","0.0-10.0-0.2","qyw4d75s75","many_one","0","indirect_first","0","ia05nz21","0","18","1","1","3","1","-","0","1","0","null","","","<div style=""font-size:60px;"">+</div>","null","","","","","","","","","",""
"","html-keyboard-response","196","492008","0.0-10.0-1.2","qyw4d75s75","many_one","0","indirect_first","0","ia05nz21","0","18","1","1","3","1","-","0","1","0","null","","","<img src = 'category2/CS4.png' width = '100%;'>","null","","","","","","","","","",""
"","html-keyboard-response","197","492288","0.0-10.0-2.2","qyw4d75s75","many_one","0","indirect_first","0","ia05nz21","0","18","1","1","3","1","-","0","1","0","null","","","<img src = 'targets/46.png' width = '100%;'>","null","","","","","","","","","",""
"","html-keyboard-response","198","493012","0.0-10.0-3.2","qyw4d75s75","many_one","0","indirect_first","0","ia05nz21","0","18","1","1","3","1","-","0","1","0","721.2150000268593","","","<img src = 'targets/mask.png' width = '100%;'>","75","pos","GS","GSold","2","category2/CS4.png","targets/46.png","1","indirect","26",""
"","html-keyboard-response","199","494528","0.0-10.0-0.3","qyw4d75s75","many_one","0","indirect_first","0","ia05nz21","0","18","1","1","3","1","-","0","1","0","null","","","<div style=""font-size:60px;"">+</div>","null","","","","","","","","","",""
"","html-keyboard-response","200","494620","0.0-10.0-1.3","qyw4d75s75","many_one","0","indirect_first","0","ia05nz21","0","18","1","1","3","1","-","0","1","0","null","","","<img src = 'category1/GS3.png' width = '100%;'>","null","","","","","","","","","",""
"","html-keyboard-response","201","494888","0.0-10.0-2.3","qyw4d75s75","many_one","0","indirect_first","0","ia05nz21","0","18","1","1","3","1","-","0","1","0","null","","","<img src = 'targets/30.png' width = '100%;'>","null","","","","","","","","","",""
"","html-keyboard-response","202","495264","0.0-10.0-3.3","qyw4d75s75","many_one","0","indirect_first","0","ia05nz21","0","18","1","1","3","1","-","0","1","0","371.93999998271465","","","<img src = 'targets/mask.png' width = '100%;'>","68","pos","GS","GSnew","1","category1/GS3.png","targets/30.png","0","indirect","27",""
"","html-keyboard-response","203","496797","0.0-10.0-0.4","qyw4d75s75","many_one","0","indirect_first","0","ia05nz21","0","18","1","1","3","1","-","0","1","0","null","","","<div style=""font-size:60px;"">+</div>","null","","","","","","","","","",""
"","html-keyboard-response","204","496893","0.0-10.0-1.4","qyw4d75s75","many_one","0","indirect_first","0","ia05nz21","0","18","1","1","3","1","-","0","1","0","null","","","<img src = 'category3/CS10.png' width = '100%;'>","null","","","","","","","","","",""
"","html-keyboard-response","205","497173","0.0-10.0-2.4","qyw4d75s75","many_one","0","indirect_first","0","ia05nz21","0","18","1","1","3","1","-","0","1","0","null","","","<img src = 'targets/2.png' width = '100%;'>","null","","","","","","","","","",""
"","html-keyboard-response","206","497714","0.0-10.0-3.4","qyw4d75s75","many_one","0","indirect_first","0","ia05nz21","0","18","1","1","3","1","-","0","1","0","538.6500000022352","","","<img src = 'targets/mask.png' width = '100%;'>","75","neg","GS","GSold","3","category3/CS10.png","targets/2.png","1","indirect","28",""
"","html-keyboard-response","207","499241","0.0-10.0-0.5","qyw4d75s75","many_one","0","indirect_first","0","ia05nz21","0","18","1","1","3","1","-","0","1","0","null","","","<div style=""font-size:60px;"">+</div>","null","","","","","","","","","",""
"","html-keyboard-response","208","499344","0.0-10.0-1.5","qyw4d75s75","many_one","0","indirect_first","0","ia05nz21","0","18","1","1","3","1","-","0","1","0","null","","","<img src = 'category1/GS1.png' width = '100%;'>","null","","","","","","","","","",""
"","html-keyboard-response","209","499612","0.0-10.0-2.5","qyw4d75s75","many_one","0","indirect_first","0","ia05nz21","0","18","1","1","3","1","-","0","1","0","null","","","<img src = 'targets/3.png' width = '100%;'>","null","","","","","","","","","",""
"","html-keyboard-response","210","499650","0.0-10.0-3.5","qyw4d75s75","many_one","0","indirect_first","0","ia05nz21","0","18","1","1","3","1","-","0","1","0","35.779999976512045","","","<img src = 'targets/mask.png' width = '100%;'>","68","pos","GS","GSnew","1","category1/GS1.png","targets/3.png","0","indirect","29",""
"","html-keyboard-response","211","501179","0.0-10.0-0.6","qyw4d75s75","many_one","0","indirect_first","0","ia05nz21","0","18","1","1","3","1","-","0","1","0","null","","","<div style=""font-size:60px;"">+</div>","null","","","","","","","","","",""
"","html-keyboard-response","212","501272","0.0-10.0-1.6","qyw4d75s75","many_one","0","indirect_first","0","ia05nz21","0","18","1","1","3","1","-","0","1","0","null","","","<img src = 'category2/GS2.png' width = '100%;'>","null","","","","","","","","","",""
"","html-keyboard-response","213","501548","0.0-10.0-2.6","qyw4d75s75","many_one","0","indirect_first","0","ia05nz21","0","18","1","1","3","1","-","0","1","0","null","","","<img src = 'targets/28.png' width = '100%;'>","null","","","","","","","","","",""
"","html-keyboard-response","214","502091","0.0-10.0-3.6","qyw4d75s75","many_one","0","indirect_first","0","ia05nz21","0","18","1","1","3","1","-","0","1","0","541.4299999829382","","","<img src = 'targets/mask.png' width = '100%;'>","68","pos","GS","GSnew","2","category2/GS2.png","targets/28.png","0","indirect","30",""
"","html-keyboard-response","215","503608","0.0-10.0-0.7","qyw4d75s75","many_one","0","indirect_first","0","ia05nz21","0","18","1","1","3","1","-","0","1","0","null","","","<div style=""font-size:60px;"">+</div>","null","","","","","","","","","",""
"","html-keyboard-response","216","503704","0.0-10.0-1.7","qyw4d75s75","many_one","0","indirect_first","0","ia05nz21","0","18","1","1","3","1","-","0","1","0","null","","","<img src = 'category1/GS2.png' width = '100%;'>","null","","","","","","","","","",""
"","html-keyboard-response","217","503971","0.0-10.0-2.7","qyw4d75s75","many_one","0","indirect_first","0","ia05nz21","0","18","1","1","3","1","-","0","1","0","null","","","<img src = 'targets/36.png' width = '100%;'>","null","","","","","","","","","",""
"","html-keyboard-response","218","504304","0.0-10.0-3.7","qyw4d75s75","many_one","0","indirect_first","0","ia05nz21","0","18","1","1","3","1","-","0","1","0","330.92999999644235","","","<img src = 'targets/mask.png' width = '100%;'>","68","pos","GS","GSnew","1","category1/GS2.png","targets/36.png","0","indirect","31",""
"","html-keyboard-response","219","505823","0.0-10.0-0.8","qyw4d75s75","many_one","0","indirect_first","0","ia05nz21","0","18","1","1","3","1","-","0","1","0","null","","","<div style=""font-size:60px;"">+</div>","null","","","","","","","","","",""
"","html-keyboard-response","220","505916","0.0-10.0-1.8","qyw4d75s75","many_one","0","indirect_first","0","ia05nz21","0","18","1","1","3","1","-","0","1","0","null","","","<img src = 'category4/lin.png' width = '100%;'>","null","","","","","","","","","",""
"","html-keyboard-response","221","506186","0.0-10.0-2.8","qyw4d75s75","many_one","0","indirect_first","0","ia05nz21","0","18","1","1","3","1","-","0","1","0","null","","","<img src = 'targets/26.png' width = '100%;'>","null","","","","","","","","","",""
"","html-keyboard-response","222","506458","0.0-10.0-3.8","qyw4d75s75","many_one","0","indirect_first","0","ia05nz21","0","18","1","1","3","1","-","0","1","0","269.8349999845959","","","<img src = 'targets/mask.png' width = '100%;'>","75","neg","GS","abstract","4","category4/lin.png","targets/26.png","1","indirect","32",""
"","html-keyboard-response","223","507973","0.0-10.0-0.9","qyw4d75s75","many_one","0","indirect_first","0","ia05nz21","0","18","1","1","3","1","-","0","1","0","null","","","<div style=""font-size:60px;"">+</div>","null","","","","","","","","","",""
"","html-keyboard-response","224","508070","0.0-10.0-1.9","qyw4d75s75","many_one","0","indirect_first","0","ia05nz21","0","18","1","1","3","1","-","0","1","0","null","","","<img src = 'category1/CS4.png' width = '100%;'>","null","","","","","","","","","",""
"","html-keyboard-response","225","508341","0.0-10.0-2.9","qyw4d75s75","many_one","0","indirect_first","0","ia05nz21","0","18","1","1","3","1","-","0","1","0","null","","","<img src = 'targets/35.png' width = '100%;'>","null","","","","","","","","","",""
"","html-keyboard-response","226","508369","0.0-10.0-3.9","qyw4d75s75","many_one","0","indirect_first","0","ia05nz21","0","18","1","1","3","1","-","0","1","0","26.370000035967678","","","<img src = 'targets/mask.png' width = '100%;'>","68","pos","GS","GSold","1","category1/CS4.png","targets/35.png","0","indirect","33",""
"","html-keyboard-response","227","509890","0.0-10.0-0.10","qyw4d75s75","many_one","0","indirect_first","0","ia05nz21","0","18","1","1","3","1","-","0","1","0","null","","","<div style=""font-size:60px;"">+</div>","null","","","","","","","","","",""
"","html-keyboard-response","228","509981","0.0-10.0-1.10","qyw4d75s75","many_one","0","indirect_first","0","ia05nz21","0","18","1","1","3","1","-","0","1","0","null","","","<img src = 'category4/GS2.png' width = '100%;'>","null","","","","","","","","","",""
"","html-keyboard-response","229","510250","0.0-10.0-2.10","qyw4d75s75","many_one","0","indirect_first","0","ia05nz21","0","18","1","1","3","1","-","0","1","0","null","","","<img src = 'targets/31.png' width = '100%;'>","null","","","","","","","","","",""
"","html-keyboard-response","230","510436","0.0-10.0-3.10","qyw4d75s75","many_one","0","indirect_first","0","ia05nz21","0","18","1","1","3","1","-","0","1","0","185.17000001156703","","","<img src = 'targets/mask.png' width = '100%;'>","68","neg","GS","GSnew","4","category4/GS2.png","targets/31.png","0","indirect","34",""
"","html-keyboard-response","231","511947","0.0-10.0-0.11","qyw4d75s75","many_one","0","indirect_first","0","ia05nz21","0","18","1","1","3","1","-","0","1","0","null","","","<div style=""font-size:60px;"">+</div>","null","","","","","","","","","",""
"","html-keyboard-response","232","512040","0.0-10.0-1.11","qyw4d75s75","many_one","0","indirect_first","0","ia05nz21","0","18","1","1","3","1","-","0","1","0","null","","","<img src = 'category2/men.png' width = '100%;'>","null","","","","","","","","","",""
"","html-keyboard-response","233","512304","0.0-10.0-2.11","qyw4d75s75","many_one","0","indirect_first","0","ia05nz21","0","18","1","1","3","1","-","0","1","0","null","","","<img src = 'targets/16.png' width = '100%;'>","null","","","","","","","","","",""
"","html-keyboard-response","234","512430","0.0-10.0-3.11","qyw4d75s75","many_one","0","indirect_first","0","ia05nz21","0","18","1","1","3","1","-","0","1","0","125.16499997582287","","","<img src = 'targets/mask.png' width = '100%;'>","75","pos","GS","abstract","2","category2/men.png","targets/16.png","1","indirect","35",""
"","html-keyboard-response","235","513963","0.0-10.0-0.12","qyw4d75s75","many_one","0","indirect_first","0","ia05nz21","0","18","1","1","3","1","-","0","1","0","null","","","<div style=""font-size:60px;"">+</div>","null","","","","","","","","","",""
"","html-keyboard-response","236","514064","0.0-10.0-1.12","qyw4d75s75","many_one","0","indirect_first","0","ia05nz21","0","18","1","1","3","1","-","0","1","0","null","","","<img src = 'category1/CS9.png' width = '100%;'>","null","","","","","","","","","",""
"","html-keyboard-response","237","514335","0.0-10.0-2.12","qyw4d75s75","many_one","0","indirect_first","0","ia05nz21","0","18","1","1","3","1","-","0","1","0","null","","","<img src = 'targets/40.png' width = '100%;'>","null","","","","","","","","","",""
"","html-keyboard-response","238","514583","0.0-10.0-3.12","qyw4d75s75","many_one","0","indirect_first","0","ia05nz21","0","18","1","1","3","1","-","0","1","0","246.77000002702698","","","<img src = 'targets/mask.png' width = '100%;'>","68","pos","GS","GSold","1","category1/CS9.png","targets/40.png","0","indirect","36",""
"","html-keyboard-response","239","516104","0.0-10.0-0.13","qyw4d75s75","many_one","0","indirect_first","0","ia05nz21","0","18","1","1","3","1","-","0","1","0","null","","","<div style=""font-size:60px;"">+</div>","null","","","","","","","","","",""
"","html-keyboard-response","240","516210","0.0-10.0-1.13","qyw4d75s75","many_one","0","indirect_first","0","ia05nz21","0","18","1","1","3","1","-","0","1","0","null","","","<img src = 'category2/GS3.png' width = '100%;'>","null","","","","","","","","","",""
"","html-keyboard-response","241","516476","0.0-10.0-2.13","qyw4d75s75","many_one","0","indirect_first","0","ia05nz21","0","18","1","1","3","1","-","0","1","0","null","","","<img src = 'targets/10.png' width = '100%;'>","null","","","","","","","","","",""
"","html-keyboard-response","242","516496","0.0-10.0-3.13","qyw4d75s75","many_one","0","indirect_first","0","ia05nz21","0","18","1","1","3","1","-","0","1","0","17.285000008996576","","","<img src = 'targets/mask.png' width = '100%;'>","75","pos","GS","GSnew","2","category2/GS3.png","targets/10.png","1","indirect","37",""
"","html-keyboard-response","243","518026","0.0-10.0-0.14","qyw4d75s75","many_one","0","indirect_first","0","ia05nz21","0","18","1","1","3","1","-","0","1","0","null","","","<div style=""font-size:60px;"">+</div>","null","","","","","","","","","",""
"","html-keyboard-response","244","518118","0.0-10.0-1.14","qyw4d75s75","many_one","0","indirect_first","0","ia05nz21","0","18","1","1","3","1","-","0","1","0","null","","","<img src = 'category1/ma.png' width = '100%;'>","null","","","","","","","","","",""
"","html-keyboard-response","245","518379","0.0-10.0-2.14","qyw4d75s75","many_one","0","indirect_first","0","ia05nz21","0","18","1","1","3","1","-","0","1","0","null","","","<img src = 'targets/33.png' width = '100%;'>","null","","","","","","","","","",""
"","html-keyboard-response","246","519436","0.0-10.0-3.14","qyw4d75s75","many_one","0","indirect_first","0","ia05nz21","0","18","1","1","3","1","-","0","1","0","1054.6699999831617","","","<img src = 'targets/mask.png' width = '100%;'>","68","pos","GS","abstract","1","category1/ma.png","targets/33.png","0","indirect","38",""
"","html-keyboard-response","247","520956","0.0-10.0-0.15","qyw4d75s75","many_one","0","indirect_first","0","ia05nz21","0","18","1","1","3","1","-","0","1","0","null","","","<div style=""font-size:60px;"">+</div>","null","","","","","","","","","",""
"","html-keyboard-response","248","521056","0.0-10.0-1.15","qyw4d75s75","many_one","0","indirect_first","0","ia05nz21","0","18","1","1","3","1","-","0","1","0","null","","","<img src = 'category4/GS3.png' width = '100%;'>","null","","","","","","","","","",""
"","html-keyboard-response","249","521317","0.0-10.0-2.15","qyw4d75s75","many_one","0","indirect_first","0","ia05nz21","0","18","1","1","3","1","-","0","1","0","null","","","<img src = 'targets/4.png' width = '100%;'>","null","","","","","","","","","",""
"","html-keyboard-response","250","522514","0.0-10.0-3.15","qyw4d75s75","many_one","0","indirect_first","0","ia05nz21","0","18","1","1","3","1","-","0","1","0","1195.0500000384636","","","<img src = 'targets/mask.png' width = '100%;'>","75","neg","GS","GSnew","4","category4/GS3.png","targets/4.png","1","indirect","39",""
"","html-keyboard-response","251","524030","0.0-10.0-0.16","qyw4d75s75","many_one","0","indirect_first","0","ia05nz21","0","18","1","1","3","1","-","0","1","0","null","","","<div style=""font-size:60px;"">+</div>","null","","","","","","","","","",""
"","html-keyboard-response","252","524123","0.0-10.0-1.16","qyw4d75s75","many_one","0","indirect_first","0","ia05nz21","0","18","1","1","3","1","-","0","1","0","null","","","<img src = 'category1/CS6.png' width = '100%;'>","null","","","","","","","","","",""
"","html-keyboard-response","253","524391","0.0-10.0-2.16","qyw4d75s75","many_one","0","indirect_first","0","ia05nz21","0","18","1","1","3","1","-","0","1","0","null","","","<img src = 'targets/18.png' width = '100%;'>","null","","","","","","","","","",""
"","html-keyboard-response","254","526017","0.0-10.0-3.16","qyw4d75s75","many_one","0","indirect_first","0","ia05nz21","0","18","1","1","3","1","-","0","1","0","1623.5149999847636","","","<img src = 'targets/mask.png' width = '100%;'>","68","pos","GS","GSold","1","category1/CS6.png","targets/18.png","0","indirect","40",""
"","html-keyboard-response","255","527537","0.0-10.0-0.17","qyw4d75s75","many_one","0","indirect_first","0","ia05nz21","0","18","1","1","3","1","-","0","1","0","null","","","<div style=""font-size:60px;"">+</div>","null","","","","","","","","","",""
"","html-keyboard-response","256","527630","0.0-10.0-1.17","qyw4d75s75","many_one","0","indirect_first","0","ia05nz21","0","18","1","1","3","1","-","0","1","0","null","","","<img src = 'category4/GS1.png' width = '100%;'>","null","","","","","","","","","",""
"","html-keyboard-response","257","527890","0.0-10.0-2.17","qyw4d75s75","many_one","0","indirect_first","0","ia05nz21","0","18","1","1","3","1","-","0","1","0","null","","","<img src = 'targets/17.png' width = '100%;'>","null","","","","","","","","","",""
"","html-keyboard-response","258","528520","0.0-10.0-3.17","qyw4d75s75","many_one","0","indirect_first","0","ia05nz21","0","18","1","1","3","1","-","0","1","0","627.6500000385568","","","<img src = 'targets/mask.png' width = '100%;'>","68","neg","GS","GSnew","4","category4/GS1.png","targets/17.png","0","indirect","41",""
"","html-keyboard-response","259","530032","0.0-10.0-0.18","qyw4d75s75","many_one","0","indirect_first","0","ia05nz21","0","18","1","1","3","1","-","0","1","0","null","","","<div style=""font-size:60px;"">+</div>","null","","","","","","","","","",""
"","html-keyboard-response","260","530131","0.0-10.0-1.18","qyw4d75s75","many_one","0","indirect_first","0","ia05nz21","0","18","1","1","3","1","-","0","1","0","null","","","<img src = 'category3/CS9.png' width = '100%;'>","null","","","","","","","","","",""
"","html-keyboard-response","261","530403","0.0-10.0-2.18","qyw4d75s75","many_one","0","indirect_first","0","ia05nz21","0","18","1","1","3","1","-","0","1","0","null","","","<img src = 'targets/39.png' width = '100%;'>","null","","","","","","","","","",""
"","html-keyboard-response","262","531139","0.0-10.0-3.18","qyw4d75s75","many_one","0","indirect_first","0","ia05nz21","0","18","1","1","3","1","-","0","1","0","733.814999985043","","","<img src = 'targets/mask.png' width = '100%;'>","68","neg","GS","GSold","3","category3/CS9.png","targets/39.png","0","indirect","42",""
"","html-keyboard-response","263","532662","0.0-10.0-0.19","qyw4d75s75","many_one","0","indirect_first","0","ia05nz21","0","18","1","1","3","1","-","0","1","0","null","","","<div style=""font-size:60px;"">+</div>","null","","","","","","","","","",""
"","html-keyboard-response","264","532753","0.0-10.0-1.19","qyw4d75s75","many_one","0","indirect_first","0","ia05nz21","0","18","1","1","3","1","-","0","1","0","null","","","<img src = 'category3/wang.png' width = '100%;'>","null","","","","","","","","","",""
"","html-keyboard-response","265","533021","0.0-10.0-2.19","qyw4d75s75","many_one","0","indirect_first","0","ia05nz21","0","18","1","1","3","1","-","0","1","0","null","","","<img src = 'targets/9.png' width = '100%;'>","null","","","","","","","","","",""
"","html-keyboard-response","266","534165","0.0-10.0-3.19","qyw4d75s75","many_one","0","indirect_first","0","ia05nz21","0","18","1","1","3","1","-","0","1","0","1142.1749999863096","","","<img src = 'targets/mask.png' width = '100%;'>","68","neg","GS","abstract","3","category3/wang.png","targets/9.png","0","indirect","43",""
"","html-keyboard-response","267","535694","0.0-10.0-0.20","qyw4d75s75","many_one","0","indirect_first","0","ia05nz21","0","18","1","1","3","1","-","0","1","0","null","","","<div style=""font-size:60px;"">+</div>","null","","","","","","","","","",""
"","html-keyboard-response","268","535793","0.0-10.0-1.20","qyw4d75s75","many_one","0","indirect_first","0","ia05nz21","0","18","1","1","3","1","-","0","1","0","null","","","<img src = 'category2/GS1.png' width = '100%;'>","null","","","","","","","","","",""
"","html-keyboard-response","269","536063","0.0-10.0-2.20","qyw4d75s75","many_one","0","indirect_first","0","ia05nz21","0","18","1","1","3","1","-","0","1","0","null","","","<img src = 'targets/13.png' width = '100%;'>","null","","","","","","","","","",""
"","html-keyboard-response","270","537688","0.0-10.0-3.20","qyw4d75s75","many_one","0","indirect_first","0","ia05nz21","0","18","1","1","3","1","-","0","1","0","1623.6599999829195","","","<img src = 'targets/mask.png' width = '100%;'>","68","pos","GS","GSnew","2","category2/GS1.png","targets/13.png","0","indirect","44",""
"","html-keyboard-response","271","539207","0.0-10.0-0.21","qyw4d75s75","many_one","0","indirect_first","0","ia05nz21","0","18","1","1","3","1","-","0","1","0","null","","","<div style=""font-size:60px;"">+</div>","null","","","","","","","","","",""
"","html-keyboard-response","272","539299","0.0-10.0-1.21","qyw4d75s75","many_one","0","indirect_first","0","ia05nz21","0","18","1","1","3","1","-","0","1","0","null","","","<img src = 'category2/CS1.png' width = '100%;'>","null","","","","","","","","","",""
"","html-keyboard-response","273","539573","0.0-10.0-2.21","qyw4d75s75","many_one","0","indirect_first","0","ia05nz21","0","18","1","1","3","1","-","0","1","0","null","","","<img src = 'targets/15.png' width = '100%;'>","null","","","","","","","","","",""
"","html-keyboard-response","274","539705","0.0-10.0-3.21","qyw4d75s75","many_one","0","indirect_first","0","ia05nz21","0","18","1","1","3","1","-","0","1","0","128.9400000241585","","","<img src = 'targets/mask.png' width = '100%;'>","75","pos","GS","GSold","2","category2/CS1.png","targets/15.png","1","indirect","45",""
"","html-keyboard-response","275","541212","0.0-10.0-0.22","qyw4d75s75","many_one","0","indirect_first","0","ia05nz21","0","18","1","1","3","1","-","0","1","0","null","","","<div style=""font-size:60px;"">+</div>","null","","","","","","","","","",""
"","html-keyboard-response","276","541307","0.0-10.0-1.22","qyw4d75s75","many_one","0","indirect_first","0","ia05nz21","0","18","1","1","3","1","-","0","1","0","null","","","<img src = 'category3/GS1.png' width = '100%;'>","null","","","","","","","","","",""
"","html-keyboard-response","277","541561","0.0-10.0-2.22","qyw4d75s75","many_one","0","indirect_first","0","ia05nz21","0","18","1","1","3","1","-","0","1","0","null","","","<img src = 'targets/43.png' width = '100%;'>","null","","","","","","","","","",""
"","html-keyboard-response","278","541936","0.0-10.0-3.22","qyw4d75s75","many_one","0","indirect_first","0","ia05nz21","0","18","1","1","3","1","-","0","1","0","373.32999997306615","","","<img src = 'targets/mask.png' width = '100%;'>","75","neg","GS","GSnew","3","category3/GS1.png","targets/43.png","1","indirect","46",""
"","html-keyboard-response","279","543446","0.0-10.0-0.23","qyw4d75s75","many_one","0","indirect_first","0","ia05nz21","0","18","1","1","3","1","-","0","1","0","null","","","<div style=""font-size:60px;"">+</div>","null","","","","","","","","","",""
"","html-keyboard-response","280","543549","0.0-10.0-1.23","qyw4d75s75","many_one","0","indirect_first","0","ia05nz21","0","18","1","1","3","1","-","0","1","0","null","","","<img src = 'category3/GS3.png' width = '100%;'>","null","","","","","","","","","",""
"","html-keyboard-response","281","543816","0.0-10.0-2.23","qyw4d75s75","many_one","0","indirect_first","0","ia05nz21","0","18","1","1","3","1","-","0","1","0","null","","","<img src = 'targets/27.png' width = '100%;'>","null","","","","","","","","","",""
"","html-keyboard-response","282","545784","0.0-10.0-3.23","qyw4d75s75","many_one","0","indirect_first","0","ia05nz21","0","18","1","1","3","1","-","0","1","0","1965.8649999764748","","","<img src = 'targets/mask.png' width = '100%;'>","75","neg","GS","GSnew","3","category3/GS3.png","targets/27.png","1","indirect","47",""
"","survey-html-form","283","556486","0.0-11.0","qyw4d75s75","many_one","0","indirect_first","0","ia05nz21","0","18","1","1","3","1","-","0","1","0","10187.300000048708","","{}","","","","","","","","","","","",""
"","image-slider-response","284","563350","0.0-12.0-0.0","qyw4d75s75","many_one","0","indirect_first","0","ia05nz21","0","18","1","1","3","1","-","0","1","0","4858.299999963492","","","","","pos","CS","CS","1","category1/CS7.png","targets/37.png","","direct","","-39"
"","image-slider-response","285","565786","0.0-12.0-0.1","qyw4d75s75","many_one","0","indirect_first","0","ia05nz21","0","18","1","1","3","1","-","0","1","0","2433.5699999937788","","","","","neg","CS","CS","3","category3/CS4.png","targets/6.png","","direct","","-18"
"","image-slider-response","286","569941","0.0-12.0-0.2","qyw4d75s75","many_one","0","indirect_first","0","ia05nz21","0","18","1","1","3","1","-","0","1","0","4154.229999985546","","","","","pos","CS","CS","1","category1/CS2.png","targets/8.png","","direct","","12"
"","image-slider-response","287","572921","0.0-12.0-0.3","qyw4d75s75","many_one","0","indirect_first","0","ia05nz21","0","18","1","1","3","1","-","0","1","0","2977.6200000196695","","","","","neg","GS","GSnew","4","category4/GS1.png","targets/17.png","","direct","","98"
"","image-slider-response","288","577305","0.0-12.0-0.4","qyw4d75s75","many_one","0","indirect_first","0","ia05nz21","0","18","1","1","3","1","-","0","1","0","4382.05499999458","","","","","pos","GS","GSold","1","category1/CS6.png","targets/18.png","","direct","","13"
"","image-slider-response","289","580381","0.0-12.0-0.5","qyw4d75s75","many_one","0","indirect_first","0","ia05nz21","0","18","1","1","3","1","-","0","1","0","3074.06000001356","","","","","pos","CS","CS","2","category2/CS9.png","targets/42.png","","direct","","99"
"","image-slider-response","290","583193","0.0-12.0-0.6","qyw4d75s75","many_one","0","indirect_first","0","ia05nz21","0","18","1","1","3","1","-","0","1","0","2810.249999980442","","","","","pos","GS","GSold","2","category2/CS4.png","targets/46.png","","direct","","100"
"","image-slider-response","291","586261","0.0-12.0-0.7","qyw4d75s75","many_one","0","indirect_first","0","ia05nz21","0","18","1","1","3","1","-","0","1","0","3066.1199999740347","","","","","pos","GS","GSnew","2","category2/GS1.png","targets/13.png","","direct","","-24"
"","image-slider-response","292","588873","0.0-12.0-0.8","qyw4d75s75","many_one","0","indirect_first","0","ia05nz21","0","18","1","1","3","1","-","0","1","0","2610.3499999735504","","","","","neg","CS","CS","3","category3/CS7.png","targets/38.png","","direct","","-35"
"","image-slider-response","293","593181","0.0-12.0-0.9","qyw4d75s75","many_one","0","indirect_first","0","ia05nz21","0","18","1","1","3","1","-","0","1","0","4305.684999970254","","","","","pos","GS","GSold","1","category1/CS9.png","targets/40.png","","direct","","31"
"","image-slider-response","294","595457","0.0-12.0-0.10","qyw4d75s75","many_one","0","indirect_first","0","ia05nz21","0","18","1","1","3","1","-","0","1","0","2274.344999983441","","","","","pos","GS","GSold","2","category2/CS1.png","targets/15.png","","direct","","37"
"","image-slider-response","295","597893","0.0-12.0-0.11","qyw4d75s75","many_one","0","indirect_first","0","ia05nz21","0","18","1","1","3","1","-","0","1","0","2434.4700000365265","","","","","pos","GS","GSnew","2","category2/GS3.png","targets/10.png","","direct","","-6"
"","image-slider-response","296","600237","0.0-12.0-0.12","qyw4d75s75","many_one","0","indirect_first","0","ia05nz21","0","18","1","1","3","1","-","0","1","0","2341.755000001285","","","","","pos","CS","CS","2","category2/CS5.png","targets/25.png","","direct","","16"
"","image-slider-response","297","602177","0.0-12.0-0.13","qyw4d75s75","many_one","0","indirect_first","0","ia05nz21","0","18","1","1","3","1","-","0","1","0","1938.8899999903515","","","","","neg","CS","CS","4","category4/CS7.png","targets/21.png","","direct","","14"
"","image-slider-response","298","604917","0.0-12.0-0.14","qyw4d75s75","many_one","0","indirect_first","0","ia05nz21","0","18","1","1","3","1","-","0","1","0","2738.5900000226684","","","","","neg","GS","GSnew","3","category3/GS2.png","targets/48.png","","direct","","33"
"","image-slider-response","299","606341","0.0-12.0-0.15","qyw4d75s75","many_one","0","indirect_first","0","ia05nz21","0","18","1","1","3","1","-","0","1","0","1422.0799999893643","","","","","pos","GS","GSold","2","category2/CS7.png","targets/7.png","","direct","","40"
"","image-slider-response","300","608610","0.0-12.0-0.16","qyw4d75s75","many_one","0","indirect_first","0","ia05nz21","0","18","1","1","3","1","-","0","1","0","2266.1800000350922","","","","","neg","GS","GSnew","3","category3/GS1.png","targets/43.png","","direct","","37"
"","image-slider-response","301","610437","0.0-12.0-0.17","qyw4d75s75","many_one","0","indirect_first","0","ia05nz21","0","18","1","1","3","1","-","0","1","0","1825.4350000061095","","","","","pos","CS","CS","2","category2/CS8.png","targets/14.png","","direct","","36"
"","image-slider-response","302","611989","0.0-12.0-0.18","qyw4d75s75","many_one","0","indirect_first","0","ia05nz21","0","18","1","1","3","1","-","0","1","0","1550.504999991972","","","","","pos","CS","CS","1","category1/CS5.png","targets/34.png","","direct","","29"
"","image-slider-response","303","614217","0.0-12.0-0.19","qyw4d75s75","many_one","0","indirect_first","0","ia05nz21","0","18","1","1","3","1","-","0","1","0","2226.2200000113808","","","","","pos","GS","GSnew","1","category1/GS2.png","targets/36.png","","direct","","27"
"","image-slider-response","304","618613","0.0-12.0-0.20","qyw4d75s75","many_one","0","indirect_first","0","ia05nz21","0","18","1","1","3","1","-","0","1","0","4394.399999990128","","","","","pos","GS","GSold","1","category1/CS4.png","targets/35.png","","direct","","45"
"","image-slider-response","305","620537","0.0-12.0-0.21","qyw4d75s75","many_one","0","indirect_first","0","ia05nz21","0","18","1","1","3","1","-","0","1","0","1922.0250000362284","","","","","neg","GS","GSold","4","category4/CS10.png","targets/47.png","","direct","","39"
"","image-slider-response","306","624061","0.0-12.0-0.22","qyw4d75s75","many_one","0","indirect_first","0","ia05nz21","0","18","1","1","3","1","-","0","1","0","3522.705000010319","","","","","pos","GS","GSnew","1","category1/GS3.png","targets/30.png","","direct","","-16"
"","image-slider-response","307","629382","0.0-12.0-0.23","qyw4d75s75","many_one","0","indirect_first","0","ia05nz21","0","18","1","1","3","1","-","0","1","0","5318.260000029113","","","","","pos","CS","CS","1","category1/CS10.png","targets/1.png","","direct","","84"
"","image-slider-response","308","631611","0.0-12.0-0.24","qyw4d75s75","many_one","0","indirect_first","0","ia05nz21","0","18","1","1","3","1","-","0","1","0","2226.6599999857135","","","","","pos","GS","abstract","2","category2/men.png","targets/16.png","","direct","","87"
"","image-slider-response","309","633998","0.0-12.0-0.25","qyw4d75s75","many_one","0","indirect_first","0","ia05nz21","0","18","1","1","3","1","-","0","1","0","2385.954999946989","","","","","neg","CS","CS","3","category3/CS6.png","targets/29.png","","direct","","-14"
"","image-slider-response","310","636270","0.0-12.0-0.26","qyw4d75s75","many_one","0","indirect_first","0","ia05nz21","0","18","1","1","3","1","-","0","1","0","2270.3899999614805","","","","","neg","CS","CS","3","category3/CS8.png","targets/23.png","","direct","","-43"
"","image-slider-response","311","639058","0.0-12.0-0.27","qyw4d75s75","many_one","0","indirect_first","0","ia05nz21","0","18","1","1","3","1","-","0","1","0","2786.6200000280514","","","","","neg","GS","abstract","4","category4/lin.png","targets/26.png","","direct","","51"
"","image-slider-response","312","642686","0.0-12.0-0.28","qyw4d75s75","many_one","0","indirect_first","0","ia05nz21","0","18","1","1","3","1","-","0","1","0","3625.4249999765307","","","","","neg","CS","CS","3","category3/CS5.png","targets/32.png","","direct","","-71"
"","image-slider-response","313","644802","0.0-12.0-0.29","qyw4d75s75","many_one","0","indirect_first","0","ia05nz21","0","18","1","1","3","1","-","0","1","0","2114.724999992177","","","","","pos","GS","GSnew","1","category1/GS1.png","targets/3.png","","direct","","36"
"","image-slider-response","314","647558","0.0-12.0-0.30","qyw4d75s75","many_one","0","indirect_first","0","ia05nz21","0","18","1","1","3","1","-","0","1","0","2754.529999976512","","","","","neg","GS","GSnew","4","category4/GS2.png","targets/31.png","","direct","","97"
"","image-slider-response","315","649946","0.0-12.0-0.31","qyw4d75s75","many_one","0","indirect_first","0","ia05nz21","0","18","1","1","3","1","-","0","1","0","2386.324999970384","","","","","pos","GS","abstract","1","category1/ma.png","targets/33.png","","direct","","16"
"","image-slider-response","316","651866","0.0-12.0-0.32","qyw4d75s75","many_one","0","indirect_first","0","ia05nz21","0","18","1","1","3","1","-","0","1","0","1918.1249999674037","","","","","neg","GS","GSnew","4","category4/GS3.png","targets/4.png","","direct","","65"
"","image-slider-response","317","654126","0.0-12.0-0.33","qyw4d75s75","many_one","0","indirect_first","0","ia05nz21","0","18","1","1","3","1","-","0","1","0","2258.574999985285","","","","","neg","CS","CS","4","category4/CS9.png","targets/24.png","","direct","","53"
"","image-slider-response","318","656098","0.0-12.0-0.34","qyw4d75s75","many_one","0","indirect_first","0","ia05nz21","0","18","1","1","3","1","-","0","1","0","1970.6049999804236","","","","","neg","CS","CS","4","category4/CS6.png","targets/5.png","","direct","","55"
"","image-slider-response","319","658198","0.0-12.0-0.35","qyw4d75s75","many_one","0","indirect_first","0","ia05nz21","0","18","1","1","3","1","-","0","1","0","2098.904999962542","","","","","pos","CS","CS","1","category1/CS3.png","targets/41.png","","direct","","74"
"","image-slider-response","320","660550","0.0-12.0-0.36","qyw4d75s75","many_one","0","indirect_first","0","ia05nz21","0","18","1","1","3","1","-","0","1","0","2350.1300000352785","","","","","neg","GS","GSnew","3","category3/GS3.png","targets/27.png","","direct","","-56"
"","image-slider-response","321","663722","0.0-12.0-0.37","qyw4d75s75","many_one","0","indirect_first","0","ia05nz21","0","18","1","1","3","1","-","0","1","0","3170.364999969024","","","","","neg","GS","GSold","4","category4/CS8.png","targets/11.png","","direct","","-48"
"","image-slider-response","322","665566","0.0-12.0-0.38","qyw4d75s75","many_one","0","indirect_first","0","ia05nz21","0","18","1","1","3","1","-","0","1","0","1842.319999996107","","","","","pos","CS","CS","2","category2/CS3.png","targets/45.png","","direct","","61"
"","image-slider-response","323","667586","0.0-12.0-0.39","qyw4d75s75","many_one","0","indirect_first","0","ia05nz21","0","18","1","1","3","1","-","0","1","0","2018.210000009276","","","","","pos","CS","CS","2","category2/CS6.png","targets/44.png","","direct","","78"
