"success","trial_type","trial_index","time_elapsed","internal_node_id","subject","condition","condition_code","measure","measure_code","codeword","gender","age","education","chinese","fach","handedness","comment","hinschauen","ablenkung","gewissenhaft","rt","url","responses","stimulus","key_press","val","type","type_specific","category","cs_selected","response","target","task","indirect","nr_pres"
"true","fullscreen","0","2839","0.0-0.0","p1hk1efaj6","many_one","0","direct_first","1","er09ut07","0","22","1","1","3","1","","0","1","0","","","","","","","","","","","","","","",""
"","external-html","1","30953","0.0-1.0","p1hk1efaj6","many_one","0","direct_first","1","er09ut07","0","22","1","1","3","1","","0","1","0","28059","text/information.html","","","","","","","","","","","","",""
"","external-html","2","43692","0.0-2.0","p1hk1efaj6","many_one","0","direct_first","1","er09ut07","0","22","1","1","3","1","","0","1","0","12653","text/consent.html","","","","","","","","","","","","",""
"","survey-html-form","3","116857","0.0-3.0","p1hk1efaj6","many_one","0","direct_first","1","er09ut07","0","22","1","1","3","1","","0","1","0","73161","","{""codeword_enter"":""er09ut07""}","","","","","","","","","","","",""
"","survey-html-form","4","134528","0.0-4.0","p1hk1efaj6","many_one","0","direct_first","1","er09ut07","0","22","1","1","3","1","","0","1","0","17666","","{""age"":""22"",""education"":""1"",""subject"":""3"",""gender"":""0"",""handedness"":""1"",""chinese"":""1""}","","","","","","","","","","","",""
"","survey-html-form","5","146699","0.0-5.0","p1hk1efaj6","many_one","0","direct_first","1","er09ut07","0","22","1","1","3","1","","0","1","0","12169","","{}","","","","","","","","","","","",""
"","html-keyboard-response","6","150720","0.0-6.0-0.0-0.0","p1hk1efaj6","many_one","0","direct_first","1","er09ut07","0","22","1","1","3","1","","0","1","0","null","","","<div class = 'row'><div class = 'column'><img src = 'uspos/2057.bmp' width = '100%;'></div><div class = 'column'><img src = 'category3/CS7.png' width = '70%;'></div></div>","null","pos","CS","CS","3","category3/CS7.png","","","","",""
"","html-keyboard-response","7","153240","0.0-6.0-0.0-0.1","p1hk1efaj6","many_one","0","direct_first","1","er09ut07","0","22","1","1","3","1","","0","1","0","null","","","<div class = 'row'><div class = 'column'><img src = 'uspos/8540.bmp' width = '100%;'></div><div class = 'column'><img src = 'category2/CS10.png' width = '70%;'></div></div>","null","pos","CS","CS","2","category2/CS10.png","","","","",""
"","html-keyboard-response","8","155770","0.0-6.0-0.0-0.2","p1hk1efaj6","many_one","0","direct_first","1","er09ut07","0","22","1","1","3","1","","0","1","0","null","","","<div class = 'row'><div class = 'column'><img src = 'uspos/2900.2.bmp' width = '100%;'></div><div class = 'column'><img src = 'category2/CS8.png' width = '70%;'></div></div>","null","pos","CS","CS","2","category2/CS8.png","","","","",""
"","html-keyboard-response","9","158300","0.0-6.0-0.0-0.3","p1hk1efaj6","many_one","0","direct_first","1","er09ut07","0","22","1","1","3","1","","0","1","0","null","","","<div class = 'row'><div class = 'column'><img src = 'uspos/2340.bmp' width = '100%;'></div><div class = 'column'><img src = 'category3/CS2.png' width = '70%;'></div></div>","null","pos","CS","CS","3","category3/CS2.png","","","","",""
"","html-keyboard-response","10","160810","0.0-6.0-0.0-0.4","p1hk1efaj6","many_one","0","direct_first","1","er09ut07","0","22","1","1","3","1","","0","1","0","null","","","<div class = 'row'><div class = 'column'><img src = 'category1/CS3.png' width = '70%;'></div><div class = 'column'><img src = 'usneg/1280.bmp' width = '100%;'></div></div>","null","neg","CS","CS","1","category1/CS3.png","","","","",""
"","html-keyboard-response","11","163340","0.0-6.0-0.0-0.5","p1hk1efaj6","many_one","0","direct_first","1","er09ut07","0","22","1","1","3","1","","0","1","0","null","","","<div class = 'row'><div class = 'column'><img src = 'usneg/2205.bmp' width = '100%;'></div><div class = 'column'><img src = 'category1/CS5.png' width = '70%;'></div></div>","null","neg","CS","CS","1","category1/CS5.png","","","","",""
"","html-keyboard-response","12","165870","0.0-6.0-0.0-0.6","p1hk1efaj6","many_one","0","direct_first","1","er09ut07","0","22","1","1","3","1","","0","1","0","null","","","<div class = 'row'><div class = 'column'><img src = 'uspos/5760.bmp' width = '100%;'></div><div class = 'column'><img src = 'category2/CS1.png' width = '70%;'></div></div>","null","pos","CS","CS","2","category2/CS1.png","","","","",""
"","html-keyboard-response","13","168410","0.0-6.0-0.0-0.7","p1hk1efaj6","many_one","0","direct_first","1","er09ut07","0","22","1","1","3","1","","0","1","0","null","","","<div class = 'row'><div class = 'column'><img src = 'usneg/9561.bmp' width = '100%;'></div><div class = 'column'><img src = 'category1/CS6.png' width = '70%;'></div></div>","null","neg","CS","CS","1","category1/CS6.png","","","","",""
"","html-keyboard-response","14","170950","0.0-6.0-0.0-0.8","p1hk1efaj6","many_one","0","direct_first","1","er09ut07","0","22","1","1","3","1","","0","1","0","null","","","<div class = 'row'><div class = 'column'><img src = 'uspos/2360.bmp' width = '100%;'></div><div class = 'column'><img src = 'category2/CS2.png' width = '70%;'></div></div>","null","pos","CS","CS","2","category2/CS2.png","","","","",""
"","html-keyboard-response","15","173480","0.0-6.0-0.0-0.9","p1hk1efaj6","many_one","0","direct_first","1","er09ut07","0","22","1","1","3","1","","0","1","0","null","","","<div class = 'row'><div class = 'column'><img src = 'usneg/9520.bmp' width = '100%;'></div><div class = 'column'><img src = 'category1/CS7.png' width = '70%;'></div></div>","null","neg","CS","CS","1","category1/CS7.png","","","","",""
"","html-keyboard-response","16","176010","0.0-6.0-0.0-0.10","p1hk1efaj6","many_one","0","direct_first","1","er09ut07","0","22","1","1","3","1","","0","1","0","null","","","<div class = 'row'><div class = 'column'><img src = 'category3/CS6.png' width = '70%;'></div><div class = 'column'><img src = 'uspos/1710.bmp' width = '100%;'></div></div>","null","pos","CS","CS","3","category3/CS6.png","","","","",""
"","html-keyboard-response","17","178540","0.0-6.0-0.0-0.11","p1hk1efaj6","many_one","0","direct_first","1","er09ut07","0","22","1","1","3","1","","0","1","0","null","","","<div class = 'row'><div class = 'column'><img src = 'usneg/9342.bmp' width = '100%;'></div><div class = 'column'><img src = 'category4/CS3.png' width = '70%;'></div></div>","null","neg","CS","CS","4","category4/CS3.png","","","","",""
"","html-keyboard-response","18","181070","0.0-6.0-0.0-0.12","p1hk1efaj6","many_one","0","direct_first","1","er09ut07","0","22","1","1","3","1","","0","1","0","null","","","<div class = 'row'><div class = 'column'><img src = 'category4/CS6.png' width = '70%;'></div><div class = 'column'><img src = 'usneg/9041.bmp' width = '100%;'></div></div>","null","neg","CS","CS","4","category4/CS6.png","","","","",""
"","html-keyboard-response","19","183610","0.0-6.0-0.0-0.13","p1hk1efaj6","many_one","0","direct_first","1","er09ut07","0","22","1","1","3","1","","0","1","0","null","","","<div class = 'row'><div class = 'column'><img src = 'uspos/5600.bmp' width = '100%;'></div><div class = 'column'><img src = 'category3/CS8.png' width = '70%;'></div></div>","null","pos","CS","CS","3","category3/CS8.png","","","","",""
"","html-keyboard-response","20","186149","0.0-6.0-0.0-0.14","p1hk1efaj6","many_one","0","direct_first","1","er09ut07","0","22","1","1","3","1","","0","1","0","null","","","<div class = 'row'><div class = 'column'><img src = 'category4/CS7.png' width = '70%;'></div><div class = 'column'><img src = 'usneg/2750.bmp' width = '100%;'></div></div>","null","neg","CS","CS","4","category4/CS7.png","","","","",""
"","html-keyboard-response","21","188690","0.0-6.0-0.0-0.15","p1hk1efaj6","many_one","0","direct_first","1","er09ut07","0","22","1","1","3","1","","0","1","0","null","","","<div class = 'row'><div class = 'column'><img src = 'usneg/9330.bmp' width = '100%;'></div><div class = 'column'><img src = 'category4/CS8.png' width = '70%;'></div></div>","null","neg","CS","CS","4","category4/CS8.png","","","","",""
"","html-keyboard-response","22","191220","0.0-6.0-0.0-0.16","p1hk1efaj6","many_one","0","direct_first","1","er09ut07","0","22","1","1","3","1","","0","1","0","null","","","<div class = 'row'><div class = 'column'><img src = 'usneg/9584.bmp' width = '100%;'></div><div class = 'column'><img src = 'category1/CS9.png' width = '70%;'></div></div>","null","neg","CS","CS","1","category1/CS9.png","","","","",""
"","html-keyboard-response","23","193749","0.0-6.0-0.0-0.17","p1hk1efaj6","many_one","0","direct_first","1","er09ut07","0","22","1","1","3","1","","0","1","0","null","","","<div class = 'row'><div class = 'column'><img src = 'category2/CS7.png' width = '70%;'></div><div class = 'column'><img src = 'uspos/5700.bmp' width = '100%;'></div></div>","null","pos","CS","CS","2","category2/CS7.png","","","","",""
"","html-keyboard-response","24","196281","0.0-6.0-0.0-0.18","p1hk1efaj6","many_one","0","direct_first","1","er09ut07","0","22","1","1","3","1","","0","1","0","null","","","<div class = 'row'><div class = 'column'><img src = 'uspos/8190.bmp' width = '100%;'></div><div class = 'column'><img src = 'category3/CS10.png' width = '70%;'></div></div>","null","pos","CS","CS","3","category3/CS10.png","","","","",""
"","html-keyboard-response","25","198805","0.0-6.0-0.0-0.19","p1hk1efaj6","many_one","0","direct_first","1","er09ut07","0","22","1","1","3","1","","0","1","0","null","","","<div class = 'row'><div class = 'column'><img src = 'category4/CS1.png' width = '70%;'></div><div class = 'column'><img src = 'usneg/9180.bmp' width = '100%;'></div></div>","null","neg","CS","CS","4","category4/CS1.png","","","","",""
"","survey-html-form","26","204454","0.0-6.0-1.0","p1hk1efaj6","many_one","0","direct_first","1","er09ut07","0","22","1","1","3","1","","0","1","0","5134","","{}","","","","","","","","","","","",""
"","html-keyboard-response","27","208480","0.0-6.0-2.0-0.0","p1hk1efaj6","many_one","0","direct_first","1","er09ut07","0","22","1","1","3","1","","0","1","0","null","","","<div class = 'row'><div class = 'column'><img src = 'category4/CS7.png' width = '70%;'></div><div class = 'column'><img src = 'usneg/2750.bmp' width = '100%;'></div></div>","null","neg","CS","CS","4","category4/CS7.png","","","","",""
"","html-keyboard-response","28","211020","0.0-6.0-2.0-0.1","p1hk1efaj6","many_one","0","direct_first","1","er09ut07","0","22","1","1","3","1","","0","1","0","null","","","<div class = 'row'><div class = 'column'><img src = 'usneg/2205.bmp' width = '100%;'></div><div class = 'column'><img src = 'category1/CS5.png' width = '70%;'></div></div>","null","neg","CS","CS","1","category1/CS5.png","","","","",""
"","html-keyboard-response","29","213560","0.0-6.0-2.0-0.2","p1hk1efaj6","many_one","0","direct_first","1","er09ut07","0","22","1","1","3","1","","0","1","0","null","","","<div class = 'row'><div class = 'column'><img src = 'category3/CS6.png' width = '70%;'></div><div class = 'column'><img src = 'uspos/1710.bmp' width = '100%;'></div></div>","null","pos","CS","CS","3","category3/CS6.png","","","","",""
"","html-keyboard-response","30","216091","0.0-6.0-2.0-0.3","p1hk1efaj6","many_one","0","direct_first","1","er09ut07","0","22","1","1","3","1","","0","1","0","null","","","<div class = 'row'><div class = 'column'><img src = 'uspos/5760.bmp' width = '100%;'></div><div class = 'column'><img src = 'category2/CS1.png' width = '70%;'></div></div>","null","pos","CS","CS","2","category2/CS1.png","","","","",""
"","html-keyboard-response","31","218630","0.0-6.0-2.0-0.4","p1hk1efaj6","many_one","0","direct_first","1","er09ut07","0","22","1","1","3","1","","0","1","0","null","","","<div class = 'row'><div class = 'column'><img src = 'category3/CS10.png' width = '70%;'></div><div class = 'column'><img src = 'uspos/8190.bmp' width = '100%;'></div></div>","null","pos","CS","CS","3","category3/CS10.png","","","","",""
"","html-keyboard-response","32","221160","0.0-6.0-2.0-0.5","p1hk1efaj6","many_one","0","direct_first","1","er09ut07","0","22","1","1","3","1","","0","1","0","null","","","<div class = 'row'><div class = 'column'><img src = 'category1/CS3.png' width = '70%;'></div><div class = 'column'><img src = 'usneg/1280.bmp' width = '100%;'></div></div>","null","neg","CS","CS","1","category1/CS3.png","","","","",""
"","html-keyboard-response","33","223690","0.0-6.0-2.0-0.6","p1hk1efaj6","many_one","0","direct_first","1","er09ut07","0","22","1","1","3","1","","0","1","0","null","","","<div class = 'row'><div class = 'column'><img src = 'uspos/5700.bmp' width = '100%;'></div><div class = 'column'><img src = 'category2/CS7.png' width = '70%;'></div></div>","null","pos","CS","CS","2","category2/CS7.png","","","","",""
"","html-keyboard-response","34","226207","0.0-6.0-2.0-0.7","p1hk1efaj6","many_one","0","direct_first","1","er09ut07","0","22","1","1","3","1","","0","1","0","null","","","<div class = 'row'><div class = 'column'><img src = 'category2/CS10.png' width = '70%;'></div><div class = 'column'><img src = 'uspos/8540.bmp' width = '100%;'></div></div>","null","pos","CS","CS","2","category2/CS10.png","","","","",""
"","html-keyboard-response","35","228750","0.0-6.0-2.0-0.8","p1hk1efaj6","many_one","0","direct_first","1","er09ut07","0","22","1","1","3","1","","0","1","0","null","","","<div class = 'row'><div class = 'column'><img src = 'uspos/2340.bmp' width = '100%;'></div><div class = 'column'><img src = 'category3/CS2.png' width = '70%;'></div></div>","null","pos","CS","CS","3","category3/CS2.png","","","","",""
"","html-keyboard-response","36","231280","0.0-6.0-2.0-0.9","p1hk1efaj6","many_one","0","direct_first","1","er09ut07","0","22","1","1","3","1","","0","1","0","null","","","<div class = 'row'><div class = 'column'><img src = 'usneg/9561.bmp' width = '100%;'></div><div class = 'column'><img src = 'category1/CS6.png' width = '70%;'></div></div>","null","neg","CS","CS","1","category1/CS6.png","","","","",""
"","html-keyboard-response","37","233800","0.0-6.0-2.0-0.10","p1hk1efaj6","many_one","0","direct_first","1","er09ut07","0","22","1","1","3","1","","0","1","0","null","","","<div class = 'row'><div class = 'column'><img src = 'category4/CS8.png' width = '70%;'></div><div class = 'column'><img src = 'usneg/9330.bmp' width = '100%;'></div></div>","null","neg","CS","CS","4","category4/CS8.png","","","","",""
"","html-keyboard-response","38","236330","0.0-6.0-2.0-0.11","p1hk1efaj6","many_one","0","direct_first","1","er09ut07","0","22","1","1","3","1","","0","1","0","null","","","<div class = 'row'><div class = 'column'><img src = 'usneg/9041.bmp' width = '100%;'></div><div class = 'column'><img src = 'category4/CS6.png' width = '70%;'></div></div>","null","neg","CS","CS","4","category4/CS6.png","","","","",""
"","html-keyboard-response","39","238871","0.0-6.0-2.0-0.12","p1hk1efaj6","many_one","0","direct_first","1","er09ut07","0","22","1","1","3","1","","0","1","0","null","","","<div class = 'row'><div class = 'column'><img src = 'category4/CS1.png' width = '70%;'></div><div class = 'column'><img src = 'usneg/9180.bmp' width = '100%;'></div></div>","null","neg","CS","CS","4","category4/CS1.png","","","","",""
"","html-keyboard-response","40","241400","0.0-6.0-2.0-0.13","p1hk1efaj6","many_one","0","direct_first","1","er09ut07","0","22","1","1","3","1","","0","1","0","null","","","<div class = 'row'><div class = 'column'><img src = 'uspos/2057.bmp' width = '100%;'></div><div class = 'column'><img src = 'category3/CS7.png' width = '70%;'></div></div>","null","pos","CS","CS","3","category3/CS7.png","","","","",""
"","html-keyboard-response","41","243920","0.0-6.0-2.0-0.14","p1hk1efaj6","many_one","0","direct_first","1","er09ut07","0","22","1","1","3","1","","0","1","0","null","","","<div class = 'row'><div class = 'column'><img src = 'uspos/2900.2.bmp' width = '100%;'></div><div class = 'column'><img src = 'category2/CS8.png' width = '70%;'></div></div>","null","pos","CS","CS","2","category2/CS8.png","","","","",""
"","html-keyboard-response","42","246450","0.0-6.0-2.0-0.15","p1hk1efaj6","many_one","0","direct_first","1","er09ut07","0","22","1","1","3","1","","0","1","0","null","","","<div class = 'row'><div class = 'column'><img src = 'category2/CS2.png' width = '70%;'></div><div class = 'column'><img src = 'uspos/2360.bmp' width = '100%;'></div></div>","null","pos","CS","CS","2","category2/CS2.png","","","","",""
"","html-keyboard-response","43","248971","0.0-6.0-2.0-0.16","p1hk1efaj6","many_one","0","direct_first","1","er09ut07","0","22","1","1","3","1","","0","1","0","null","","","<div class = 'row'><div class = 'column'><img src = 'usneg/9584.bmp' width = '100%;'></div><div class = 'column'><img src = 'category1/CS9.png' width = '70%;'></div></div>","null","neg","CS","CS","1","category1/CS9.png","","","","",""
"","html-keyboard-response","44","251505","0.0-6.0-2.0-0.17","p1hk1efaj6","many_one","0","direct_first","1","er09ut07","0","22","1","1","3","1","","0","1","0","null","","","<div class = 'row'><div class = 'column'><img src = 'category1/CS7.png' width = '70%;'></div><div class = 'column'><img src = 'usneg/9520.bmp' width = '100%;'></div></div>","null","neg","CS","CS","1","category1/CS7.png","","","","",""
"","html-keyboard-response","45","254040","0.0-6.0-2.0-0.18","p1hk1efaj6","many_one","0","direct_first","1","er09ut07","0","22","1","1","3","1","","0","1","0","null","","","<div class = 'row'><div class = 'column'><img src = 'uspos/5600.bmp' width = '100%;'></div><div class = 'column'><img src = 'category3/CS8.png' width = '70%;'></div></div>","null","pos","CS","CS","3","category3/CS8.png","","","","",""
"","html-keyboard-response","46","256570","0.0-6.0-2.0-0.19","p1hk1efaj6","many_one","0","direct_first","1","er09ut07","0","22","1","1","3","1","","0","1","0","null","","","<div class = 'row'><div class = 'column'><img src = 'category4/CS3.png' width = '70%;'></div><div class = 'column'><img src = 'usneg/9342.bmp' width = '100%;'></div></div>","null","neg","CS","CS","4","category4/CS3.png","","","","",""
"","survey-html-form","47","262453","0.0-6.0-3.0","p1hk1efaj6","many_one","0","direct_first","1","er09ut07","0","22","1","1","3","1","","0","1","0","5363","","{}","","","","","","","","","","","",""
"","html-keyboard-response","48","266480","0.0-6.0-4.0-0.0","p1hk1efaj6","many_one","0","direct_first","1","er09ut07","0","22","1","1","3","1","","0","1","0","null","","","<div class = 'row'><div class = 'column'><img src = 'uspos/2057.bmp' width = '100%;'></div><div class = 'column'><img src = 'category3/CS7.png' width = '70%;'></div></div>","null","pos","CS","CS","3","category3/CS7.png","","","","",""
"","html-keyboard-response","49","269010","0.0-6.0-4.0-0.1","p1hk1efaj6","many_one","0","direct_first","1","er09ut07","0","22","1","1","3","1","","0","1","0","null","","","<div class = 'row'><div class = 'column'><img src = 'category2/CS2.png' width = '70%;'></div><div class = 'column'><img src = 'uspos/2360.bmp' width = '100%;'></div></div>","null","pos","CS","CS","2","category2/CS2.png","","","","",""
"","html-keyboard-response","50","271541","0.0-6.0-4.0-0.2","p1hk1efaj6","many_one","0","direct_first","1","er09ut07","0","22","1","1","3","1","","0","1","0","null","","","<div class = 'row'><div class = 'column'><img src = 'category1/CS7.png' width = '70%;'></div><div class = 'column'><img src = 'usneg/9520.bmp' width = '100%;'></div></div>","null","neg","CS","CS","1","category1/CS7.png","","","","",""
"","html-keyboard-response","51","274070","0.0-6.0-4.0-0.3","p1hk1efaj6","many_one","0","direct_first","1","er09ut07","0","22","1","1","3","1","","0","1","0","null","","","<div class = 'row'><div class = 'column'><img src = 'category1/CS6.png' width = '70%;'></div><div class = 'column'><img src = 'usneg/9561.bmp' width = '100%;'></div></div>","null","neg","CS","CS","1","category1/CS6.png","","","","",""
"","html-keyboard-response","52","276601","0.0-6.0-4.0-0.4","p1hk1efaj6","many_one","0","direct_first","1","er09ut07","0","22","1","1","3","1","","0","1","0","null","","","<div class = 'row'><div class = 'column'><img src = 'category4/CS3.png' width = '70%;'></div><div class = 'column'><img src = 'usneg/9342.bmp' width = '100%;'></div></div>","null","neg","CS","CS","4","category4/CS3.png","","","","",""
"","html-keyboard-response","53","279130","0.0-6.0-4.0-0.5","p1hk1efaj6","many_one","0","direct_first","1","er09ut07","0","22","1","1","3","1","","0","1","0","null","","","<div class = 'row'><div class = 'column'><img src = 'category3/CS10.png' width = '70%;'></div><div class = 'column'><img src = 'uspos/8190.bmp' width = '100%;'></div></div>","null","pos","CS","CS","3","category3/CS10.png","","","","",""
"","html-keyboard-response","54","281661","0.0-6.0-4.0-0.6","p1hk1efaj6","many_one","0","direct_first","1","er09ut07","0","22","1","1","3","1","","0","1","0","null","","","<div class = 'row'><div class = 'column'><img src = 'uspos/5760.bmp' width = '100%;'></div><div class = 'column'><img src = 'category2/CS1.png' width = '70%;'></div></div>","null","pos","CS","CS","2","category2/CS1.png","","","","",""
"","html-keyboard-response","55","284191","0.0-6.0-4.0-0.7","p1hk1efaj6","many_one","0","direct_first","1","er09ut07","0","22","1","1","3","1","","0","1","0","null","","","<div class = 'row'><div class = 'column'><img src = 'usneg/2750.bmp' width = '100%;'></div><div class = 'column'><img src = 'category4/CS7.png' width = '70%;'></div></div>","null","neg","CS","CS","4","category4/CS7.png","","","","",""
"","html-keyboard-response","56","286730","0.0-6.0-4.0-0.8","p1hk1efaj6","many_one","0","direct_first","1","er09ut07","0","22","1","1","3","1","","0","1","0","null","","","<div class = 'row'><div class = 'column'><img src = 'usneg/9180.bmp' width = '100%;'></div><div class = 'column'><img src = 'category4/CS1.png' width = '70%;'></div></div>","null","neg","CS","CS","4","category4/CS1.png","","","","",""
"","html-keyboard-response","57","289257","0.0-6.0-4.0-0.9","p1hk1efaj6","many_one","0","direct_first","1","er09ut07","0","22","1","1","3","1","","0","1","0","null","","","<div class = 'row'><div class = 'column'><img src = 'category2/CS8.png' width = '70%;'></div><div class = 'column'><img src = 'uspos/2900.2.bmp' width = '100%;'></div></div>","null","pos","CS","CS","2","category2/CS8.png","","","","",""
"","html-keyboard-response","58","291800","0.0-6.0-4.0-0.10","p1hk1efaj6","many_one","0","direct_first","1","er09ut07","0","22","1","1","3","1","","0","1","0","null","","","<div class = 'row'><div class = 'column'><img src = 'category4/CS8.png' width = '70%;'></div><div class = 'column'><img src = 'usneg/9330.bmp' width = '100%;'></div></div>","null","neg","CS","CS","4","category4/CS8.png","","","","",""
"","html-keyboard-response","59","294331","0.0-6.0-4.0-0.11","p1hk1efaj6","many_one","0","direct_first","1","er09ut07","0","22","1","1","3","1","","0","1","0","null","","","<div class = 'row'><div class = 'column'><img src = 'uspos/8540.bmp' width = '100%;'></div><div class = 'column'><img src = 'category2/CS10.png' width = '70%;'></div></div>","null","pos","CS","CS","2","category2/CS10.png","","","","",""
"","html-keyboard-response","60","296860","0.0-6.0-4.0-0.12","p1hk1efaj6","many_one","0","direct_first","1","er09ut07","0","22","1","1","3","1","","0","1","0","null","","","<div class = 'row'><div class = 'column'><img src = 'usneg/2205.bmp' width = '100%;'></div><div class = 'column'><img src = 'category1/CS5.png' width = '70%;'></div></div>","null","neg","CS","CS","1","category1/CS5.png","","","","",""
"","html-keyboard-response","61","299390","0.0-6.0-4.0-0.13","p1hk1efaj6","many_one","0","direct_first","1","er09ut07","0","22","1","1","3","1","","0","1","0","null","","","<div class = 'row'><div class = 'column'><img src = 'category1/CS9.png' width = '70%;'></div><div class = 'column'><img src = 'usneg/9584.bmp' width = '100%;'></div></div>","null","neg","CS","CS","1","category1/CS9.png","","","","",""
"","html-keyboard-response","62","301910","0.0-6.0-4.0-0.14","p1hk1efaj6","many_one","0","direct_first","1","er09ut07","0","22","1","1","3","1","","0","1","0","null","","","<div class = 'row'><div class = 'column'><img src = 'category4/CS6.png' width = '70%;'></div><div class = 'column'><img src = 'usneg/9041.bmp' width = '100%;'></div></div>","null","neg","CS","CS","4","category4/CS6.png","","","","",""
"","html-keyboard-response","63","304450","0.0-6.0-4.0-0.15","p1hk1efaj6","many_one","0","direct_first","1","er09ut07","0","22","1","1","3","1","","0","1","0","null","","","<div class = 'row'><div class = 'column'><img src = 'category3/CS8.png' width = '70%;'></div><div class = 'column'><img src = 'uspos/5600.bmp' width = '100%;'></div></div>","null","pos","CS","CS","3","category3/CS8.png","","","","",""
"","html-keyboard-response","64","306981","0.0-6.0-4.0-0.16","p1hk1efaj6","many_one","0","direct_first","1","er09ut07","0","22","1","1","3","1","","0","1","0","null","","","<div class = 'row'><div class = 'column'><img src = 'category2/CS7.png' width = '70%;'></div><div class = 'column'><img src = 'uspos/5700.bmp' width = '100%;'></div></div>","null","pos","CS","CS","2","category2/CS7.png","","","","",""
"","html-keyboard-response","65","309505","0.0-6.0-4.0-0.17","p1hk1efaj6","many_one","0","direct_first","1","er09ut07","0","22","1","1","3","1","","0","1","0","null","","","<div class = 'row'><div class = 'column'><img src = 'uspos/2340.bmp' width = '100%;'></div><div class = 'column'><img src = 'category3/CS2.png' width = '70%;'></div></div>","null","pos","CS","CS","3","category3/CS2.png","","","","",""
"","html-keyboard-response","66","312011","0.0-6.0-4.0-0.18","p1hk1efaj6","many_one","0","direct_first","1","er09ut07","0","22","1","1","3","1","","0","1","0","null","","","<div class = 'row'><div class = 'column'><img src = 'usneg/1280.bmp' width = '100%;'></div><div class = 'column'><img src = 'category1/CS3.png' width = '70%;'></div></div>","null","neg","CS","CS","1","category1/CS3.png","","","","",""
"","html-keyboard-response","67","314531","0.0-6.0-4.0-0.19","p1hk1efaj6","many_one","0","direct_first","1","er09ut07","0","22","1","1","3","1","","0","1","0","null","","","<div class = 'row'><div class = 'column'><img src = 'uspos/1710.bmp' width = '100%;'></div><div class = 'column'><img src = 'category3/CS6.png' width = '70%;'></div></div>","null","pos","CS","CS","3","category3/CS6.png","","","","",""
"","survey-html-form","68","318725","0.0-6.0-5.0","p1hk1efaj6","many_one","0","direct_first","1","er09ut07","0","22","1","1","3","1","","0","1","0","3674","","{}","","","","","","","","","","","",""
"","html-keyboard-response","69","322751","0.0-6.0-6.0-0.0","p1hk1efaj6","many_one","0","direct_first","1","er09ut07","0","22","1","1","3","1","","0","1","0","null","","","<div class = 'row'><div class = 'column'><img src = 'usneg/9041.bmp' width = '100%;'></div><div class = 'column'><img src = 'category4/CS6.png' width = '70%;'></div></div>","null","neg","CS","CS","4","category4/CS6.png","","","","",""
"","html-keyboard-response","70","325281","0.0-6.0-6.0-0.1","p1hk1efaj6","many_one","0","direct_first","1","er09ut07","0","22","1","1","3","1","","0","1","0","null","","","<div class = 'row'><div class = 'column'><img src = 'category3/CS7.png' width = '70%;'></div><div class = 'column'><img src = 'uspos/2057.bmp' width = '100%;'></div></div>","null","pos","CS","CS","3","category3/CS7.png","","","","",""
"","html-keyboard-response","71","327820","0.0-6.0-6.0-0.2","p1hk1efaj6","many_one","0","direct_first","1","er09ut07","0","22","1","1","3","1","","0","1","0","null","","","<div class = 'row'><div class = 'column'><img src = 'category3/CS10.png' width = '70%;'></div><div class = 'column'><img src = 'uspos/8190.bmp' width = '100%;'></div></div>","null","pos","CS","CS","3","category3/CS10.png","","","","",""
"","html-keyboard-response","72","330350","0.0-6.0-6.0-0.3","p1hk1efaj6","many_one","0","direct_first","1","er09ut07","0","22","1","1","3","1","","0","1","0","null","","","<div class = 'row'><div class = 'column'><img src = 'category3/CS8.png' width = '70%;'></div><div class = 'column'><img src = 'uspos/5600.bmp' width = '100%;'></div></div>","null","pos","CS","CS","3","category3/CS8.png","","","","",""
"","html-keyboard-response","73","332891","0.0-6.0-6.0-0.4","p1hk1efaj6","many_one","0","direct_first","1","er09ut07","0","22","1","1","3","1","","0","1","0","null","","","<div class = 'row'><div class = 'column'><img src = 'uspos/2900.2.bmp' width = '100%;'></div><div class = 'column'><img src = 'category2/CS8.png' width = '70%;'></div></div>","null","pos","CS","CS","2","category2/CS8.png","","","","",""
"","html-keyboard-response","74","335411","0.0-6.0-6.0-0.5","p1hk1efaj6","many_one","0","direct_first","1","er09ut07","0","22","1","1","3","1","","0","1","0","null","","","<div class = 'row'><div class = 'column'><img src = 'uspos/2340.bmp' width = '100%;'></div><div class = 'column'><img src = 'category3/CS2.png' width = '70%;'></div></div>","null","pos","CS","CS","3","category3/CS2.png","","","","",""
"","html-keyboard-response","75","337931","0.0-6.0-6.0-0.6","p1hk1efaj6","many_one","0","direct_first","1","er09ut07","0","22","1","1","3","1","","0","1","0","null","","","<div class = 'row'><div class = 'column'><img src = 'uspos/5760.bmp' width = '100%;'></div><div class = 'column'><img src = 'category2/CS1.png' width = '70%;'></div></div>","null","pos","CS","CS","2","category2/CS1.png","","","","",""
"","html-keyboard-response","76","340471","0.0-6.0-6.0-0.7","p1hk1efaj6","many_one","0","direct_first","1","er09ut07","0","22","1","1","3","1","","0","1","0","null","","","<div class = 'row'><div class = 'column'><img src = 'usneg/2205.bmp' width = '100%;'></div><div class = 'column'><img src = 'category1/CS5.png' width = '70%;'></div></div>","null","neg","CS","CS","1","category1/CS5.png","","","","",""
"","html-keyboard-response","77","343011","0.0-6.0-6.0-0.8","p1hk1efaj6","many_one","0","direct_first","1","er09ut07","0","22","1","1","3","1","","0","1","0","null","","","<div class = 'row'><div class = 'column'><img src = 'usneg/9342.bmp' width = '100%;'></div><div class = 'column'><img src = 'category4/CS3.png' width = '70%;'></div></div>","null","neg","CS","CS","4","category4/CS3.png","","","","",""
"","html-keyboard-response","78","345531","0.0-6.0-6.0-0.9","p1hk1efaj6","many_one","0","direct_first","1","er09ut07","0","22","1","1","3","1","","0","1","0","null","","","<div class = 'row'><div class = 'column'><img src = 'usneg/1280.bmp' width = '100%;'></div><div class = 'column'><img src = 'category1/CS3.png' width = '70%;'></div></div>","null","neg","CS","CS","1","category1/CS3.png","","","","",""
"","html-keyboard-response","79","348061","0.0-6.0-6.0-0.10","p1hk1efaj6","many_one","0","direct_first","1","er09ut07","0","22","1","1","3","1","","0","1","0","null","","","<div class = 'row'><div class = 'column'><img src = 'category1/CS6.png' width = '70%;'></div><div class = 'column'><img src = 'usneg/9561.bmp' width = '100%;'></div></div>","null","neg","CS","CS","1","category1/CS6.png","","","","",""
"","html-keyboard-response","80","350581","0.0-6.0-6.0-0.11","p1hk1efaj6","many_one","0","direct_first","1","er09ut07","0","22","1","1","3","1","","0","1","0","null","","","<div class = 'row'><div class = 'column'><img src = 'category2/CS7.png' width = '70%;'></div><div class = 'column'><img src = 'uspos/5700.bmp' width = '100%;'></div></div>","null","pos","CS","CS","2","category2/CS7.png","","","","",""
"","html-keyboard-response","81","353101","0.0-6.0-6.0-0.12","p1hk1efaj6","many_one","0","direct_first","1","er09ut07","0","22","1","1","3","1","","0","1","0","null","","","<div class = 'row'><div class = 'column'><img src = 'category2/CS2.png' width = '70%;'></div><div class = 'column'><img src = 'uspos/2360.bmp' width = '100%;'></div></div>","null","pos","CS","CS","2","category2/CS2.png","","","","",""
"","html-keyboard-response","82","355631","0.0-6.0-6.0-0.13","p1hk1efaj6","many_one","0","direct_first","1","er09ut07","0","22","1","1","3","1","","0","1","0","null","","","<div class = 'row'><div class = 'column'><img src = 'usneg/9180.bmp' width = '100%;'></div><div class = 'column'><img src = 'category4/CS1.png' width = '70%;'></div></div>","null","neg","CS","CS","4","category4/CS1.png","","","","",""
"","html-keyboard-response","83","358161","0.0-6.0-6.0-0.14","p1hk1efaj6","many_one","0","direct_first","1","er09ut07","0","22","1","1","3","1","","0","1","0","null","","","<div class = 'row'><div class = 'column'><img src = 'uspos/1710.bmp' width = '100%;'></div><div class = 'column'><img src = 'category3/CS6.png' width = '70%;'></div></div>","null","pos","CS","CS","3","category3/CS6.png","","","","",""
"","html-keyboard-response","84","360701","0.0-6.0-6.0-0.15","p1hk1efaj6","many_one","0","direct_first","1","er09ut07","0","22","1","1","3","1","","0","1","0","null","","","<div class = 'row'><div class = 'column'><img src = 'category4/CS8.png' width = '70%;'></div><div class = 'column'><img src = 'usneg/9330.bmp' width = '100%;'></div></div>","null","neg","CS","CS","4","category4/CS8.png","","","","",""
"","html-keyboard-response","85","363211","0.0-6.0-6.0-0.16","p1hk1efaj6","many_one","0","direct_first","1","er09ut07","0","22","1","1","3","1","","0","1","0","null","","","<div class = 'row'><div class = 'column'><img src = 'uspos/8540.bmp' width = '100%;'></div><div class = 'column'><img src = 'category2/CS10.png' width = '70%;'></div></div>","null","pos","CS","CS","2","category2/CS10.png","","","","",""
"","html-keyboard-response","86","365751","0.0-6.0-6.0-0.17","p1hk1efaj6","many_one","0","direct_first","1","er09ut07","0","22","1","1","3","1","","0","1","0","null","","","<div class = 'row'><div class = 'column'><img src = 'category1/CS9.png' width = '70%;'></div><div class = 'column'><img src = 'usneg/9584.bmp' width = '100%;'></div></div>","null","neg","CS","CS","1","category1/CS9.png","","","","",""
"","html-keyboard-response","87","368281","0.0-6.0-6.0-0.18","p1hk1efaj6","many_one","0","direct_first","1","er09ut07","0","22","1","1","3","1","","0","1","0","null","","","<div class = 'row'><div class = 'column'><img src = 'usneg/9520.bmp' width = '100%;'></div><div class = 'column'><img src = 'category1/CS7.png' width = '70%;'></div></div>","null","neg","CS","CS","1","category1/CS7.png","","","","",""
"","html-keyboard-response","88","370811","0.0-6.0-6.0-0.19","p1hk1efaj6","many_one","0","direct_first","1","er09ut07","0","22","1","1","3","1","","0","1","0","null","","","<div class = 'row'><div class = 'column'><img src = 'usneg/2750.bmp' width = '100%;'></div><div class = 'column'><img src = 'category4/CS7.png' width = '70%;'></div></div>","null","neg","CS","CS","4","category4/CS7.png","","","","",""
"","survey-html-form","89","379435","0.0-7.0","p1hk1efaj6","many_one","0","direct_first","1","er09ut07","0","22","1","1","3","1","","0","1","0","8104","","{}","","","","","","","","","","","",""
"","image-slider-response","90","386832","0.0-8.0-0.0","p1hk1efaj6","many_one","0","direct_first","1","er09ut07","0","22","1","1","3","1","","0","1","0","5385","","","","","neg","CS","CS","4","category4/CS3.png","-78","targets/25.png","direct","",""
"","image-slider-response","91","394228","0.0-8.0-0.1","p1hk1efaj6","many_one","0","direct_first","1","er09ut07","0","22","1","1","3","1","","0","1","0","7393","","","","","pos","GS","GSold","2","category2/CS6.png","-26","targets/8.png","direct","",""
"","image-slider-response","92","400445","0.0-8.0-0.2","p1hk1efaj6","many_one","0","direct_first","1","er09ut07","0","22","1","1","3","1","","0","1","0","6214","","","","","neg","GS","GSnew","1","category1/GS1.png","-45","targets/42.png","direct","",""
"","image-slider-response","93","404339","0.0-8.0-0.3","p1hk1efaj6","many_one","0","direct_first","1","er09ut07","0","22","1","1","3","1","","0","1","0","3892","","","","","pos","GS","abstract","3","category3/wang.png","47","targets/16.png","direct","",""
"","image-slider-response","94","411495","0.0-8.0-0.4","p1hk1efaj6","many_one","0","direct_first","1","er09ut07","0","22","1","1","3","1","","0","1","0","7153","","","","","neg","GS","abstract","1","category1/ma.png","-29","targets/11.png","direct","",""
"","image-slider-response","95","417237","0.0-8.0-0.5","p1hk1efaj6","many_one","0","direct_first","1","er09ut07","0","22","1","1","3","1","","0","1","0","5739","","","","","pos","CS","CS","3","category3/CS6.png","57","targets/46.png","direct","",""
"","image-slider-response","96","422948","0.0-8.0-0.6","p1hk1efaj6","many_one","0","direct_first","1","er09ut07","0","22","1","1","3","1","","0","1","0","5709","","","","","neg","CS","CS","4","category4/CS8.png","-34","targets/7.png","direct","",""
"","image-slider-response","97","426404","0.0-8.0-0.7","p1hk1efaj6","many_one","0","direct_first","1","er09ut07","0","22","1","1","3","1","","0","1","0","3453","","","","","pos","GS","GSnew","3","category3/GS1.png","45","targets/48.png","direct","",""
"","image-slider-response","98","431284","0.0-8.0-0.8","p1hk1efaj6","many_one","0","direct_first","1","er09ut07","0","22","1","1","3","1","","0","1","0","4877","","","","","neg","CS","CS","4","category4/CS7.png","-35","targets/36.png","direct","",""
"","image-slider-response","99","435045","0.0-8.0-0.9","p1hk1efaj6","many_one","0","direct_first","1","er09ut07","0","22","1","1","3","1","","0","1","0","3758","","","","","neg","GS","GSold","4","category4/CS9.png","-14","targets/44.png","direct","",""
"","image-slider-response","100","441780","0.0-8.0-0.10","p1hk1efaj6","many_one","0","direct_first","1","er09ut07","0","22","1","1","3","1","","0","1","0","6732","","","","","neg","CS","CS","1","category1/CS3.png","74","targets/1.png","direct","",""
"","image-slider-response","101","444931","0.0-8.0-0.11","p1hk1efaj6","many_one","0","direct_first","1","er09ut07","0","22","1","1","3","1","","0","1","0","3149","","","","","pos","GS","GSold","2","category2/CS4.png","-13","targets/38.png","direct","",""
"","image-slider-response","102","449085","0.0-8.0-0.12","p1hk1efaj6","many_one","0","direct_first","1","er09ut07","0","22","1","1","3","1","","0","1","0","4151","","","","","pos","CS","CS","2","category2/CS1.png","83","targets/20.png","direct","",""
"","image-slider-response","103","453698","0.0-8.0-0.13","p1hk1efaj6","many_one","0","direct_first","1","er09ut07","0","22","1","1","3","1","","0","1","0","4611","","","","","neg","CS","CS","1","category1/CS7.png","-81","targets/18.png","direct","",""
"","image-slider-response","104","456896","0.0-8.0-0.14","p1hk1efaj6","many_one","0","direct_first","1","er09ut07","0","22","1","1","3","1","","0","1","0","3194","","","","","pos","CS","CS","3","category3/CS7.png","89","targets/4.png","direct","",""
"","image-slider-response","105","461242","0.0-8.0-0.15","p1hk1efaj6","many_one","0","direct_first","1","er09ut07","0","22","1","1","3","1","","0","1","0","4344","","","","","neg","GS","GSnew","4","category4/GS2.png","-18","targets/27.png","direct","",""
"","image-slider-response","106","465618","0.0-8.0-0.16","p1hk1efaj6","many_one","0","direct_first","1","er09ut07","0","22","1","1","3","1","","0","1","0","4373","","","","","pos","CS","CS","3","category3/CS8.png","65","targets/23.png","direct","",""
"","image-slider-response","107","468770","0.0-8.0-0.17","p1hk1efaj6","many_one","0","direct_first","1","er09ut07","0","22","1","1","3","1","","0","1","0","3150","","","","","pos","CS","CS","3","category3/CS10.png","87","targets/17.png","direct","",""
"","image-slider-response","108","474947","0.0-8.0-0.18","p1hk1efaj6","many_one","0","direct_first","1","er09ut07","0","22","1","1","3","1","","0","1","0","6174","","","","","pos","CS","CS","2","category2/CS7.png","40","targets/43.png","direct","",""
"","image-slider-response","109","482912","0.0-8.0-0.19","p1hk1efaj6","many_one","0","direct_first","1","er09ut07","0","22","1","1","3","1","","0","1","0","7964","","","","","neg","GS","GSnew","4","category4/GS1.png","-20","targets/37.png","direct","",""
"","image-slider-response","110","486295","0.0-8.0-0.20","p1hk1efaj6","many_one","0","direct_first","1","er09ut07","0","22","1","1","3","1","","0","1","0","3379","","","","","pos","CS","CS","2","category2/CS2.png","73","targets/22.png","direct","",""
"","image-slider-response","111","489076","0.0-8.0-0.21","p1hk1efaj6","many_one","0","direct_first","1","er09ut07","0","22","1","1","3","1","","0","1","0","2779","","","","","neg","GS","GSnew","4","category4/GS3.png","-28","targets/15.png","direct","",""
"","image-slider-response","112","492303","0.0-8.0-0.22","p1hk1efaj6","many_one","0","direct_first","1","er09ut07","0","22","1","1","3","1","","0","1","0","3223","","","","","pos","GS","GSnew","2","category2/GS3.png","-22","targets/6.png","direct","",""
"","image-slider-response","113","497368","0.0-8.0-0.23","p1hk1efaj6","many_one","0","direct_first","1","er09ut07","0","22","1","1","3","1","","0","1","0","5063","","","","","neg","GS","GSold","1","category1/CS1.png","-51","targets/24.png","direct","",""
"","image-slider-response","114","500350","0.0-8.0-0.24","p1hk1efaj6","many_one","0","direct_first","1","er09ut07","0","22","1","1","3","1","","0","1","0","2979","","","","","pos","GS","GSnew","2","category2/GS1.png","-41","targets/2.png","direct","",""
"","image-slider-response","115","504955","0.0-8.0-0.25","p1hk1efaj6","many_one","0","direct_first","1","er09ut07","0","22","1","1","3","1","","0","1","0","4603","","","","","pos","CS","CS","2","category2/CS10.png","-29","targets/33.png","direct","",""
"","image-slider-response","116","507574","0.0-8.0-0.26","p1hk1efaj6","many_one","0","direct_first","1","er09ut07","0","22","1","1","3","1","","0","1","0","2616","","","","","neg","GS","GSnew","1","category1/GS2.png","-32","targets/19.png","direct","",""
"","image-slider-response","117","511259","0.0-8.0-0.27","p1hk1efaj6","many_one","0","direct_first","1","er09ut07","0","22","1","1","3","1","","0","1","0","3684","","","","","pos","GS","GSnew","3","category3/GS2.png","29","targets/10.png","direct","",""
"","image-slider-response","118","516451","0.0-8.0-0.28","p1hk1efaj6","many_one","0","direct_first","1","er09ut07","0","22","1","1","3","1","","0","1","0","5189","","","","","neg","CS","CS","1","category1/CS6.png","-100","targets/31.png","direct","",""
"","image-slider-response","119","519314","0.0-8.0-0.29","p1hk1efaj6","many_one","0","direct_first","1","er09ut07","0","22","1","1","3","1","","0","1","0","2860","","","","","neg","GS","abstract","4","category4/lin.png","-21","targets/41.png","direct","",""
"","image-slider-response","120","522882","0.0-8.0-0.30","p1hk1efaj6","many_one","0","direct_first","1","er09ut07","0","22","1","1","3","1","","0","1","0","3565","","","","","pos","CS","CS","2","category2/CS8.png","41","targets/34.png","direct","",""
"","image-slider-response","121","525722","0.0-8.0-0.31","p1hk1efaj6","many_one","0","direct_first","1","er09ut07","0","22","1","1","3","1","","0","1","0","2838","","","","","neg","GS","GSold","1","category1/CS4.png","-29","targets/26.png","direct","",""
"","image-slider-response","122","529504","0.0-8.0-0.32","p1hk1efaj6","many_one","0","direct_first","1","er09ut07","0","22","1","1","3","1","","0","1","0","3780","","","","","pos","CS","CS","3","category3/CS2.png","70","targets/12.png","direct","",""
"","image-slider-response","123","532545","0.0-8.0-0.33","p1hk1efaj6","many_one","0","direct_first","1","er09ut07","0","22","1","1","3","1","","0","1","0","3039","","","","","neg","CS","CS","4","category4/CS1.png","66","targets/30.png","direct","",""
"","image-slider-response","124","535890","0.0-8.0-0.34","p1hk1efaj6","many_one","0","direct_first","1","er09ut07","0","22","1","1","3","1","","0","1","0","3342","","","","","pos","GS","GSold","3","category3/CS9.png","60","targets/29.png","direct","",""
"","image-slider-response","125","540488","0.0-8.0-0.35","p1hk1efaj6","many_one","0","direct_first","1","er09ut07","0","22","1","1","3","1","","0","1","0","4596","","","","","neg","CS","CS","1","category1/CS9.png","-24","targets/28.png","direct","",""
"","image-slider-response","126","544922","0.0-8.0-0.36","p1hk1efaj6","many_one","0","direct_first","1","er09ut07","0","22","1","1","3","1","","0","1","0","4432","","","","","neg","GS","GSold","4","category4/CS10.png","32","targets/40.png","direct","",""
"","image-slider-response","127","547725","0.0-8.0-0.37","p1hk1efaj6","many_one","0","direct_first","1","er09ut07","0","22","1","1","3","1","","0","1","0","2801","","","","","neg","GS","GSold","4","category4/CS5.png","-20","targets/45.png","direct","",""
"","image-slider-response","128","550456","0.0-8.0-0.38","p1hk1efaj6","many_one","0","direct_first","1","er09ut07","0","22","1","1","3","1","","0","1","0","2726","","","","","neg","GS","GSnew","1","category1/GS3.png","-25","targets/35.png","direct","",""
"","image-slider-response","129","556032","0.0-8.0-0.39","p1hk1efaj6","many_one","0","direct_first","1","er09ut07","0","22","1","1","3","1","","0","1","0","5575","","","","","pos","GS","GSold","3","category3/CS4.png","1","targets/39.png","direct","",""
"","image-slider-response","130","559348","0.0-8.0-0.40","p1hk1efaj6","many_one","0","direct_first","1","er09ut07","0","22","1","1","3","1","","0","1","0","3314","","","","","neg","CS","CS","1","category1/CS5.png","-54","targets/47.png","direct","",""
"","image-slider-response","131","562486","0.0-8.0-0.41","p1hk1efaj6","many_one","0","direct_first","1","er09ut07","0","22","1","1","3","1","","0","1","0","3134","","","","","pos","GS","GSold","3","category3/CS3.png","-26","targets/21.png","direct","",""
"","image-slider-response","132","565097","0.0-8.0-0.42","p1hk1efaj6","many_one","0","direct_first","1","er09ut07","0","22","1","1","3","1","","0","1","0","2609","","","","","pos","GS","GSnew","3","category3/GS3.png","25","targets/5.png","direct","",""
"","image-slider-response","133","568946","0.0-8.0-0.43","p1hk1efaj6","many_one","0","direct_first","1","er09ut07","0","22","1","1","3","1","","0","1","0","3848","","","","","pos","GS","GSnew","2","category2/GS2.png","6","targets/9.png","direct","",""
"","image-slider-response","134","572973","0.0-8.0-0.44","p1hk1efaj6","many_one","0","direct_first","1","er09ut07","0","22","1","1","3","1","","0","1","0","4025","","","","","pos","GS","GSold","2","category2/CS3.png","35","targets/14.png","direct","",""
"","image-slider-response","135","575740","0.0-8.0-0.45","p1hk1efaj6","many_one","0","direct_first","1","er09ut07","0","22","1","1","3","1","","0","1","0","2764","","","","","neg","GS","GSold","1","category1/CS10.png","-53","targets/3.png","direct","",""
"","image-slider-response","136","578536","0.0-8.0-0.46","p1hk1efaj6","many_one","0","direct_first","1","er09ut07","0","22","1","1","3","1","","0","1","0","2794","","","","","pos","GS","abstract","2","category2/men.png","-25","targets/13.png","direct","",""
"","image-slider-response","137","581993","0.0-8.0-0.47","p1hk1efaj6","many_one","0","direct_first","1","er09ut07","0","22","1","1","3","1","","0","1","0","3454","","","","","neg","CS","CS","4","category4/CS6.png","-35","targets/32.png","direct","",""
"","html-keyboard-response","138","617829","0.0-9.0","p1hk1efaj6","many_one","0","direct_first","1","er09ut07","0","22","1","1","3","1","","0","1","0","35836","","","<p>Sie sehen nun die chinesischen Zeichen nur ganz kurz. Danach sehen Sie die jeweilige Aussprache der Zeichen als Silbe auf dem Bildschrim. Ihre Aufgabe ist es, für jede Silbe anzugeben, ob diese etwas angenehmes, oder unangenehmes bedeuten könnte. Verlassen Sie sich hier vor allem auf Ihre Intuition.<br><br>Die Zeichen werden nur zur Orientierung dargestellt, beachten Sie sie deshalb nicht. Konzentrieren Sie sich vor allem auf die Silben. <br>Reagieren Sie mit folgenden zwei Tasten: <br><br><b>'D' </b> wenn die Silbe etwas <b>unangenehmes</b> bedeuten könnte. <br><b>'K'</b> wenn die Silbe etwas <b>angenehmes</b> bedeuten könnte. <br><br>Bitte legen Sie nun den Zeigefinger der linken Hand auf die Taste 'D' und den Zeigefinger der rechten Hand auf die Taste 'K'. <br>Reagieren Sie auf jede Silbe so schnell wie möglich. Uns interessiert Ihre spontane Reaktion. <br> <br> <br>Drücken Sie 'D' oder 'K', um die nächste Aufgabe zu starten. </p>","68","","","","","","","","","",""
"","html-keyboard-response","139","620852","0.0-10.0-0.0","p1hk1efaj6","many_one","0","direct_first","1","er09ut07","0","22","1","1","3","1","","0","1","0","null","","","<div style=""font-size:60px;"">+</div>","null","","","","","","","","","",""
"","html-keyboard-response","140","620952","0.0-10.0-1.0","p1hk1efaj6","many_one","0","direct_first","1","er09ut07","0","22","1","1","3","1","","0","1","0","null","","","<img src = 'category2/CS1.png' width = '100%;'>","null","","","","","","","","","",""
"","html-keyboard-response","141","621222","0.0-10.0-2.0","p1hk1efaj6","many_one","0","direct_first","1","er09ut07","0","22","1","1","3","1","","0","1","0","null","","","<img src = 'targets/20.png' width = '100%;'>","null","","","","","","","","","",""
"","html-keyboard-response","142","624081","0.0-10.0-3.0","p1hk1efaj6","many_one","0","direct_first","1","er09ut07","0","22","1","1","3","1","","0","1","0","2857","","","<img src = 'targets/mask.png' width = '100%;'>","75","pos","CS","CS","2","category2/CS1.png","","targets/20.png","indirect","1","0"
"","html-keyboard-response","143","625602","0.0-10.0-0.1","p1hk1efaj6","many_one","0","direct_first","1","er09ut07","0","22","1","1","3","1","","0","1","0","null","","","<div style=""font-size:60px;"">+</div>","null","","","","","","","","","",""
"","html-keyboard-response","144","625702","0.0-10.0-1.1","p1hk1efaj6","many_one","0","direct_first","1","er09ut07","0","22","1","1","3","1","","0","1","0","null","","","<img src = 'category2/CS8.png' width = '100%;'>","null","","","","","","","","","",""
"","html-keyboard-response","145","625982","0.0-10.0-2.1","p1hk1efaj6","many_one","0","direct_first","1","er09ut07","0","22","1","1","3","1","","0","1","0","null","","","<img src = 'targets/34.png' width = '100%;'>","null","","","","","","","","","",""
"","html-keyboard-response","146","626965","0.0-10.0-3.1","p1hk1efaj6","many_one","0","direct_first","1","er09ut07","0","22","1","1","3","1","","0","1","0","981","","","<img src = 'targets/mask.png' width = '100%;'>","75","pos","CS","CS","2","category2/CS8.png","","targets/34.png","indirect","1","1"
"","html-keyboard-response","147","628472","0.0-10.0-0.2","p1hk1efaj6","many_one","0","direct_first","1","er09ut07","0","22","1","1","3","1","","0","1","0","null","","","<div style=""font-size:60px;"">+</div>","null","","","","","","","","","",""
"","html-keyboard-response","148","628572","0.0-10.0-1.2","p1hk1efaj6","many_one","0","direct_first","1","er09ut07","0","22","1","1","3","1","","0","1","0","null","","","<img src = 'category2/CS7.png' width = '100%;'>","null","","","","","","","","","",""
"","html-keyboard-response","149","628842","0.0-10.0-2.2","p1hk1efaj6","many_one","0","direct_first","1","er09ut07","0","22","1","1","3","1","","0","1","0","null","","","<img src = 'targets/43.png' width = '100%;'>","null","","","","","","","","","",""
"","html-keyboard-response","150","629905","0.0-10.0-3.2","p1hk1efaj6","many_one","0","direct_first","1","er09ut07","0","22","1","1","3","1","","0","1","0","1062","","","<img src = 'targets/mask.png' width = '100%;'>","68","pos","CS","CS","2","category2/CS7.png","","targets/43.png","indirect","0","2"
"","html-keyboard-response","151","631432","0.0-10.0-0.3","p1hk1efaj6","many_one","0","direct_first","1","er09ut07","0","22","1","1","3","1","","0","1","0","null","","","<div style=""font-size:60px;"">+</div>","null","","","","","","","","","",""
"","html-keyboard-response","152","631533","0.0-10.0-1.3","p1hk1efaj6","many_one","0","direct_first","1","er09ut07","0","22","1","1","3","1","","0","1","0","null","","","<img src = 'category1/CS1.png' width = '100%;'>","null","","","","","","","","","",""
"","html-keyboard-response","153","631812","0.0-10.0-2.3","p1hk1efaj6","many_one","0","direct_first","1","er09ut07","0","22","1","1","3","1","","0","1","0","null","","","<img src = 'targets/24.png' width = '100%;'>","null","","","","","","","","","",""
"","html-keyboard-response","154","632784","0.0-10.0-3.3","p1hk1efaj6","many_one","0","direct_first","1","er09ut07","0","22","1","1","3","1","","0","1","0","972","","","<img src = 'targets/mask.png' width = '100%;'>","68","neg","GS","GSold","1","category1/CS1.png","","targets/24.png","indirect","0","3"
"","html-keyboard-response","155","634302","0.0-10.0-0.4","p1hk1efaj6","many_one","0","direct_first","1","er09ut07","0","22","1","1","3","1","","0","1","0","null","","","<div style=""font-size:60px;"">+</div>","null","","","","","","","","","",""
"","html-keyboard-response","156","634412","0.0-10.0-1.4","p1hk1efaj6","many_one","0","direct_first","1","er09ut07","0","22","1","1","3","1","","0","1","0","null","","","<img src = 'category1/CS10.png' width = '100%;'>","null","","","","","","","","","",""
"","html-keyboard-response","157","634682","0.0-10.0-2.4","p1hk1efaj6","many_one","0","direct_first","1","er09ut07","0","22","1","1","3","1","","0","1","0","null","","","<img src = 'targets/3.png' width = '100%;'>","null","","","","","","","","","",""
"","html-keyboard-response","158","636132","0.0-10.0-3.4","p1hk1efaj6","many_one","0","direct_first","1","er09ut07","0","22","1","1","3","1","","0","1","0","1449","","","<img src = 'targets/mask.png' width = '100%;'>","75","neg","GS","GSold","1","category1/CS10.png","","targets/3.png","indirect","1","4"
"","html-keyboard-response","159","637652","0.0-10.0-0.5","p1hk1efaj6","many_one","0","direct_first","1","er09ut07","0","22","1","1","3","1","","0","1","0","null","","","<div style=""font-size:60px;"">+</div>","null","","","","","","","","","",""
"","html-keyboard-response","160","637751","0.0-10.0-1.5","p1hk1efaj6","many_one","0","direct_first","1","er09ut07","0","22","1","1","3","1","","0","1","0","null","","","<img src = 'category3/CS6.png' width = '100%;'>","null","","","","","","","","","",""
"","html-keyboard-response","161","638021","0.0-10.0-2.5","p1hk1efaj6","many_one","0","direct_first","1","er09ut07","0","22","1","1","3","1","","0","1","0","null","","","<img src = 'targets/46.png' width = '100%;'>","null","","","","","","","","","",""
"","html-keyboard-response","162","639671","0.0-10.0-3.5","p1hk1efaj6","many_one","0","direct_first","1","er09ut07","0","22","1","1","3","1","","0","1","0","1648","","","<img src = 'targets/mask.png' width = '100%;'>","68","pos","CS","CS","3","category3/CS6.png","","targets/46.png","indirect","0","5"
"","html-keyboard-response","163","641192","0.0-10.0-0.6","p1hk1efaj6","many_one","0","direct_first","1","er09ut07","0","22","1","1","3","1","","0","1","0","null","","","<div style=""font-size:60px;"">+</div>","null","","","","","","","","","",""
"","html-keyboard-response","164","641292","0.0-10.0-1.6","p1hk1efaj6","many_one","0","direct_first","1","er09ut07","0","22","1","1","3","1","","0","1","0","null","","","<img src = 'category3/CS4.png' width = '100%;'>","null","","","","","","","","","",""
"","html-keyboard-response","165","641573","0.0-10.0-2.6","p1hk1efaj6","many_one","0","direct_first","1","er09ut07","0","22","1","1","3","1","","0","1","0","null","","","<img src = 'targets/39.png' width = '100%;'>","null","","","","","","","","","",""
"","html-keyboard-response","166","642795","0.0-10.0-3.6","p1hk1efaj6","many_one","0","direct_first","1","er09ut07","0","22","1","1","3","1","","0","1","0","1221","","","<img src = 'targets/mask.png' width = '100%;'>","68","pos","GS","GSold","3","category3/CS4.png","","targets/39.png","indirect","0","6"
"","html-keyboard-response","167","644322","0.0-10.0-0.7","p1hk1efaj6","many_one","0","direct_first","1","er09ut07","0","22","1","1","3","1","","0","1","0","null","","","<div style=""font-size:60px;"">+</div>","null","","","","","","","","","",""
"","html-keyboard-response","168","644422","0.0-10.0-1.7","p1hk1efaj6","many_one","0","direct_first","1","er09ut07","0","22","1","1","3","1","","0","1","0","null","","","<img src = 'category3/CS8.png' width = '100%;'>","null","","","","","","","","","",""
"","html-keyboard-response","169","644696","0.0-10.0-2.7","p1hk1efaj6","many_one","0","direct_first","1","er09ut07","0","22","1","1","3","1","","0","1","0","null","","","<img src = 'targets/23.png' width = '100%;'>","null","","","","","","","","","",""
"","html-keyboard-response","170","645815","0.0-10.0-3.7","p1hk1efaj6","many_one","0","direct_first","1","er09ut07","0","22","1","1","3","1","","0","1","0","1119","","","<img src = 'targets/mask.png' width = '100%;'>","75","pos","CS","CS","3","category3/CS8.png","","targets/23.png","indirect","1","7"
"","html-keyboard-response","171","647342","0.0-10.0-0.8","p1hk1efaj6","many_one","0","direct_first","1","er09ut07","0","22","1","1","3","1","","0","1","0","null","","","<div style=""font-size:60px;"">+</div>","null","","","","","","","","","",""
"","html-keyboard-response","172","647442","0.0-10.0-1.8","p1hk1efaj6","many_one","0","direct_first","1","er09ut07","0","22","1","1","3","1","","0","1","0","null","","","<img src = 'category4/CS8.png' width = '100%;'>","null","","","","","","","","","",""
"","html-keyboard-response","173","647723","0.0-10.0-2.8","p1hk1efaj6","many_one","0","direct_first","1","er09ut07","0","22","1","1","3","1","","0","1","0","null","","","<img src = 'targets/7.png' width = '100%;'>","null","","","","","","","","","",""
"","html-keyboard-response","174","648783","0.0-10.0-3.8","p1hk1efaj6","many_one","0","direct_first","1","er09ut07","0","22","1","1","3","1","","0","1","0","1060","","","<img src = 'targets/mask.png' width = '100%;'>","75","neg","CS","CS","4","category4/CS8.png","","targets/7.png","indirect","1","8"
"","html-keyboard-response","175","650312","0.0-10.0-0.9","p1hk1efaj6","many_one","0","direct_first","1","er09ut07","0","22","1","1","3","1","","0","1","0","null","","","<div style=""font-size:60px;"">+</div>","null","","","","","","","","","",""
"","html-keyboard-response","176","650415","0.0-10.0-1.9","p1hk1efaj6","many_one","0","direct_first","1","er09ut07","0","22","1","1","3","1","","0","1","0","null","","","<img src = 'category2/CS10.png' width = '100%;'>","null","","","","","","","","","",""
"","html-keyboard-response","177","650692","0.0-10.0-2.9","p1hk1efaj6","many_one","0","direct_first","1","er09ut07","0","22","1","1","3","1","","0","1","0","null","","","<img src = 'targets/33.png' width = '100%;'>","null","","","","","","","","","",""
"","html-keyboard-response","178","652241","0.0-10.0-3.9","p1hk1efaj6","many_one","0","direct_first","1","er09ut07","0","22","1","1","3","1","","0","1","0","1547","","","<img src = 'targets/mask.png' width = '100%;'>","75","pos","CS","CS","2","category2/CS10.png","","targets/33.png","indirect","1","9"
"","html-keyboard-response","179","653772","0.0-10.0-0.10","p1hk1efaj6","many_one","0","direct_first","1","er09ut07","0","22","1","1","3","1","","0","1","0","null","","","<div style=""font-size:60px;"">+</div>","null","","","","","","","","","",""
"","html-keyboard-response","180","653871","0.0-10.0-1.10","p1hk1efaj6","many_one","0","direct_first","1","er09ut07","0","22","1","1","3","1","","0","1","0","null","","","<img src = 'category1/CS7.png' width = '100%;'>","null","","","","","","","","","",""
"","html-keyboard-response","181","654148","0.0-10.0-2.10","p1hk1efaj6","many_one","0","direct_first","1","er09ut07","0","22","1","1","3","1","","0","1","0","null","","","<img src = 'targets/18.png' width = '100%;'>","null","","","","","","","","","",""
"","html-keyboard-response","182","654804","0.0-10.0-3.10","p1hk1efaj6","many_one","0","direct_first","1","er09ut07","0","22","1","1","3","1","","0","1","0","655","","","<img src = 'targets/mask.png' width = '100%;'>","68","neg","CS","CS","1","category1/CS7.png","","targets/18.png","indirect","0","10"
"","html-keyboard-response","183","656322","0.0-10.0-0.11","p1hk1efaj6","many_one","0","direct_first","1","er09ut07","0","22","1","1","3","1","","0","1","0","null","","","<div style=""font-size:60px;"">+</div>","null","","","","","","","","","",""
"","html-keyboard-response","184","656423","0.0-10.0-1.11","p1hk1efaj6","many_one","0","direct_first","1","er09ut07","0","22","1","1","3","1","","0","1","0","null","","","<img src = 'category1/CS4.png' width = '100%;'>","null","","","","","","","","","",""
"","html-keyboard-response","185","656703","0.0-10.0-2.11","p1hk1efaj6","many_one","0","direct_first","1","er09ut07","0","22","1","1","3","1","","0","1","0","null","","","<img src = 'targets/26.png' width = '100%;'>","null","","","","","","","","","",""
"","html-keyboard-response","186","659059","0.0-10.0-3.11","p1hk1efaj6","many_one","0","direct_first","1","er09ut07","0","22","1","1","3","1","","0","1","0","2355","","","<img src = 'targets/mask.png' width = '100%;'>","75","neg","GS","GSold","1","category1/CS4.png","","targets/26.png","indirect","1","11"
"","html-keyboard-response","187","660589","0.0-10.0-0.12","p1hk1efaj6","many_one","0","direct_first","1","er09ut07","0","22","1","1","3","1","","0","1","0","null","","","<div style=""font-size:60px;"">+</div>","null","","","","","","","","","",""
"","html-keyboard-response","188","660688","0.0-10.0-1.12","p1hk1efaj6","many_one","0","direct_first","1","er09ut07","0","22","1","1","3","1","","0","1","0","null","","","<img src = 'category1/CS9.png' width = '100%;'>","null","","","","","","","","","",""
"","html-keyboard-response","189","660973","0.0-10.0-2.12","p1hk1efaj6","many_one","0","direct_first","1","er09ut07","0","22","1","1","3","1","","0","1","0","null","","","<img src = 'targets/28.png' width = '100%;'>","null","","","","","","","","","",""
"","html-keyboard-response","190","663020","0.0-10.0-3.12","p1hk1efaj6","many_one","0","direct_first","1","er09ut07","0","22","1","1","3","1","","0","1","0","2047","","","<img src = 'targets/mask.png' width = '100%;'>","68","neg","CS","CS","1","category1/CS9.png","","targets/28.png","indirect","0","12"
"","html-keyboard-response","191","664532","0.0-10.0-0.13","p1hk1efaj6","many_one","0","direct_first","1","er09ut07","0","22","1","1","3","1","","0","1","0","null","","","<div style=""font-size:60px;"">+</div>","null","","","","","","","","","",""
"","html-keyboard-response","192","664632","0.0-10.0-1.13","p1hk1efaj6","many_one","0","direct_first","1","er09ut07","0","22","1","1","3","1","","0","1","0","null","","","<img src = 'category2/CS2.png' width = '100%;'>","null","","","","","","","","","",""
"","html-keyboard-response","193","664912","0.0-10.0-2.13","p1hk1efaj6","many_one","0","direct_first","1","er09ut07","0","22","1","1","3","1","","0","1","0","null","","","<img src = 'targets/22.png' width = '100%;'>","null","","","","","","","","","",""
"","html-keyboard-response","194","665736","0.0-10.0-3.13","p1hk1efaj6","many_one","0","direct_first","1","er09ut07","0","22","1","1","3","1","","0","1","0","823","","","<img src = 'targets/mask.png' width = '100%;'>","75","pos","CS","CS","2","category2/CS2.png","","targets/22.png","indirect","1","13"
"","html-keyboard-response","195","667262","0.0-10.0-0.14","p1hk1efaj6","many_one","0","direct_first","1","er09ut07","0","22","1","1","3","1","","0","1","0","null","","","<div style=""font-size:60px;"">+</div>","null","","","","","","","","","",""
"","html-keyboard-response","196","667362","0.0-10.0-1.14","p1hk1efaj6","many_one","0","direct_first","1","er09ut07","0","22","1","1","3","1","","0","1","0","null","","","<img src = 'category4/CS6.png' width = '100%;'>","null","","","","","","","","","",""
"","html-keyboard-response","197","667632","0.0-10.0-2.14","p1hk1efaj6","many_one","0","direct_first","1","er09ut07","0","22","1","1","3","1","","0","1","0","null","","","<img src = 'targets/32.png' width = '100%;'>","null","","","","","","","","","",""
"","html-keyboard-response","198","668534","0.0-10.0-3.14","p1hk1efaj6","many_one","0","direct_first","1","er09ut07","0","22","1","1","3","1","","0","1","0","902","","","<img src = 'targets/mask.png' width = '100%;'>","68","neg","CS","CS","4","category4/CS6.png","","targets/32.png","indirect","0","14"
"","html-keyboard-response","199","670052","0.0-10.0-0.15","p1hk1efaj6","many_one","0","direct_first","1","er09ut07","0","22","1","1","3","1","","0","1","0","null","","","<div style=""font-size:60px;"">+</div>","null","","","","","","","","","",""
"","html-keyboard-response","200","670153","0.0-10.0-1.15","p1hk1efaj6","many_one","0","direct_first","1","er09ut07","0","22","1","1","3","1","","0","1","0","null","","","<img src = 'category3/CS2.png' width = '100%;'>","null","","","","","","","","","",""
"","html-keyboard-response","201","670432","0.0-10.0-2.15","p1hk1efaj6","many_one","0","direct_first","1","er09ut07","0","22","1","1","3","1","","0","1","0","null","","","<img src = 'targets/12.png' width = '100%;'>","null","","","","","","","","","",""
"","html-keyboard-response","202","671229","0.0-10.0-3.15","p1hk1efaj6","many_one","0","direct_first","1","er09ut07","0","22","1","1","3","1","","0","1","0","796","","","<img src = 'targets/mask.png' width = '100%;'>","75","pos","CS","CS","3","category3/CS2.png","","targets/12.png","indirect","1","15"
"","html-keyboard-response","203","672762","0.0-10.0-0.16","p1hk1efaj6","many_one","0","direct_first","1","er09ut07","0","22","1","1","3","1","","0","1","0","null","","","<div style=""font-size:60px;"">+</div>","null","","","","","","","","","",""
"","html-keyboard-response","204","672862","0.0-10.0-1.16","p1hk1efaj6","many_one","0","direct_first","1","er09ut07","0","22","1","1","3","1","","0","1","0","null","","","<img src = 'category1/CS3.png' width = '100%;'>","null","","","","","","","","","",""
"","html-keyboard-response","205","673142","0.0-10.0-2.16","p1hk1efaj6","many_one","0","direct_first","1","er09ut07","0","22","1","1","3","1","","0","1","0","null","","","<img src = 'targets/1.png' width = '100%;'>","null","","","","","","","","","",""
"","html-keyboard-response","206","673980","0.0-10.0-3.16","p1hk1efaj6","many_one","0","direct_first","1","er09ut07","0","22","1","1","3","1","","0","1","0","837","","","<img src = 'targets/mask.png' width = '100%;'>","68","neg","CS","CS","1","category1/CS3.png","","targets/1.png","indirect","0","16"
"","html-keyboard-response","207","675502","0.0-10.0-0.17","p1hk1efaj6","many_one","0","direct_first","1","er09ut07","0","22","1","1","3","1","","0","1","0","null","","","<div style=""font-size:60px;"">+</div>","null","","","","","","","","","",""
"","html-keyboard-response","208","675613","0.0-10.0-1.17","p1hk1efaj6","many_one","0","direct_first","1","er09ut07","0","22","1","1","3","1","","0","1","0","null","","","<img src = 'category4/CS3.png' width = '100%;'>","null","","","","","","","","","",""
"","html-keyboard-response","209","675882","0.0-10.0-2.17","p1hk1efaj6","many_one","0","direct_first","1","er09ut07","0","22","1","1","3","1","","0","1","0","null","","","<img src = 'targets/25.png' width = '100%;'>","null","","","","","","","","","",""
"","html-keyboard-response","210","676645","0.0-10.0-3.17","p1hk1efaj6","many_one","0","direct_first","1","er09ut07","0","22","1","1","3","1","","0","1","0","761","","","<img src = 'targets/mask.png' width = '100%;'>","75","neg","CS","CS","4","category4/CS3.png","","targets/25.png","indirect","1","17"
"","html-keyboard-response","211","678162","0.0-10.0-0.18","p1hk1efaj6","many_one","0","direct_first","1","er09ut07","0","22","1","1","3","1","","0","1","0","null","","","<div style=""font-size:60px;"">+</div>","null","","","","","","","","","",""
"","html-keyboard-response","212","678272","0.0-10.0-1.18","p1hk1efaj6","many_one","0","direct_first","1","er09ut07","0","22","1","1","3","1","","0","1","0","null","","","<img src = 'category4/CS1.png' width = '100%;'>","null","","","","","","","","","",""
"","html-keyboard-response","213","678543","0.0-10.0-2.18","p1hk1efaj6","many_one","0","direct_first","1","er09ut07","0","22","1","1","3","1","","0","1","0","null","","","<img src = 'targets/30.png' width = '100%;'>","null","","","","","","","","","",""
"","html-keyboard-response","214","679240","0.0-10.0-3.18","p1hk1efaj6","many_one","0","direct_first","1","er09ut07","0","22","1","1","3","1","","0","1","0","697","","","<img src = 'targets/mask.png' width = '100%;'>","75","neg","CS","CS","4","category4/CS1.png","","targets/30.png","indirect","1","18"
"","html-keyboard-response","215","680772","0.0-10.0-0.19","p1hk1efaj6","many_one","0","direct_first","1","er09ut07","0","22","1","1","3","1","","0","1","0","null","","","<div style=""font-size:60px;"">+</div>","null","","","","","","","","","",""
"","html-keyboard-response","216","680873","0.0-10.0-1.19","p1hk1efaj6","many_one","0","direct_first","1","er09ut07","0","22","1","1","3","1","","0","1","0","null","","","<img src = 'category1/CS6.png' width = '100%;'>","null","","","","","","","","","",""
"","html-keyboard-response","217","681142","0.0-10.0-2.19","p1hk1efaj6","many_one","0","direct_first","1","er09ut07","0","22","1","1","3","1","","0","1","0","null","","","<img src = 'targets/31.png' width = '100%;'>","null","","","","","","","","","",""
"","html-keyboard-response","218","683025","0.0-10.0-3.19","p1hk1efaj6","many_one","0","direct_first","1","er09ut07","0","22","1","1","3","1","","0","1","0","1881","","","<img src = 'targets/mask.png' width = '100%;'>","68","neg","CS","CS","1","category1/CS6.png","","targets/31.png","indirect","0","19"
"","html-keyboard-response","219","684552","0.0-10.0-0.20","p1hk1efaj6","many_one","0","direct_first","1","er09ut07","0","22","1","1","3","1","","0","1","0","null","","","<div style=""font-size:60px;"">+</div>","null","","","","","","","","","",""
"","html-keyboard-response","220","684652","0.0-10.0-1.20","p1hk1efaj6","many_one","0","direct_first","1","er09ut07","0","22","1","1","3","1","","0","1","0","null","","","<img src = 'category3/CS10.png' width = '100%;'>","null","","","","","","","","","",""
"","html-keyboard-response","221","684923","0.0-10.0-2.20","p1hk1efaj6","many_one","0","direct_first","1","er09ut07","0","22","1","1","3","1","","0","1","0","null","","","<img src = 'targets/17.png' width = '100%;'>","null","","","","","","","","","",""
"","html-keyboard-response","222","685564","0.0-10.0-3.20","p1hk1efaj6","many_one","0","direct_first","1","er09ut07","0","22","1","1","3","1","","0","1","0","641","","","<img src = 'targets/mask.png' width = '100%;'>","75","pos","CS","CS","3","category3/CS10.png","","targets/17.png","indirect","1","20"
"","html-keyboard-response","223","687082","0.0-10.0-0.21","p1hk1efaj6","many_one","0","direct_first","1","er09ut07","0","22","1","1","3","1","","0","1","0","null","","","<div style=""font-size:60px;"">+</div>","null","","","","","","","","","",""
"","html-keyboard-response","224","687182","0.0-10.0-1.21","p1hk1efaj6","many_one","0","direct_first","1","er09ut07","0","22","1","1","3","1","","0","1","0","null","","","<img src = 'category3/CS7.png' width = '100%;'>","null","","","","","","","","","",""
"","html-keyboard-response","225","687462","0.0-10.0-2.21","p1hk1efaj6","many_one","0","direct_first","1","er09ut07","0","22","1","1","3","1","","0","1","0","null","","","<img src = 'targets/4.png' width = '100%;'>","null","","","","","","","","","",""
"","html-keyboard-response","226","688903","0.0-10.0-3.21","p1hk1efaj6","many_one","0","direct_first","1","er09ut07","0","22","1","1","3","1","","0","1","0","1439","","","<img src = 'targets/mask.png' width = '100%;'>","75","pos","CS","CS","3","category3/CS7.png","","targets/4.png","indirect","1","21"
"","html-keyboard-response","227","690443","0.0-10.0-0.22","p1hk1efaj6","many_one","0","direct_first","1","er09ut07","0","22","1","1","3","1","","0","1","0","null","","","<div style=""font-size:60px;"">+</div>","null","","","","","","","","","",""
"","html-keyboard-response","228","690552","0.0-10.0-1.22","p1hk1efaj6","many_one","0","direct_first","1","er09ut07","0","22","1","1","3","1","","0","1","0","null","","","<img src = 'category1/CS5.png' width = '100%;'>","null","","","","","","","","","",""
"","html-keyboard-response","229","690832","0.0-10.0-2.22","p1hk1efaj6","many_one","0","direct_first","1","er09ut07","0","22","1","1","3","1","","0","1","0","null","","","<img src = 'targets/47.png' width = '100%;'>","null","","","","","","","","","",""
"","html-keyboard-response","230","691535","0.0-10.0-3.22","p1hk1efaj6","many_one","0","direct_first","1","er09ut07","0","22","1","1","3","1","","0","1","0","701","","","<img src = 'targets/mask.png' width = '100%;'>","68","neg","CS","CS","1","category1/CS5.png","","targets/47.png","indirect","0","22"
"","html-keyboard-response","231","693073","0.0-10.0-0.23","p1hk1efaj6","many_one","0","direct_first","1","er09ut07","0","22","1","1","3","1","","0","1","0","null","","","<div style=""font-size:60px;"">+</div>","null","","","","","","","","","",""
"","html-keyboard-response","232","693172","0.0-10.0-1.23","p1hk1efaj6","many_one","0","direct_first","1","er09ut07","0","22","1","1","3","1","","0","1","0","null","","","<img src = 'category4/CS7.png' width = '100%;'>","null","","","","","","","","","",""
"","html-keyboard-response","233","693442","0.0-10.0-2.23","p1hk1efaj6","many_one","0","direct_first","1","er09ut07","0","22","1","1","3","1","","0","1","0","null","","","<img src = 'targets/36.png' width = '100%;'>","null","","","","","","","","","",""
"","html-keyboard-response","234","694919","0.0-10.0-3.23","p1hk1efaj6","many_one","0","direct_first","1","er09ut07","0","22","1","1","3","1","","0","1","0","1476","","","<img src = 'targets/mask.png' width = '100%;'>","68","neg","CS","CS","4","category4/CS7.png","","targets/36.png","indirect","0","23"
"","survey-html-form","235","697646","0.0-11.0","p1hk1efaj6","many_one","0","direct_first","1","er09ut07","0","22","1","1","3","1","","0","1","0","2213","","{}","","","","","","","","","","","",""
"","html-keyboard-response","236","700672","0.0-12.0-0.0","p1hk1efaj6","many_one","0","direct_first","1","er09ut07","0","22","1","1","3","1","","0","1","0","null","","","<div style=""font-size:60px;"">+</div>","null","","","","","","","","","",""
"","html-keyboard-response","237","700773","0.0-12.0-1.0","p1hk1efaj6","many_one","0","direct_first","1","er09ut07","0","22","1","1","3","1","","0","1","0","null","","","<img src = 'category2/GS3.png' width = '100%;'>","null","","","","","","","","","",""
"","html-keyboard-response","238","701042","0.0-12.0-2.0","p1hk1efaj6","many_one","0","direct_first","1","er09ut07","0","22","1","1","3","1","","0","1","0","null","","","<img src = 'targets/6.png' width = '100%;'>","null","","","","","","","","","",""
"","html-keyboard-response","239","701695","0.0-12.0-3.0","p1hk1efaj6","many_one","0","direct_first","1","er09ut07","0","22","1","1","3","1","","0","1","0","651","","","<img src = 'targets/mask.png' width = '100%;'>","75","pos","GS","GSnew","2","category2/GS3.png","","targets/6.png","indirect","1","24"
"","html-keyboard-response","240","703213","0.0-12.0-0.1","p1hk1efaj6","many_one","0","direct_first","1","er09ut07","0","22","1","1","3","1","","0","1","0","null","","","<div style=""font-size:60px;"">+</div>","null","","","","","","","","","",""
"","html-keyboard-response","241","703312","0.0-12.0-1.1","p1hk1efaj6","many_one","0","direct_first","1","er09ut07","0","22","1","1","3","1","","0","1","0","null","","","<img src = 'category2/GS1.png' width = '100%;'>","null","","","","","","","","","",""
"","html-keyboard-response","242","703592","0.0-12.0-2.1","p1hk1efaj6","many_one","0","direct_first","1","er09ut07","0","22","1","1","3","1","","0","1","0","null","","","<img src = 'targets/2.png' width = '100%;'>","null","","","","","","","","","",""
"","html-keyboard-response","243","704955","0.0-12.0-3.1","p1hk1efaj6","many_one","0","direct_first","1","er09ut07","0","22","1","1","3","1","","0","1","0","1361","","","<img src = 'targets/mask.png' width = '100%;'>","75","pos","GS","GSnew","2","category2/GS1.png","","targets/2.png","indirect","1","25"
"","html-keyboard-response","244","706473","0.0-12.0-0.2","p1hk1efaj6","many_one","0","direct_first","1","er09ut07","0","22","1","1","3","1","","0","1","0","null","","","<div style=""font-size:60px;"">+</div>","null","","","","","","","","","",""
"","html-keyboard-response","245","706573","0.0-12.0-1.2","p1hk1efaj6","many_one","0","direct_first","1","er09ut07","0","22","1","1","3","1","","0","1","0","null","","","<img src = 'category3/wang.png' width = '100%;'>","null","","","","","","","","","",""
"","html-keyboard-response","246","706853","0.0-12.0-2.2","p1hk1efaj6","many_one","0","direct_first","1","er09ut07","0","22","1","1","3","1","","0","1","0","null","","","<img src = 'targets/16.png' width = '100%;'>","null","","","","","","","","","",""
"","html-keyboard-response","247","707418","0.0-12.0-3.2","p1hk1efaj6","many_one","0","direct_first","1","er09ut07","0","22","1","1","3","1","","0","1","0","564","","","<img src = 'targets/mask.png' width = '100%;'>","75","pos","GS","abstract","3","category3/wang.png","","targets/16.png","indirect","1","26"
"","html-keyboard-response","248","708953","0.0-12.0-0.3","p1hk1efaj6","many_one","0","direct_first","1","er09ut07","0","22","1","1","3","1","","0","1","0","null","","","<div style=""font-size:60px;"">+</div>","null","","","","","","","","","",""
"","html-keyboard-response","249","709052","0.0-12.0-1.3","p1hk1efaj6","many_one","0","direct_first","1","er09ut07","0","22","1","1","3","1","","0","1","0","null","","","<img src = 'category4/CS9.png' width = '100%;'>","null","","","","","","","","","",""
"","html-keyboard-response","250","709328","0.0-12.0-2.3","p1hk1efaj6","many_one","0","direct_first","1","er09ut07","0","22","1","1","3","1","","0","1","0","null","","","<img src = 'targets/44.png' width = '100%;'>","null","","","","","","","","","",""
"","html-keyboard-response","251","710438","0.0-12.0-3.3","p1hk1efaj6","many_one","0","direct_first","1","er09ut07","0","22","1","1","3","1","","0","1","0","1108","","","<img src = 'targets/mask.png' width = '100%;'>","75","neg","GS","GSold","4","category4/CS9.png","","targets/44.png","indirect","1","27"
"","html-keyboard-response","252","711982","0.0-12.0-0.4","p1hk1efaj6","many_one","0","direct_first","1","er09ut07","0","22","1","1","3","1","","0","1","0","null","","","<div style=""font-size:60px;"">+</div>","null","","","","","","","","","",""
"","html-keyboard-response","253","712083","0.0-12.0-1.4","p1hk1efaj6","many_one","0","direct_first","1","er09ut07","0","22","1","1","3","1","","0","1","0","null","","","<img src = 'category4/GS3.png' width = '100%;'>","null","","","","","","","","","",""
"","html-keyboard-response","254","712363","0.0-12.0-2.4","p1hk1efaj6","many_one","0","direct_first","1","er09ut07","0","22","1","1","3","1","","0","1","0","null","","","<img src = 'targets/15.png' width = '100%;'>","null","","","","","","","","","",""
"","html-keyboard-response","255","713213","0.0-12.0-3.4","p1hk1efaj6","many_one","0","direct_first","1","er09ut07","0","22","1","1","3","1","","0","1","0","850","","","<img src = 'targets/mask.png' width = '100%;'>","68","neg","GS","GSnew","4","category4/GS3.png","","targets/15.png","indirect","0","28"
"","html-keyboard-response","256","714732","0.0-12.0-0.5","p1hk1efaj6","many_one","0","direct_first","1","er09ut07","0","22","1","1","3","1","","0","1","0","null","","","<div style=""font-size:60px;"">+</div>","null","","","","","","","","","",""
"","html-keyboard-response","257","714833","0.0-12.0-1.5","p1hk1efaj6","many_one","0","direct_first","1","er09ut07","0","22","1","1","3","1","","0","1","0","null","","","<img src = 'category2/men.png' width = '100%;'>","null","","","","","","","","","",""
"","html-keyboard-response","258","715102","0.0-12.0-2.5","p1hk1efaj6","many_one","0","direct_first","1","er09ut07","0","22","1","1","3","1","","0","1","0","null","","","<img src = 'targets/13.png' width = '100%;'>","null","","","","","","","","","",""
"","html-keyboard-response","259","716135","0.0-12.0-3.5","p1hk1efaj6","many_one","0","direct_first","1","er09ut07","0","22","1","1","3","1","","0","1","0","1032","","","<img src = 'targets/mask.png' width = '100%;'>","68","pos","GS","abstract","2","category2/men.png","","targets/13.png","indirect","0","29"
"","html-keyboard-response","260","717652","0.0-12.0-0.6","p1hk1efaj6","many_one","0","direct_first","1","er09ut07","0","22","1","1","3","1","","0","1","0","null","","","<div style=""font-size:60px;"">+</div>","null","","","","","","","","","",""
"","html-keyboard-response","261","717753","0.0-12.0-1.6","p1hk1efaj6","many_one","0","direct_first","1","er09ut07","0","22","1","1","3","1","","0","1","0","null","","","<img src = 'category4/lin.png' width = '100%;'>","null","","","","","","","","","",""
"","html-keyboard-response","262","718032","0.0-12.0-2.6","p1hk1efaj6","many_one","0","direct_first","1","er09ut07","0","22","1","1","3","1","","0","1","0","null","","","<img src = 'targets/41.png' width = '100%;'>","null","","","","","","","","","",""
"","html-keyboard-response","263","720158","0.0-12.0-3.6","p1hk1efaj6","many_one","0","direct_first","1","er09ut07","0","22","1","1","3","1","","0","1","0","2125","","","<img src = 'targets/mask.png' width = '100%;'>","68","neg","GS","abstract","4","category4/lin.png","","targets/41.png","indirect","0","30"
"","html-keyboard-response","264","721663","0.0-12.0-0.7","p1hk1efaj6","many_one","0","direct_first","1","er09ut07","0","22","1","1","3","1","","0","1","0","null","","","<div style=""font-size:60px;"">+</div>","null","","","","","","","","","",""
"","html-keyboard-response","265","721763","0.0-12.0-1.7","p1hk1efaj6","many_one","0","direct_first","1","er09ut07","0","22","1","1","3","1","","0","1","0","null","","","<img src = 'category4/GS1.png' width = '100%;'>","null","","","","","","","","","",""
"","html-keyboard-response","266","722042","0.0-12.0-2.7","p1hk1efaj6","many_one","0","direct_first","1","er09ut07","0","22","1","1","3","1","","0","1","0","null","","","<img src = 'targets/37.png' width = '100%;'>","null","","","","","","","","","",""
"","html-keyboard-response","267","723221","0.0-12.0-3.7","p1hk1efaj6","many_one","0","direct_first","1","er09ut07","0","22","1","1","3","1","","0","1","0","1177","","","<img src = 'targets/mask.png' width = '100%;'>","68","neg","GS","GSnew","4","category4/GS1.png","","targets/37.png","indirect","0","31"
"","html-keyboard-response","268","724723","0.0-12.0-0.8","p1hk1efaj6","many_one","0","direct_first","1","er09ut07","0","22","1","1","3","1","","0","1","0","null","","","<div style=""font-size:60px;"">+</div>","null","","","","","","","","","",""
"","html-keyboard-response","269","724822","0.0-12.0-1.8","p1hk1efaj6","many_one","0","direct_first","1","er09ut07","0","22","1","1","3","1","","0","1","0","null","","","<img src = 'category1/GS2.png' width = '100%;'>","null","","","","","","","","","",""
"","html-keyboard-response","270","725092","0.0-12.0-2.8","p1hk1efaj6","many_one","0","direct_first","1","er09ut07","0","22","1","1","3","1","","0","1","0","null","","","<img src = 'targets/19.png' width = '100%;'>","null","","","","","","","","","",""
"","html-keyboard-response","271","725811","0.0-12.0-3.8","p1hk1efaj6","many_one","0","direct_first","1","er09ut07","0","22","1","1","3","1","","0","1","0","716","","","<img src = 'targets/mask.png' width = '100%;'>","75","neg","GS","GSnew","1","category1/GS2.png","","targets/19.png","indirect","1","32"
"","html-keyboard-response","272","727332","0.0-12.0-0.9","p1hk1efaj6","many_one","0","direct_first","1","er09ut07","0","22","1","1","3","1","","0","1","0","null","","","<div style=""font-size:60px;"">+</div>","null","","","","","","","","","",""
"","html-keyboard-response","273","727433","0.0-12.0-1.9","p1hk1efaj6","many_one","0","direct_first","1","er09ut07","0","22","1","1","3","1","","0","1","0","null","","","<img src = 'category3/GS2.png' width = '100%;'>","null","","","","","","","","","",""
"","html-keyboard-response","274","727702","0.0-12.0-2.9","p1hk1efaj6","many_one","0","direct_first","1","er09ut07","0","22","1","1","3","1","","0","1","0","null","","","<img src = 'targets/10.png' width = '100%;'>","null","","","","","","","","","",""
"","html-keyboard-response","275","728223","0.0-12.0-3.9","p1hk1efaj6","many_one","0","direct_first","1","er09ut07","0","22","1","1","3","1","","0","1","0","519","","","<img src = 'targets/mask.png' width = '100%;'>","75","pos","GS","GSnew","3","category3/GS2.png","","targets/10.png","indirect","1","33"
"","html-keyboard-response","276","729742","0.0-12.0-0.10","p1hk1efaj6","many_one","0","direct_first","1","er09ut07","0","22","1","1","3","1","","0","1","0","null","","","<div style=""font-size:60px;"">+</div>","null","","","","","","","","","",""
"","html-keyboard-response","277","729834","0.0-12.0-1.10","p1hk1efaj6","many_one","0","direct_first","1","er09ut07","0","22","1","1","3","1","","0","1","0","null","","","<img src = 'category2/GS2.png' width = '100%;'>","null","","","","","","","","","",""
"","html-keyboard-response","278","730102","0.0-12.0-2.10","p1hk1efaj6","many_one","0","direct_first","1","er09ut07","0","22","1","1","3","1","","0","1","0","null","","","<img src = 'targets/9.png' width = '100%;'>","null","","","","","","","","","",""
"","html-keyboard-response","279","731079","0.0-12.0-3.10","p1hk1efaj6","many_one","0","direct_first","1","er09ut07","0","22","1","1","3","1","","0","1","0","975","","","<img src = 'targets/mask.png' width = '100%;'>","75","pos","GS","GSnew","2","category2/GS2.png","","targets/9.png","indirect","1","34"
"","html-keyboard-response","280","732603","0.0-12.0-0.11","p1hk1efaj6","many_one","0","direct_first","1","er09ut07","0","22","1","1","3","1","","0","1","0","null","","","<div style=""font-size:60px;"">+</div>","null","","","","","","","","","",""
"","html-keyboard-response","281","732713","0.0-12.0-1.11","p1hk1efaj6","many_one","0","direct_first","1","er09ut07","0","22","1","1","3","1","","0","1","0","null","","","<img src = 'category2/CS4.png' width = '100%;'>","null","","","","","","","","","",""
"","html-keyboard-response","282","732993","0.0-12.0-2.11","p1hk1efaj6","many_one","0","direct_first","1","er09ut07","0","22","1","1","3","1","","0","1","0","null","","","<img src = 'targets/38.png' width = '100%;'>","null","","","","","","","","","",""
"","html-keyboard-response","283","734205","0.0-12.0-3.11","p1hk1efaj6","many_one","0","direct_first","1","er09ut07","0","22","1","1","3","1","","0","1","0","1211","","","<img src = 'targets/mask.png' width = '100%;'>","75","pos","GS","GSold","2","category2/CS4.png","","targets/38.png","indirect","1","35"
"","html-keyboard-response","284","735713","0.0-12.0-0.12","p1hk1efaj6","many_one","0","direct_first","1","er09ut07","0","22","1","1","3","1","","0","1","0","null","","","<div style=""font-size:60px;"">+</div>","null","","","","","","","","","",""
"","html-keyboard-response","285","735813","0.0-12.0-1.12","p1hk1efaj6","many_one","0","direct_first","1","er09ut07","0","22","1","1","3","1","","0","1","0","null","","","<img src = 'category4/CS5.png' width = '100%;'>","null","","","","","","","","","",""
"","html-keyboard-response","286","736093","0.0-12.0-2.12","p1hk1efaj6","many_one","0","direct_first","1","er09ut07","0","22","1","1","3","1","","0","1","0","null","","","<img src = 'targets/45.png' width = '100%;'>","null","","","","","","","","","",""
"","html-keyboard-response","287","736911","0.0-12.0-3.12","p1hk1efaj6","many_one","0","direct_first","1","er09ut07","0","22","1","1","3","1","","0","1","0","816","","","<img src = 'targets/mask.png' width = '100%;'>","68","neg","GS","GSold","4","category4/CS5.png","","targets/45.png","indirect","0","36"
"","html-keyboard-response","288","738413","0.0-12.0-0.13","p1hk1efaj6","many_one","0","direct_first","1","er09ut07","0","22","1","1","3","1","","0","1","0","null","","","<div style=""font-size:60px;"">+</div>","null","","","","","","","","","",""
"","html-keyboard-response","289","738513","0.0-12.0-1.13","p1hk1efaj6","many_one","0","direct_first","1","er09ut07","0","22","1","1","3","1","","0","1","0","null","","","<img src = 'category4/GS2.png' width = '100%;'>","null","","","","","","","","","",""
"","html-keyboard-response","290","738783","0.0-12.0-2.13","p1hk1efaj6","many_one","0","direct_first","1","er09ut07","0","22","1","1","3","1","","0","1","0","null","","","<img src = 'targets/27.png' width = '100%;'>","null","","","","","","","","","",""
"","html-keyboard-response","291","740175","0.0-12.0-3.13","p1hk1efaj6","many_one","0","direct_first","1","er09ut07","0","22","1","1","3","1","","0","1","0","1392","","","<img src = 'targets/mask.png' width = '100%;'>","68","neg","GS","GSnew","4","category4/GS2.png","","targets/27.png","indirect","0","37"
"","html-keyboard-response","292","741700","0.0-12.0-0.14","p1hk1efaj6","many_one","0","direct_first","1","er09ut07","0","22","1","1","3","1","","0","1","0","null","","","<div style=""font-size:60px;"">+</div>","null","","","","","","","","","",""
"","html-keyboard-response","293","741793","0.0-12.0-1.14","p1hk1efaj6","many_one","0","direct_first","1","er09ut07","0","22","1","1","3","1","","0","1","0","null","","","<img src = 'category1/GS3.png' width = '100%;'>","null","","","","","","","","","",""
"","html-keyboard-response","294","742052","0.0-12.0-2.14","p1hk1efaj6","many_one","0","direct_first","1","er09ut07","0","22","1","1","3","1","","0","1","0","null","","","<img src = 'targets/35.png' width = '100%;'>","null","","","","","","","","","",""
"","html-keyboard-response","295","742891","0.0-12.0-3.14","p1hk1efaj6","many_one","0","direct_first","1","er09ut07","0","22","1","1","3","1","","0","1","0","839","","","<img src = 'targets/mask.png' width = '100%;'>","75","neg","GS","GSnew","1","category1/GS3.png","","targets/35.png","indirect","1","38"
"","html-keyboard-response","296","744412","0.0-12.0-0.15","p1hk1efaj6","many_one","0","direct_first","1","er09ut07","0","22","1","1","3","1","","0","1","0","null","","","<div style=""font-size:60px;"">+</div>","null","","","","","","","","","",""
"","html-keyboard-response","297","744512","0.0-12.0-1.15","p1hk1efaj6","many_one","0","direct_first","1","er09ut07","0","22","1","1","3","1","","0","1","0","null","","","<img src = 'category3/CS9.png' width = '100%;'>","null","","","","","","","","","",""
"","html-keyboard-response","298","744773","0.0-12.0-2.15","p1hk1efaj6","many_one","0","direct_first","1","er09ut07","0","22","1","1","3","1","","0","1","0","null","","","<img src = 'targets/29.png' width = '100%;'>","null","","","","","","","","","",""
"","html-keyboard-response","299","745453","0.0-12.0-3.15","p1hk1efaj6","many_one","0","direct_first","1","er09ut07","0","22","1","1","3","1","","0","1","0","679","","","<img src = 'targets/mask.png' width = '100%;'>","75","pos","GS","GSold","3","category3/CS9.png","","targets/29.png","indirect","1","39"
"","html-keyboard-response","300","746972","0.0-12.0-0.16","p1hk1efaj6","many_one","0","direct_first","1","er09ut07","0","22","1","1","3","1","","0","1","0","null","","","<div style=""font-size:60px;"">+</div>","null","","","","","","","","","",""
"","html-keyboard-response","301","747072","0.0-12.0-1.16","p1hk1efaj6","many_one","0","direct_first","1","er09ut07","0","22","1","1","3","1","","0","1","0","null","","","<img src = 'category3/GS3.png' width = '100%;'>","null","","","","","","","","","",""
"","html-keyboard-response","302","747342","0.0-12.0-2.16","p1hk1efaj6","many_one","0","direct_first","1","er09ut07","0","22","1","1","3","1","","0","1","0","null","","","<img src = 'targets/5.png' width = '100%;'>","null","","","","","","","","","",""
"","html-keyboard-response","303","748406","0.0-12.0-3.16","p1hk1efaj6","many_one","0","direct_first","1","er09ut07","0","22","1","1","3","1","","0","1","0","1062","","","<img src = 'targets/mask.png' width = '100%;'>","75","pos","GS","GSnew","3","category3/GS3.png","","targets/5.png","indirect","1","40"
"","html-keyboard-response","304","749923","0.0-12.0-0.17","p1hk1efaj6","many_one","0","direct_first","1","er09ut07","0","22","1","1","3","1","","0","1","0","null","","","<div style=""font-size:60px;"">+</div>","null","","","","","","","","","",""
"","html-keyboard-response","305","750022","0.0-12.0-1.17","p1hk1efaj6","many_one","0","direct_first","1","er09ut07","0","22","1","1","3","1","","0","1","0","null","","","<img src = 'category2/CS3.png' width = '100%;'>","null","","","","","","","","","",""
"","html-keyboard-response","306","750303","0.0-12.0-2.17","p1hk1efaj6","many_one","0","direct_first","1","er09ut07","0","22","1","1","3","1","","0","1","0","null","","","<img src = 'targets/14.png' width = '100%;'>","null","","","","","","","","","",""
"","html-keyboard-response","307","751975","0.0-12.0-3.17","p1hk1efaj6","many_one","0","direct_first","1","er09ut07","0","22","1","1","3","1","","0","1","0","1671","","","<img src = 'targets/mask.png' width = '100%;'>","68","pos","GS","GSold","2","category2/CS3.png","","targets/14.png","indirect","0","41"
"","html-keyboard-response","308","753502","0.0-12.0-0.18","p1hk1efaj6","many_one","0","direct_first","1","er09ut07","0","22","1","1","3","1","","0","1","0","null","","","<div style=""font-size:60px;"">+</div>","null","","","","","","","","","",""
"","html-keyboard-response","309","753602","0.0-12.0-1.18","p1hk1efaj6","many_one","0","direct_first","1","er09ut07","0","22","1","1","3","1","","0","1","0","null","","","<img src = 'category4/CS10.png' width = '100%;'>","null","","","","","","","","","",""
"","html-keyboard-response","310","753882","0.0-12.0-2.18","p1hk1efaj6","many_one","0","direct_first","1","er09ut07","0","22","1","1","3","1","","0","1","0","null","","","<img src = 'targets/40.png' width = '100%;'>","null","","","","","","","","","",""
"","html-keyboard-response","311","755262","0.0-12.0-3.18","p1hk1efaj6","many_one","0","direct_first","1","er09ut07","0","22","1","1","3","1","","0","1","0","1378","","","<img src = 'targets/mask.png' width = '100%;'>","75","neg","GS","GSold","4","category4/CS10.png","","targets/40.png","indirect","1","42"
"","html-keyboard-response","312","756773","0.0-12.0-0.19","p1hk1efaj6","many_one","0","direct_first","1","er09ut07","0","22","1","1","3","1","","0","1","0","null","","","<div style=""font-size:60px;"">+</div>","null","","","","","","","","","",""
"","html-keyboard-response","313","756872","0.0-12.0-1.19","p1hk1efaj6","many_one","0","direct_first","1","er09ut07","0","22","1","1","3","1","","0","1","0","null","","","<img src = 'category2/CS6.png' width = '100%;'>","null","","","","","","","","","",""
"","html-keyboard-response","314","757143","0.0-12.0-2.19","p1hk1efaj6","many_one","0","direct_first","1","er09ut07","0","22","1","1","3","1","","0","1","0","null","","","<img src = 'targets/8.png' width = '100%;'>","null","","","","","","","","","",""
"","html-keyboard-response","315","757903","0.0-12.0-3.19","p1hk1efaj6","many_one","0","direct_first","1","er09ut07","0","22","1","1","3","1","","0","1","0","758","","","<img src = 'targets/mask.png' width = '100%;'>","75","pos","GS","GSold","2","category2/CS6.png","","targets/8.png","indirect","1","43"
"","html-keyboard-response","316","759442","0.0-12.0-0.20","p1hk1efaj6","many_one","0","direct_first","1","er09ut07","0","22","1","1","3","1","","0","1","0","null","","","<div style=""font-size:60px;"">+</div>","null","","","","","","","","","",""
"","html-keyboard-response","317","759542","0.0-12.0-1.20","p1hk1efaj6","many_one","0","direct_first","1","er09ut07","0","22","1","1","3","1","","0","1","0","null","","","<img src = 'category3/GS1.png' width = '100%;'>","null","","","","","","","","","",""
"","html-keyboard-response","318","759813","0.0-12.0-2.20","p1hk1efaj6","many_one","0","direct_first","1","er09ut07","0","22","1","1","3","1","","0","1","0","null","","","<img src = 'targets/48.png' width = '100%;'>","null","","","","","","","","","",""
"","html-keyboard-response","319","760492","0.0-12.0-3.20","p1hk1efaj6","many_one","0","direct_first","1","er09ut07","0","22","1","1","3","1","","0","1","0","679","","","<img src = 'targets/mask.png' width = '100%;'>","75","pos","GS","GSnew","3","category3/GS1.png","","targets/48.png","indirect","1","44"
"","html-keyboard-response","320","762012","0.0-12.0-0.21","p1hk1efaj6","many_one","0","direct_first","1","er09ut07","0","22","1","1","3","1","","0","1","0","null","","","<div style=""font-size:60px;"">+</div>","null","","","","","","","","","",""
"","html-keyboard-response","321","762113","0.0-12.0-1.21","p1hk1efaj6","many_one","0","direct_first","1","er09ut07","0","22","1","1","3","1","","0","1","0","null","","","<img src = 'category3/CS3.png' width = '100%;'>","null","","","","","","","","","",""
"","html-keyboard-response","322","762393","0.0-12.0-2.21","p1hk1efaj6","many_one","0","direct_first","1","er09ut07","0","22","1","1","3","1","","0","1","0","null","","","<img src = 'targets/21.png' width = '100%;'>","null","","","","","","","","","",""
"","html-keyboard-response","323","763206","0.0-12.0-3.21","p1hk1efaj6","many_one","0","direct_first","1","er09ut07","0","22","1","1","3","1","","0","1","0","812","","","<img src = 'targets/mask.png' width = '100%;'>","68","pos","GS","GSold","3","category3/CS3.png","","targets/21.png","indirect","0","45"
"","html-keyboard-response","324","764733","0.0-12.0-0.22","p1hk1efaj6","many_one","0","direct_first","1","er09ut07","0","22","1","1","3","1","","0","1","0","null","","","<div style=""font-size:60px;"">+</div>","null","","","","","","","","","",""
"","html-keyboard-response","325","764832","0.0-12.0-1.22","p1hk1efaj6","many_one","0","direct_first","1","er09ut07","0","22","1","1","3","1","","0","1","0","null","","","<img src = 'category1/ma.png' width = '100%;'>","null","","","","","","","","","",""
"","html-keyboard-response","326","765110","0.0-12.0-2.22","p1hk1efaj6","many_one","0","direct_first","1","er09ut07","0","22","1","1","3","1","","0","1","0","null","","","<img src = 'targets/11.png' width = '100%;'>","null","","","","","","","","","",""
"","html-keyboard-response","327","765947","0.0-12.0-3.22","p1hk1efaj6","many_one","0","direct_first","1","er09ut07","0","22","1","1","3","1","","0","1","0","836","","","<img src = 'targets/mask.png' width = '100%;'>","68","neg","GS","abstract","1","category1/ma.png","","targets/11.png","indirect","0","46"
"","html-keyboard-response","328","767463","0.0-12.0-0.23","p1hk1efaj6","many_one","0","direct_first","1","er09ut07","0","22","1","1","3","1","","0","1","0","null","","","<div style=""font-size:60px;"">+</div>","null","","","","","","","","","",""
"","html-keyboard-response","329","767562","0.0-12.0-1.23","p1hk1efaj6","many_one","0","direct_first","1","er09ut07","0","22","1","1","3","1","","0","1","0","null","","","<img src = 'category1/GS1.png' width = '100%;'>","null","","","","","","","","","",""
"","html-keyboard-response","330","767833","0.0-12.0-2.23","p1hk1efaj6","many_one","0","direct_first","1","er09ut07","0","22","1","1","3","1","","0","1","0","null","","","<img src = 'targets/42.png' width = '100%;'>","null","","","","","","","","","",""
"","html-keyboard-response","331","768610","0.0-12.0-3.23","p1hk1efaj6","many_one","0","direct_first","1","er09ut07","0","22","1","1","3","1","","0","1","0","775","","","<img src = 'targets/mask.png' width = '100%;'>","75","neg","GS","GSnew","1","category1/GS1.png","","targets/42.png","indirect","1","47"
"","survey-html-form","332","774487","0.0-13.0","p1hk1efaj6","many_one","0","direct_first","1","er09ut07","0","22","1","1","3","1","","0","1","0","5374","","{}","","","","","","","","","","","",""
