"success","trial_type","trial_index","time_elapsed","internal_node_id","subject","condition","condition_code","measure","measure_code","codeword","gender","age","education","chinese","fach","handedness","comment","hinschauen","ablenkung","gewissenhaft","rt","url","responses","stimulus","key_press","val","type","type_specific","category","cs_selected","response","target","task","indirect","nr_pres"
"true","fullscreen","0","5824","0.0-0.0","f8o9k5n2ov","one_one","1","direct_first","1","ne06in18","0","23","1","1","3","1","","1","0","0","","","","","","","","","","","","","","",""
"","external-html","1","120483","0.0-1.0","f8o9k5n2ov","one_one","1","direct_first","1","ne06in18","0","23","1","1","3","1","","1","0","0","114602.4299999699","text/information.html","","","","","","","","","","","","",""
"","external-html","2","128696","0.0-2.0","f8o9k5n2ov","one_one","1","direct_first","1","ne06in18","0","23","1","1","3","1","","1","0","0","8126.589999999851","text/consent.html","","","","","","","","","","","","",""
"","survey-html-form","3","184232","0.0-3.0","f8o9k5n2ov","one_one","1","direct_first","1","ne06in18","0","23","1","1","3","1","","1","0","0","55533.13500015065","","{""codeword_enter"":""ne06in18""}","","","","","","","","","","","",""
"","survey-html-form","4","214525","0.0-4.0","f8o9k5n2ov","one_one","1","direct_first","1","ne06in18","0","23","1","1","3","1","","1","0","0","30291.39499971643","","{""age"":""23"",""education"":""1"",""subject"":""3"",""gender"":""0"",""handedness"":""1"",""chinese"":""1""}","","","","","","","","","","","",""
"","survey-html-form","5","225779","0.0-5.0","f8o9k5n2ov","one_one","1","direct_first","1","ne06in18","0","23","1","1","3","1","","1","0","0","11251.530000008643","","{}","","","","","","","","","","","",""
"","html-keyboard-response","6","229798","0.0-6.0-0.0-0.0","f8o9k5n2ov","one_one","1","direct_first","1","ne06in18","0","23","1","1","3","1","","1","0","0","null","","","<div class = 'row'><div class = 'column'><img src = 'category1/CS7.png' width = '70%;'></div><div class = 'column'><img src = 'usneg/9635.2.bmp' width = '100%;'></div></div>","null","neg","CS","CS","1","category1/CS7.png","","","","",""
"","html-keyboard-response","7","232316","0.0-6.0-0.0-0.1","f8o9k5n2ov","one_one","1","direct_first","1","ne06in18","0","23","1","1","3","1","","1","0","0","null","","","<div class = 'row'><div class = 'column'><img src = 'usneg/9220.bmp' width = '100%;'></div><div class = 'column'><img src = 'category4/CS4.png' width = '70%;'></div></div>","null","neg","CS","CS","4","category4/CS4.png","","","","",""
"","html-keyboard-response","8","234838","0.0-6.0-0.0-0.2","f8o9k5n2ov","one_one","1","direct_first","1","ne06in18","0","23","1","1","3","1","","1","0","0","null","","","<div class = 'row'><div class = 'column'><img src = 'uspos/2530.bmp' width = '100%;'></div><div class = 'column'><img src = 'category2/CS1.png' width = '70%;'></div></div>","null","pos","CS","CS","2","category2/CS1.png","","","","",""
"","html-keyboard-response","9","237367","0.0-6.0-0.0-0.3","f8o9k5n2ov","one_one","1","direct_first","1","ne06in18","0","23","1","1","3","1","","1","0","0","null","","","<div class = 'row'><div class = 'column'><img src = 'uspos/5470.bmp' width = '100%;'></div><div class = 'column'><img src = 'category3/CS8.png' width = '70%;'></div></div>","null","pos","CS","CS","3","category3/CS8.png","","","","",""
"","html-keyboard-response","10","239891","0.0-6.0-0.0-0.4","f8o9k5n2ov","one_one","1","direct_first","1","ne06in18","0","23","1","1","3","1","","1","0","0","null","","","<div class = 'row'><div class = 'column'><img src = 'category2/CS1.png' width = '70%;'></div><div class = 'column'><img src = 'uspos/2530.bmp' width = '100%;'></div></div>","null","pos","CS","CS","2","category2/CS1.png","","","","",""
"","html-keyboard-response","11","242411","0.0-6.0-0.0-0.5","f8o9k5n2ov","one_one","1","direct_first","1","ne06in18","0","23","1","1","3","1","","1","0","0","null","","","<div class = 'row'><div class = 'column'><img src = 'category4/CS4.png' width = '70%;'></div><div class = 'column'><img src = 'usneg/9220.bmp' width = '100%;'></div></div>","null","neg","CS","CS","4","category4/CS4.png","","","","",""
"","html-keyboard-response","12","244929","0.0-6.0-0.0-0.6","f8o9k5n2ov","one_one","1","direct_first","1","ne06in18","0","23","1","1","3","1","","1","0","0","null","","","<div class = 'row'><div class = 'column'><img src = 'category1/CS7.png' width = '70%;'></div><div class = 'column'><img src = 'usneg/9635.2.bmp' width = '100%;'></div></div>","null","neg","CS","CS","1","category1/CS7.png","","","","",""
"","html-keyboard-response","13","247445","0.0-6.0-0.0-0.7","f8o9k5n2ov","one_one","1","direct_first","1","ne06in18","0","23","1","1","3","1","","1","0","0","null","","","<div class = 'row'><div class = 'column'><img src = 'usneg/9220.bmp' width = '100%;'></div><div class = 'column'><img src = 'category4/CS4.png' width = '70%;'></div></div>","null","neg","CS","CS","4","category4/CS4.png","","","","",""
"","html-keyboard-response","14","249963","0.0-6.0-0.0-0.8","f8o9k5n2ov","one_one","1","direct_first","1","ne06in18","0","23","1","1","3","1","","1","0","0","null","","","<div class = 'row'><div class = 'column'><img src = 'category1/CS7.png' width = '70%;'></div><div class = 'column'><img src = 'usneg/9635.2.bmp' width = '100%;'></div></div>","null","neg","CS","CS","1","category1/CS7.png","","","","",""
"","html-keyboard-response","15","252476","0.0-6.0-0.0-0.9","f8o9k5n2ov","one_one","1","direct_first","1","ne06in18","0","23","1","1","3","1","","1","0","0","null","","","<div class = 'row'><div class = 'column'><img src = 'category3/CS8.png' width = '70%;'></div><div class = 'column'><img src = 'uspos/5470.bmp' width = '100%;'></div></div>","null","pos","CS","CS","3","category3/CS8.png","","","","",""
"","html-keyboard-response","16","254998","0.0-6.0-0.0-0.10","f8o9k5n2ov","one_one","1","direct_first","1","ne06in18","0","23","1","1","3","1","","1","0","0","null","","","<div class = 'row'><div class = 'column'><img src = 'category4/CS4.png' width = '70%;'></div><div class = 'column'><img src = 'usneg/9220.bmp' width = '100%;'></div></div>","null","neg","CS","CS","4","category4/CS4.png","","","","",""
"","html-keyboard-response","17","257512","0.0-6.0-0.0-0.11","f8o9k5n2ov","one_one","1","direct_first","1","ne06in18","0","23","1","1","3","1","","1","0","0","null","","","<div class = 'row'><div class = 'column'><img src = 'uspos/5470.bmp' width = '100%;'></div><div class = 'column'><img src = 'category3/CS8.png' width = '70%;'></div></div>","null","pos","CS","CS","3","category3/CS8.png","","","","",""
"","html-keyboard-response","18","260030","0.0-6.0-0.0-0.12","f8o9k5n2ov","one_one","1","direct_first","1","ne06in18","0","23","1","1","3","1","","1","0","0","null","","","<div class = 'row'><div class = 'column'><img src = 'uspos/2530.bmp' width = '100%;'></div><div class = 'column'><img src = 'category2/CS1.png' width = '70%;'></div></div>","null","pos","CS","CS","2","category2/CS1.png","","","","",""
"","html-keyboard-response","19","262539","0.0-6.0-0.0-0.13","f8o9k5n2ov","one_one","1","direct_first","1","ne06in18","0","23","1","1","3","1","","1","0","0","null","","","<div class = 'row'><div class = 'column'><img src = 'usneg/9635.2.bmp' width = '100%;'></div><div class = 'column'><img src = 'category1/CS7.png' width = '70%;'></div></div>","null","neg","CS","CS","1","category1/CS7.png","","","","",""
"","html-keyboard-response","20","265056","0.0-6.0-0.0-0.14","f8o9k5n2ov","one_one","1","direct_first","1","ne06in18","0","23","1","1","3","1","","1","0","0","null","","","<div class = 'row'><div class = 'column'><img src = 'uspos/5470.bmp' width = '100%;'></div><div class = 'column'><img src = 'category3/CS8.png' width = '70%;'></div></div>","null","pos","CS","CS","3","category3/CS8.png","","","","",""
"","html-keyboard-response","21","267577","0.0-6.0-0.0-0.15","f8o9k5n2ov","one_one","1","direct_first","1","ne06in18","0","23","1","1","3","1","","1","0","0","null","","","<div class = 'row'><div class = 'column'><img src = 'category2/CS1.png' width = '70%;'></div><div class = 'column'><img src = 'uspos/2530.bmp' width = '100%;'></div></div>","null","pos","CS","CS","2","category2/CS1.png","","","","",""
"","html-keyboard-response","22","270088","0.0-6.0-0.0-0.16","f8o9k5n2ov","one_one","1","direct_first","1","ne06in18","0","23","1","1","3","1","","1","0","0","null","","","<div class = 'row'><div class = 'column'><img src = 'category3/CS8.png' width = '70%;'></div><div class = 'column'><img src = 'uspos/5470.bmp' width = '100%;'></div></div>","null","pos","CS","CS","3","category3/CS8.png","","","","",""
"","html-keyboard-response","23","272610","0.0-6.0-0.0-0.17","f8o9k5n2ov","one_one","1","direct_first","1","ne06in18","0","23","1","1","3","1","","1","0","0","null","","","<div class = 'row'><div class = 'column'><img src = 'category4/CS4.png' width = '70%;'></div><div class = 'column'><img src = 'usneg/9220.bmp' width = '100%;'></div></div>","null","neg","CS","CS","4","category4/CS4.png","","","","",""
"","html-keyboard-response","24","275125","0.0-6.0-0.0-0.18","f8o9k5n2ov","one_one","1","direct_first","1","ne06in18","0","23","1","1","3","1","","1","0","0","null","","","<div class = 'row'><div class = 'column'><img src = 'uspos/2530.bmp' width = '100%;'></div><div class = 'column'><img src = 'category2/CS1.png' width = '70%;'></div></div>","null","pos","CS","CS","2","category2/CS1.png","","","","",""
"","html-keyboard-response","25","277639","0.0-6.0-0.0-0.19","f8o9k5n2ov","one_one","1","direct_first","1","ne06in18","0","23","1","1","3","1","","1","0","0","null","","","<div class = 'row'><div class = 'column'><img src = 'usneg/9635.2.bmp' width = '100%;'></div><div class = 'column'><img src = 'category1/CS7.png' width = '70%;'></div></div>","null","neg","CS","CS","1","category1/CS7.png","","","","",""
"","survey-html-form","26","286351","0.0-6.0-1.0","f8o9k5n2ov","one_one","1","direct_first","1","ne06in18","0","23","1","1","3","1","","1","0","0","8207.71999983117","","{}","","","","","","","","","","","",""
"","html-keyboard-response","27","290372","0.0-6.0-2.0-0.0","f8o9k5n2ov","one_one","1","direct_first","1","ne06in18","0","23","1","1","3","1","","1","0","0","null","","","<div class = 'row'><div class = 'column'><img src = 'uspos/2530.bmp' width = '100%;'></div><div class = 'column'><img src = 'category2/CS1.png' width = '70%;'></div></div>","null","pos","CS","CS","2","category2/CS1.png","","","","",""
"","html-keyboard-response","28","292884","0.0-6.0-2.0-0.1","f8o9k5n2ov","one_one","1","direct_first","1","ne06in18","0","23","1","1","3","1","","1","0","0","null","","","<div class = 'row'><div class = 'column'><img src = 'category4/CS4.png' width = '70%;'></div><div class = 'column'><img src = 'usneg/9220.bmp' width = '100%;'></div></div>","null","neg","CS","CS","4","category4/CS4.png","","","","",""
"","html-keyboard-response","29","295402","0.0-6.0-2.0-0.2","f8o9k5n2ov","one_one","1","direct_first","1","ne06in18","0","23","1","1","3","1","","1","0","0","null","","","<div class = 'row'><div class = 'column'><img src = 'uspos/2530.bmp' width = '100%;'></div><div class = 'column'><img src = 'category2/CS1.png' width = '70%;'></div></div>","null","pos","CS","CS","2","category2/CS1.png","","","","",""
"","html-keyboard-response","30","297907","0.0-6.0-2.0-0.3","f8o9k5n2ov","one_one","1","direct_first","1","ne06in18","0","23","1","1","3","1","","1","0","0","null","","","<div class = 'row'><div class = 'column'><img src = 'uspos/5470.bmp' width = '100%;'></div><div class = 'column'><img src = 'category3/CS8.png' width = '70%;'></div></div>","null","pos","CS","CS","3","category3/CS8.png","","","","",""
"","html-keyboard-response","31","300426","0.0-6.0-2.0-0.4","f8o9k5n2ov","one_one","1","direct_first","1","ne06in18","0","23","1","1","3","1","","1","0","0","null","","","<div class = 'row'><div class = 'column'><img src = 'category2/CS1.png' width = '70%;'></div><div class = 'column'><img src = 'uspos/2530.bmp' width = '100%;'></div></div>","null","pos","CS","CS","2","category2/CS1.png","","","","",""
"","html-keyboard-response","32","302939","0.0-6.0-2.0-0.5","f8o9k5n2ov","one_one","1","direct_first","1","ne06in18","0","23","1","1","3","1","","1","0","0","null","","","<div class = 'row'><div class = 'column'><img src = 'uspos/5470.bmp' width = '100%;'></div><div class = 'column'><img src = 'category3/CS8.png' width = '70%;'></div></div>","null","pos","CS","CS","3","category3/CS8.png","","","","",""
"","html-keyboard-response","33","305452","0.0-6.0-2.0-0.6","f8o9k5n2ov","one_one","1","direct_first","1","ne06in18","0","23","1","1","3","1","","1","0","0","null","","","<div class = 'row'><div class = 'column'><img src = 'usneg/9220.bmp' width = '100%;'></div><div class = 'column'><img src = 'category4/CS4.png' width = '70%;'></div></div>","null","neg","CS","CS","4","category4/CS4.png","","","","",""
"","html-keyboard-response","34","307976","0.0-6.0-2.0-0.7","f8o9k5n2ov","one_one","1","direct_first","1","ne06in18","0","23","1","1","3","1","","1","0","0","null","","","<div class = 'row'><div class = 'column'><img src = 'usneg/9635.2.bmp' width = '100%;'></div><div class = 'column'><img src = 'category1/CS7.png' width = '70%;'></div></div>","null","neg","CS","CS","1","category1/CS7.png","","","","",""
"","html-keyboard-response","35","310499","0.0-6.0-2.0-0.8","f8o9k5n2ov","one_one","1","direct_first","1","ne06in18","0","23","1","1","3","1","","1","0","0","null","","","<div class = 'row'><div class = 'column'><img src = 'uspos/5470.bmp' width = '100%;'></div><div class = 'column'><img src = 'category3/CS8.png' width = '70%;'></div></div>","null","pos","CS","CS","3","category3/CS8.png","","","","",""
"","html-keyboard-response","36","313019","0.0-6.0-2.0-0.9","f8o9k5n2ov","one_one","1","direct_first","1","ne06in18","0","23","1","1","3","1","","1","0","0","null","","","<div class = 'row'><div class = 'column'><img src = 'category4/CS4.png' width = '70%;'></div><div class = 'column'><img src = 'usneg/9220.bmp' width = '100%;'></div></div>","null","neg","CS","CS","4","category4/CS4.png","","","","",""
"","html-keyboard-response","37","315546","0.0-6.0-2.0-0.10","f8o9k5n2ov","one_one","1","direct_first","1","ne06in18","0","23","1","1","3","1","","1","0","0","null","","","<div class = 'row'><div class = 'column'><img src = 'uspos/2530.bmp' width = '100%;'></div><div class = 'column'><img src = 'category2/CS1.png' width = '70%;'></div></div>","null","pos","CS","CS","2","category2/CS1.png","","","","",""
"","html-keyboard-response","38","318066","0.0-6.0-2.0-0.11","f8o9k5n2ov","one_one","1","direct_first","1","ne06in18","0","23","1","1","3","1","","1","0","0","null","","","<div class = 'row'><div class = 'column'><img src = 'category3/CS8.png' width = '70%;'></div><div class = 'column'><img src = 'uspos/5470.bmp' width = '100%;'></div></div>","null","pos","CS","CS","3","category3/CS8.png","","","","",""
"","html-keyboard-response","39","320592","0.0-6.0-2.0-0.12","f8o9k5n2ov","one_one","1","direct_first","1","ne06in18","0","23","1","1","3","1","","1","0","0","null","","","<div class = 'row'><div class = 'column'><img src = 'category1/CS7.png' width = '70%;'></div><div class = 'column'><img src = 'usneg/9635.2.bmp' width = '100%;'></div></div>","null","neg","CS","CS","1","category1/CS7.png","","","","",""
"","html-keyboard-response","40","323115","0.0-6.0-2.0-0.13","f8o9k5n2ov","one_one","1","direct_first","1","ne06in18","0","23","1","1","3","1","","1","0","0","null","","","<div class = 'row'><div class = 'column'><img src = 'category3/CS8.png' width = '70%;'></div><div class = 'column'><img src = 'uspos/5470.bmp' width = '100%;'></div></div>","null","pos","CS","CS","3","category3/CS8.png","","","","",""
"","html-keyboard-response","41","325620","0.0-6.0-2.0-0.14","f8o9k5n2ov","one_one","1","direct_first","1","ne06in18","0","23","1","1","3","1","","1","0","0","null","","","<div class = 'row'><div class = 'column'><img src = 'category1/CS7.png' width = '70%;'></div><div class = 'column'><img src = 'usneg/9635.2.bmp' width = '100%;'></div></div>","null","neg","CS","CS","1","category1/CS7.png","","","","",""
"","html-keyboard-response","42","328137","0.0-6.0-2.0-0.15","f8o9k5n2ov","one_one","1","direct_first","1","ne06in18","0","23","1","1","3","1","","1","0","0","null","","","<div class = 'row'><div class = 'column'><img src = 'usneg/9220.bmp' width = '100%;'></div><div class = 'column'><img src = 'category4/CS4.png' width = '70%;'></div></div>","null","neg","CS","CS","4","category4/CS4.png","","","","",""
"","html-keyboard-response","43","330652","0.0-6.0-2.0-0.16","f8o9k5n2ov","one_one","1","direct_first","1","ne06in18","0","23","1","1","3","1","","1","0","0","null","","","<div class = 'row'><div class = 'column'><img src = 'usneg/9635.2.bmp' width = '100%;'></div><div class = 'column'><img src = 'category1/CS7.png' width = '70%;'></div></div>","null","neg","CS","CS","1","category1/CS7.png","","","","",""
"","html-keyboard-response","44","333183","0.0-6.0-2.0-0.17","f8o9k5n2ov","one_one","1","direct_first","1","ne06in18","0","23","1","1","3","1","","1","0","0","null","","","<div class = 'row'><div class = 'column'><img src = 'uspos/2530.bmp' width = '100%;'></div><div class = 'column'><img src = 'category2/CS1.png' width = '70%;'></div></div>","null","pos","CS","CS","2","category2/CS1.png","","","","",""
"","html-keyboard-response","45","335696","0.0-6.0-2.0-0.18","f8o9k5n2ov","one_one","1","direct_first","1","ne06in18","0","23","1","1","3","1","","1","0","0","null","","","<div class = 'row'><div class = 'column'><img src = 'usneg/9220.bmp' width = '100%;'></div><div class = 'column'><img src = 'category4/CS4.png' width = '70%;'></div></div>","null","neg","CS","CS","4","category4/CS4.png","","","","",""
"","html-keyboard-response","46","338214","0.0-6.0-2.0-0.19","f8o9k5n2ov","one_one","1","direct_first","1","ne06in18","0","23","1","1","3","1","","1","0","0","null","","","<div class = 'row'><div class = 'column'><img src = 'usneg/9635.2.bmp' width = '100%;'></div><div class = 'column'><img src = 'category1/CS7.png' width = '70%;'></div></div>","null","neg","CS","CS","1","category1/CS7.png","","","","",""
"","survey-html-form","47","341447","0.0-6.0-3.0","f8o9k5n2ov","one_one","1","direct_first","1","ne06in18","0","23","1","1","3","1","","1","0","0","2720.939999911934","","{}","","","","","","","","","","","",""
"","html-keyboard-response","48","345468","0.0-6.0-4.0-0.0","f8o9k5n2ov","one_one","1","direct_first","1","ne06in18","0","23","1","1","3","1","","1","0","0","null","","","<div class = 'row'><div class = 'column'><img src = 'category4/CS4.png' width = '70%;'></div><div class = 'column'><img src = 'usneg/9220.bmp' width = '100%;'></div></div>","null","neg","CS","CS","4","category4/CS4.png","","","","",""
"","html-keyboard-response","49","347982","0.0-6.0-4.0-0.1","f8o9k5n2ov","one_one","1","direct_first","1","ne06in18","0","23","1","1","3","1","","1","0","0","null","","","<div class = 'row'><div class = 'column'><img src = 'category1/CS7.png' width = '70%;'></div><div class = 'column'><img src = 'usneg/9635.2.bmp' width = '100%;'></div></div>","null","neg","CS","CS","1","category1/CS7.png","","","","",""
"","html-keyboard-response","50","350487","0.0-6.0-4.0-0.2","f8o9k5n2ov","one_one","1","direct_first","1","ne06in18","0","23","1","1","3","1","","1","0","0","null","","","<div class = 'row'><div class = 'column'><img src = 'category2/CS1.png' width = '70%;'></div><div class = 'column'><img src = 'uspos/2530.bmp' width = '100%;'></div></div>","null","pos","CS","CS","2","category2/CS1.png","","","","",""
"","html-keyboard-response","51","353009","0.0-6.0-4.0-0.3","f8o9k5n2ov","one_one","1","direct_first","1","ne06in18","0","23","1","1","3","1","","1","0","0","null","","","<div class = 'row'><div class = 'column'><img src = 'category4/CS4.png' width = '70%;'></div><div class = 'column'><img src = 'usneg/9220.bmp' width = '100%;'></div></div>","null","neg","CS","CS","4","category4/CS4.png","","","","",""
"","html-keyboard-response","52","355532","0.0-6.0-4.0-0.4","f8o9k5n2ov","one_one","1","direct_first","1","ne06in18","0","23","1","1","3","1","","1","0","0","null","","","<div class = 'row'><div class = 'column'><img src = 'category3/CS8.png' width = '70%;'></div><div class = 'column'><img src = 'uspos/5470.bmp' width = '100%;'></div></div>","null","pos","CS","CS","3","category3/CS8.png","","","","",""
"","html-keyboard-response","53","358053","0.0-6.0-4.0-0.5","f8o9k5n2ov","one_one","1","direct_first","1","ne06in18","0","23","1","1","3","1","","1","0","0","null","","","<div class = 'row'><div class = 'column'><img src = 'category4/CS4.png' width = '70%;'></div><div class = 'column'><img src = 'usneg/9220.bmp' width = '100%;'></div></div>","null","neg","CS","CS","4","category4/CS4.png","","","","",""
"","html-keyboard-response","54","360584","0.0-6.0-4.0-0.6","f8o9k5n2ov","one_one","1","direct_first","1","ne06in18","0","23","1","1","3","1","","1","0","0","null","","","<div class = 'row'><div class = 'column'><img src = 'category3/CS8.png' width = '70%;'></div><div class = 'column'><img src = 'uspos/5470.bmp' width = '100%;'></div></div>","null","pos","CS","CS","3","category3/CS8.png","","","","",""
"","html-keyboard-response","55","363098","0.0-6.0-4.0-0.7","f8o9k5n2ov","one_one","1","direct_first","1","ne06in18","0","23","1","1","3","1","","1","0","0","null","","","<div class = 'row'><div class = 'column'><img src = 'category2/CS1.png' width = '70%;'></div><div class = 'column'><img src = 'uspos/2530.bmp' width = '100%;'></div></div>","null","pos","CS","CS","2","category2/CS1.png","","","","",""
"","html-keyboard-response","56","365620","0.0-6.0-4.0-0.8","f8o9k5n2ov","one_one","1","direct_first","1","ne06in18","0","23","1","1","3","1","","1","0","0","null","","","<div class = 'row'><div class = 'column'><img src = 'uspos/5470.bmp' width = '100%;'></div><div class = 'column'><img src = 'category3/CS8.png' width = '70%;'></div></div>","null","pos","CS","CS","3","category3/CS8.png","","","","",""
"","html-keyboard-response","57","368139","0.0-6.0-4.0-0.9","f8o9k5n2ov","one_one","1","direct_first","1","ne06in18","0","23","1","1","3","1","","1","0","0","null","","","<div class = 'row'><div class = 'column'><img src = 'category4/CS4.png' width = '70%;'></div><div class = 'column'><img src = 'usneg/9220.bmp' width = '100%;'></div></div>","null","neg","CS","CS","4","category4/CS4.png","","","","",""
"","html-keyboard-response","58","370660","0.0-6.0-4.0-0.10","f8o9k5n2ov","one_one","1","direct_first","1","ne06in18","0","23","1","1","3","1","","1","0","0","null","","","<div class = 'row'><div class = 'column'><img src = 'usneg/9635.2.bmp' width = '100%;'></div><div class = 'column'><img src = 'category1/CS7.png' width = '70%;'></div></div>","null","neg","CS","CS","1","category1/CS7.png","","","","",""
"","html-keyboard-response","59","373189","0.0-6.0-4.0-0.11","f8o9k5n2ov","one_one","1","direct_first","1","ne06in18","0","23","1","1","3","1","","1","0","0","null","","","<div class = 'row'><div class = 'column'><img src = 'category2/CS1.png' width = '70%;'></div><div class = 'column'><img src = 'uspos/2530.bmp' width = '100%;'></div></div>","null","pos","CS","CS","2","category2/CS1.png","","","","",""
"","html-keyboard-response","60","375707","0.0-6.0-4.0-0.12","f8o9k5n2ov","one_one","1","direct_first","1","ne06in18","0","23","1","1","3","1","","1","0","0","null","","","<div class = 'row'><div class = 'column'><img src = 'usneg/9635.2.bmp' width = '100%;'></div><div class = 'column'><img src = 'category1/CS7.png' width = '70%;'></div></div>","null","neg","CS","CS","1","category1/CS7.png","","","","",""
"","html-keyboard-response","61","378226","0.0-6.0-4.0-0.13","f8o9k5n2ov","one_one","1","direct_first","1","ne06in18","0","23","1","1","3","1","","1","0","0","null","","","<div class = 'row'><div class = 'column'><img src = 'uspos/5470.bmp' width = '100%;'></div><div class = 'column'><img src = 'category3/CS8.png' width = '70%;'></div></div>","null","pos","CS","CS","3","category3/CS8.png","","","","",""
"","html-keyboard-response","62","380741","0.0-6.0-4.0-0.14","f8o9k5n2ov","one_one","1","direct_first","1","ne06in18","0","23","1","1","3","1","","1","0","0","null","","","<div class = 'row'><div class = 'column'><img src = 'category2/CS1.png' width = '70%;'></div><div class = 'column'><img src = 'uspos/2530.bmp' width = '100%;'></div></div>","null","pos","CS","CS","2","category2/CS1.png","","","","",""
"","html-keyboard-response","63","383273","0.0-6.0-4.0-0.15","f8o9k5n2ov","one_one","1","direct_first","1","ne06in18","0","23","1","1","3","1","","1","0","0","null","","","<div class = 'row'><div class = 'column'><img src = 'uspos/5470.bmp' width = '100%;'></div><div class = 'column'><img src = 'category3/CS8.png' width = '70%;'></div></div>","null","pos","CS","CS","3","category3/CS8.png","","","","",""
"","html-keyboard-response","64","385790","0.0-6.0-4.0-0.16","f8o9k5n2ov","one_one","1","direct_first","1","ne06in18","0","23","1","1","3","1","","1","0","0","null","","","<div class = 'row'><div class = 'column'><img src = 'uspos/2530.bmp' width = '100%;'></div><div class = 'column'><img src = 'category2/CS1.png' width = '70%;'></div></div>","null","pos","CS","CS","2","category2/CS1.png","","","","",""
"","html-keyboard-response","65","388308","0.0-6.0-4.0-0.17","f8o9k5n2ov","one_one","1","direct_first","1","ne06in18","0","23","1","1","3","1","","1","0","0","null","","","<div class = 'row'><div class = 'column'><img src = 'usneg/9635.2.bmp' width = '100%;'></div><div class = 'column'><img src = 'category1/CS7.png' width = '70%;'></div></div>","null","neg","CS","CS","1","category1/CS7.png","","","","",""
"","html-keyboard-response","66","390838","0.0-6.0-4.0-0.18","f8o9k5n2ov","one_one","1","direct_first","1","ne06in18","0","23","1","1","3","1","","1","0","0","null","","","<div class = 'row'><div class = 'column'><img src = 'category4/CS4.png' width = '70%;'></div><div class = 'column'><img src = 'usneg/9220.bmp' width = '100%;'></div></div>","null","neg","CS","CS","4","category4/CS4.png","","","","",""
"","html-keyboard-response","67","393351","0.0-6.0-4.0-0.19","f8o9k5n2ov","one_one","1","direct_first","1","ne06in18","0","23","1","1","3","1","","1","0","0","null","","","<div class = 'row'><div class = 'column'><img src = 'usneg/9635.2.bmp' width = '100%;'></div><div class = 'column'><img src = 'category1/CS7.png' width = '70%;'></div></div>","null","neg","CS","CS","1","category1/CS7.png","","","","",""
"","survey-html-form","68","396952","0.0-6.0-5.0","f8o9k5n2ov","one_one","1","direct_first","1","ne06in18","0","23","1","1","3","1","","1","0","0","3088.694999925792","","{}","","","","","","","","","","","",""
"","html-keyboard-response","69","400970","0.0-6.0-6.0-0.0","f8o9k5n2ov","one_one","1","direct_first","1","ne06in18","0","23","1","1","3","1","","1","0","0","null","","","<div class = 'row'><div class = 'column'><img src = 'usneg/9220.bmp' width = '100%;'></div><div class = 'column'><img src = 'category4/CS4.png' width = '70%;'></div></div>","null","neg","CS","CS","4","category4/CS4.png","","","","",""
"","html-keyboard-response","70","403484","0.0-6.0-6.0-0.1","f8o9k5n2ov","one_one","1","direct_first","1","ne06in18","0","23","1","1","3","1","","1","0","0","null","","","<div class = 'row'><div class = 'column'><img src = 'category1/CS7.png' width = '70%;'></div><div class = 'column'><img src = 'usneg/9635.2.bmp' width = '100%;'></div></div>","null","neg","CS","CS","1","category1/CS7.png","","","","",""
"","html-keyboard-response","71","406006","0.0-6.0-6.0-0.2","f8o9k5n2ov","one_one","1","direct_first","1","ne06in18","0","23","1","1","3","1","","1","0","0","null","","","<div class = 'row'><div class = 'column'><img src = 'category4/CS4.png' width = '70%;'></div><div class = 'column'><img src = 'usneg/9220.bmp' width = '100%;'></div></div>","null","neg","CS","CS","4","category4/CS4.png","","","","",""
"","html-keyboard-response","72","408525","0.0-6.0-6.0-0.3","f8o9k5n2ov","one_one","1","direct_first","1","ne06in18","0","23","1","1","3","1","","1","0","0","null","","","<div class = 'row'><div class = 'column'><img src = 'category2/CS1.png' width = '70%;'></div><div class = 'column'><img src = 'uspos/2530.bmp' width = '100%;'></div></div>","null","pos","CS","CS","2","category2/CS1.png","","","","",""
"","html-keyboard-response","73","411045","0.0-6.0-6.0-0.4","f8o9k5n2ov","one_one","1","direct_first","1","ne06in18","0","23","1","1","3","1","","1","0","0","null","","","<div class = 'row'><div class = 'column'><img src = 'category3/CS8.png' width = '70%;'></div><div class = 'column'><img src = 'uspos/5470.bmp' width = '100%;'></div></div>","null","pos","CS","CS","3","category3/CS8.png","","","","",""
"","html-keyboard-response","74","413556","0.0-6.0-6.0-0.5","f8o9k5n2ov","one_one","1","direct_first","1","ne06in18","0","23","1","1","3","1","","1","0","0","null","","","<div class = 'row'><div class = 'column'><img src = 'category2/CS1.png' width = '70%;'></div><div class = 'column'><img src = 'uspos/2530.bmp' width = '100%;'></div></div>","null","pos","CS","CS","2","category2/CS1.png","","","","",""
"","html-keyboard-response","75","416086","0.0-6.0-6.0-0.6","f8o9k5n2ov","one_one","1","direct_first","1","ne06in18","0","23","1","1","3","1","","1","0","0","null","","","<div class = 'row'><div class = 'column'><img src = 'category4/CS4.png' width = '70%;'></div><div class = 'column'><img src = 'usneg/9220.bmp' width = '100%;'></div></div>","null","neg","CS","CS","4","category4/CS4.png","","","","",""
"","html-keyboard-response","76","418606","0.0-6.0-6.0-0.7","f8o9k5n2ov","one_one","1","direct_first","1","ne06in18","0","23","1","1","3","1","","1","0","0","null","","","<div class = 'row'><div class = 'column'><img src = 'usneg/9635.2.bmp' width = '100%;'></div><div class = 'column'><img src = 'category1/CS7.png' width = '70%;'></div></div>","null","neg","CS","CS","1","category1/CS7.png","","","","",""
"","html-keyboard-response","77","421134","0.0-6.0-6.0-0.8","f8o9k5n2ov","one_one","1","direct_first","1","ne06in18","0","23","1","1","3","1","","1","0","0","null","","","<div class = 'row'><div class = 'column'><img src = 'usneg/9220.bmp' width = '100%;'></div><div class = 'column'><img src = 'category4/CS4.png' width = '70%;'></div></div>","null","neg","CS","CS","4","category4/CS4.png","","","","",""
"","html-keyboard-response","78","423651","0.0-6.0-6.0-0.9","f8o9k5n2ov","one_one","1","direct_first","1","ne06in18","0","23","1","1","3","1","","1","0","0","null","","","<div class = 'row'><div class = 'column'><img src = 'uspos/2530.bmp' width = '100%;'></div><div class = 'column'><img src = 'category2/CS1.png' width = '70%;'></div></div>","null","pos","CS","CS","2","category2/CS1.png","","","","",""
"","html-keyboard-response","79","426165","0.0-6.0-6.0-0.10","f8o9k5n2ov","one_one","1","direct_first","1","ne06in18","0","23","1","1","3","1","","1","0","0","null","","","<div class = 'row'><div class = 'column'><img src = 'category3/CS8.png' width = '70%;'></div><div class = 'column'><img src = 'uspos/5470.bmp' width = '100%;'></div></div>","null","pos","CS","CS","3","category3/CS8.png","","","","",""
"","html-keyboard-response","80","428681","0.0-6.0-6.0-0.11","f8o9k5n2ov","one_one","1","direct_first","1","ne06in18","0","23","1","1","3","1","","1","0","0","null","","","<div class = 'row'><div class = 'column'><img src = 'uspos/2530.bmp' width = '100%;'></div><div class = 'column'><img src = 'category2/CS1.png' width = '70%;'></div></div>","null","pos","CS","CS","2","category2/CS1.png","","","","",""
"","html-keyboard-response","81","431216","0.0-6.0-6.0-0.12","f8o9k5n2ov","one_one","1","direct_first","1","ne06in18","0","23","1","1","3","1","","1","0","0","null","","","<div class = 'row'><div class = 'column'><img src = 'usneg/9635.2.bmp' width = '100%;'></div><div class = 'column'><img src = 'category1/CS7.png' width = '70%;'></div></div>","null","neg","CS","CS","1","category1/CS7.png","","","","",""
"","html-keyboard-response","82","433755","0.0-6.0-6.0-0.13","f8o9k5n2ov","one_one","1","direct_first","1","ne06in18","0","23","1","1","3","1","","1","0","0","null","","","<div class = 'row'><div class = 'column'><img src = 'uspos/5470.bmp' width = '100%;'></div><div class = 'column'><img src = 'category3/CS8.png' width = '70%;'></div></div>","null","pos","CS","CS","3","category3/CS8.png","","","","",""
"","html-keyboard-response","83","436273","0.0-6.0-6.0-0.14","f8o9k5n2ov","one_one","1","direct_first","1","ne06in18","0","23","1","1","3","1","","1","0","0","null","","","<div class = 'row'><div class = 'column'><img src = 'category1/CS7.png' width = '70%;'></div><div class = 'column'><img src = 'usneg/9635.2.bmp' width = '100%;'></div></div>","null","neg","CS","CS","1","category1/CS7.png","","","","",""
"","html-keyboard-response","84","438799","0.0-6.0-6.0-0.15","f8o9k5n2ov","one_one","1","direct_first","1","ne06in18","0","23","1","1","3","1","","1","0","0","null","","","<div class = 'row'><div class = 'column'><img src = 'uspos/5470.bmp' width = '100%;'></div><div class = 'column'><img src = 'category3/CS8.png' width = '70%;'></div></div>","null","pos","CS","CS","3","category3/CS8.png","","","","",""
"","html-keyboard-response","85","441316","0.0-6.0-6.0-0.16","f8o9k5n2ov","one_one","1","direct_first","1","ne06in18","0","23","1","1","3","1","","1","0","0","null","","","<div class = 'row'><div class = 'column'><img src = 'category4/CS4.png' width = '70%;'></div><div class = 'column'><img src = 'usneg/9220.bmp' width = '100%;'></div></div>","null","neg","CS","CS","4","category4/CS4.png","","","","",""
"","html-keyboard-response","86","443834","0.0-6.0-6.0-0.17","f8o9k5n2ov","one_one","1","direct_first","1","ne06in18","0","23","1","1","3","1","","1","0","0","null","","","<div class = 'row'><div class = 'column'><img src = 'uspos/5470.bmp' width = '100%;'></div><div class = 'column'><img src = 'category3/CS8.png' width = '70%;'></div></div>","null","pos","CS","CS","3","category3/CS8.png","","","","",""
"","html-keyboard-response","87","446363","0.0-6.0-6.0-0.18","f8o9k5n2ov","one_one","1","direct_first","1","ne06in18","0","23","1","1","3","1","","1","0","0","null","","","<div class = 'row'><div class = 'column'><img src = 'uspos/2530.bmp' width = '100%;'></div><div class = 'column'><img src = 'category2/CS1.png' width = '70%;'></div></div>","null","pos","CS","CS","2","category2/CS1.png","","","","",""
"","html-keyboard-response","88","448876","0.0-6.0-6.0-0.19","f8o9k5n2ov","one_one","1","direct_first","1","ne06in18","0","23","1","1","3","1","","1","0","0","null","","","<div class = 'row'><div class = 'column'><img src = 'category1/CS7.png' width = '70%;'></div><div class = 'column'><img src = 'usneg/9635.2.bmp' width = '100%;'></div></div>","null","neg","CS","CS","1","category1/CS7.png","","","","",""
"","survey-html-form","89","461113","0.0-7.0","f8o9k5n2ov","one_one","1","direct_first","1","ne06in18","0","23","1","1","3","1","","1","0","0","11723.315000068396","","{}","","","","","","","","","","","",""
"","image-slider-response","90","470038","0.0-8.0-0.0","f8o9k5n2ov","one_one","1","direct_first","1","ne06in18","0","23","1","1","3","1","","1","0","0","6905.5050001479685","","","","","pos","GS","GSnew","3","category3/GS1.png","63","targets/35.png","direct","",""
"","image-slider-response","91","476632","0.0-8.0-0.1","f8o9k5n2ov","one_one","1","direct_first","1","ne06in18","0","23","1","1","3","1","","1","0","0","6592.509999871254","","","","","pos","GS","abstract","3","category3/wang.png","-29","targets/37.png","direct","",""
"","image-slider-response","92","483085","0.0-8.0-0.2","f8o9k5n2ov","one_one","1","direct_first","1","ne06in18","0","23","1","1","3","1","","1","0","0","6450.20499965176","","","","","neg","CS","CS","4","category4/CS4.png","62","targets/7.png","direct","",""
"","image-slider-response","93","490478","0.0-8.0-0.3","f8o9k5n2ov","one_one","1","direct_first","1","ne06in18","0","23","1","1","3","1","","1","0","0","7391.710000112653","","","","","pos","GS","GSold","2","category2/CS7.png","-83","targets/25.png","direct","",""
"","image-slider-response","94","494531","0.0-8.0-0.4","f8o9k5n2ov","one_one","1","direct_first","1","ne06in18","0","23","1","1","3","1","","1","0","0","4051.715000066906","","","","","pos","GS","abstract","2","category2/men.png","-75","targets/44.png","direct","",""
"","image-slider-response","95","498982","0.0-8.0-0.5","f8o9k5n2ov","one_one","1","direct_first","1","ne06in18","0","23","1","1","3","1","","1","0","0","4448.23500001803","","","","","neg","GS","GSold","4","category4/CS1.png","98","targets/32.png","direct","",""
"","image-slider-response","96","503126","0.0-8.0-0.6","f8o9k5n2ov","one_one","1","direct_first","1","ne06in18","0","23","1","1","3","1","","1","0","0","4142.984999809414","","","","","pos","GS","GSold","3","category3/CS3.png","-42","targets/26.png","direct","",""
"","image-slider-response","97","506747","0.0-8.0-0.7","f8o9k5n2ov","one_one","1","direct_first","1","ne06in18","0","23","1","1","3","1","","1","0","0","3619.179999921471","","","","","neg","GS","GSold","4","category4/CS3.png","-41","targets/29.png","direct","",""
"","image-slider-response","98","510176","0.0-8.0-0.8","f8o9k5n2ov","one_one","1","direct_first","1","ne06in18","0","23","1","1","3","1","","1","0","0","3427.269999869168","","","","","pos","CS","CS","2","category2/CS1.png","-54","targets/34.png","direct","",""
"","image-slider-response","99","514013","0.0-8.0-0.9","f8o9k5n2ov","one_one","1","direct_first","1","ne06in18","0","23","1","1","3","1","","1","0","0","3835.3849998675287","","","","","pos","CS","CS","3","category3/CS8.png","-60","targets/15.png","direct","",""
"","image-slider-response","100","517156","0.0-8.0-0.10","f8o9k5n2ov","one_one","1","direct_first","1","ne06in18","0","23","1","1","3","1","","1","0","0","3140.550000127405","","","","","neg","GS","GSold","1","category1/CS6.png","-24","targets/36.png","direct","",""
"","image-slider-response","101","520193","0.0-8.0-0.11","f8o9k5n2ov","one_one","1","direct_first","1","ne06in18","0","23","1","1","3","1","","1","0","0","3036.4000000990927","","","","","pos","GS","GSold","3","category3/CS9.png","-26","targets/41.png","direct","",""
"","image-slider-response","102","523903","0.0-8.0-0.12","f8o9k5n2ov","one_one","1","direct_first","1","ne06in18","0","23","1","1","3","1","","1","0","0","3707.5449996627867","","","","","neg","GS","GSnew","4","category4/GS3.png","42","targets/48.png","direct","",""
"","image-slider-response","103","527014","0.0-8.0-0.13","f8o9k5n2ov","one_one","1","direct_first","1","ne06in18","0","23","1","1","3","1","","1","0","0","3110.259999986738","","","","","neg","GS","abstract","1","category1/ma.png","-19","targets/5.png","direct","",""
"","image-slider-response","104","530056","0.0-8.0-0.14","f8o9k5n2ov","one_one","1","direct_first","1","ne06in18","0","23","1","1","3","1","","1","0","0","3040.9849998541176","","","","","neg","GS","GSnew","4","category4/GS1.png","-69","targets/21.png","direct","",""
"","image-slider-response","105","533233","0.0-8.0-0.15","f8o9k5n2ov","one_one","1","direct_first","1","ne06in18","0","23","1","1","3","1","","1","0","0","3175.0050000846386","","","","","pos","GS","GSold","2","category2/CS9.png","-41","targets/16.png","direct","",""
"","image-slider-response","106","536033","0.0-8.0-0.16","f8o9k5n2ov","one_one","1","direct_first","1","ne06in18","0","23","1","1","3","1","","1","0","0","2798.7700002267957","","","","","pos","GS","GSold","3","category3/CS10.png","-33","targets/39.png","direct","",""
"","image-slider-response","107","541347","0.0-8.0-0.17","f8o9k5n2ov","one_one","1","direct_first","1","ne06in18","0","23","1","1","3","1","","1","0","0","5312.165000010282","","","","","neg","CS","CS","1","category1/CS7.png","-74","targets/38.png","direct","",""
"","image-slider-response","108","544986","0.0-8.0-0.18","f8o9k5n2ov","one_one","1","direct_first","1","ne06in18","0","23","1","1","3","1","","1","0","0","3637.5950002111495","","","","","neg","GS","GSold","4","category4/CS7.png","33","targets/12.png","direct","",""
"","image-slider-response","109","550153","0.0-8.0-0.19","f8o9k5n2ov","one_one","1","direct_first","1","ne06in18","0","23","1","1","3","1","","1","0","0","5165.229999925941","","","","","pos","GS","GSnew","3","category3/GS3.png","25","targets/40.png","direct","",""
"","image-slider-response","110","553547","0.0-8.0-0.20","f8o9k5n2ov","one_one","1","direct_first","1","ne06in18","0","23","1","1","3","1","","1","0","0","3392.245000228286","","","","","pos","GS","GSnew","2","category2/GS2.png","-35","targets/30.png","direct","",""
"","image-slider-response","111","557692","0.0-8.0-0.21","f8o9k5n2ov","one_one","1","direct_first","1","ne06in18","0","23","1","1","3","1","","1","0","0","4143.9350000582635","","","","","neg","GS","GSnew","1","category1/GS3.png","-27","targets/47.png","direct","",""
"","image-slider-response","112","560841","0.0-8.0-0.22","f8o9k5n2ov","one_one","1","direct_first","1","ne06in18","0","23","1","1","3","1","","1","0","0","3147.394999861717","","","","","neg","GS","GSold","1","category1/CS10.png","30","targets/23.png","direct","",""
"","image-slider-response","113","565024","0.0-8.0-0.23","f8o9k5n2ov","one_one","1","direct_first","1","ne06in18","0","23","1","1","3","1","","1","0","0","4181.249999906868","","","","","neg","GS","GSnew","1","category1/GS2.png","22","targets/14.png","direct","",""
"","image-slider-response","114","568630","0.0-8.0-0.24","f8o9k5n2ov","one_one","1","direct_first","1","ne06in18","0","23","1","1","3","1","","1","0","0","3604.770000092685","","","","","neg","GS","GSnew","4","category4/GS2.png","83","targets/10.png","direct","",""
"","image-slider-response","115","571928","0.0-8.0-0.25","f8o9k5n2ov","one_one","1","direct_first","1","ne06in18","0","23","1","1","3","1","","1","0","0","3296.5449998155236","","","","","pos","GS","GSnew","2","category2/GS3.png","15","targets/8.png","direct","",""
"","image-slider-response","116","577607","0.0-8.0-0.26","f8o9k5n2ov","one_one","1","direct_first","1","ne06in18","0","23","1","1","3","1","","1","0","0","5677.240000106394","","","","","pos","GS","GSold","2","category2/CS6.png","19","targets/1.png","direct","",""
"","image-slider-response","117","580521","0.0-8.0-0.27","f8o9k5n2ov","one_one","1","direct_first","1","ne06in18","0","23","1","1","3","1","","1","0","0","2911.8699999526143","","","","","pos","GS","GSnew","3","category3/GS2.png","-24","targets/9.png","direct","",""
"","image-slider-response","118","587531","0.0-8.0-0.28","f8o9k5n2ov","one_one","1","direct_first","1","ne06in18","0","23","1","1","3","1","","1","0","0","7008.84999986738","","","","","neg","GS","abstract","4","category4/lin.png","89","targets/2.png","direct","",""
"","image-slider-response","119","591824","0.0-8.0-0.29","f8o9k5n2ov","one_one","1","direct_first","1","ne06in18","0","23","1","1","3","1","","1","0","0","4291.3700002245605","","","","","neg","GS","GSold","1","category1/CS3.png","-6","targets/43.png","direct","",""
"","image-slider-response","120","595392","0.0-8.0-0.30","f8o9k5n2ov","one_one","1","direct_first","1","ne06in18","0","23","1","1","3","1","","1","0","0","3566.389999818057","","","","","neg","GS","GSnew","1","category1/GS1.png","-18","targets/19.png","direct","",""
"","image-slider-response","121","598570","0.0-8.0-0.31","f8o9k5n2ov","one_one","1","direct_first","1","ne06in18","0","23","1","1","3","1","","1","0","0","3176.4500001445413","","","","","pos","GS","GSnew","2","category2/GS1.png","-31","targets/42.png","direct","",""
"","html-keyboard-response","122","630913","0.0-9.0","f8o9k5n2ov","one_one","1","direct_first","1","ne06in18","0","23","1","1","3","1","","1","0","0","32340.755000244826","","","<p>Sie sehen nun die chinesischen Zeichen nur ganz kurz. Danach sehen Sie die jeweilige Aussprache der Zeichen als Silbe auf dem Bildschrim. Ihre Aufgabe ist es, für jede Silbe anzugeben, ob diese etwas angenehmes, oder unangenehmes bedeuten könnte. Verlassen Sie sich hier vor allem auf Ihre Intuition.<br><br>Die Zeichen werden nur zur Orientierung dargestellt, beachten Sie sie deshalb nicht. Konzentrieren Sie sich vor allem auf die Silben. <br>Reagieren Sie mit folgenden zwei Tasten: <br><br><b>'D' </b> wenn die Silbe etwas <b>unangenehmes</b> bedeuten könnte. <br><b>'K'</b> wenn die Silbe etwas <b>angenehmes</b> bedeuten könnte. <br><br>Bitte legen Sie nun den Zeigefinger der linken Hand auf die Taste 'D' und den Zeigefinger der rechten Hand auf die Taste 'K'. <br>Reagieren Sie auf jede Silbe so schnell wie möglich. Uns interessiert Ihre spontane Reaktion. <br> <br> <br>Drücken Sie 'D' oder 'K', um die nächste Aufgabe zu starten. </p>","75","","","","","","","","","",""
"","html-keyboard-response","123","633928","0.0-10.0-0.0","f8o9k5n2ov","one_one","1","direct_first","1","ne06in18","0","23","1","1","3","1","","1","0","0","null","","","<div style=""font-size:60px;"">+</div>","null","","","","","","","","","",""
"","html-keyboard-response","124","634025","0.0-10.0-1.0","f8o9k5n2ov","one_one","1","direct_first","1","ne06in18","0","23","1","1","3","1","","1","0","0","null","","","<img src = 'category1/CS10.png' width = '100%;'>","null","","","","","","","","","",""
"","html-keyboard-response","125","634285","0.0-10.0-2.0","f8o9k5n2ov","one_one","1","direct_first","1","ne06in18","0","23","1","1","3","1","","1","0","0","null","","","<img src = 'targets/23.png' width = '100%;'>","null","","","","","","","","","",""
"","html-keyboard-response","126","641403","0.0-10.0-3.0","f8o9k5n2ov","one_one","1","direct_first","1","ne06in18","0","23","1","1","3","1","","1","0","0","7116.640000138432","","","<img src = 'targets/mask.png' width = '100%;'>","75","neg","GS","GSold","1","category1/CS10.png","","targets/23.png","indirect","1","0"
"","html-keyboard-response","127","642924","0.0-10.0-0.1","f8o9k5n2ov","one_one","1","direct_first","1","ne06in18","0","23","1","1","3","1","","1","0","0","null","","","<div style=""font-size:60px;"">+</div>","null","","","","","","","","","",""
"","html-keyboard-response","128","643028","0.0-10.0-1.1","f8o9k5n2ov","one_one","1","direct_first","1","ne06in18","0","23","1","1","3","1","","1","0","0","null","","","<img src = 'category3/CS9.png' width = '100%;'>","null","","","","","","","","","",""
"","html-keyboard-response","129","643292","0.0-10.0-2.1","f8o9k5n2ov","one_one","1","direct_first","1","ne06in18","0","23","1","1","3","1","","1","0","0","null","","","<img src = 'targets/41.png' width = '100%;'>","null","","","","","","","","","",""
"","html-keyboard-response","130","645882","0.0-10.0-3.1","f8o9k5n2ov","one_one","1","direct_first","1","ne06in18","0","23","1","1","3","1","","1","0","0","2588.190000038594","","","<img src = 'targets/mask.png' width = '100%;'>","75","pos","GS","GSold","3","category3/CS9.png","","targets/41.png","indirect","1","1"
"","html-keyboard-response","131","647402","0.0-10.0-0.2","f8o9k5n2ov","one_one","1","direct_first","1","ne06in18","0","23","1","1","3","1","","1","0","0","null","","","<div style=""font-size:60px;"">+</div>","null","","","","","","","","","",""
"","html-keyboard-response","132","647505","0.0-10.0-1.2","f8o9k5n2ov","one_one","1","direct_first","1","ne06in18","0","23","1","1","3","1","","1","0","0","null","","","<img src = 'category3/CS3.png' width = '100%;'>","null","","","","","","","","","",""
"","html-keyboard-response","133","647771","0.0-10.0-2.2","f8o9k5n2ov","one_one","1","direct_first","1","ne06in18","0","23","1","1","3","1","","1","0","0","null","","","<img src = 'targets/26.png' width = '100%;'>","null","","","","","","","","","",""
"","html-keyboard-response","134","649712","0.0-10.0-3.2","f8o9k5n2ov","one_one","1","direct_first","1","ne06in18","0","23","1","1","3","1","","1","0","0","1938.7799999676645","","","<img src = 'targets/mask.png' width = '100%;'>","75","pos","GS","GSold","3","category3/CS3.png","","targets/26.png","indirect","1","2"
"","html-keyboard-response","135","651230","0.0-10.0-0.3","f8o9k5n2ov","one_one","1","direct_first","1","ne06in18","0","23","1","1","3","1","","1","0","0","null","","","<div style=""font-size:60px;"">+</div>","null","","","","","","","","","",""
"","html-keyboard-response","136","651332","0.0-10.0-1.3","f8o9k5n2ov","one_one","1","direct_first","1","ne06in18","0","23","1","1","3","1","","1","0","0","null","","","<img src = 'category2/CS1.png' width = '100%;'>","null","","","","","","","","","",""
"","html-keyboard-response","137","651600","0.0-10.0-2.3","f8o9k5n2ov","one_one","1","direct_first","1","ne06in18","0","23","1","1","3","1","","1","0","0","null","","","<img src = 'targets/34.png' width = '100%;'>","null","","","","","","","","","",""
"","html-keyboard-response","138","652799","0.0-10.0-3.3","f8o9k5n2ov","one_one","1","direct_first","1","ne06in18","0","23","1","1","3","1","","1","0","0","1196.8299997970462","","","<img src = 'targets/mask.png' width = '100%;'>","75","pos","CS","CS","2","category2/CS1.png","","targets/34.png","indirect","1","3"
"","html-keyboard-response","139","654310","0.0-10.0-0.4","f8o9k5n2ov","one_one","1","direct_first","1","ne06in18","0","23","1","1","3","1","","1","0","0","null","","","<div style=""font-size:60px;"">+</div>","null","","","","","","","","","",""
"","html-keyboard-response","140","654414","0.0-10.0-1.4","f8o9k5n2ov","one_one","1","direct_first","1","ne06in18","0","23","1","1","3","1","","1","0","0","null","","","<img src = 'category1/CS3.png' width = '100%;'>","null","","","","","","","","","",""
"","html-keyboard-response","141","654678","0.0-10.0-2.4","f8o9k5n2ov","one_one","1","direct_first","1","ne06in18","0","23","1","1","3","1","","1","0","0","null","","","<img src = 'targets/43.png' width = '100%;'>","null","","","","","","","","","",""
"","html-keyboard-response","142","655952","0.0-10.0-3.4","f8o9k5n2ov","one_one","1","direct_first","1","ne06in18","0","23","1","1","3","1","","1","0","0","1272.9250001721084","","","<img src = 'targets/mask.png' width = '100%;'>","75","neg","GS","GSold","1","category1/CS3.png","","targets/43.png","indirect","1","4"
"","html-keyboard-response","143","657462","0.0-10.0-0.5","f8o9k5n2ov","one_one","1","direct_first","1","ne06in18","0","23","1","1","3","1","","1","0","0","null","","","<div style=""font-size:60px;"">+</div>","null","","","","","","","","","",""
"","html-keyboard-response","144","657560","0.0-10.0-1.5","f8o9k5n2ov","one_one","1","direct_first","1","ne06in18","0","23","1","1","3","1","","1","0","0","null","","","<img src = 'category3/CS10.png' width = '100%;'>","null","","","","","","","","","",""
"","html-keyboard-response","145","657826","0.0-10.0-2.5","f8o9k5n2ov","one_one","1","direct_first","1","ne06in18","0","23","1","1","3","1","","1","0","0","null","","","<img src = 'targets/39.png' width = '100%;'>","null","","","","","","","","","",""
"","html-keyboard-response","146","658478","0.0-10.0-3.5","f8o9k5n2ov","one_one","1","direct_first","1","ne06in18","0","23","1","1","3","1","","1","0","0","650.6849997676909","","","<img src = 'targets/mask.png' width = '100%;'>","75","pos","GS","GSold","3","category3/CS10.png","","targets/39.png","indirect","1","5"
"","html-keyboard-response","147","659997","0.0-10.0-0.6","f8o9k5n2ov","one_one","1","direct_first","1","ne06in18","0","23","1","1","3","1","","1","0","0","null","","","<div style=""font-size:60px;"">+</div>","null","","","","","","","","","",""
"","html-keyboard-response","148","660090","0.0-10.0-1.6","f8o9k5n2ov","one_one","1","direct_first","1","ne06in18","0","23","1","1","3","1","","1","0","0","null","","","<img src = 'category1/CS7.png' width = '100%;'>","null","","","","","","","","","",""
"","html-keyboard-response","149","660358","0.0-10.0-2.6","f8o9k5n2ov","one_one","1","direct_first","1","ne06in18","0","23","1","1","3","1","","1","0","0","null","","","<img src = 'targets/38.png' width = '100%;'>","null","","","","","","","","","",""
"","html-keyboard-response","150","661750","0.0-10.0-3.6","f8o9k5n2ov","one_one","1","direct_first","1","ne06in18","0","23","1","1","3","1","","1","0","0","1390.5050000175834","","","<img src = 'targets/mask.png' width = '100%;'>","75","neg","CS","CS","1","category1/CS7.png","","targets/38.png","indirect","1","6"
"","html-keyboard-response","151","663276","0.0-10.0-0.7","f8o9k5n2ov","one_one","1","direct_first","1","ne06in18","0","23","1","1","3","1","","1","0","0","null","","","<div style=""font-size:60px;"">+</div>","null","","","","","","","","","",""
"","html-keyboard-response","152","663370","0.0-10.0-1.7","f8o9k5n2ov","one_one","1","direct_first","1","ne06in18","0","23","1","1","3","1","","1","0","0","null","","","<img src = 'category1/CS6.png' width = '100%;'>","null","","","","","","","","","",""
"","html-keyboard-response","153","663634","0.0-10.0-2.7","f8o9k5n2ov","one_one","1","direct_first","1","ne06in18","0","23","1","1","3","1","","1","0","0","null","","","<img src = 'targets/36.png' width = '100%;'>","null","","","","","","","","","",""
"","html-keyboard-response","154","665927","0.0-10.0-3.7","f8o9k5n2ov","one_one","1","direct_first","1","ne06in18","0","23","1","1","3","1","","1","0","0","2290.3700000606477","","","<img src = 'targets/mask.png' width = '100%;'>","68","neg","GS","GSold","1","category1/CS6.png","","targets/36.png","indirect","0","7"
"","html-keyboard-response","155","667434","0.0-10.0-0.8","f8o9k5n2ov","one_one","1","direct_first","1","ne06in18","0","23","1","1","3","1","","1","0","0","null","","","<div style=""font-size:60px;"">+</div>","null","","","","","","","","","",""
"","html-keyboard-response","156","667528","0.0-10.0-1.8","f8o9k5n2ov","one_one","1","direct_first","1","ne06in18","0","23","1","1","3","1","","1","0","0","null","","","<img src = 'category2/CS6.png' width = '100%;'>","null","","","","","","","","","",""
"","html-keyboard-response","157","667796","0.0-10.0-2.8","f8o9k5n2ov","one_one","1","direct_first","1","ne06in18","0","23","1","1","3","1","","1","0","0","null","","","<img src = 'targets/1.png' width = '100%;'>","null","","","","","","","","","",""
"","html-keyboard-response","158","668720","0.0-10.0-3.8","f8o9k5n2ov","one_one","1","direct_first","1","ne06in18","0","23","1","1","3","1","","1","0","0","921.9150003045797","","","<img src = 'targets/mask.png' width = '100%;'>","68","pos","GS","GSold","2","category2/CS6.png","","targets/1.png","indirect","0","8"
"","html-keyboard-response","159","670233","0.0-10.0-0.9","f8o9k5n2ov","one_one","1","direct_first","1","ne06in18","0","23","1","1","3","1","","1","0","0","null","","","<div style=""font-size:60px;"">+</div>","null","","","","","","","","","",""
"","html-keyboard-response","160","670334","0.0-10.0-1.9","f8o9k5n2ov","one_one","1","direct_first","1","ne06in18","0","23","1","1","3","1","","1","0","0","null","","","<img src = 'category4/CS3.png' width = '100%;'>","null","","","","","","","","","",""
"","html-keyboard-response","161","670601","0.0-10.0-2.9","f8o9k5n2ov","one_one","1","direct_first","1","ne06in18","0","23","1","1","3","1","","1","0","0","null","","","<img src = 'targets/29.png' width = '100%;'>","null","","","","","","","","","",""
"","html-keyboard-response","162","672077","0.0-10.0-3.9","f8o9k5n2ov","one_one","1","direct_first","1","ne06in18","0","23","1","1","3","1","","1","0","0","1474.7850000858307","","","<img src = 'targets/mask.png' width = '100%;'>","68","neg","GS","GSold","4","category4/CS3.png","","targets/29.png","indirect","0","9"
"","html-keyboard-response","163","673588","0.0-10.0-0.10","f8o9k5n2ov","one_one","1","direct_first","1","ne06in18","0","23","1","1","3","1","","1","0","0","null","","","<div style=""font-size:60px;"">+</div>","null","","","","","","","","","",""
"","html-keyboard-response","164","673693","0.0-10.0-1.10","f8o9k5n2ov","one_one","1","direct_first","1","ne06in18","0","23","1","1","3","1","","1","0","0","null","","","<img src = 'category4/CS4.png' width = '100%;'>","null","","","","","","","","","",""
"","html-keyboard-response","165","673964","0.0-10.0-2.10","f8o9k5n2ov","one_one","1","direct_first","1","ne06in18","0","23","1","1","3","1","","1","0","0","null","","","<img src = 'targets/7.png' width = '100%;'>","null","","","","","","","","","",""
"","html-keyboard-response","166","674751","0.0-10.0-3.10","f8o9k5n2ov","one_one","1","direct_first","1","ne06in18","0","23","1","1","3","1","","1","0","0","785.0999999791384","","","<img src = 'targets/mask.png' width = '100%;'>","68","neg","CS","CS","4","category4/CS4.png","","targets/7.png","indirect","0","10"
"","html-keyboard-response","167","676277","0.0-10.0-0.11","f8o9k5n2ov","one_one","1","direct_first","1","ne06in18","0","23","1","1","3","1","","1","0","0","null","","","<div style=""font-size:60px;"">+</div>","null","","","","","","","","","",""
"","html-keyboard-response","168","676373","0.0-10.0-1.11","f8o9k5n2ov","one_one","1","direct_first","1","ne06in18","0","23","1","1","3","1","","1","0","0","null","","","<img src = 'category3/CS8.png' width = '100%;'>","null","","","","","","","","","",""
"","html-keyboard-response","169","676639","0.0-10.0-2.11","f8o9k5n2ov","one_one","1","direct_first","1","ne06in18","0","23","1","1","3","1","","1","0","0","null","","","<img src = 'targets/15.png' width = '100%;'>","null","","","","","","","","","",""
"","html-keyboard-response","170","678347","0.0-10.0-3.11","f8o9k5n2ov","one_one","1","direct_first","1","ne06in18","0","23","1","1","3","1","","1","0","0","1706.500000320375","","","<img src = 'targets/mask.png' width = '100%;'>","75","pos","CS","CS","3","category3/CS8.png","","targets/15.png","indirect","1","11"
"","html-keyboard-response","171","679855","0.0-10.0-0.12","f8o9k5n2ov","one_one","1","direct_first","1","ne06in18","0","23","1","1","3","1","","1","0","0","null","","","<div style=""font-size:60px;"">+</div>","null","","","","","","","","","",""
"","html-keyboard-response","172","679962","0.0-10.0-1.12","f8o9k5n2ov","one_one","1","direct_first","1","ne06in18","0","23","1","1","3","1","","1","0","0","null","","","<img src = 'category2/CS7.png' width = '100%;'>","null","","","","","","","","","",""
"","html-keyboard-response","173","680235","0.0-10.0-2.12","f8o9k5n2ov","one_one","1","direct_first","1","ne06in18","0","23","1","1","3","1","","1","0","0","null","","","<img src = 'targets/25.png' width = '100%;'>","null","","","","","","","","","",""
"","html-keyboard-response","174","680788","0.0-10.0-3.12","f8o9k5n2ov","one_one","1","direct_first","1","ne06in18","0","23","1","1","3","1","","1","0","0","550.93999998644","","","<img src = 'targets/mask.png' width = '100%;'>","75","pos","GS","GSold","2","category2/CS7.png","","targets/25.png","indirect","1","12"
"","html-keyboard-response","175","682300","0.0-10.0-0.13","f8o9k5n2ov","one_one","1","direct_first","1","ne06in18","0","23","1","1","3","1","","1","0","0","null","","","<div style=""font-size:60px;"">+</div>","null","","","","","","","","","",""
"","html-keyboard-response","176","682391","0.0-10.0-1.13","f8o9k5n2ov","one_one","1","direct_first","1","ne06in18","0","23","1","1","3","1","","1","0","0","null","","","<img src = 'category4/CS7.png' width = '100%;'>","null","","","","","","","","","",""
"","html-keyboard-response","177","682656","0.0-10.0-2.13","f8o9k5n2ov","one_one","1","direct_first","1","ne06in18","0","23","1","1","3","1","","1","0","0","null","","","<img src = 'targets/12.png' width = '100%;'>","null","","","","","","","","","",""
"","html-keyboard-response","178","683178","0.0-10.0-3.13","f8o9k5n2ov","one_one","1","direct_first","1","ne06in18","0","23","1","1","3","1","","1","0","0","520.1749997213483","","","<img src = 'targets/mask.png' width = '100%;'>","75","neg","GS","GSold","4","category4/CS7.png","","targets/12.png","indirect","1","13"
"","html-keyboard-response","179","684693","0.0-10.0-0.14","f8o9k5n2ov","one_one","1","direct_first","1","ne06in18","0","23","1","1","3","1","","1","0","0","null","","","<div style=""font-size:60px;"">+</div>","null","","","","","","","","","",""
"","html-keyboard-response","180","684797","0.0-10.0-1.14","f8o9k5n2ov","one_one","1","direct_first","1","ne06in18","0","23","1","1","3","1","","1","0","0","null","","","<img src = 'category4/CS1.png' width = '100%;'>","null","","","","","","","","","",""
"","html-keyboard-response","181","685064","0.0-10.0-2.14","f8o9k5n2ov","one_one","1","direct_first","1","ne06in18","0","23","1","1","3","1","","1","0","0","null","","","<img src = 'targets/32.png' width = '100%;'>","null","","","","","","","","","",""
"","html-keyboard-response","182","685829","0.0-10.0-3.14","f8o9k5n2ov","one_one","1","direct_first","1","ne06in18","0","23","1","1","3","1","","1","0","0","764.204999897629","","","<img src = 'targets/mask.png' width = '100%;'>","75","neg","GS","GSold","4","category4/CS1.png","","targets/32.png","indirect","1","14"
"","html-keyboard-response","183","687343","0.0-10.0-0.15","f8o9k5n2ov","one_one","1","direct_first","1","ne06in18","0","23","1","1","3","1","","1","0","0","null","","","<div style=""font-size:60px;"">+</div>","null","","","","","","","","","",""
"","html-keyboard-response","184","687447","0.0-10.0-1.15","f8o9k5n2ov","one_one","1","direct_first","1","ne06in18","0","23","1","1","3","1","","1","0","0","null","","","<img src = 'category2/CS9.png' width = '100%;'>","null","","","","","","","","","",""
"","html-keyboard-response","185","687709","0.0-10.0-2.15","f8o9k5n2ov","one_one","1","direct_first","1","ne06in18","0","23","1","1","3","1","","1","0","0","null","","","<img src = 'targets/16.png' width = '100%;'>","null","","","","","","","","","",""
"","html-keyboard-response","186","688410","0.0-10.0-3.15","f8o9k5n2ov","one_one","1","direct_first","1","ne06in18","0","23","1","1","3","1","","1","0","0","699.070000089705","","","<img src = 'targets/mask.png' width = '100%;'>","75","pos","GS","GSold","2","category2/CS9.png","","targets/16.png","indirect","1","15"
"","survey-html-form","187","691371","0.0-11.0","f8o9k5n2ov","one_one","1","direct_first","1","ne06in18","0","23","1","1","3","1","","1","0","0","2448.53000016883","","{}","","","","","","","","","","","",""
"","html-keyboard-response","188","694383","0.0-12.0-0.0","f8o9k5n2ov","one_one","1","direct_first","1","ne06in18","0","23","1","1","3","1","","1","0","0","null","","","<div style=""font-size:60px;"">+</div>","null","","","","","","","","","",""
"","html-keyboard-response","189","694487","0.0-12.0-1.0","f8o9k5n2ov","one_one","1","direct_first","1","ne06in18","0","23","1","1","3","1","","1","0","0","null","","","<img src = 'category1/GS2.png' width = '100%;'>","null","","","","","","","","","",""
"","html-keyboard-response","190","694759","0.0-12.0-2.0","f8o9k5n2ov","one_one","1","direct_first","1","ne06in18","0","23","1","1","3","1","","1","0","0","null","","","<img src = 'targets/14.png' width = '100%;'>","null","","","","","","","","","",""
"","html-keyboard-response","191","695910","0.0-12.0-3.0","f8o9k5n2ov","one_one","1","direct_first","1","ne06in18","0","23","1","1","3","1","","1","0","0","1149.2499997839332","","","<img src = 'targets/mask.png' width = '100%;'>","75","neg","GS","GSnew","1","category1/GS2.png","","targets/14.png","indirect","1","16"
"","html-keyboard-response","192","697425","0.0-12.0-0.1","f8o9k5n2ov","one_one","1","direct_first","1","ne06in18","0","23","1","1","3","1","","1","0","0","null","","","<div style=""font-size:60px;"">+</div>","null","","","","","","","","","",""
"","html-keyboard-response","193","697520","0.0-12.0-1.1","f8o9k5n2ov","one_one","1","direct_first","1","ne06in18","0","23","1","1","3","1","","1","0","0","null","","","<img src = 'category1/GS1.png' width = '100%;'>","null","","","","","","","","","",""
"","html-keyboard-response","194","697782","0.0-12.0-2.1","f8o9k5n2ov","one_one","1","direct_first","1","ne06in18","0","23","1","1","3","1","","1","0","0","null","","","<img src = 'targets/19.png' width = '100%;'>","null","","","","","","","","","",""
"","html-keyboard-response","195","698429","0.0-12.0-3.1","f8o9k5n2ov","one_one","1","direct_first","1","ne06in18","0","23","1","1","3","1","","1","0","0","644.7600000537932","","","<img src = 'targets/mask.png' width = '100%;'>","75","neg","GS","GSnew","1","category1/GS1.png","","targets/19.png","indirect","1","17"
"","html-keyboard-response","196","699952","0.0-12.0-0.2","f8o9k5n2ov","one_one","1","direct_first","1","ne06in18","0","23","1","1","3","1","","1","0","0","null","","","<div style=""font-size:60px;"">+</div>","null","","","","","","","","","",""
"","html-keyboard-response","197","700049","0.0-12.0-1.2","f8o9k5n2ov","one_one","1","direct_first","1","ne06in18","0","23","1","1","3","1","","1","0","0","null","","","<img src = 'category4/lin.png' width = '100%;'>","null","","","","","","","","","",""
"","html-keyboard-response","198","700313","0.0-12.0-2.2","f8o9k5n2ov","one_one","1","direct_first","1","ne06in18","0","23","1","1","3","1","","1","0","0","null","","","<img src = 'targets/2.png' width = '100%;'>","null","","","","","","","","","",""
"","html-keyboard-response","199","701338","0.0-12.0-3.2","f8o9k5n2ov","one_one","1","direct_first","1","ne06in18","0","23","1","1","3","1","","1","0","0","1023.3849999494851","","","<img src = 'targets/mask.png' width = '100%;'>","75","neg","GS","abstract","4","category4/lin.png","","targets/2.png","indirect","1","18"
"","html-keyboard-response","200","702860","0.0-12.0-0.3","f8o9k5n2ov","one_one","1","direct_first","1","ne06in18","0","23","1","1","3","1","","1","0","0","null","","","<div style=""font-size:60px;"">+</div>","null","","","","","","","","","",""
"","html-keyboard-response","201","702967","0.0-12.0-1.3","f8o9k5n2ov","one_one","1","direct_first","1","ne06in18","0","23","1","1","3","1","","1","0","0","null","","","<img src = 'category3/GS2.png' width = '100%;'>","null","","","","","","","","","",""
"","html-keyboard-response","202","703226","0.0-12.0-2.3","f8o9k5n2ov","one_one","1","direct_first","1","ne06in18","0","23","1","1","3","1","","1","0","0","null","","","<img src = 'targets/9.png' width = '100%;'>","null","","","","","","","","","",""
"","html-keyboard-response","203","704246","0.0-12.0-3.3","f8o9k5n2ov","one_one","1","direct_first","1","ne06in18","0","23","1","1","3","1","","1","0","0","1017.649999819696","","","<img src = 'targets/mask.png' width = '100%;'>","75","pos","GS","GSnew","3","category3/GS2.png","","targets/9.png","indirect","1","19"
"","html-keyboard-response","204","705770","0.0-12.0-0.4","f8o9k5n2ov","one_one","1","direct_first","1","ne06in18","0","23","1","1","3","1","","1","0","0","null","","","<div style=""font-size:60px;"">+</div>","null","","","","","","","","","",""
"","html-keyboard-response","205","705876","0.0-12.0-1.4","f8o9k5n2ov","one_one","1","direct_first","1","ne06in18","0","23","1","1","3","1","","1","0","0","null","","","<img src = 'category3/GS1.png' width = '100%;'>","null","","","","","","","","","",""
"","html-keyboard-response","206","706149","0.0-12.0-2.4","f8o9k5n2ov","one_one","1","direct_first","1","ne06in18","0","23","1","1","3","1","","1","0","0","null","","","<img src = 'targets/35.png' width = '100%;'>","null","","","","","","","","","",""
"","html-keyboard-response","207","708889","0.0-12.0-3.4","f8o9k5n2ov","one_one","1","direct_first","1","ne06in18","0","23","1","1","3","1","","1","0","0","2737.5150001607835","","","<img src = 'targets/mask.png' width = '100%;'>","75","pos","GS","GSnew","3","category3/GS1.png","","targets/35.png","indirect","1","20"
"","html-keyboard-response","208","710406","0.0-12.0-0.5","f8o9k5n2ov","one_one","1","direct_first","1","ne06in18","0","23","1","1","3","1","","1","0","0","null","","","<div style=""font-size:60px;"">+</div>","null","","","","","","","","","",""
"","html-keyboard-response","209","710506","0.0-12.0-1.5","f8o9k5n2ov","one_one","1","direct_first","1","ne06in18","0","23","1","1","3","1","","1","0","0","null","","","<img src = 'category1/ma.png' width = '100%;'>","null","","","","","","","","","",""
"","html-keyboard-response","210","710775","0.0-12.0-2.5","f8o9k5n2ov","one_one","1","direct_first","1","ne06in18","0","23","1","1","3","1","","1","0","0","null","","","<img src = 'targets/5.png' width = '100%;'>","null","","","","","","","","","",""
"","html-keyboard-response","211","711619","0.0-12.0-3.5","f8o9k5n2ov","one_one","1","direct_first","1","ne06in18","0","23","1","1","3","1","","1","0","0","841.8800001963973","","","<img src = 'targets/mask.png' width = '100%;'>","75","neg","GS","abstract","1","category1/ma.png","","targets/5.png","indirect","1","21"
"","html-keyboard-response","212","713137","0.0-12.0-0.6","f8o9k5n2ov","one_one","1","direct_first","1","ne06in18","0","23","1","1","3","1","","1","0","0","null","","","<div style=""font-size:60px;"">+</div>","null","","","","","","","","","",""
"","html-keyboard-response","213","713238","0.0-12.0-1.6","f8o9k5n2ov","one_one","1","direct_first","1","ne06in18","0","23","1","1","3","1","","1","0","0","null","","","<img src = 'category4/GS3.png' width = '100%;'>","null","","","","","","","","","",""
"","html-keyboard-response","214","713508","0.0-12.0-2.6","f8o9k5n2ov","one_one","1","direct_first","1","ne06in18","0","23","1","1","3","1","","1","0","0","null","","","<img src = 'targets/48.png' width = '100%;'>","null","","","","","","","","","",""
"","html-keyboard-response","215","714242","0.0-12.0-3.6","f8o9k5n2ov","one_one","1","direct_first","1","ne06in18","0","23","1","1","3","1","","1","0","0","732.0449999533594","","","<img src = 'targets/mask.png' width = '100%;'>","75","neg","GS","GSnew","4","category4/GS3.png","","targets/48.png","indirect","1","22"
"","html-keyboard-response","216","715763","0.0-12.0-0.7","f8o9k5n2ov","one_one","1","direct_first","1","ne06in18","0","23","1","1","3","1","","1","0","0","null","","","<div style=""font-size:60px;"">+</div>","null","","","","","","","","","",""
"","html-keyboard-response","217","715865","0.0-12.0-1.7","f8o9k5n2ov","one_one","1","direct_first","1","ne06in18","0","23","1","1","3","1","","1","0","0","null","","","<img src = 'category2/men.png' width = '100%;'>","null","","","","","","","","","",""
"","html-keyboard-response","218","716142","0.0-12.0-2.7","f8o9k5n2ov","one_one","1","direct_first","1","ne06in18","0","23","1","1","3","1","","1","0","0","null","","","<img src = 'targets/44.png' width = '100%;'>","null","","","","","","","","","",""
"","html-keyboard-response","219","716583","0.0-12.0-3.7","f8o9k5n2ov","one_one","1","direct_first","1","ne06in18","0","23","1","1","3","1","","1","0","0","438.920000102371","","","<img src = 'targets/mask.png' width = '100%;'>","75","pos","GS","abstract","2","category2/men.png","","targets/44.png","indirect","1","23"
"","html-keyboard-response","220","718096","0.0-12.0-0.8","f8o9k5n2ov","one_one","1","direct_first","1","ne06in18","0","23","1","1","3","1","","1","0","0","null","","","<div style=""font-size:60px;"">+</div>","null","","","","","","","","","",""
"","html-keyboard-response","221","718200","0.0-12.0-1.8","f8o9k5n2ov","one_one","1","direct_first","1","ne06in18","0","23","1","1","3","1","","1","0","0","null","","","<img src = 'category3/GS3.png' width = '100%;'>","null","","","","","","","","","",""
"","html-keyboard-response","222","718465","0.0-12.0-2.8","f8o9k5n2ov","one_one","1","direct_first","1","ne06in18","0","23","1","1","3","1","","1","0","0","null","","","<img src = 'targets/40.png' width = '100%;'>","null","","","","","","","","","",""
"","html-keyboard-response","223","718933","0.0-12.0-3.8","f8o9k5n2ov","one_one","1","direct_first","1","ne06in18","0","23","1","1","3","1","","1","0","0","466.41999995335937","","","<img src = 'targets/mask.png' width = '100%;'>","75","pos","GS","GSnew","3","category3/GS3.png","","targets/40.png","indirect","1","24"
"","html-keyboard-response","224","720450","0.0-12.0-0.9","f8o9k5n2ov","one_one","1","direct_first","1","ne06in18","0","23","1","1","3","1","","1","0","0","null","","","<div style=""font-size:60px;"">+</div>","null","","","","","","","","","",""
"","html-keyboard-response","225","720545","0.0-12.0-1.9","f8o9k5n2ov","one_one","1","direct_first","1","ne06in18","0","23","1","1","3","1","","1","0","0","null","","","<img src = 'category1/GS3.png' width = '100%;'>","null","","","","","","","","","",""
"","html-keyboard-response","226","720809","0.0-12.0-2.9","f8o9k5n2ov","one_one","1","direct_first","1","ne06in18","0","23","1","1","3","1","","1","0","0","null","","","<img src = 'targets/47.png' width = '100%;'>","null","","","","","","","","","",""
"","html-keyboard-response","227","721408","0.0-12.0-3.9","f8o9k5n2ov","one_one","1","direct_first","1","ne06in18","0","23","1","1","3","1","","1","0","0","597.3450001329184","","","<img src = 'targets/mask.png' width = '100%;'>","75","neg","GS","GSnew","1","category1/GS3.png","","targets/47.png","indirect","1","25"
"","html-keyboard-response","228","722923","0.0-12.0-0.10","f8o9k5n2ov","one_one","1","direct_first","1","ne06in18","0","23","1","1","3","1","","1","0","0","null","","","<div style=""font-size:60px;"">+</div>","null","","","","","","","","","",""
"","html-keyboard-response","229","723015","0.0-12.0-1.10","f8o9k5n2ov","one_one","1","direct_first","1","ne06in18","0","23","1","1","3","1","","1","0","0","null","","","<img src = 'category4/GS2.png' width = '100%;'>","null","","","","","","","","","",""
"","html-keyboard-response","230","723290","0.0-12.0-2.10","f8o9k5n2ov","one_one","1","direct_first","1","ne06in18","0","23","1","1","3","1","","1","0","0","null","","","<img src = 'targets/10.png' width = '100%;'>","null","","","","","","","","","",""
"","html-keyboard-response","231","724650","0.0-12.0-3.10","f8o9k5n2ov","one_one","1","direct_first","1","ne06in18","0","23","1","1","3","1","","1","0","0","1359.4050002284348","","","<img src = 'targets/mask.png' width = '100%;'>","75","neg","GS","GSnew","4","category4/GS2.png","","targets/10.png","indirect","1","26"
"","html-keyboard-response","232","726165","0.0-12.0-0.11","f8o9k5n2ov","one_one","1","direct_first","1","ne06in18","0","23","1","1","3","1","","1","0","0","null","","","<div style=""font-size:60px;"">+</div>","null","","","","","","","","","",""
"","html-keyboard-response","233","726270","0.0-12.0-1.11","f8o9k5n2ov","one_one","1","direct_first","1","ne06in18","0","23","1","1","3","1","","1","0","0","null","","","<img src = 'category4/GS1.png' width = '100%;'>","null","","","","","","","","","",""
"","html-keyboard-response","234","726538","0.0-12.0-2.11","f8o9k5n2ov","one_one","1","direct_first","1","ne06in18","0","23","1","1","3","1","","1","0","0","null","","","<img src = 'targets/21.png' width = '100%;'>","null","","","","","","","","","",""
"","html-keyboard-response","235","727254","0.0-12.0-3.11","f8o9k5n2ov","one_one","1","direct_first","1","ne06in18","0","23","1","1","3","1","","1","0","0","714.4800000824034","","","<img src = 'targets/mask.png' width = '100%;'>","75","neg","GS","GSnew","4","category4/GS1.png","","targets/21.png","indirect","1","27"
"","html-keyboard-response","236","728785","0.0-12.0-0.12","f8o9k5n2ov","one_one","1","direct_first","1","ne06in18","0","23","1","1","3","1","","1","0","0","null","","","<div style=""font-size:60px;"">+</div>","null","","","","","","","","","",""
"","html-keyboard-response","237","728885","0.0-12.0-1.12","f8o9k5n2ov","one_one","1","direct_first","1","ne06in18","0","23","1","1","3","1","","1","0","0","null","","","<img src = 'category2/GS1.png' width = '100%;'>","null","","","","","","","","","",""
"","html-keyboard-response","238","729151","0.0-12.0-2.12","f8o9k5n2ov","one_one","1","direct_first","1","ne06in18","0","23","1","1","3","1","","1","0","0","null","","","<img src = 'targets/42.png' width = '100%;'>","null","","","","","","","","","",""
"","html-keyboard-response","239","729482","0.0-12.0-3.12","f8o9k5n2ov","one_one","1","direct_first","1","ne06in18","0","23","1","1","3","1","","1","0","0","330.2200003527105","","","<img src = 'targets/mask.png' width = '100%;'>","75","pos","GS","GSnew","2","category2/GS1.png","","targets/42.png","indirect","1","28"
"","html-keyboard-response","240","731003","0.0-12.0-0.13","f8o9k5n2ov","one_one","1","direct_first","1","ne06in18","0","23","1","1","3","1","","1","0","0","null","","","<div style=""font-size:60px;"">+</div>","null","","","","","","","","","",""
"","html-keyboard-response","241","731101","0.0-12.0-1.13","f8o9k5n2ov","one_one","1","direct_first","1","ne06in18","0","23","1","1","3","1","","1","0","0","null","","","<img src = 'category2/GS3.png' width = '100%;'>","null","","","","","","","","","",""
"","html-keyboard-response","242","731363","0.0-12.0-2.13","f8o9k5n2ov","one_one","1","direct_first","1","ne06in18","0","23","1","1","3","1","","1","0","0","null","","","<img src = 'targets/8.png' width = '100%;'>","null","","","","","","","","","",""
"","html-keyboard-response","243","731985","0.0-12.0-3.13","f8o9k5n2ov","one_one","1","direct_first","1","ne06in18","0","23","1","1","3","1","","1","0","0","619.8950000107288","","","<img src = 'targets/mask.png' width = '100%;'>","75","pos","GS","GSnew","2","category2/GS3.png","","targets/8.png","indirect","1","29"
"","html-keyboard-response","244","733491","0.0-12.0-0.14","f8o9k5n2ov","one_one","1","direct_first","1","ne06in18","0","23","1","1","3","1","","1","0","0","null","","","<div style=""font-size:60px;"">+</div>","null","","","","","","","","","",""
"","html-keyboard-response","245","733587","0.0-12.0-1.14","f8o9k5n2ov","one_one","1","direct_first","1","ne06in18","0","23","1","1","3","1","","1","0","0","null","","","<img src = 'category2/GS2.png' width = '100%;'>","null","","","","","","","","","",""
"","html-keyboard-response","246","733863","0.0-12.0-2.14","f8o9k5n2ov","one_one","1","direct_first","1","ne06in18","0","23","1","1","3","1","","1","0","0","null","","","<img src = 'targets/30.png' width = '100%;'>","null","","","","","","","","","",""
"","html-keyboard-response","247","734426","0.0-12.0-3.14","f8o9k5n2ov","one_one","1","direct_first","1","ne06in18","0","23","1","1","3","1","","1","0","0","562.5049998052418","","","<img src = 'targets/mask.png' width = '100%;'>","75","pos","GS","GSnew","2","category2/GS2.png","","targets/30.png","indirect","1","30"
"","html-keyboard-response","248","735941","0.0-12.0-0.15","f8o9k5n2ov","one_one","1","direct_first","1","ne06in18","0","23","1","1","3","1","","1","0","0","null","","","<div style=""font-size:60px;"">+</div>","null","","","","","","","","","",""
"","html-keyboard-response","249","736044","0.0-12.0-1.15","f8o9k5n2ov","one_one","1","direct_first","1","ne06in18","0","23","1","1","3","1","","1","0","0","null","","","<img src = 'category3/wang.png' width = '100%;'>","null","","","","","","","","","",""
"","html-keyboard-response","250","736310","0.0-12.0-2.15","f8o9k5n2ov","one_one","1","direct_first","1","ne06in18","0","23","1","1","3","1","","1","0","0","null","","","<img src = 'targets/37.png' width = '100%;'>","null","","","","","","","","","",""
"","html-keyboard-response","251","737170","0.0-12.0-3.15","f8o9k5n2ov","one_one","1","direct_first","1","ne06in18","0","23","1","1","3","1","","1","0","0","857.1899998933077","","","<img src = 'targets/mask.png' width = '100%;'>","75","pos","GS","abstract","3","category3/wang.png","","targets/37.png","indirect","1","31"
"","survey-html-form","252","742953","0.0-13.0","f8o9k5n2ov","one_one","1","direct_first","1","ne06in18","0","23","1","1","3","1","","1","0","0","5281.640000175685","","{}","","","","","","","","","","","",""
"","image-slider-response","253","749316","0.0-14.0-0.0","f8o9k5n2ov","one_one","1","direct_first","1","ne06in18","0","23","1","1","3","1","","1","0","0","5344.994999933988","","","","","neg","All","all","4","category4/lin_all.png","81","","all","",""
"","image-slider-response","254","752299","0.0-14.0-0.1","f8o9k5n2ov","one_one","1","direct_first","1","ne06in18","0","23","1","1","3","1","","1","0","0","2980.6150002405047","","","","","pos","All","all","3","category3/wang_all.png","-43","","all","",""
"","image-slider-response","255","757218","0.0-14.0-0.2","f8o9k5n2ov","one_one","1","direct_first","1","ne06in18","0","23","1","1","3","1","","1","0","0","4917.614999692887","","","","","pos","All","all","2","category2/men_all.png","30","","all","",""
"","image-slider-response","256","761760","0.0-14.0-0.3","f8o9k5n2ov","one_one","1","direct_first","1","ne06in18","0","23","1","1","3","1","","1","0","0","4540.614999830723","","","","","neg","All","all","1","category1/ma_all.png","51","","all","",""
"","survey-text","257","766125","0.0-15.0","f8o9k5n2ov","one_one","1","direct_first","1","ne06in18","0","23","1","1","3","1","","1","0","0","4338.960000313818","","{""comment"":""""}","","","","","","","","","","","",""
"","survey-html-form","258","792463","0.0-16.0","f8o9k5n2ov","one_one","1","direct_first","1","ne06in18","0","23","1","1","3","1","","1","0","0","26335.520000196993","","{""hinschauen"":""1"",""ablenkung"":""0"",""gewissenhaft"":""0""}","","","","","","","","","","","",""
