"success","trial_type","trial_index","time_elapsed","internal_node_id","subject","condition","condition_code","measure","measure_code","codeword","gender","age","education","chinese","fach","handedness","comment","hinschauen","ablenkung","gewissenhaft","rt","url","responses","stimulus","key_press","val","type","type_specific","category","cs_selected","response","target","task","indirect","nr_pres"
"true","fullscreen","0","9268","0.0-0.0","t9a1lfnukq","one_one","1","direct_first","1","ar05in07","1","31","1","1","3","1","","0","1","0","","","","","","","","","","","","","","",""
"","external-html","1","165588","0.0-1.0","t9a1lfnukq","one_one","1","direct_first","1","ar05in07","1","31","1","1","3","1","","0","1","0","156263.6750000529","text/information.html","","","","","","","","","","","","",""
"","external-html","2","2884246","0.0-2.0","t9a1lfnukq","one_one","1","direct_first","1","ar05in07","1","31","1","1","3","1","","0","1","0","2718565.7150000334","text/consent.html","","","","","","","","","","","","",""
"","survey-html-form","3","2988820","0.0-3.0","t9a1lfnukq","one_one","1","direct_first","1","ar05in07","1","31","1","1","3","1","","0","1","0","104571.01499987766","","{""codeword_enter"":""ar05in07""}","","","","","","","","","","","",""
"","survey-html-form","4","3016465","0.0-4.0","t9a1lfnukq","one_one","1","direct_first","1","ar05in07","1","31","1","1","3","1","","0","1","0","27641.860000090674","","{""age"":""31"",""education"":""1"",""subject"":""3"",""gender"":""1"",""handedness"":""1"",""chinese"":""1""}","","","","","","","","","","","",""
"","survey-html-form","5","3040199","0.0-5.0","t9a1lfnukq","one_one","1","direct_first","1","ar05in07","1","31","1","1","3","1","","0","1","0","23731.97999992408","","{}","","","","","","","","","","","",""
"","html-keyboard-response","6","3044233","0.0-6.0-0.0-0.0","t9a1lfnukq","one_one","1","direct_first","1","ar05in07","1","31","1","1","3","1","","0","1","0","null","","","<div class = 'row'><div class = 'column'><img src = 'category2/CS9.png' width = '70%;'></div><div class = 'column'><img src = 'uspos/8080.bmp' width = '100%;'></div></div>","null","pos","CS","CS","2","category2/CS9.png","","","","",""
"","html-keyboard-response","7","3046753","0.0-6.0-0.0-0.1","t9a1lfnukq","one_one","1","direct_first","1","ar05in07","1","31","1","1","3","1","","0","1","0","null","","","<div class = 'row'><div class = 'column'><img src = 'category4/CS9.png' width = '70%;'></div><div class = 'column'><img src = 'usneg/9415.bmp' width = '100%;'></div></div>","null","neg","CS","CS","4","category4/CS9.png","","","","",""
"","html-keyboard-response","8","3049285","0.0-6.0-0.0-0.2","t9a1lfnukq","one_one","1","direct_first","1","ar05in07","1","31","1","1","3","1","","0","1","0","null","","","<div class = 'row'><div class = 'column'><img src = 'category1/CS7.png' width = '70%;'></div><div class = 'column'><img src = 'usneg/9635.2.bmp' width = '100%;'></div></div>","null","neg","CS","CS","1","category1/CS7.png","","","","",""
"","html-keyboard-response","9","3051814","0.0-6.0-0.0-0.3","t9a1lfnukq","one_one","1","direct_first","1","ar05in07","1","31","1","1","3","1","","0","1","0","null","","","<div class = 'row'><div class = 'column'><img src = 'category2/CS9.png' width = '70%;'></div><div class = 'column'><img src = 'uspos/8080.bmp' width = '100%;'></div></div>","null","pos","CS","CS","2","category2/CS9.png","","","","",""
"","html-keyboard-response","10","3054349","0.0-6.0-0.0-0.4","t9a1lfnukq","one_one","1","direct_first","1","ar05in07","1","31","1","1","3","1","","0","1","0","null","","","<div class = 'row'><div class = 'column'><img src = 'category1/CS7.png' width = '70%;'></div><div class = 'column'><img src = 'usneg/9635.2.bmp' width = '100%;'></div></div>","null","neg","CS","CS","1","category1/CS7.png","","","","",""
"","html-keyboard-response","11","3056863","0.0-6.0-0.0-0.5","t9a1lfnukq","one_one","1","direct_first","1","ar05in07","1","31","1","1","3","1","","0","1","0","null","","","<div class = 'row'><div class = 'column'><img src = 'category4/CS9.png' width = '70%;'></div><div class = 'column'><img src = 'usneg/9415.bmp' width = '100%;'></div></div>","null","neg","CS","CS","4","category4/CS9.png","","","","",""
"","html-keyboard-response","12","3059381","0.0-6.0-0.0-0.6","t9a1lfnukq","one_one","1","direct_first","1","ar05in07","1","31","1","1","3","1","","0","1","0","null","","","<div class = 'row'><div class = 'column'><img src = 'category3/CS3.png' width = '70%;'></div><div class = 'column'><img src = 'uspos/5470.bmp' width = '100%;'></div></div>","null","pos","CS","CS","3","category3/CS3.png","","","","",""
"","html-keyboard-response","13","3061896","0.0-6.0-0.0-0.7","t9a1lfnukq","one_one","1","direct_first","1","ar05in07","1","31","1","1","3","1","","0","1","0","null","","","<div class = 'row'><div class = 'column'><img src = 'usneg/9415.bmp' width = '100%;'></div><div class = 'column'><img src = 'category4/CS9.png' width = '70%;'></div></div>","null","neg","CS","CS","4","category4/CS9.png","","","","",""
"","html-keyboard-response","14","3064416","0.0-6.0-0.0-0.8","t9a1lfnukq","one_one","1","direct_first","1","ar05in07","1","31","1","1","3","1","","0","1","0","null","","","<div class = 'row'><div class = 'column'><img src = 'category2/CS9.png' width = '70%;'></div><div class = 'column'><img src = 'uspos/8080.bmp' width = '100%;'></div></div>","null","pos","CS","CS","2","category2/CS9.png","","","","",""
"","html-keyboard-response","15","3066950","0.0-6.0-0.0-0.9","t9a1lfnukq","one_one","1","direct_first","1","ar05in07","1","31","1","1","3","1","","0","1","0","null","","","<div class = 'row'><div class = 'column'><img src = 'usneg/9635.2.bmp' width = '100%;'></div><div class = 'column'><img src = 'category1/CS7.png' width = '70%;'></div></div>","null","neg","CS","CS","1","category1/CS7.png","","","","",""
"","html-keyboard-response","16","3069458","0.0-6.0-0.0-0.10","t9a1lfnukq","one_one","1","direct_first","1","ar05in07","1","31","1","1","3","1","","0","1","0","null","","","<div class = 'row'><div class = 'column'><img src = 'uspos/5470.bmp' width = '100%;'></div><div class = 'column'><img src = 'category3/CS3.png' width = '70%;'></div></div>","null","pos","CS","CS","3","category3/CS3.png","","","","",""
"","html-keyboard-response","17","3071972","0.0-6.0-0.0-0.11","t9a1lfnukq","one_one","1","direct_first","1","ar05in07","1","31","1","1","3","1","","0","1","0","null","","","<div class = 'row'><div class = 'column'><img src = 'uspos/8080.bmp' width = '100%;'></div><div class = 'column'><img src = 'category2/CS9.png' width = '70%;'></div></div>","null","pos","CS","CS","2","category2/CS9.png","","","","",""
"","html-keyboard-response","18","3074485","0.0-6.0-0.0-0.12","t9a1lfnukq","one_one","1","direct_first","1","ar05in07","1","31","1","1","3","1","","0","1","0","null","","","<div class = 'row'><div class = 'column'><img src = 'uspos/5470.bmp' width = '100%;'></div><div class = 'column'><img src = 'category3/CS3.png' width = '70%;'></div></div>","null","pos","CS","CS","3","category3/CS3.png","","","","",""
"","html-keyboard-response","19","3076995","0.0-6.0-0.0-0.13","t9a1lfnukq","one_one","1","direct_first","1","ar05in07","1","31","1","1","3","1","","0","1","0","null","","","<div class = 'row'><div class = 'column'><img src = 'usneg/9635.2.bmp' width = '100%;'></div><div class = 'column'><img src = 'category1/CS7.png' width = '70%;'></div></div>","null","neg","CS","CS","1","category1/CS7.png","","","","",""
"","html-keyboard-response","20","3079510","0.0-6.0-0.0-0.14","t9a1lfnukq","one_one","1","direct_first","1","ar05in07","1","31","1","1","3","1","","0","1","0","null","","","<div class = 'row'><div class = 'column'><img src = 'category3/CS3.png' width = '70%;'></div><div class = 'column'><img src = 'uspos/5470.bmp' width = '100%;'></div></div>","null","pos","CS","CS","3","category3/CS3.png","","","","",""
"","html-keyboard-response","21","3082027","0.0-6.0-0.0-0.15","t9a1lfnukq","one_one","1","direct_first","1","ar05in07","1","31","1","1","3","1","","0","1","0","null","","","<div class = 'row'><div class = 'column'><img src = 'usneg/9635.2.bmp' width = '100%;'></div><div class = 'column'><img src = 'category1/CS7.png' width = '70%;'></div></div>","null","neg","CS","CS","1","category1/CS7.png","","","","",""
"","html-keyboard-response","22","3084542","0.0-6.0-0.0-0.16","t9a1lfnukq","one_one","1","direct_first","1","ar05in07","1","31","1","1","3","1","","0","1","0","null","","","<div class = 'row'><div class = 'column'><img src = 'category4/CS9.png' width = '70%;'></div><div class = 'column'><img src = 'usneg/9415.bmp' width = '100%;'></div></div>","null","neg","CS","CS","4","category4/CS9.png","","","","",""
"","html-keyboard-response","23","3087078","0.0-6.0-0.0-0.17","t9a1lfnukq","one_one","1","direct_first","1","ar05in07","1","31","1","1","3","1","","0","1","0","null","","","<div class = 'row'><div class = 'column'><img src = 'uspos/5470.bmp' width = '100%;'></div><div class = 'column'><img src = 'category3/CS3.png' width = '70%;'></div></div>","null","pos","CS","CS","3","category3/CS3.png","","","","",""
"","html-keyboard-response","24","3089589","0.0-6.0-0.0-0.18","t9a1lfnukq","one_one","1","direct_first","1","ar05in07","1","31","1","1","3","1","","0","1","0","null","","","<div class = 'row'><div class = 'column'><img src = 'category4/CS9.png' width = '70%;'></div><div class = 'column'><img src = 'usneg/9415.bmp' width = '100%;'></div></div>","null","neg","CS","CS","4","category4/CS9.png","","","","",""
"","html-keyboard-response","25","3092094","0.0-6.0-0.0-0.19","t9a1lfnukq","one_one","1","direct_first","1","ar05in07","1","31","1","1","3","1","","0","1","0","null","","","<div class = 'row'><div class = 'column'><img src = 'category2/CS9.png' width = '70%;'></div><div class = 'column'><img src = 'uspos/8080.bmp' width = '100%;'></div></div>","null","pos","CS","CS","2","category2/CS9.png","","","","",""
"","survey-html-form","26","3100476","0.0-6.0-1.0","t9a1lfnukq","one_one","1","direct_first","1","ar05in07","1","31","1","1","3","1","","0","1","0","7878.279999829829","","{}","","","","","","","","","","","",""
"","html-keyboard-response","27","3104489","0.0-6.0-2.0-0.0","t9a1lfnukq","one_one","1","direct_first","1","ar05in07","1","31","1","1","3","1","","0","1","0","null","","","<div class = 'row'><div class = 'column'><img src = 'usneg/9415.bmp' width = '100%;'></div><div class = 'column'><img src = 'category4/CS9.png' width = '70%;'></div></div>","null","neg","CS","CS","4","category4/CS9.png","","","","",""
"","html-keyboard-response","28","3107025","0.0-6.0-2.0-0.1","t9a1lfnukq","one_one","1","direct_first","1","ar05in07","1","31","1","1","3","1","","0","1","0","null","","","<div class = 'row'><div class = 'column'><img src = 'uspos/5470.bmp' width = '100%;'></div><div class = 'column'><img src = 'category3/CS3.png' width = '70%;'></div></div>","null","pos","CS","CS","3","category3/CS3.png","","","","",""
"","html-keyboard-response","29","3109534","0.0-6.0-2.0-0.2","t9a1lfnukq","one_one","1","direct_first","1","ar05in07","1","31","1","1","3","1","","0","1","0","null","","","<div class = 'row'><div class = 'column'><img src = 'category2/CS9.png' width = '70%;'></div><div class = 'column'><img src = 'uspos/8080.bmp' width = '100%;'></div></div>","null","pos","CS","CS","2","category2/CS9.png","","","","",""
"","html-keyboard-response","30","3112062","0.0-6.0-2.0-0.3","t9a1lfnukq","one_one","1","direct_first","1","ar05in07","1","31","1","1","3","1","","0","1","0","null","","","<div class = 'row'><div class = 'column'><img src = 'category3/CS3.png' width = '70%;'></div><div class = 'column'><img src = 'uspos/5470.bmp' width = '100%;'></div></div>","null","pos","CS","CS","3","category3/CS3.png","","","","",""
"","html-keyboard-response","31","3114589","0.0-6.0-2.0-0.4","t9a1lfnukq","one_one","1","direct_first","1","ar05in07","1","31","1","1","3","1","","0","1","0","null","","","<div class = 'row'><div class = 'column'><img src = 'category2/CS9.png' width = '70%;'></div><div class = 'column'><img src = 'uspos/8080.bmp' width = '100%;'></div></div>","null","pos","CS","CS","2","category2/CS9.png","","","","",""
"","html-keyboard-response","32","3117097","0.0-6.0-2.0-0.5","t9a1lfnukq","one_one","1","direct_first","1","ar05in07","1","31","1","1","3","1","","0","1","0","null","","","<div class = 'row'><div class = 'column'><img src = 'category4/CS9.png' width = '70%;'></div><div class = 'column'><img src = 'usneg/9415.bmp' width = '100%;'></div></div>","null","neg","CS","CS","4","category4/CS9.png","","","","",""
"","html-keyboard-response","33","3119602","0.0-6.0-2.0-0.6","t9a1lfnukq","one_one","1","direct_first","1","ar05in07","1","31","1","1","3","1","","0","1","0","null","","","<div class = 'row'><div class = 'column'><img src = 'uspos/5470.bmp' width = '100%;'></div><div class = 'column'><img src = 'category3/CS3.png' width = '70%;'></div></div>","null","pos","CS","CS","3","category3/CS3.png","","","","",""
"","html-keyboard-response","34","3122138","0.0-6.0-2.0-0.7","t9a1lfnukq","one_one","1","direct_first","1","ar05in07","1","31","1","1","3","1","","0","1","0","null","","","<div class = 'row'><div class = 'column'><img src = 'category4/CS9.png' width = '70%;'></div><div class = 'column'><img src = 'usneg/9415.bmp' width = '100%;'></div></div>","null","neg","CS","CS","4","category4/CS9.png","","","","",""
"","html-keyboard-response","35","3124647","0.0-6.0-2.0-0.8","t9a1lfnukq","one_one","1","direct_first","1","ar05in07","1","31","1","1","3","1","","0","1","0","null","","","<div class = 'row'><div class = 'column'><img src = 'category1/CS7.png' width = '70%;'></div><div class = 'column'><img src = 'usneg/9635.2.bmp' width = '100%;'></div></div>","null","neg","CS","CS","1","category1/CS7.png","","","","",""
"","html-keyboard-response","36","3127162","0.0-6.0-2.0-0.9","t9a1lfnukq","one_one","1","direct_first","1","ar05in07","1","31","1","1","3","1","","0","1","0","null","","","<div class = 'row'><div class = 'column'><img src = 'usneg/9415.bmp' width = '100%;'></div><div class = 'column'><img src = 'category4/CS9.png' width = '70%;'></div></div>","null","neg","CS","CS","4","category4/CS9.png","","","","",""
"","html-keyboard-response","37","3129682","0.0-6.0-2.0-0.10","t9a1lfnukq","one_one","1","direct_first","1","ar05in07","1","31","1","1","3","1","","0","1","0","null","","","<div class = 'row'><div class = 'column'><img src = 'category1/CS7.png' width = '70%;'></div><div class = 'column'><img src = 'usneg/9635.2.bmp' width = '100%;'></div></div>","null","neg","CS","CS","1","category1/CS7.png","","","","",""
"","html-keyboard-response","38","3132194","0.0-6.0-2.0-0.11","t9a1lfnukq","one_one","1","direct_first","1","ar05in07","1","31","1","1","3","1","","0","1","0","null","","","<div class = 'row'><div class = 'column'><img src = 'uspos/8080.bmp' width = '100%;'></div><div class = 'column'><img src = 'category2/CS9.png' width = '70%;'></div></div>","null","pos","CS","CS","2","category2/CS9.png","","","","",""
"","html-keyboard-response","39","3134713","0.0-6.0-2.0-0.12","t9a1lfnukq","one_one","1","direct_first","1","ar05in07","1","31","1","1","3","1","","0","1","0","null","","","<div class = 'row'><div class = 'column'><img src = 'category1/CS7.png' width = '70%;'></div><div class = 'column'><img src = 'usneg/9635.2.bmp' width = '100%;'></div></div>","null","neg","CS","CS","1","category1/CS7.png","","","","",""
"","html-keyboard-response","40","3137220","0.0-6.0-2.0-0.13","t9a1lfnukq","one_one","1","direct_first","1","ar05in07","1","31","1","1","3","1","","0","1","0","null","","","<div class = 'row'><div class = 'column'><img src = 'uspos/8080.bmp' width = '100%;'></div><div class = 'column'><img src = 'category2/CS9.png' width = '70%;'></div></div>","null","pos","CS","CS","2","category2/CS9.png","","","","",""
"","html-keyboard-response","41","3139742","0.0-6.0-2.0-0.14","t9a1lfnukq","one_one","1","direct_first","1","ar05in07","1","31","1","1","3","1","","0","1","0","null","","","<div class = 'row'><div class = 'column'><img src = 'uspos/5470.bmp' width = '100%;'></div><div class = 'column'><img src = 'category3/CS3.png' width = '70%;'></div></div>","null","pos","CS","CS","3","category3/CS3.png","","","","",""
"","html-keyboard-response","42","3142263","0.0-6.0-2.0-0.15","t9a1lfnukq","one_one","1","direct_first","1","ar05in07","1","31","1","1","3","1","","0","1","0","null","","","<div class = 'row'><div class = 'column'><img src = 'usneg/9635.2.bmp' width = '100%;'></div><div class = 'column'><img src = 'category1/CS7.png' width = '70%;'></div></div>","null","neg","CS","CS","1","category1/CS7.png","","","","",""
"","html-keyboard-response","43","3144799","0.0-6.0-2.0-0.16","t9a1lfnukq","one_one","1","direct_first","1","ar05in07","1","31","1","1","3","1","","0","1","0","null","","","<div class = 'row'><div class = 'column'><img src = 'category3/CS3.png' width = '70%;'></div><div class = 'column'><img src = 'uspos/5470.bmp' width = '100%;'></div></div>","null","pos","CS","CS","3","category3/CS3.png","","","","",""
"","html-keyboard-response","44","3147320","0.0-6.0-2.0-0.17","t9a1lfnukq","one_one","1","direct_first","1","ar05in07","1","31","1","1","3","1","","0","1","0","null","","","<div class = 'row'><div class = 'column'><img src = 'category2/CS9.png' width = '70%;'></div><div class = 'column'><img src = 'uspos/8080.bmp' width = '100%;'></div></div>","null","pos","CS","CS","2","category2/CS9.png","","","","",""
"","html-keyboard-response","45","3149834","0.0-6.0-2.0-0.18","t9a1lfnukq","one_one","1","direct_first","1","ar05in07","1","31","1","1","3","1","","0","1","0","null","","","<div class = 'row'><div class = 'column'><img src = 'usneg/9415.bmp' width = '100%;'></div><div class = 'column'><img src = 'category4/CS9.png' width = '70%;'></div></div>","null","neg","CS","CS","4","category4/CS9.png","","","","",""
"","html-keyboard-response","46","3152344","0.0-6.0-2.0-0.19","t9a1lfnukq","one_one","1","direct_first","1","ar05in07","1","31","1","1","3","1","","0","1","0","null","","","<div class = 'row'><div class = 'column'><img src = 'category1/CS7.png' width = '70%;'></div><div class = 'column'><img src = 'usneg/9635.2.bmp' width = '100%;'></div></div>","null","neg","CS","CS","1","category1/CS7.png","","","","",""
"","survey-html-form","47","3156877","0.0-6.0-3.0","t9a1lfnukq","one_one","1","direct_first","1","ar05in07","1","31","1","1","3","1","","0","1","0","4017.0799996703863","","{}","","","","","","","","","","","",""
"","html-keyboard-response","48","3160911","0.0-6.0-4.0-0.0","t9a1lfnukq","one_one","1","direct_first","1","ar05in07","1","31","1","1","3","1","","0","1","0","null","","","<div class = 'row'><div class = 'column'><img src = 'category2/CS9.png' width = '70%;'></div><div class = 'column'><img src = 'uspos/8080.bmp' width = '100%;'></div></div>","null","pos","CS","CS","2","category2/CS9.png","","","","",""
"","html-keyboard-response","49","3163430","0.0-6.0-4.0-0.1","t9a1lfnukq","one_one","1","direct_first","1","ar05in07","1","31","1","1","3","1","","0","1","0","null","","","<div class = 'row'><div class = 'column'><img src = 'category3/CS3.png' width = '70%;'></div><div class = 'column'><img src = 'uspos/5470.bmp' width = '100%;'></div></div>","null","pos","CS","CS","3","category3/CS3.png","","","","",""
"","html-keyboard-response","50","3165953","0.0-6.0-4.0-0.2","t9a1lfnukq","one_one","1","direct_first","1","ar05in07","1","31","1","1","3","1","","0","1","0","null","","","<div class = 'row'><div class = 'column'><img src = 'uspos/8080.bmp' width = '100%;'></div><div class = 'column'><img src = 'category2/CS9.png' width = '70%;'></div></div>","null","pos","CS","CS","2","category2/CS9.png","","","","",""
"","html-keyboard-response","51","3168466","0.0-6.0-4.0-0.3","t9a1lfnukq","one_one","1","direct_first","1","ar05in07","1","31","1","1","3","1","","0","1","0","null","","","<div class = 'row'><div class = 'column'><img src = 'usneg/9415.bmp' width = '100%;'></div><div class = 'column'><img src = 'category4/CS9.png' width = '70%;'></div></div>","null","neg","CS","CS","4","category4/CS9.png","","","","",""
"","html-keyboard-response","52","3170997","0.0-6.0-4.0-0.4","t9a1lfnukq","one_one","1","direct_first","1","ar05in07","1","31","1","1","3","1","","0","1","0","null","","","<div class = 'row'><div class = 'column'><img src = 'category2/CS9.png' width = '70%;'></div><div class = 'column'><img src = 'uspos/8080.bmp' width = '100%;'></div></div>","null","pos","CS","CS","2","category2/CS9.png","","","","",""
"","html-keyboard-response","53","3173516","0.0-6.0-4.0-0.5","t9a1lfnukq","one_one","1","direct_first","1","ar05in07","1","31","1","1","3","1","","0","1","0","null","","","<div class = 'row'><div class = 'column'><img src = 'usneg/9635.2.bmp' width = '100%;'></div><div class = 'column'><img src = 'category1/CS7.png' width = '70%;'></div></div>","null","neg","CS","CS","1","category1/CS7.png","","","","",""
"","html-keyboard-response","54","3176036","0.0-6.0-4.0-0.6","t9a1lfnukq","one_one","1","direct_first","1","ar05in07","1","31","1","1","3","1","","0","1","0","null","","","<div class = 'row'><div class = 'column'><img src = 'uspos/8080.bmp' width = '100%;'></div><div class = 'column'><img src = 'category2/CS9.png' width = '70%;'></div></div>","null","pos","CS","CS","2","category2/CS9.png","","","","",""
"","html-keyboard-response","55","3178544","0.0-6.0-4.0-0.7","t9a1lfnukq","one_one","1","direct_first","1","ar05in07","1","31","1","1","3","1","","0","1","0","null","","","<div class = 'row'><div class = 'column'><img src = 'category1/CS7.png' width = '70%;'></div><div class = 'column'><img src = 'usneg/9635.2.bmp' width = '100%;'></div></div>","null","neg","CS","CS","1","category1/CS7.png","","","","",""
"","html-keyboard-response","56","3181060","0.0-6.0-4.0-0.8","t9a1lfnukq","one_one","1","direct_first","1","ar05in07","1","31","1","1","3","1","","0","1","0","null","","","<div class = 'row'><div class = 'column'><img src = 'category4/CS9.png' width = '70%;'></div><div class = 'column'><img src = 'usneg/9415.bmp' width = '100%;'></div></div>","null","neg","CS","CS","4","category4/CS9.png","","","","",""
"","html-keyboard-response","57","3183591","0.0-6.0-4.0-0.9","t9a1lfnukq","one_one","1","direct_first","1","ar05in07","1","31","1","1","3","1","","0","1","0","null","","","<div class = 'row'><div class = 'column'><img src = 'category1/CS7.png' width = '70%;'></div><div class = 'column'><img src = 'usneg/9635.2.bmp' width = '100%;'></div></div>","null","neg","CS","CS","1","category1/CS7.png","","","","",""
"","html-keyboard-response","58","3186116","0.0-6.0-4.0-0.10","t9a1lfnukq","one_one","1","direct_first","1","ar05in07","1","31","1","1","3","1","","0","1","0","null","","","<div class = 'row'><div class = 'column'><img src = 'usneg/9415.bmp' width = '100%;'></div><div class = 'column'><img src = 'category4/CS9.png' width = '70%;'></div></div>","null","neg","CS","CS","4","category4/CS9.png","","","","",""
"","html-keyboard-response","59","3188634","0.0-6.0-4.0-0.11","t9a1lfnukq","one_one","1","direct_first","1","ar05in07","1","31","1","1","3","1","","0","1","0","null","","","<div class = 'row'><div class = 'column'><img src = 'category1/CS7.png' width = '70%;'></div><div class = 'column'><img src = 'usneg/9635.2.bmp' width = '100%;'></div></div>","null","neg","CS","CS","1","category1/CS7.png","","","","",""
"","html-keyboard-response","60","3191168","0.0-6.0-4.0-0.12","t9a1lfnukq","one_one","1","direct_first","1","ar05in07","1","31","1","1","3","1","","0","1","0","null","","","<div class = 'row'><div class = 'column'><img src = 'uspos/5470.bmp' width = '100%;'></div><div class = 'column'><img src = 'category3/CS3.png' width = '70%;'></div></div>","null","pos","CS","CS","3","category3/CS3.png","","","","",""
"","html-keyboard-response","61","3193694","0.0-6.0-4.0-0.13","t9a1lfnukq","one_one","1","direct_first","1","ar05in07","1","31","1","1","3","1","","0","1","0","null","","","<div class = 'row'><div class = 'column'><img src = 'category2/CS9.png' width = '70%;'></div><div class = 'column'><img src = 'uspos/8080.bmp' width = '100%;'></div></div>","null","pos","CS","CS","2","category2/CS9.png","","","","",""
"","html-keyboard-response","62","3196201","0.0-6.0-4.0-0.14","t9a1lfnukq","one_one","1","direct_first","1","ar05in07","1","31","1","1","3","1","","0","1","0","null","","","<div class = 'row'><div class = 'column'><img src = 'usneg/9415.bmp' width = '100%;'></div><div class = 'column'><img src = 'category4/CS9.png' width = '70%;'></div></div>","null","neg","CS","CS","4","category4/CS9.png","","","","",""
"","html-keyboard-response","63","3198730","0.0-6.0-4.0-0.15","t9a1lfnukq","one_one","1","direct_first","1","ar05in07","1","31","1","1","3","1","","0","1","0","null","","","<div class = 'row'><div class = 'column'><img src = 'category3/CS3.png' width = '70%;'></div><div class = 'column'><img src = 'uspos/5470.bmp' width = '100%;'></div></div>","null","pos","CS","CS","3","category3/CS3.png","","","","",""
"","html-keyboard-response","64","3201243","0.0-6.0-4.0-0.16","t9a1lfnukq","one_one","1","direct_first","1","ar05in07","1","31","1","1","3","1","","0","1","0","null","","","<div class = 'row'><div class = 'column'><img src = 'usneg/9635.2.bmp' width = '100%;'></div><div class = 'column'><img src = 'category1/CS7.png' width = '70%;'></div></div>","null","neg","CS","CS","1","category1/CS7.png","","","","",""
"","html-keyboard-response","65","3203750","0.0-6.0-4.0-0.17","t9a1lfnukq","one_one","1","direct_first","1","ar05in07","1","31","1","1","3","1","","0","1","0","null","","","<div class = 'row'><div class = 'column'><img src = 'category3/CS3.png' width = '70%;'></div><div class = 'column'><img src = 'uspos/5470.bmp' width = '100%;'></div></div>","null","pos","CS","CS","3","category3/CS3.png","","","","",""
"","html-keyboard-response","66","3206265","0.0-6.0-4.0-0.18","t9a1lfnukq","one_one","1","direct_first","1","ar05in07","1","31","1","1","3","1","","0","1","0","null","","","<div class = 'row'><div class = 'column'><img src = 'category4/CS9.png' width = '70%;'></div><div class = 'column'><img src = 'usneg/9415.bmp' width = '100%;'></div></div>","null","neg","CS","CS","4","category4/CS9.png","","","","",""
"","html-keyboard-response","67","3208775","0.0-6.0-4.0-0.19","t9a1lfnukq","one_one","1","direct_first","1","ar05in07","1","31","1","1","3","1","","0","1","0","null","","","<div class = 'row'><div class = 'column'><img src = 'uspos/5470.bmp' width = '100%;'></div><div class = 'column'><img src = 'category3/CS3.png' width = '70%;'></div></div>","null","pos","CS","CS","3","category3/CS3.png","","","","",""
"","survey-html-form","68","3214301","0.0-6.0-5.0","t9a1lfnukq","one_one","1","direct_first","1","ar05in07","1","31","1","1","3","1","","0","1","0","5009.624999947846","","{}","","","","","","","","","","","",""
"","html-keyboard-response","69","3218320","0.0-6.0-6.0-0.0","t9a1lfnukq","one_one","1","direct_first","1","ar05in07","1","31","1","1","3","1","","0","1","0","null","","","<div class = 'row'><div class = 'column'><img src = 'category4/CS9.png' width = '70%;'></div><div class = 'column'><img src = 'usneg/9415.bmp' width = '100%;'></div></div>","null","neg","CS","CS","4","category4/CS9.png","","","","",""
"","html-keyboard-response","70","3220829","0.0-6.0-6.0-0.1","t9a1lfnukq","one_one","1","direct_first","1","ar05in07","1","31","1","1","3","1","","0","1","0","null","","","<div class = 'row'><div class = 'column'><img src = 'uspos/8080.bmp' width = '100%;'></div><div class = 'column'><img src = 'category2/CS9.png' width = '70%;'></div></div>","null","pos","CS","CS","2","category2/CS9.png","","","","",""
"","html-keyboard-response","71","3223347","0.0-6.0-6.0-0.2","t9a1lfnukq","one_one","1","direct_first","1","ar05in07","1","31","1","1","3","1","","0","1","0","null","","","<div class = 'row'><div class = 'column'><img src = 'usneg/9635.2.bmp' width = '100%;'></div><div class = 'column'><img src = 'category1/CS7.png' width = '70%;'></div></div>","null","neg","CS","CS","1","category1/CS7.png","","","","",""
"","html-keyboard-response","72","3225855","0.0-6.0-6.0-0.3","t9a1lfnukq","one_one","1","direct_first","1","ar05in07","1","31","1","1","3","1","","0","1","0","null","","","<div class = 'row'><div class = 'column'><img src = 'category2/CS9.png' width = '70%;'></div><div class = 'column'><img src = 'uspos/8080.bmp' width = '100%;'></div></div>","null","pos","CS","CS","2","category2/CS9.png","","","","",""
"","html-keyboard-response","73","3228364","0.0-6.0-6.0-0.4","t9a1lfnukq","one_one","1","direct_first","1","ar05in07","1","31","1","1","3","1","","0","1","0","null","","","<div class = 'row'><div class = 'column'><img src = 'usneg/9635.2.bmp' width = '100%;'></div><div class = 'column'><img src = 'category1/CS7.png' width = '70%;'></div></div>","null","neg","CS","CS","1","category1/CS7.png","","","","",""
"","html-keyboard-response","74","3230892","0.0-6.0-6.0-0.5","t9a1lfnukq","one_one","1","direct_first","1","ar05in07","1","31","1","1","3","1","","0","1","0","null","","","<div class = 'row'><div class = 'column'><img src = 'uspos/8080.bmp' width = '100%;'></div><div class = 'column'><img src = 'category2/CS9.png' width = '70%;'></div></div>","null","pos","CS","CS","2","category2/CS9.png","","","","",""
"","html-keyboard-response","75","3233417","0.0-6.0-6.0-0.6","t9a1lfnukq","one_one","1","direct_first","1","ar05in07","1","31","1","1","3","1","","0","1","0","null","","","<div class = 'row'><div class = 'column'><img src = 'usneg/9635.2.bmp' width = '100%;'></div><div class = 'column'><img src = 'category1/CS7.png' width = '70%;'></div></div>","null","neg","CS","CS","1","category1/CS7.png","","","","",""
"","html-keyboard-response","76","3235929","0.0-6.0-6.0-0.7","t9a1lfnukq","one_one","1","direct_first","1","ar05in07","1","31","1","1","3","1","","0","1","0","null","","","<div class = 'row'><div class = 'column'><img src = 'category4/CS9.png' width = '70%;'></div><div class = 'column'><img src = 'usneg/9415.bmp' width = '100%;'></div></div>","null","neg","CS","CS","4","category4/CS9.png","","","","",""
"","html-keyboard-response","77","3238441","0.0-6.0-6.0-0.8","t9a1lfnukq","one_one","1","direct_first","1","ar05in07","1","31","1","1","3","1","","0","1","0","null","","","<div class = 'row'><div class = 'column'><img src = 'usneg/9635.2.bmp' width = '100%;'></div><div class = 'column'><img src = 'category1/CS7.png' width = '70%;'></div></div>","null","neg","CS","CS","1","category1/CS7.png","","","","",""
"","html-keyboard-response","78","3240969","0.0-6.0-6.0-0.9","t9a1lfnukq","one_one","1","direct_first","1","ar05in07","1","31","1","1","3","1","","0","1","0","null","","","<div class = 'row'><div class = 'column'><img src = 'uspos/5470.bmp' width = '100%;'></div><div class = 'column'><img src = 'category3/CS3.png' width = '70%;'></div></div>","null","pos","CS","CS","3","category3/CS3.png","","","","",""
"","html-keyboard-response","79","3243490","0.0-6.0-6.0-0.10","t9a1lfnukq","one_one","1","direct_first","1","ar05in07","1","31","1","1","3","1","","0","1","0","null","","","<div class = 'row'><div class = 'column'><img src = 'category4/CS9.png' width = '70%;'></div><div class = 'column'><img src = 'usneg/9415.bmp' width = '100%;'></div></div>","null","neg","CS","CS","4","category4/CS9.png","","","","",""
"","html-keyboard-response","80","3245997","0.0-6.0-6.0-0.11","t9a1lfnukq","one_one","1","direct_first","1","ar05in07","1","31","1","1","3","1","","0","1","0","null","","","<div class = 'row'><div class = 'column'><img src = 'category3/CS3.png' width = '70%;'></div><div class = 'column'><img src = 'uspos/5470.bmp' width = '100%;'></div></div>","null","pos","CS","CS","3","category3/CS3.png","","","","",""
"","html-keyboard-response","81","3248526","0.0-6.0-6.0-0.12","t9a1lfnukq","one_one","1","direct_first","1","ar05in07","1","31","1","1","3","1","","0","1","0","null","","","<div class = 'row'><div class = 'column'><img src = 'usneg/9415.bmp' width = '100%;'></div><div class = 'column'><img src = 'category4/CS9.png' width = '70%;'></div></div>","null","neg","CS","CS","4","category4/CS9.png","","","","",""
"","html-keyboard-response","82","3251041","0.0-6.0-6.0-0.13","t9a1lfnukq","one_one","1","direct_first","1","ar05in07","1","31","1","1","3","1","","0","1","0","null","","","<div class = 'row'><div class = 'column'><img src = 'usneg/9635.2.bmp' width = '100%;'></div><div class = 'column'><img src = 'category1/CS7.png' width = '70%;'></div></div>","null","neg","CS","CS","1","category1/CS7.png","","","","",""
"","html-keyboard-response","83","3253559","0.0-6.0-6.0-0.14","t9a1lfnukq","one_one","1","direct_first","1","ar05in07","1","31","1","1","3","1","","0","1","0","null","","","<div class = 'row'><div class = 'column'><img src = 'category3/CS3.png' width = '70%;'></div><div class = 'column'><img src = 'uspos/5470.bmp' width = '100%;'></div></div>","null","pos","CS","CS","3","category3/CS3.png","","","","",""
"","html-keyboard-response","84","3256067","0.0-6.0-6.0-0.15","t9a1lfnukq","one_one","1","direct_first","1","ar05in07","1","31","1","1","3","1","","0","1","0","null","","","<div class = 'row'><div class = 'column'><img src = 'category2/CS9.png' width = '70%;'></div><div class = 'column'><img src = 'uspos/8080.bmp' width = '100%;'></div></div>","null","pos","CS","CS","2","category2/CS9.png","","","","",""
"","html-keyboard-response","85","3258593","0.0-6.0-6.0-0.16","t9a1lfnukq","one_one","1","direct_first","1","ar05in07","1","31","1","1","3","1","","0","1","0","null","","","<div class = 'row'><div class = 'column'><img src = 'category3/CS3.png' width = '70%;'></div><div class = 'column'><img src = 'uspos/5470.bmp' width = '100%;'></div></div>","null","pos","CS","CS","3","category3/CS3.png","","","","",""
"","html-keyboard-response","86","3261102","0.0-6.0-6.0-0.17","t9a1lfnukq","one_one","1","direct_first","1","ar05in07","1","31","1","1","3","1","","0","1","0","null","","","<div class = 'row'><div class = 'column'><img src = 'usneg/9415.bmp' width = '100%;'></div><div class = 'column'><img src = 'category4/CS9.png' width = '70%;'></div></div>","null","neg","CS","CS","4","category4/CS9.png","","","","",""
"","html-keyboard-response","87","3263623","0.0-6.0-6.0-0.18","t9a1lfnukq","one_one","1","direct_first","1","ar05in07","1","31","1","1","3","1","","0","1","0","null","","","<div class = 'row'><div class = 'column'><img src = 'category3/CS3.png' width = '70%;'></div><div class = 'column'><img src = 'uspos/5470.bmp' width = '100%;'></div></div>","null","pos","CS","CS","3","category3/CS3.png","","","","",""
"","html-keyboard-response","88","3266140","0.0-6.0-6.0-0.19","t9a1lfnukq","one_one","1","direct_first","1","ar05in07","1","31","1","1","3","1","","0","1","0","null","","","<div class = 'row'><div class = 'column'><img src = 'uspos/8080.bmp' width = '100%;'></div><div class = 'column'><img src = 'category2/CS9.png' width = '70%;'></div></div>","null","pos","CS","CS","2","category2/CS9.png","","","","",""
"","survey-html-form","89","3285977","0.0-7.0","t9a1lfnukq","one_one","1","direct_first","1","ar05in07","1","31","1","1","3","1","","0","1","0","19334.24500003457","","{}","","","","","","","","","","","",""
"","image-slider-response","90","3301557","0.0-8.0-0.0","t9a1lfnukq","one_one","1","direct_first","1","ar05in07","1","31","1","1","3","1","","0","1","0","13572.159999981523","","","","","pos","GS","GSnew","3","category3/GS3.png","40","targets/13.png","direct","",""
"","image-slider-response","91","3312667","0.0-8.0-0.1","t9a1lfnukq","one_one","1","direct_first","1","ar05in07","1","31","1","1","3","1","","0","1","0","11107.034999877214","","","","","pos","GS","GSold","3","category3/CS7.png","-22","targets/47.png","direct","",""
"","image-slider-response","92","3319384","0.0-8.0-0.2","t9a1lfnukq","one_one","1","direct_first","1","ar05in07","1","31","1","1","3","1","","0","1","0","6712.305000051856","","","","","neg","GS","GSold","4","category4/CS2.png","26","targets/40.png","direct","",""
"","image-slider-response","93","3328744","0.0-8.0-0.3","t9a1lfnukq","one_one","1","direct_first","1","ar05in07","1","31","1","1","3","1","","0","1","0","9356.05000006035","","","","","neg","CS","CS","1","category1/CS7.png","-47","targets/2.png","direct","",""
"","image-slider-response","94","3333097","0.0-8.0-0.4","t9a1lfnukq","one_one","1","direct_first","1","ar05in07","1","31","1","1","3","1","","0","1","0","4350.384999997914","","","","","neg","GS","GSnew","4","category4/GS2.png","-56","targets/9.png","direct","",""
"","image-slider-response","95","3342123","0.0-8.0-0.5","t9a1lfnukq","one_one","1","direct_first","1","ar05in07","1","31","1","1","3","1","","0","1","0","9021.759999915957","","","","","neg","GS","GSold","1","category1/CS4.png","-21","targets/29.png","direct","",""
"","image-slider-response","96","3345746","0.0-8.0-0.6","t9a1lfnukq","one_one","1","direct_first","1","ar05in07","1","31","1","1","3","1","","0","1","0","3619.5549997501075","","","","","neg","GS","abstract","1","category1/ma.png","27","targets/26.png","direct","",""
"","image-slider-response","97","3352109","0.0-8.0-0.7","t9a1lfnukq","one_one","1","direct_first","1","ar05in07","1","31","1","1","3","1","","0","1","0","6358.580000232905","","","","","pos","GS","GSnew","3","category3/GS1.png","-22","targets/27.png","direct","",""
"","image-slider-response","98","3358622","0.0-8.0-0.8","t9a1lfnukq","one_one","1","direct_first","1","ar05in07","1","31","1","1","3","1","","0","1","0","6510.780000127852","","","","","neg","GS","GSold","1","category1/CS3.png","22","targets/15.png","direct","",""
"","image-slider-response","99","3365365","0.0-8.0-0.9","t9a1lfnukq","one_one","1","direct_first","1","ar05in07","1","31","1","1","3","1","","0","1","0","6739.169999957085","","","","","pos","GS","GSold","3","category3/CS4.png","-28","targets/23.png","direct","",""
"","image-slider-response","100","3369002","0.0-8.0-0.10","t9a1lfnukq","one_one","1","direct_first","1","ar05in07","1","31","1","1","3","1","","0","1","0","3632.2949999012053","","","","","pos","GS","GSnew","3","category3/GS2.png","-37","targets/7.png","direct","",""
"","image-slider-response","101","3376088","0.0-8.0-0.11","t9a1lfnukq","one_one","1","direct_first","1","ar05in07","1","31","1","1","3","1","","0","1","0","7080.2799998782575","","","","","pos","GS","GSold","2","category2/CS6.png","-29","targets/35.png","direct","",""
"","image-slider-response","102","3381513","0.0-8.0-0.12","t9a1lfnukq","one_one","1","direct_first","1","ar05in07","1","31","1","1","3","1","","0","1","0","5423.554999753833","","","","","pos","CS","CS","2","category2/CS9.png","-28","targets/38.png","direct","",""
"","image-slider-response","103","3384669","0.0-8.0-0.13","t9a1lfnukq","one_one","1","direct_first","1","ar05in07","1","31","1","1","3","1","","0","1","0","3151.9650002010167","","","","","neg","GS","GSnew","1","category1/GS1.png","37","targets/48.png","direct","",""
"","image-slider-response","104","3388878","0.0-8.0-0.14","t9a1lfnukq","one_one","1","direct_first","1","ar05in07","1","31","1","1","3","1","","0","1","0","4207.575000356883","","","","","neg","GS","GSnew","4","category4/GS3.png","26","targets/42.png","direct","",""
"","image-slider-response","105","3394357","0.0-8.0-0.15","t9a1lfnukq","one_one","1","direct_first","1","ar05in07","1","31","1","1","3","1","","0","1","0","5476.980000268668","","","","","pos","GS","GSold","2","category2/CS10.png","-43","targets/34.png","direct","",""
"","image-slider-response","106","3400303","0.0-8.0-0.16","t9a1lfnukq","one_one","1","direct_first","1","ar05in07","1","31","1","1","3","1","","0","1","0","5940.839999821037","","","","","pos","GS","GSnew","2","category2/GS2.png","-30","targets/16.png","direct","",""
"","image-slider-response","107","3404923","0.0-8.0-0.17","t9a1lfnukq","one_one","1","direct_first","1","ar05in07","1","31","1","1","3","1","","0","1","0","4614.630000200123","","","","","neg","GS","GSold","4","category4/CS3.png","34","targets/31.png","direct","",""
"","image-slider-response","108","3409757","0.0-8.0-0.18","t9a1lfnukq","one_one","1","direct_first","1","ar05in07","1","31","1","1","3","1","","0","1","0","4831.19500009343","","","","","neg","GS","GSnew","4","category4/GS1.png","24","targets/24.png","direct","",""
"","image-slider-response","109","3413276","0.0-8.0-0.19","t9a1lfnukq","one_one","1","direct_first","1","ar05in07","1","31","1","1","3","1","","0","1","0","3516.4649998769164","","","","","pos","CS","CS","3","category3/CS3.png","44","targets/39.png","direct","",""
"","image-slider-response","110","3417720","0.0-8.0-0.20","t9a1lfnukq","one_one","1","direct_first","1","ar05in07","1","31","1","1","3","1","","0","1","0","4440.93000004068","","","","","neg","CS","CS","4","category4/CS9.png","43","targets/44.png","direct","",""
"","image-slider-response","111","3421146","0.0-8.0-0.21","t9a1lfnukq","one_one","1","direct_first","1","ar05in07","1","31","1","1","3","1","","0","1","0","3424.764999654144","","","","","pos","GS","abstract","3","category3/wang.png","33","targets/33.png","direct","",""
"","image-slider-response","112","3428681","0.0-8.0-0.22","t9a1lfnukq","one_one","1","direct_first","1","ar05in07","1","31","1","1","3","1","","0","1","0","7530.749999918044","","","","","pos","GS","GSnew","2","category2/GS1.png","-16","targets/17.png","direct","",""
"","image-slider-response","113","3431801","0.0-8.0-0.23","t9a1lfnukq","one_one","1","direct_first","1","ar05in07","1","31","1","1","3","1","","0","1","0","3115.899999625981","","","","","pos","GS","GSold","2","category2/CS8.png","-18","targets/37.png","direct","",""
"","image-slider-response","114","3435743","0.0-8.0-0.24","t9a1lfnukq","one_one","1","direct_first","1","ar05in07","1","31","1","1","3","1","","0","1","0","3939.9199998006225","","","","","pos","GS","GSnew","2","category2/GS3.png","-15","targets/36.png","direct","",""
"","image-slider-response","115","3438758","0.0-8.0-0.25","t9a1lfnukq","one_one","1","direct_first","1","ar05in07","1","31","1","1","3","1","","0","1","0","3010.404999833554","","","","","neg","GS","GSnew","1","category1/GS3.png","-31","targets/30.png","direct","",""
"","image-slider-response","116","3444701","0.0-8.0-0.26","t9a1lfnukq","one_one","1","direct_first","1","ar05in07","1","31","1","1","3","1","","0","1","0","5939.435000065714","","","","","neg","GS","GSold","1","category1/CS1.png","1","targets/6.png","direct","",""
"","image-slider-response","117","3447762","0.0-8.0-0.27","t9a1lfnukq","one_one","1","direct_first","1","ar05in07","1","31","1","1","3","1","","0","1","0","3055.635000113398","","","","","neg","GS","GSnew","1","category1/GS2.png","19","targets/28.png","direct","",""
"","image-slider-response","118","3452089","0.0-8.0-0.28","t9a1lfnukq","one_one","1","direct_first","1","ar05in07","1","31","1","1","3","1","","0","1","0","4322.420000098646","","","","","pos","GS","abstract","2","category2/men.png","35","targets/12.png","direct","",""
"","image-slider-response","119","3455694","0.0-8.0-0.29","t9a1lfnukq","one_one","1","direct_first","1","ar05in07","1","31","1","1","3","1","","0","1","0","3599.9549999833107","","","","","neg","GS","GSold","4","category4/CS1.png","1","targets/4.png","direct","",""
"","image-slider-response","120","3459307","0.0-8.0-0.30","t9a1lfnukq","one_one","1","direct_first","1","ar05in07","1","31","1","1","3","1","","0","1","0","3609.26999989897","","","","","pos","GS","GSold","3","category3/CS6.png","36","targets/45.png","direct","",""
"","image-slider-response","121","3462077","0.0-8.0-0.31","t9a1lfnukq","one_one","1","direct_first","1","ar05in07","1","31","1","1","3","1","","0","1","0","2765.4800000600517","","","","","neg","GS","abstract","4","category4/lin.png","27","targets/8.png","direct","",""
"","html-keyboard-response","122","3529705","0.0-9.0","t9a1lfnukq","one_one","1","direct_first","1","ar05in07","1","31","1","1","3","1","","0","1","0","67623.8299999386","","","<p>Sie sehen nun die chinesischen Zeichen nur ganz kurz. Danach sehen Sie die jeweilige Aussprache der Zeichen als Silbe auf dem Bildschrim. Ihre Aufgabe ist es, für jede Silbe anzugeben, ob diese etwas angenehmes, oder unangenehmes bedeuten könnte. Verlassen Sie sich hier vor allem auf Ihre Intuition.<br><br>Die Zeichen werden nur zur Orientierung dargestellt, beachten Sie sie deshalb nicht. Konzentrieren Sie sich vor allem auf die Silben. <br>Reagieren Sie mit folgenden zwei Tasten: <br><br><b>'D' </b> wenn die Silbe etwas <b>unangenehmes</b> bedeuten könnte. <br><b>'K'</b> wenn die Silbe etwas <b>angenehmes</b> bedeuten könnte. <br><br>Bitte legen Sie nun den Zeigefinger der linken Hand auf die Taste 'D' und den Zeigefinger der rechten Hand auf die Taste 'K'. <br>Reagieren Sie auf jede Silbe so schnell wie möglich. Uns interessiert Ihre spontane Reaktion. <br> <br> <br>Drücken Sie 'D' oder 'K', um die nächste Aufgabe zu starten. </p>","75","","","","","","","","","",""
"","html-keyboard-response","123","3532722","0.0-10.0-0.0","t9a1lfnukq","one_one","1","direct_first","1","ar05in07","1","31","1","1","3","1","","0","1","0","null","","","<div style=""font-size:60px;"">+</div>","null","","","","","","","","","",""
"","html-keyboard-response","124","3532815","0.0-10.0-1.0","t9a1lfnukq","one_one","1","direct_first","1","ar05in07","1","31","1","1","3","1","","0","1","0","null","","","<img src = 'category2/CS10.png' width = '100%;'>","null","","","","","","","","","",""
"","html-keyboard-response","125","3533083","0.0-10.0-2.0","t9a1lfnukq","one_one","1","direct_first","1","ar05in07","1","31","1","1","3","1","","0","1","0","null","","","<img src = 'targets/34.png' width = '100%;'>","null","","","","","","","","","",""
"","html-keyboard-response","126","3535771","0.0-10.0-3.0","t9a1lfnukq","one_one","1","direct_first","1","ar05in07","1","31","1","1","3","1","","0","1","0","2686.3799998536706","","","<img src = 'targets/mask.png' width = '100%;'>","68","pos","GS","GSold","2","category2/CS10.png","","targets/34.png","indirect","0","0"
"","html-keyboard-response","127","3537285","0.0-10.0-0.1","t9a1lfnukq","one_one","1","direct_first","1","ar05in07","1","31","1","1","3","1","","0","1","0","null","","","<div style=""font-size:60px;"">+</div>","null","","","","","","","","","",""
"","html-keyboard-response","128","3537380","0.0-10.0-1.1","t9a1lfnukq","one_one","1","direct_first","1","ar05in07","1","31","1","1","3","1","","0","1","0","null","","","<img src = 'category4/CS3.png' width = '100%;'>","null","","","","","","","","","",""
"","html-keyboard-response","129","3537648","0.0-10.0-2.1","t9a1lfnukq","one_one","1","direct_first","1","ar05in07","1","31","1","1","3","1","","0","1","0","null","","","<img src = 'targets/31.png' width = '100%;'>","null","","","","","","","","","",""
"","html-keyboard-response","130","3539716","0.0-10.0-3.1","t9a1lfnukq","one_one","1","direct_first","1","ar05in07","1","31","1","1","3","1","","0","1","0","2065.0749998167157","","","<img src = 'targets/mask.png' width = '100%;'>","75","neg","GS","GSold","4","category4/CS3.png","","targets/31.png","indirect","1","1"
"","html-keyboard-response","131","3541230","0.0-10.0-0.2","t9a1lfnukq","one_one","1","direct_first","1","ar05in07","1","31","1","1","3","1","","0","1","0","null","","","<div style=""font-size:60px;"">+</div>","null","","","","","","","","","",""
"","html-keyboard-response","132","3541325","0.0-10.0-1.2","t9a1lfnukq","one_one","1","direct_first","1","ar05in07","1","31","1","1","3","1","","0","1","0","null","","","<img src = 'category2/CS8.png' width = '100%;'>","null","","","","","","","","","",""
"","html-keyboard-response","133","3541593","0.0-10.0-2.2","t9a1lfnukq","one_one","1","direct_first","1","ar05in07","1","31","1","1","3","1","","0","1","0","null","","","<img src = 'targets/37.png' width = '100%;'>","null","","","","","","","","","",""
"","html-keyboard-response","134","3542555","0.0-10.0-3.2","t9a1lfnukq","one_one","1","direct_first","1","ar05in07","1","31","1","1","3","1","","0","1","0","958.4250003099442","","","<img src = 'targets/mask.png' width = '100%;'>","75","pos","GS","GSold","2","category2/CS8.png","","targets/37.png","indirect","1","2"
"","html-keyboard-response","135","3544075","0.0-10.0-0.3","t9a1lfnukq","one_one","1","direct_first","1","ar05in07","1","31","1","1","3","1","","0","1","0","null","","","<div style=""font-size:60px;"">+</div>","null","","","","","","","","","",""
"","html-keyboard-response","136","3544167","0.0-10.0-1.3","t9a1lfnukq","one_one","1","direct_first","1","ar05in07","1","31","1","1","3","1","","0","1","0","null","","","<img src = 'category3/CS6.png' width = '100%;'>","null","","","","","","","","","",""
"","html-keyboard-response","137","3544434","0.0-10.0-2.3","t9a1lfnukq","one_one","1","direct_first","1","ar05in07","1","31","1","1","3","1","","0","1","0","null","","","<img src = 'targets/45.png' width = '100%;'>","null","","","","","","","","","",""
"","html-keyboard-response","138","3547734","0.0-10.0-3.3","t9a1lfnukq","one_one","1","direct_first","1","ar05in07","1","31","1","1","3","1","","0","1","0","3297.070000320673","","","<img src = 'targets/mask.png' width = '100%;'>","75","pos","GS","GSold","3","category3/CS6.png","","targets/45.png","indirect","1","3"
"","html-keyboard-response","139","3549245","0.0-10.0-0.4","t9a1lfnukq","one_one","1","direct_first","1","ar05in07","1","31","1","1","3","1","","0","1","0","null","","","<div style=""font-size:60px;"">+</div>","null","","","","","","","","","",""
"","html-keyboard-response","140","3549354","0.0-10.0-1.4","t9a1lfnukq","one_one","1","direct_first","1","ar05in07","1","31","1","1","3","1","","0","1","0","null","","","<img src = 'category3/CS7.png' width = '100%;'>","null","","","","","","","","","",""
"","html-keyboard-response","141","3549609","0.0-10.0-2.4","t9a1lfnukq","one_one","1","direct_first","1","ar05in07","1","31","1","1","3","1","","0","1","0","null","","","<img src = 'targets/47.png' width = '100%;'>","null","","","","","","","","","",""
"","html-keyboard-response","142","3550824","0.0-10.0-3.4","t9a1lfnukq","one_one","1","direct_first","1","ar05in07","1","31","1","1","3","1","","0","1","0","1211.6249999962747","","","<img src = 'targets/mask.png' width = '100%;'>","68","pos","GS","GSold","3","category3/CS7.png","","targets/47.png","indirect","0","4"
"","html-keyboard-response","143","3552338","0.0-10.0-0.5","t9a1lfnukq","one_one","1","direct_first","1","ar05in07","1","31","1","1","3","1","","0","1","0","null","","","<div style=""font-size:60px;"">+</div>","null","","","","","","","","","",""
"","html-keyboard-response","144","3552433","0.0-10.0-1.5","t9a1lfnukq","one_one","1","direct_first","1","ar05in07","1","31","1","1","3","1","","0","1","0","null","","","<img src = 'category1/CS3.png' width = '100%;'>","null","","","","","","","","","",""
"","html-keyboard-response","145","3552698","0.0-10.0-2.5","t9a1lfnukq","one_one","1","direct_first","1","ar05in07","1","31","1","1","3","1","","0","1","0","null","","","<img src = 'targets/15.png' width = '100%;'>","null","","","","","","","","","",""
"","html-keyboard-response","146","3553459","0.0-10.0-3.5","t9a1lfnukq","one_one","1","direct_first","1","ar05in07","1","31","1","1","3","1","","0","1","0","757.1700001135468","","","<img src = 'targets/mask.png' width = '100%;'>","68","neg","GS","GSold","1","category1/CS3.png","","targets/15.png","indirect","0","5"
"","html-keyboard-response","147","3554963","0.0-10.0-0.6","t9a1lfnukq","one_one","1","direct_first","1","ar05in07","1","31","1","1","3","1","","0","1","0","null","","","<div style=""font-size:60px;"">+</div>","null","","","","","","","","","",""
"","html-keyboard-response","148","3555056","0.0-10.0-1.6","t9a1lfnukq","one_one","1","direct_first","1","ar05in07","1","31","1","1","3","1","","0","1","0","null","","","<img src = 'category2/CS6.png' width = '100%;'>","null","","","","","","","","","",""
"","html-keyboard-response","149","3555322","0.0-10.0-2.6","t9a1lfnukq","one_one","1","direct_first","1","ar05in07","1","31","1","1","3","1","","0","1","0","null","","","<img src = 'targets/35.png' width = '100%;'>","null","","","","","","","","","",""
"","html-keyboard-response","150","3555728","0.0-10.0-3.6","t9a1lfnukq","one_one","1","direct_first","1","ar05in07","1","31","1","1","3","1","","0","1","0","403.24999997392297","","","<img src = 'targets/mask.png' width = '100%;'>","75","pos","GS","GSold","2","category2/CS6.png","","targets/35.png","indirect","1","6"
"","html-keyboard-response","151","3557255","0.0-10.0-0.7","t9a1lfnukq","one_one","1","direct_first","1","ar05in07","1","31","1","1","3","1","","0","1","0","null","","","<div style=""font-size:60px;"">+</div>","null","","","","","","","","","",""
"","html-keyboard-response","152","3557347","0.0-10.0-1.7","t9a1lfnukq","one_one","1","direct_first","1","ar05in07","1","31","1","1","3","1","","0","1","0","null","","","<img src = 'category1/CS7.png' width = '100%;'>","null","","","","","","","","","",""
"","html-keyboard-response","153","3557600","0.0-10.0-2.7","t9a1lfnukq","one_one","1","direct_first","1","ar05in07","1","31","1","1","3","1","","0","1","0","null","","","<img src = 'targets/2.png' width = '100%;'>","null","","","","","","","","","",""
"","html-keyboard-response","154","3557989","0.0-10.0-3.7","t9a1lfnukq","one_one","1","direct_first","1","ar05in07","1","31","1","1","3","1","","0","1","0","386.4349997602403","","","<img src = 'targets/mask.png' width = '100%;'>","75","neg","CS","CS","1","category1/CS7.png","","targets/2.png","indirect","1","7"
"","html-keyboard-response","155","3559506","0.0-10.0-0.8","t9a1lfnukq","one_one","1","direct_first","1","ar05in07","1","31","1","1","3","1","","0","1","0","null","","","<div style=""font-size:60px;"">+</div>","null","","","","","","","","","",""
"","html-keyboard-response","156","3559599","0.0-10.0-1.8","t9a1lfnukq","one_one","1","direct_first","1","ar05in07","1","31","1","1","3","1","","0","1","0","null","","","<img src = 'category3/CS4.png' width = '100%;'>","null","","","","","","","","","",""
"","html-keyboard-response","157","3559865","0.0-10.0-2.8","t9a1lfnukq","one_one","1","direct_first","1","ar05in07","1","31","1","1","3","1","","0","1","0","null","","","<img src = 'targets/23.png' width = '100%;'>","null","","","","","","","","","",""
"","html-keyboard-response","158","3560549","0.0-10.0-3.8","t9a1lfnukq","one_one","1","direct_first","1","ar05in07","1","31","1","1","3","1","","0","1","0","681.0699999332428","","","<img src = 'targets/mask.png' width = '100%;'>","75","pos","GS","GSold","3","category3/CS4.png","","targets/23.png","indirect","1","8"
"","html-keyboard-response","159","3562065","0.0-10.0-0.9","t9a1lfnukq","one_one","1","direct_first","1","ar05in07","1","31","1","1","3","1","","0","1","0","null","","","<div style=""font-size:60px;"">+</div>","null","","","","","","","","","",""
"","html-keyboard-response","160","3562157","0.0-10.0-1.9","t9a1lfnukq","one_one","1","direct_first","1","ar05in07","1","31","1","1","3","1","","0","1","0","null","","","<img src = 'category3/CS3.png' width = '100%;'>","null","","","","","","","","","",""
"","html-keyboard-response","161","3562422","0.0-10.0-2.9","t9a1lfnukq","one_one","1","direct_first","1","ar05in07","1","31","1","1","3","1","","0","1","0","null","","","<img src = 'targets/39.png' width = '100%;'>","null","","","","","","","","","",""
"","html-keyboard-response","162","3563049","0.0-10.0-3.9","t9a1lfnukq","one_one","1","direct_first","1","ar05in07","1","31","1","1","3","1","","0","1","0","625.2299998886883","","","<img src = 'targets/mask.png' width = '100%;'>","68","pos","CS","CS","3","category3/CS3.png","","targets/39.png","indirect","0","9"
"","html-keyboard-response","163","3564580","0.0-10.0-0.10","t9a1lfnukq","one_one","1","direct_first","1","ar05in07","1","31","1","1","3","1","","0","1","0","null","","","<div style=""font-size:60px;"">+</div>","null","","","","","","","","","",""
"","html-keyboard-response","164","3564674","0.0-10.0-1.10","t9a1lfnukq","one_one","1","direct_first","1","ar05in07","1","31","1","1","3","1","","0","1","0","null","","","<img src = 'category1/CS1.png' width = '100%;'>","null","","","","","","","","","",""
"","html-keyboard-response","165","3564943","0.0-10.0-2.10","t9a1lfnukq","one_one","1","direct_first","1","ar05in07","1","31","1","1","3","1","","0","1","0","null","","","<img src = 'targets/6.png' width = '100%;'>","null","","","","","","","","","",""
"","html-keyboard-response","166","3565981","0.0-10.0-3.10","t9a1lfnukq","one_one","1","direct_first","1","ar05in07","1","31","1","1","3","1","","0","1","0","1036.5400002337992","","","<img src = 'targets/mask.png' width = '100%;'>","68","neg","GS","GSold","1","category1/CS1.png","","targets/6.png","indirect","0","10"
"","html-keyboard-response","167","3567505","0.0-10.0-0.11","t9a1lfnukq","one_one","1","direct_first","1","ar05in07","1","31","1","1","3","1","","0","1","0","null","","","<div style=""font-size:60px;"">+</div>","null","","","","","","","","","",""
"","html-keyboard-response","168","3567599","0.0-10.0-1.11","t9a1lfnukq","one_one","1","direct_first","1","ar05in07","1","31","1","1","3","1","","0","1","0","null","","","<img src = 'category4/CS1.png' width = '100%;'>","null","","","","","","","","","",""
"","html-keyboard-response","169","3567879","0.0-10.0-2.11","t9a1lfnukq","one_one","1","direct_first","1","ar05in07","1","31","1","1","3","1","","0","1","0","null","","","<img src = 'targets/4.png' width = '100%;'>","null","","","","","","","","","",""
"","html-keyboard-response","170","3569120","0.0-10.0-3.11","t9a1lfnukq","one_one","1","direct_first","1","ar05in07","1","31","1","1","3","1","","0","1","0","1237.8699998371303","","","<img src = 'targets/mask.png' width = '100%;'>","68","neg","GS","GSold","4","category4/CS1.png","","targets/4.png","indirect","0","11"
"","html-keyboard-response","171","3570632","0.0-10.0-0.12","t9a1lfnukq","one_one","1","direct_first","1","ar05in07","1","31","1","1","3","1","","0","1","0","null","","","<div style=""font-size:60px;"">+</div>","null","","","","","","","","","",""
"","html-keyboard-response","172","3570727","0.0-10.0-1.12","t9a1lfnukq","one_one","1","direct_first","1","ar05in07","1","31","1","1","3","1","","0","1","0","null","","","<img src = 'category4/CS9.png' width = '100%;'>","null","","","","","","","","","",""
"","html-keyboard-response","173","3570981","0.0-10.0-2.12","t9a1lfnukq","one_one","1","direct_first","1","ar05in07","1","31","1","1","3","1","","0","1","0","null","","","<img src = 'targets/44.png' width = '100%;'>","null","","","","","","","","","",""
"","html-keyboard-response","174","3571956","0.0-10.0-3.12","t9a1lfnukq","one_one","1","direct_first","1","ar05in07","1","31","1","1","3","1","","0","1","0","973.2050001621246","","","<img src = 'targets/mask.png' width = '100%;'>","75","neg","CS","CS","4","category4/CS9.png","","targets/44.png","indirect","1","12"
"","html-keyboard-response","175","3573477","0.0-10.0-0.13","t9a1lfnukq","one_one","1","direct_first","1","ar05in07","1","31","1","1","3","1","","0","1","0","null","","","<div style=""font-size:60px;"">+</div>","null","","","","","","","","","",""
"","html-keyboard-response","176","3573570","0.0-10.0-1.13","t9a1lfnukq","one_one","1","direct_first","1","ar05in07","1","31","1","1","3","1","","0","1","0","null","","","<img src = 'category2/CS9.png' width = '100%;'>","null","","","","","","","","","",""
"","html-keyboard-response","177","3573851","0.0-10.0-2.13","t9a1lfnukq","one_one","1","direct_first","1","ar05in07","1","31","1","1","3","1","","0","1","0","null","","","<img src = 'targets/38.png' width = '100%;'>","null","","","","","","","","","",""
"","html-keyboard-response","178","3574259","0.0-10.0-3.13","t9a1lfnukq","one_one","1","direct_first","1","ar05in07","1","31","1","1","3","1","","0","1","0","404.3800001963973","","","<img src = 'targets/mask.png' width = '100%;'>","75","pos","CS","CS","2","category2/CS9.png","","targets/38.png","indirect","1","13"
"","html-keyboard-response","179","3575777","0.0-10.0-0.14","t9a1lfnukq","one_one","1","direct_first","1","ar05in07","1","31","1","1","3","1","","0","1","0","null","","","<div style=""font-size:60px;"">+</div>","null","","","","","","","","","",""
"","html-keyboard-response","180","3575871","0.0-10.0-1.14","t9a1lfnukq","one_one","1","direct_first","1","ar05in07","1","31","1","1","3","1","","0","1","0","null","","","<img src = 'category4/CS2.png' width = '100%;'>","null","","","","","","","","","",""
"","html-keyboard-response","181","3576136","0.0-10.0-2.14","t9a1lfnukq","one_one","1","direct_first","1","ar05in07","1","31","1","1","3","1","","0","1","0","null","","","<img src = 'targets/40.png' width = '100%;'>","null","","","","","","","","","",""
"","html-keyboard-response","182","3576639","0.0-10.0-3.14","t9a1lfnukq","one_one","1","direct_first","1","ar05in07","1","31","1","1","3","1","","0","1","0","499.90499997511506","","","<img src = 'targets/mask.png' width = '100%;'>","75","neg","GS","GSold","4","category4/CS2.png","","targets/40.png","indirect","1","14"
"","html-keyboard-response","183","3578164","0.0-10.0-0.15","t9a1lfnukq","one_one","1","direct_first","1","ar05in07","1","31","1","1","3","1","","0","1","0","null","","","<div style=""font-size:60px;"">+</div>","null","","","","","","","","","",""
"","html-keyboard-response","184","3578258","0.0-10.0-1.15","t9a1lfnukq","one_one","1","direct_first","1","ar05in07","1","31","1","1","3","1","","0","1","0","null","","","<img src = 'category1/CS4.png' width = '100%;'>","null","","","","","","","","","",""
"","html-keyboard-response","185","3578540","0.0-10.0-2.15","t9a1lfnukq","one_one","1","direct_first","1","ar05in07","1","31","1","1","3","1","","0","1","0","null","","","<img src = 'targets/29.png' width = '100%;'>","null","","","","","","","","","",""
"","html-keyboard-response","186","3579009","0.0-10.0-3.15","t9a1lfnukq","one_one","1","direct_first","1","ar05in07","1","31","1","1","3","1","","0","1","0","466.25500032678246","","","<img src = 'targets/mask.png' width = '100%;'>","75","neg","GS","GSold","1","category1/CS4.png","","targets/29.png","indirect","1","15"
"","survey-html-form","187","3583167","0.0-11.0","t9a1lfnukq","one_one","1","direct_first","1","ar05in07","1","31","1","1","3","1","","0","1","0","3652.529999613762","","{}","","","","","","","","","","","",""
"","html-keyboard-response","188","3586199","0.0-12.0-0.0","t9a1lfnukq","one_one","1","direct_first","1","ar05in07","1","31","1","1","3","1","","0","1","0","null","","","<div style=""font-size:60px;"">+</div>","null","","","","","","","","","",""
"","html-keyboard-response","189","3586292","0.0-12.0-1.0","t9a1lfnukq","one_one","1","direct_first","1","ar05in07","1","31","1","1","3","1","","0","1","0","null","","","<img src = 'category4/GS1.png' width = '100%;'>","null","","","","","","","","","",""
"","html-keyboard-response","190","3586544","0.0-12.0-2.0","t9a1lfnukq","one_one","1","direct_first","1","ar05in07","1","31","1","1","3","1","","0","1","0","null","","","<img src = 'targets/24.png' width = '100%;'>","null","","","","","","","","","",""
"","html-keyboard-response","191","3587140","0.0-12.0-3.0","t9a1lfnukq","one_one","1","direct_first","1","ar05in07","1","31","1","1","3","1","","0","1","0","592.2500002197921","","","<img src = 'targets/mask.png' width = '100%;'>","68","neg","GS","GSnew","4","category4/GS1.png","","targets/24.png","indirect","0","16"
"","html-keyboard-response","192","3588652","0.0-12.0-0.1","t9a1lfnukq","one_one","1","direct_first","1","ar05in07","1","31","1","1","3","1","","0","1","0","null","","","<div style=""font-size:60px;"">+</div>","null","","","","","","","","","",""
"","html-keyboard-response","193","3588745","0.0-12.0-1.1","t9a1lfnukq","one_one","1","direct_first","1","ar05in07","1","31","1","1","3","1","","0","1","0","null","","","<img src = 'category1/GS2.png' width = '100%;'>","null","","","","","","","","","",""
"","html-keyboard-response","194","3588999","0.0-12.0-2.1","t9a1lfnukq","one_one","1","direct_first","1","ar05in07","1","31","1","1","3","1","","0","1","0","null","","","<img src = 'targets/28.png' width = '100%;'>","null","","","","","","","","","",""
"","html-keyboard-response","195","3589714","0.0-12.0-3.1","t9a1lfnukq","one_one","1","direct_first","1","ar05in07","1","31","1","1","3","1","","0","1","0","713.4100003167987","","","<img src = 'targets/mask.png' width = '100%;'>","68","neg","GS","GSnew","1","category1/GS2.png","","targets/28.png","indirect","0","17"
"","html-keyboard-response","196","3591217","0.0-12.0-0.2","t9a1lfnukq","one_one","1","direct_first","1","ar05in07","1","31","1","1","3","1","","0","1","0","null","","","<div style=""font-size:60px;"">+</div>","null","","","","","","","","","",""
"","html-keyboard-response","197","3591310","0.0-12.0-1.2","t9a1lfnukq","one_one","1","direct_first","1","ar05in07","1","31","1","1","3","1","","0","1","0","null","","","<img src = 'category2/GS3.png' width = '100%;'>","null","","","","","","","","","",""
"","html-keyboard-response","198","3591581","0.0-12.0-2.2","t9a1lfnukq","one_one","1","direct_first","1","ar05in07","1","31","1","1","3","1","","0","1","0","null","","","<img src = 'targets/36.png' width = '100%;'>","null","","","","","","","","","",""
"","html-keyboard-response","199","3591894","0.0-12.0-3.2","t9a1lfnukq","one_one","1","direct_first","1","ar05in07","1","31","1","1","3","1","","0","1","0","311.30999978631735","","","<img src = 'targets/mask.png' width = '100%;'>","75","pos","GS","GSnew","2","category2/GS3.png","","targets/36.png","indirect","1","18"
"","html-keyboard-response","200","3593403","0.0-12.0-0.3","t9a1lfnukq","one_one","1","direct_first","1","ar05in07","1","31","1","1","3","1","","0","1","0","null","","","<div style=""font-size:60px;"">+</div>","null","","","","","","","","","",""
"","html-keyboard-response","201","3593499","0.0-12.0-1.3","t9a1lfnukq","one_one","1","direct_first","1","ar05in07","1","31","1","1","3","1","","0","1","0","null","","","<img src = 'category3/GS1.png' width = '100%;'>","null","","","","","","","","","",""
"","html-keyboard-response","202","3593751","0.0-12.0-2.3","t9a1lfnukq","one_one","1","direct_first","1","ar05in07","1","31","1","1","3","1","","0","1","0","null","","","<img src = 'targets/27.png' width = '100%;'>","null","","","","","","","","","",""
"","html-keyboard-response","203","3594086","0.0-12.0-3.3","t9a1lfnukq","one_one","1","direct_first","1","ar05in07","1","31","1","1","3","1","","0","1","0","333.7949998676777","","","<img src = 'targets/mask.png' width = '100%;'>","75","pos","GS","GSnew","3","category3/GS1.png","","targets/27.png","indirect","1","19"
"","html-keyboard-response","204","3595599","0.0-12.0-0.4","t9a1lfnukq","one_one","1","direct_first","1","ar05in07","1","31","1","1","3","1","","0","1","0","null","","","<div style=""font-size:60px;"">+</div>","null","","","","","","","","","",""
"","html-keyboard-response","205","3595693","0.0-12.0-1.4","t9a1lfnukq","one_one","1","direct_first","1","ar05in07","1","31","1","1","3","1","","0","1","0","null","","","<img src = 'category1/GS3.png' width = '100%;'>","null","","","","","","","","","",""
"","html-keyboard-response","206","3595958","0.0-12.0-2.4","t9a1lfnukq","one_one","1","direct_first","1","ar05in07","1","31","1","1","3","1","","0","1","0","null","","","<img src = 'targets/30.png' width = '100%;'>","null","","","","","","","","","",""
"","html-keyboard-response","207","3596310","0.0-12.0-3.4","t9a1lfnukq","one_one","1","direct_first","1","ar05in07","1","31","1","1","3","1","","0","1","0","348.1150004081428","","","<img src = 'targets/mask.png' width = '100%;'>","75","neg","GS","GSnew","1","category1/GS3.png","","targets/30.png","indirect","1","20"
"","html-keyboard-response","208","3597824","0.0-12.0-0.5","t9a1lfnukq","one_one","1","direct_first","1","ar05in07","1","31","1","1","3","1","","0","1","0","null","","","<div style=""font-size:60px;"">+</div>","null","","","","","","","","","",""
"","html-keyboard-response","209","3597918","0.0-12.0-1.5","t9a1lfnukq","one_one","1","direct_first","1","ar05in07","1","31","1","1","3","1","","0","1","0","null","","","<img src = 'category1/GS1.png' width = '100%;'>","null","","","","","","","","","",""
"","html-keyboard-response","210","3598184","0.0-12.0-2.5","t9a1lfnukq","one_one","1","direct_first","1","ar05in07","1","31","1","1","3","1","","0","1","0","null","","","<img src = 'targets/48.png' width = '100%;'>","null","","","","","","","","","",""
"","html-keyboard-response","211","3598519","0.0-12.0-3.5","t9a1lfnukq","one_one","1","direct_first","1","ar05in07","1","31","1","1","3","1","","0","1","0","332.5949995778501","","","<img src = 'targets/mask.png' width = '100%;'>","75","neg","GS","GSnew","1","category1/GS1.png","","targets/48.png","indirect","1","21"
"","html-keyboard-response","212","3600043","0.0-12.0-0.6","t9a1lfnukq","one_one","1","direct_first","1","ar05in07","1","31","1","1","3","1","","0","1","0","null","","","<div style=""font-size:60px;"">+</div>","null","","","","","","","","","",""
"","html-keyboard-response","213","3600136","0.0-12.0-1.6","t9a1lfnukq","one_one","1","direct_first","1","ar05in07","1","31","1","1","3","1","","0","1","0","null","","","<img src = 'category4/GS2.png' width = '100%;'>","null","","","","","","","","","",""
"","html-keyboard-response","214","3600405","0.0-12.0-2.6","t9a1lfnukq","one_one","1","direct_first","1","ar05in07","1","31","1","1","3","1","","0","1","0","null","","","<img src = 'targets/9.png' width = '100%;'>","null","","","","","","","","","",""
"","html-keyboard-response","215","3600753","0.0-12.0-3.6","t9a1lfnukq","one_one","1","direct_first","1","ar05in07","1","31","1","1","3","1","","0","1","0","345.2800000086427","","","<img src = 'targets/mask.png' width = '100%;'>","75","neg","GS","GSnew","4","category4/GS2.png","","targets/9.png","indirect","1","22"
"","html-keyboard-response","216","3602268","0.0-12.0-0.7","t9a1lfnukq","one_one","1","direct_first","1","ar05in07","1","31","1","1","3","1","","0","1","0","null","","","<div style=""font-size:60px;"">+</div>","null","","","","","","","","","",""
"","html-keyboard-response","217","3602360","0.0-12.0-1.7","t9a1lfnukq","one_one","1","direct_first","1","ar05in07","1","31","1","1","3","1","","0","1","0","null","","","<img src = 'category4/GS3.png' width = '100%;'>","null","","","","","","","","","",""
"","html-keyboard-response","218","3602628","0.0-12.0-2.7","t9a1lfnukq","one_one","1","direct_first","1","ar05in07","1","31","1","1","3","1","","0","1","0","null","","","<img src = 'targets/42.png' width = '100%;'>","null","","","","","","","","","",""
"","html-keyboard-response","219","3602979","0.0-12.0-3.7","t9a1lfnukq","one_one","1","direct_first","1","ar05in07","1","31","1","1","3","1","","0","1","0","349.46499997749925","","","<img src = 'targets/mask.png' width = '100%;'>","75","neg","GS","GSnew","4","category4/GS3.png","","targets/42.png","indirect","1","23"
"","html-keyboard-response","220","3604495","0.0-12.0-0.8","t9a1lfnukq","one_one","1","direct_first","1","ar05in07","1","31","1","1","3","1","","0","1","0","null","","","<div style=""font-size:60px;"">+</div>","null","","","","","","","","","",""
"","html-keyboard-response","221","3604587","0.0-12.0-1.8","t9a1lfnukq","one_one","1","direct_first","1","ar05in07","1","31","1","1","3","1","","0","1","0","null","","","<img src = 'category4/lin.png' width = '100%;'>","null","","","","","","","","","",""
"","html-keyboard-response","222","3604841","0.0-12.0-2.8","t9a1lfnukq","one_one","1","direct_first","1","ar05in07","1","31","1","1","3","1","","0","1","0","null","","","<img src = 'targets/8.png' width = '100%;'>","null","","","","","","","","","",""
"","html-keyboard-response","223","3605151","0.0-12.0-3.8","t9a1lfnukq","one_one","1","direct_first","1","ar05in07","1","31","1","1","3","1","","0","1","0","309.0050001628697","","","<img src = 'targets/mask.png' width = '100%;'>","75","neg","GS","abstract","4","category4/lin.png","","targets/8.png","indirect","1","24"
"","html-keyboard-response","224","3606677","0.0-12.0-0.9","t9a1lfnukq","one_one","1","direct_first","1","ar05in07","1","31","1","1","3","1","","0","1","0","null","","","<div style=""font-size:60px;"">+</div>","null","","","","","","","","","",""
"","html-keyboard-response","225","3606770","0.0-12.0-1.9","t9a1lfnukq","one_one","1","direct_first","1","ar05in07","1","31","1","1","3","1","","0","1","0","null","","","<img src = 'category2/GS1.png' width = '100%;'>","null","","","","","","","","","",""
"","html-keyboard-response","226","3607035","0.0-12.0-2.9","t9a1lfnukq","one_one","1","direct_first","1","ar05in07","1","31","1","1","3","1","","0","1","0","null","","","<img src = 'targets/17.png' width = '100%;'>","null","","","","","","","","","",""
"","html-keyboard-response","227","3607773","0.0-12.0-3.9","t9a1lfnukq","one_one","1","direct_first","1","ar05in07","1","31","1","1","3","1","","0","1","0","735.4549998417497","","","<img src = 'targets/mask.png' width = '100%;'>","68","pos","GS","GSnew","2","category2/GS1.png","","targets/17.png","indirect","0","25"
"","html-keyboard-response","228","3609285","0.0-12.0-0.10","t9a1lfnukq","one_one","1","direct_first","1","ar05in07","1","31","1","1","3","1","","0","1","0","null","","","<div style=""font-size:60px;"">+</div>","null","","","","","","","","","",""
"","html-keyboard-response","229","3609378","0.0-12.0-1.10","t9a1lfnukq","one_one","1","direct_first","1","ar05in07","1","31","1","1","3","1","","0","1","0","null","","","<img src = 'category1/ma.png' width = '100%;'>","null","","","","","","","","","",""
"","html-keyboard-response","230","3609631","0.0-12.0-2.10","t9a1lfnukq","one_one","1","direct_first","1","ar05in07","1","31","1","1","3","1","","0","1","0","null","","","<img src = 'targets/26.png' width = '100%;'>","null","","","","","","","","","",""
"","html-keyboard-response","231","3609979","0.0-12.0-3.10","t9a1lfnukq","one_one","1","direct_first","1","ar05in07","1","31","1","1","3","1","","0","1","0","345.1749999076128","","","<img src = 'targets/mask.png' width = '100%;'>","68","neg","GS","abstract","1","category1/ma.png","","targets/26.png","indirect","0","26"
"","html-keyboard-response","232","3611499","0.0-12.0-0.11","t9a1lfnukq","one_one","1","direct_first","1","ar05in07","1","31","1","1","3","1","","0","1","0","null","","","<div style=""font-size:60px;"">+</div>","null","","","","","","","","","",""
"","html-keyboard-response","233","3611593","0.0-12.0-1.11","t9a1lfnukq","one_one","1","direct_first","1","ar05in07","1","31","1","1","3","1","","0","1","0","null","","","<img src = 'category2/GS2.png' width = '100%;'>","null","","","","","","","","","",""
"","html-keyboard-response","234","3611846","0.0-12.0-2.11","t9a1lfnukq","one_one","1","direct_first","1","ar05in07","1","31","1","1","3","1","","0","1","0","null","","","<img src = 'targets/16.png' width = '100%;'>","null","","","","","","","","","",""
"","html-keyboard-response","235","3612550","0.0-12.0-3.11","t9a1lfnukq","one_one","1","direct_first","1","ar05in07","1","31","1","1","3","1","","0","1","0","702.775000128895","","","<img src = 'targets/mask.png' width = '100%;'>","75","pos","GS","GSnew","2","category2/GS2.png","","targets/16.png","indirect","1","27"
"","html-keyboard-response","236","3614081","0.0-12.0-0.12","t9a1lfnukq","one_one","1","direct_first","1","ar05in07","1","31","1","1","3","1","","0","1","0","null","","","<div style=""font-size:60px;"">+</div>","null","","","","","","","","","",""
"","html-keyboard-response","237","3614176","0.0-12.0-1.12","t9a1lfnukq","one_one","1","direct_first","1","ar05in07","1","31","1","1","3","1","","0","1","0","null","","","<img src = 'category3/GS2.png' width = '100%;'>","null","","","","","","","","","",""
"","html-keyboard-response","238","3614444","0.0-12.0-2.12","t9a1lfnukq","one_one","1","direct_first","1","ar05in07","1","31","1","1","3","1","","0","1","0","null","","","<img src = 'targets/7.png' width = '100%;'>","null","","","","","","","","","",""
"","html-keyboard-response","239","3615194","0.0-12.0-3.12","t9a1lfnukq","one_one","1","direct_first","1","ar05in07","1","31","1","1","3","1","","0","1","0","748.0499995872378","","","<img src = 'targets/mask.png' width = '100%;'>","75","pos","GS","GSnew","3","category3/GS2.png","","targets/7.png","indirect","1","28"
"","html-keyboard-response","240","3616705","0.0-12.0-0.13","t9a1lfnukq","one_one","1","direct_first","1","ar05in07","1","31","1","1","3","1","","0","1","0","null","","","<div style=""font-size:60px;"">+</div>","null","","","","","","","","","",""
"","html-keyboard-response","241","3616800","0.0-12.0-1.13","t9a1lfnukq","one_one","1","direct_first","1","ar05in07","1","31","1","1","3","1","","0","1","0","null","","","<img src = 'category3/wang.png' width = '100%;'>","null","","","","","","","","","",""
"","html-keyboard-response","242","3617068","0.0-12.0-2.13","t9a1lfnukq","one_one","1","direct_first","1","ar05in07","1","31","1","1","3","1","","0","1","0","null","","","<img src = 'targets/33.png' width = '100%;'>","null","","","","","","","","","",""
"","html-keyboard-response","243","3617648","0.0-12.0-3.13","t9a1lfnukq","one_one","1","direct_first","1","ar05in07","1","31","1","1","3","1","","0","1","0","577.4550000205636","","","<img src = 'targets/mask.png' width = '100%;'>","75","pos","GS","abstract","3","category3/wang.png","","targets/33.png","indirect","1","29"
"","html-keyboard-response","244","3619151","0.0-12.0-0.14","t9a1lfnukq","one_one","1","direct_first","1","ar05in07","1","31","1","1","3","1","","0","1","0","null","","","<div style=""font-size:60px;"">+</div>","null","","","","","","","","","",""
"","html-keyboard-response","245","3619244","0.0-12.0-1.14","t9a1lfnukq","one_one","1","direct_first","1","ar05in07","1","31","1","1","3","1","","0","1","0","null","","","<img src = 'category3/GS3.png' width = '100%;'>","null","","","","","","","","","",""
"","html-keyboard-response","246","3619499","0.0-12.0-2.14","t9a1lfnukq","one_one","1","direct_first","1","ar05in07","1","31","1","1","3","1","","0","1","0","null","","","<img src = 'targets/13.png' width = '100%;'>","null","","","","","","","","","",""
"","html-keyboard-response","247","3620151","0.0-12.0-3.14","t9a1lfnukq","one_one","1","direct_first","1","ar05in07","1","31","1","1","3","1","","0","1","0","649.4250004179776","","","<img src = 'targets/mask.png' width = '100%;'>","75","pos","GS","GSnew","3","category3/GS3.png","","targets/13.png","indirect","1","30"
"","html-keyboard-response","248","3621663","0.0-12.0-0.15","t9a1lfnukq","one_one","1","direct_first","1","ar05in07","1","31","1","1","3","1","","0","1","0","null","","","<div style=""font-size:60px;"">+</div>","null","","","","","","","","","",""
"","html-keyboard-response","249","3621754","0.0-12.0-1.15","t9a1lfnukq","one_one","1","direct_first","1","ar05in07","1","31","1","1","3","1","","0","1","0","null","","","<img src = 'category2/men.png' width = '100%;'>","null","","","","","","","","","",""
"","html-keyboard-response","250","3622022","0.0-12.0-2.15","t9a1lfnukq","one_one","1","direct_first","1","ar05in07","1","31","1","1","3","1","","0","1","0","null","","","<img src = 'targets/12.png' width = '100%;'>","null","","","","","","","","","",""
"","html-keyboard-response","251","3622368","0.0-12.0-3.15","t9a1lfnukq","one_one","1","direct_first","1","ar05in07","1","31","1","1","3","1","","0","1","0","342.8299999795854","","","<img src = 'targets/mask.png' width = '100%;'>","75","pos","GS","abstract","2","category2/men.png","","targets/12.png","indirect","1","31"
"","survey-html-form","252","3631811","0.0-13.0","t9a1lfnukq","one_one","1","direct_first","1","ar05in07","1","31","1","1","3","1","","0","1","0","8927.619999740273","","{}","","","","","","","","","","","",""
"","image-slider-response","253","3642028","0.0-14.0-0.0","t9a1lfnukq","one_one","1","direct_first","1","ar05in07","1","31","1","1","3","1","","0","1","0","9211.374999955297","","","","","neg","All","all","1","category1/ma_all.png","31","","all","",""
"","image-slider-response","254","3651848","0.0-14.0-0.1","t9a1lfnukq","one_one","1","direct_first","1","ar05in07","1","31","1","1","3","1","","0","1","0","9815.235000103712","","","","","neg","All","all","4","category4/lin_all.png","-16","","all","",""
"","image-slider-response","255","3658558","0.0-14.0-0.2","t9a1lfnukq","one_one","1","direct_first","1","ar05in07","1","31","1","1","3","1","","0","1","0","6707.450000103563","","","","","pos","All","all","2","category2/men_all.png","15","","all","",""
"","image-slider-response","256","3663428","0.0-14.0-0.3","t9a1lfnukq","one_one","1","direct_first","1","ar05in07","1","31","1","1","3","1","","0","1","0","4866.369999945164","","","","","pos","All","all","3","category3/wang_all.png","18","","all","",""
"","survey-text","257","3678409","0.0-15.0","t9a1lfnukq","one_one","1","direct_first","1","ar05in07","1","31","1","1","3","1","","0","1","0","14929.565000347793","","{""comment"":""""}","","","","","","","","","","","",""
"","survey-html-form","258","3699768","0.0-16.0","t9a1lfnukq","one_one","1","direct_first","1","ar05in07","1","31","1","1","3","1","","0","1","0","21354.67000026256","","{""hinschauen"":""0"",""ablenkung"":""1"",""gewissenhaft"":""0""}","","","","","","","","","","","",""
