"success","trial_type","trial_index","time_elapsed","internal_node_id","subject","condition","condition_code","measure","measure_code","codeword","gender","age","education","chinese","fach","handedness","comment","hinschauen","ablenkung","gewissenhaft","rt","url","responses","stimulus","key_press","val","type","type_specific","category","cs_selected","response","target","task","indirect","nr_pres"
"true","fullscreen","0","8712","0.0-0.0","1px6htx436","one_one","1","direct_first","1","le07es21","1","25","1","1","3","1","Nach Teilnahme würde mich interessieren, was genau untersucht wird ;)","0","1","0","","","","","","","","","","","","","","",""
"","external-html","1","179546","0.0-1.0","1px6htx436","one_one","1","direct_first","1","le07es21","1","25","1","1","3","1","Nach Teilnahme würde mich interessieren, was genau untersucht wird ;)","0","1","0","170786.1050000065","text/information.html","","","","","","","","","","","","",""
"","external-html","2","194932","0.0-2.0","1px6htx436","one_one","1","direct_first","1","le07es21","1","25","1","1","3","1","Nach Teilnahme würde mich interessieren, was genau untersucht wird ;)","0","1","0","15317.479999997886","text/consent.html","","","","","","","","","","","","",""
"","survey-html-form","3","265663","0.0-3.0","1px6htx436","one_one","1","direct_first","1","le07es21","1","25","1","1","3","1","Nach Teilnahme würde mich interessieren, was genau untersucht wird ;)","0","1","0","70729.01500000444","","{""codeword_enter"":""le07es21""}","","","","","","","","","","","",""
"","survey-html-form","4","284837","0.0-4.0","1px6htx436","one_one","1","direct_first","1","le07es21","1","25","1","1","3","1","Nach Teilnahme würde mich interessieren, was genau untersucht wird ;)","0","1","0","19171.965000001364","","{""age"":""25"",""education"":""1"",""subject"":""3"",""gender"":""1"",""handedness"":""1"",""chinese"":""1""}","","","","","","","","","","","",""
"","survey-html-form","5","303840","0.0-5.0","1px6htx436","one_one","1","direct_first","1","le07es21","1","25","1","1","3","1","Nach Teilnahme würde mich interessieren, was genau untersucht wird ;)","0","1","0","19002.28000000061","","{}","","","","","","","","","","","",""
"","html-keyboard-response","6","307848","0.0-6.0-0.0-0.0","1px6htx436","one_one","1","direct_first","1","le07es21","1","25","1","1","3","1","Nach Teilnahme würde mich interessieren, was genau untersucht wird ;)","0","1","0","null","","","<div class = 'row'><div class = 'column'><img src = 'uspos/1710.bmp' width = '100%;'></div><div class = 'column'><img src = 'category3/CS1.png' width = '70%;'></div></div>","null","pos","CS","CS","3","category3/CS1.png","","","","",""
"","html-keyboard-response","7","310355","0.0-6.0-0.0-0.1","1px6htx436","one_one","1","direct_first","1","le07es21","1","25","1","1","3","1","Nach Teilnahme würde mich interessieren, was genau untersucht wird ;)","0","1","0","null","","","<div class = 'row'><div class = 'column'><img src = 'category2/CS1.png' width = '70%;'></div><div class = 'column'><img src = 'uspos/4599.bmp' width = '100%;'></div></div>","null","pos","CS","CS","2","category2/CS1.png","","","","",""
"","html-keyboard-response","8","312861","0.0-6.0-0.0-0.2","1px6htx436","one_one","1","direct_first","1","le07es21","1","25","1","1","3","1","Nach Teilnahme würde mich interessieren, was genau untersucht wird ;)","0","1","0","null","","","<div class = 'row'><div class = 'column'><img src = 'category1/CS10.png' width = '70%;'></div><div class = 'column'><img src = 'usneg/9180.bmp' width = '100%;'></div></div>","null","neg","CS","CS","1","category1/CS10.png","","","","",""
"","html-keyboard-response","9","315367","0.0-6.0-0.0-0.3","1px6htx436","one_one","1","direct_first","1","le07es21","1","25","1","1","3","1","Nach Teilnahme würde mich interessieren, was genau untersucht wird ;)","0","1","0","null","","","<div class = 'row'><div class = 'column'><img src = 'category3/CS1.png' width = '70%;'></div><div class = 'column'><img src = 'uspos/1710.bmp' width = '100%;'></div></div>","null","pos","CS","CS","3","category3/CS1.png","","","","",""
"","html-keyboard-response","10","317872","0.0-6.0-0.0-0.4","1px6htx436","one_one","1","direct_first","1","le07es21","1","25","1","1","3","1","Nach Teilnahme würde mich interessieren, was genau untersucht wird ;)","0","1","0","null","","","<div class = 'row'><div class = 'column'><img src = 'category1/CS10.png' width = '70%;'></div><div class = 'column'><img src = 'usneg/9180.bmp' width = '100%;'></div></div>","null","neg","CS","CS","1","category1/CS10.png","","","","",""
"","html-keyboard-response","11","320377","0.0-6.0-0.0-0.5","1px6htx436","one_one","1","direct_first","1","le07es21","1","25","1","1","3","1","Nach Teilnahme würde mich interessieren, was genau untersucht wird ;)","0","1","0","null","","","<div class = 'row'><div class = 'column'><img src = 'uspos/1710.bmp' width = '100%;'></div><div class = 'column'><img src = 'category3/CS1.png' width = '70%;'></div></div>","null","pos","CS","CS","3","category3/CS1.png","","","","",""
"","html-keyboard-response","12","322883","0.0-6.0-0.0-0.6","1px6htx436","one_one","1","direct_first","1","le07es21","1","25","1","1","3","1","Nach Teilnahme würde mich interessieren, was genau untersucht wird ;)","0","1","0","null","","","<div class = 'row'><div class = 'column'><img src = 'category1/CS10.png' width = '70%;'></div><div class = 'column'><img src = 'usneg/9180.bmp' width = '100%;'></div></div>","null","neg","CS","CS","1","category1/CS10.png","","","","",""
"","html-keyboard-response","13","325389","0.0-6.0-0.0-0.7","1px6htx436","one_one","1","direct_first","1","le07es21","1","25","1","1","3","1","Nach Teilnahme würde mich interessieren, was genau untersucht wird ;)","0","1","0","null","","","<div class = 'row'><div class = 'column'><img src = 'usneg/9561.bmp' width = '100%;'></div><div class = 'column'><img src = 'category4/CS2.png' width = '70%;'></div></div>","null","neg","CS","CS","4","category4/CS2.png","","","","",""
"","html-keyboard-response","14","327894","0.0-6.0-0.0-0.8","1px6htx436","one_one","1","direct_first","1","le07es21","1","25","1","1","3","1","Nach Teilnahme würde mich interessieren, was genau untersucht wird ;)","0","1","0","null","","","<div class = 'row'><div class = 'column'><img src = 'usneg/9180.bmp' width = '100%;'></div><div class = 'column'><img src = 'category1/CS10.png' width = '70%;'></div></div>","null","neg","CS","CS","1","category1/CS10.png","","","","",""
"","html-keyboard-response","15","330399","0.0-6.0-0.0-0.9","1px6htx436","one_one","1","direct_first","1","le07es21","1","25","1","1","3","1","Nach Teilnahme würde mich interessieren, was genau untersucht wird ;)","0","1","0","null","","","<div class = 'row'><div class = 'column'><img src = 'category4/CS2.png' width = '70%;'></div><div class = 'column'><img src = 'usneg/9561.bmp' width = '100%;'></div></div>","null","neg","CS","CS","4","category4/CS2.png","","","","",""
"","html-keyboard-response","16","332905","0.0-6.0-0.0-0.10","1px6htx436","one_one","1","direct_first","1","le07es21","1","25","1","1","3","1","Nach Teilnahme würde mich interessieren, was genau untersucht wird ;)","0","1","0","null","","","<div class = 'row'><div class = 'column'><img src = 'uspos/4599.bmp' width = '100%;'></div><div class = 'column'><img src = 'category2/CS1.png' width = '70%;'></div></div>","null","pos","CS","CS","2","category2/CS1.png","","","","",""
"","html-keyboard-response","17","335410","0.0-6.0-0.0-0.11","1px6htx436","one_one","1","direct_first","1","le07es21","1","25","1","1","3","1","Nach Teilnahme würde mich interessieren, was genau untersucht wird ;)","0","1","0","null","","","<div class = 'row'><div class = 'column'><img src = 'uspos/1710.bmp' width = '100%;'></div><div class = 'column'><img src = 'category3/CS1.png' width = '70%;'></div></div>","null","pos","CS","CS","3","category3/CS1.png","","","","",""
"","html-keyboard-response","18","337917","0.0-6.0-0.0-0.12","1px6htx436","one_one","1","direct_first","1","le07es21","1","25","1","1","3","1","Nach Teilnahme würde mich interessieren, was genau untersucht wird ;)","0","1","0","null","","","<div class = 'row'><div class = 'column'><img src = 'category2/CS1.png' width = '70%;'></div><div class = 'column'><img src = 'uspos/4599.bmp' width = '100%;'></div></div>","null","pos","CS","CS","2","category2/CS1.png","","","","",""
"","html-keyboard-response","19","340421","0.0-6.0-0.0-0.13","1px6htx436","one_one","1","direct_first","1","le07es21","1","25","1","1","3","1","Nach Teilnahme würde mich interessieren, was genau untersucht wird ;)","0","1","0","null","","","<div class = 'row'><div class = 'column'><img src = 'category4/CS2.png' width = '70%;'></div><div class = 'column'><img src = 'usneg/9561.bmp' width = '100%;'></div></div>","null","neg","CS","CS","4","category4/CS2.png","","","","",""
"","html-keyboard-response","20","342927","0.0-6.0-0.0-0.14","1px6htx436","one_one","1","direct_first","1","le07es21","1","25","1","1","3","1","Nach Teilnahme würde mich interessieren, was genau untersucht wird ;)","0","1","0","null","","","<div class = 'row'><div class = 'column'><img src = 'usneg/9180.bmp' width = '100%;'></div><div class = 'column'><img src = 'category1/CS10.png' width = '70%;'></div></div>","null","neg","CS","CS","1","category1/CS10.png","","","","",""
"","html-keyboard-response","21","345432","0.0-6.0-0.0-0.15","1px6htx436","one_one","1","direct_first","1","le07es21","1","25","1","1","3","1","Nach Teilnahme würde mich interessieren, was genau untersucht wird ;)","0","1","0","null","","","<div class = 'row'><div class = 'column'><img src = 'usneg/9561.bmp' width = '100%;'></div><div class = 'column'><img src = 'category4/CS2.png' width = '70%;'></div></div>","null","neg","CS","CS","4","category4/CS2.png","","","","",""
"","html-keyboard-response","22","347938","0.0-6.0-0.0-0.16","1px6htx436","one_one","1","direct_first","1","le07es21","1","25","1","1","3","1","Nach Teilnahme würde mich interessieren, was genau untersucht wird ;)","0","1","0","null","","","<div class = 'row'><div class = 'column'><img src = 'uspos/4599.bmp' width = '100%;'></div><div class = 'column'><img src = 'category2/CS1.png' width = '70%;'></div></div>","null","pos","CS","CS","2","category2/CS1.png","","","","",""
"","html-keyboard-response","23","350443","0.0-6.0-0.0-0.17","1px6htx436","one_one","1","direct_first","1","le07es21","1","25","1","1","3","1","Nach Teilnahme würde mich interessieren, was genau untersucht wird ;)","0","1","0","null","","","<div class = 'row'><div class = 'column'><img src = 'uspos/1710.bmp' width = '100%;'></div><div class = 'column'><img src = 'category3/CS1.png' width = '70%;'></div></div>","null","pos","CS","CS","3","category3/CS1.png","","","","",""
"","html-keyboard-response","24","352948","0.0-6.0-0.0-0.18","1px6htx436","one_one","1","direct_first","1","le07es21","1","25","1","1","3","1","Nach Teilnahme würde mich interessieren, was genau untersucht wird ;)","0","1","0","null","","","<div class = 'row'><div class = 'column'><img src = 'category2/CS1.png' width = '70%;'></div><div class = 'column'><img src = 'uspos/4599.bmp' width = '100%;'></div></div>","null","pos","CS","CS","2","category2/CS1.png","","","","",""
"","html-keyboard-response","25","355453","0.0-6.0-0.0-0.19","1px6htx436","one_one","1","direct_first","1","le07es21","1","25","1","1","3","1","Nach Teilnahme würde mich interessieren, was genau untersucht wird ;)","0","1","0","null","","","<div class = 'row'><div class = 'column'><img src = 'category4/CS2.png' width = '70%;'></div><div class = 'column'><img src = 'usneg/9561.bmp' width = '100%;'></div></div>","null","neg","CS","CS","4","category4/CS2.png","","","","",""
"","survey-html-form","26","359765","0.0-6.0-1.0","1px6htx436","one_one","1","direct_first","1","le07es21","1","25","1","1","3","1","Nach Teilnahme würde mich interessieren, was genau untersucht wird ;)","0","1","0","3809.9399999919115","","{}","","","","","","","","","","","",""
"","html-keyboard-response","27","363772","0.0-6.0-2.0-0.0","1px6htx436","one_one","1","direct_first","1","le07es21","1","25","1","1","3","1","Nach Teilnahme würde mich interessieren, was genau untersucht wird ;)","0","1","0","null","","","<div class = 'row'><div class = 'column'><img src = 'uspos/4599.bmp' width = '100%;'></div><div class = 'column'><img src = 'category2/CS1.png' width = '70%;'></div></div>","null","pos","CS","CS","2","category2/CS1.png","","","","",""
"","html-keyboard-response","28","366276","0.0-6.0-2.0-0.1","1px6htx436","one_one","1","direct_first","1","le07es21","1","25","1","1","3","1","Nach Teilnahme würde mich interessieren, was genau untersucht wird ;)","0","1","0","null","","","<div class = 'row'><div class = 'column'><img src = 'uspos/1710.bmp' width = '100%;'></div><div class = 'column'><img src = 'category3/CS1.png' width = '70%;'></div></div>","null","pos","CS","CS","3","category3/CS1.png","","","","",""
"","html-keyboard-response","29","368781","0.0-6.0-2.0-0.2","1px6htx436","one_one","1","direct_first","1","le07es21","1","25","1","1","3","1","Nach Teilnahme würde mich interessieren, was genau untersucht wird ;)","0","1","0","null","","","<div class = 'row'><div class = 'column'><img src = 'category4/CS2.png' width = '70%;'></div><div class = 'column'><img src = 'usneg/9561.bmp' width = '100%;'></div></div>","null","neg","CS","CS","4","category4/CS2.png","","","","",""
"","html-keyboard-response","30","371285","0.0-6.0-2.0-0.3","1px6htx436","one_one","1","direct_first","1","le07es21","1","25","1","1","3","1","Nach Teilnahme würde mich interessieren, was genau untersucht wird ;)","0","1","0","null","","","<div class = 'row'><div class = 'column'><img src = 'category1/CS10.png' width = '70%;'></div><div class = 'column'><img src = 'usneg/9180.bmp' width = '100%;'></div></div>","null","neg","CS","CS","1","category1/CS10.png","","","","",""
"","html-keyboard-response","31","373790","0.0-6.0-2.0-0.4","1px6htx436","one_one","1","direct_first","1","le07es21","1","25","1","1","3","1","Nach Teilnahme würde mich interessieren, was genau untersucht wird ;)","0","1","0","null","","","<div class = 'row'><div class = 'column'><img src = 'uspos/4599.bmp' width = '100%;'></div><div class = 'column'><img src = 'category2/CS1.png' width = '70%;'></div></div>","null","pos","CS","CS","2","category2/CS1.png","","","","",""
"","html-keyboard-response","32","376295","0.0-6.0-2.0-0.5","1px6htx436","one_one","1","direct_first","1","le07es21","1","25","1","1","3","1","Nach Teilnahme würde mich interessieren, was genau untersucht wird ;)","0","1","0","null","","","<div class = 'row'><div class = 'column'><img src = 'usneg/9561.bmp' width = '100%;'></div><div class = 'column'><img src = 'category4/CS2.png' width = '70%;'></div></div>","null","neg","CS","CS","4","category4/CS2.png","","","","",""
"","html-keyboard-response","33","378801","0.0-6.0-2.0-0.6","1px6htx436","one_one","1","direct_first","1","le07es21","1","25","1","1","3","1","Nach Teilnahme würde mich interessieren, was genau untersucht wird ;)","0","1","0","null","","","<div class = 'row'><div class = 'column'><img src = 'usneg/9180.bmp' width = '100%;'></div><div class = 'column'><img src = 'category1/CS10.png' width = '70%;'></div></div>","null","neg","CS","CS","1","category1/CS10.png","","","","",""
"","html-keyboard-response","34","381304","0.0-6.0-2.0-0.7","1px6htx436","one_one","1","direct_first","1","le07es21","1","25","1","1","3","1","Nach Teilnahme würde mich interessieren, was genau untersucht wird ;)","0","1","0","null","","","<div class = 'row'><div class = 'column'><img src = 'uspos/1710.bmp' width = '100%;'></div><div class = 'column'><img src = 'category3/CS1.png' width = '70%;'></div></div>","null","pos","CS","CS","3","category3/CS1.png","","","","",""
"","html-keyboard-response","35","383809","0.0-6.0-2.0-0.8","1px6htx436","one_one","1","direct_first","1","le07es21","1","25","1","1","3","1","Nach Teilnahme würde mich interessieren, was genau untersucht wird ;)","0","1","0","null","","","<div class = 'row'><div class = 'column'><img src = 'category2/CS1.png' width = '70%;'></div><div class = 'column'><img src = 'uspos/4599.bmp' width = '100%;'></div></div>","null","pos","CS","CS","2","category2/CS1.png","","","","",""
"","html-keyboard-response","36","386316","0.0-6.0-2.0-0.9","1px6htx436","one_one","1","direct_first","1","le07es21","1","25","1","1","3","1","Nach Teilnahme würde mich interessieren, was genau untersucht wird ;)","0","1","0","null","","","<div class = 'row'><div class = 'column'><img src = 'category1/CS10.png' width = '70%;'></div><div class = 'column'><img src = 'usneg/9180.bmp' width = '100%;'></div></div>","null","neg","CS","CS","1","category1/CS10.png","","","","",""
"","html-keyboard-response","37","388822","0.0-6.0-2.0-0.10","1px6htx436","one_one","1","direct_first","1","le07es21","1","25","1","1","3","1","Nach Teilnahme würde mich interessieren, was genau untersucht wird ;)","0","1","0","null","","","<div class = 'row'><div class = 'column'><img src = 'usneg/9561.bmp' width = '100%;'></div><div class = 'column'><img src = 'category4/CS2.png' width = '70%;'></div></div>","null","neg","CS","CS","4","category4/CS2.png","","","","",""
"","html-keyboard-response","38","391327","0.0-6.0-2.0-0.11","1px6htx436","one_one","1","direct_first","1","le07es21","1","25","1","1","3","1","Nach Teilnahme würde mich interessieren, was genau untersucht wird ;)","0","1","0","null","","","<div class = 'row'><div class = 'column'><img src = 'uspos/1710.bmp' width = '100%;'></div><div class = 'column'><img src = 'category3/CS1.png' width = '70%;'></div></div>","null","pos","CS","CS","3","category3/CS1.png","","","","",""
"","html-keyboard-response","39","393832","0.0-6.0-2.0-0.12","1px6htx436","one_one","1","direct_first","1","le07es21","1","25","1","1","3","1","Nach Teilnahme würde mich interessieren, was genau untersucht wird ;)","0","1","0","null","","","<div class = 'row'><div class = 'column'><img src = 'uspos/4599.bmp' width = '100%;'></div><div class = 'column'><img src = 'category2/CS1.png' width = '70%;'></div></div>","null","pos","CS","CS","2","category2/CS1.png","","","","",""
"","html-keyboard-response","40","396338","0.0-6.0-2.0-0.13","1px6htx436","one_one","1","direct_first","1","le07es21","1","25","1","1","3","1","Nach Teilnahme würde mich interessieren, was genau untersucht wird ;)","0","1","0","null","","","<div class = 'row'><div class = 'column'><img src = 'category1/CS10.png' width = '70%;'></div><div class = 'column'><img src = 'usneg/9180.bmp' width = '100%;'></div></div>","null","neg","CS","CS","1","category1/CS10.png","","","","",""
"","html-keyboard-response","41","398842","0.0-6.0-2.0-0.14","1px6htx436","one_one","1","direct_first","1","le07es21","1","25","1","1","3","1","Nach Teilnahme würde mich interessieren, was genau untersucht wird ;)","0","1","0","null","","","<div class = 'row'><div class = 'column'><img src = 'category3/CS1.png' width = '70%;'></div><div class = 'column'><img src = 'uspos/1710.bmp' width = '100%;'></div></div>","null","pos","CS","CS","3","category3/CS1.png","","","","",""
"","html-keyboard-response","42","401347","0.0-6.0-2.0-0.15","1px6htx436","one_one","1","direct_first","1","le07es21","1","25","1","1","3","1","Nach Teilnahme würde mich interessieren, was genau untersucht wird ;)","0","1","0","null","","","<div class = 'row'><div class = 'column'><img src = 'usneg/9561.bmp' width = '100%;'></div><div class = 'column'><img src = 'category4/CS2.png' width = '70%;'></div></div>","null","neg","CS","CS","4","category4/CS2.png","","","","",""
"","html-keyboard-response","43","403852","0.0-6.0-2.0-0.16","1px6htx436","one_one","1","direct_first","1","le07es21","1","25","1","1","3","1","Nach Teilnahme würde mich interessieren, was genau untersucht wird ;)","0","1","0","null","","","<div class = 'row'><div class = 'column'><img src = 'category3/CS1.png' width = '70%;'></div><div class = 'column'><img src = 'uspos/1710.bmp' width = '100%;'></div></div>","null","pos","CS","CS","3","category3/CS1.png","","","","",""
"","html-keyboard-response","44","406357","0.0-6.0-2.0-0.17","1px6htx436","one_one","1","direct_first","1","le07es21","1","25","1","1","3","1","Nach Teilnahme würde mich interessieren, was genau untersucht wird ;)","0","1","0","null","","","<div class = 'row'><div class = 'column'><img src = 'usneg/9180.bmp' width = '100%;'></div><div class = 'column'><img src = 'category1/CS10.png' width = '70%;'></div></div>","null","neg","CS","CS","1","category1/CS10.png","","","","",""
"","html-keyboard-response","45","408862","0.0-6.0-2.0-0.18","1px6htx436","one_one","1","direct_first","1","le07es21","1","25","1","1","3","1","Nach Teilnahme würde mich interessieren, was genau untersucht wird ;)","0","1","0","null","","","<div class = 'row'><div class = 'column'><img src = 'category4/CS2.png' width = '70%;'></div><div class = 'column'><img src = 'usneg/9561.bmp' width = '100%;'></div></div>","null","neg","CS","CS","4","category4/CS2.png","","","","",""
"","html-keyboard-response","46","411367","0.0-6.0-2.0-0.19","1px6htx436","one_one","1","direct_first","1","le07es21","1","25","1","1","3","1","Nach Teilnahme würde mich interessieren, was genau untersucht wird ;)","0","1","0","null","","","<div class = 'row'><div class = 'column'><img src = 'uspos/4599.bmp' width = '100%;'></div><div class = 'column'><img src = 'category2/CS1.png' width = '70%;'></div></div>","null","pos","CS","CS","2","category2/CS1.png","","","","",""
"","survey-html-form","47","416353","0.0-6.0-3.0","1px6htx436","one_one","1","direct_first","1","le07es21","1","25","1","1","3","1","Nach Teilnahme würde mich interessieren, was genau untersucht wird ;)","0","1","0","4484.005000005709","","{}","","","","","","","","","","","",""
"","html-keyboard-response","48","420361","0.0-6.0-4.0-0.0","1px6htx436","one_one","1","direct_first","1","le07es21","1","25","1","1","3","1","Nach Teilnahme würde mich interessieren, was genau untersucht wird ;)","0","1","0","null","","","<div class = 'row'><div class = 'column'><img src = 'usneg/9561.bmp' width = '100%;'></div><div class = 'column'><img src = 'category4/CS2.png' width = '70%;'></div></div>","null","neg","CS","CS","4","category4/CS2.png","","","","",""
"","html-keyboard-response","49","422867","0.0-6.0-4.0-0.1","1px6htx436","one_one","1","direct_first","1","le07es21","1","25","1","1","3","1","Nach Teilnahme würde mich interessieren, was genau untersucht wird ;)","0","1","0","null","","","<div class = 'row'><div class = 'column'><img src = 'category1/CS10.png' width = '70%;'></div><div class = 'column'><img src = 'usneg/9180.bmp' width = '100%;'></div></div>","null","neg","CS","CS","1","category1/CS10.png","","","","",""
"","html-keyboard-response","50","425372","0.0-6.0-4.0-0.2","1px6htx436","one_one","1","direct_first","1","le07es21","1","25","1","1","3","1","Nach Teilnahme würde mich interessieren, was genau untersucht wird ;)","0","1","0","null","","","<div class = 'row'><div class = 'column'><img src = 'category4/CS2.png' width = '70%;'></div><div class = 'column'><img src = 'usneg/9561.bmp' width = '100%;'></div></div>","null","neg","CS","CS","4","category4/CS2.png","","","","",""
"","html-keyboard-response","51","427890","0.0-6.0-4.0-0.3","1px6htx436","one_one","1","direct_first","1","le07es21","1","25","1","1","3","1","Nach Teilnahme würde mich interessieren, was genau untersucht wird ;)","0","1","0","null","","","<div class = 'row'><div class = 'column'><img src = 'usneg/9180.bmp' width = '100%;'></div><div class = 'column'><img src = 'category1/CS10.png' width = '70%;'></div></div>","null","neg","CS","CS","1","category1/CS10.png","","","","",""
"","html-keyboard-response","52","430395","0.0-6.0-4.0-0.4","1px6htx436","one_one","1","direct_first","1","le07es21","1","25","1","1","3","1","Nach Teilnahme würde mich interessieren, was genau untersucht wird ;)","0","1","0","null","","","<div class = 'row'><div class = 'column'><img src = 'category4/CS2.png' width = '70%;'></div><div class = 'column'><img src = 'usneg/9561.bmp' width = '100%;'></div></div>","null","neg","CS","CS","4","category4/CS2.png","","","","",""
"","html-keyboard-response","53","432901","0.0-6.0-4.0-0.5","1px6htx436","one_one","1","direct_first","1","le07es21","1","25","1","1","3","1","Nach Teilnahme würde mich interessieren, was genau untersucht wird ;)","0","1","0","null","","","<div class = 'row'><div class = 'column'><img src = 'category1/CS10.png' width = '70%;'></div><div class = 'column'><img src = 'usneg/9180.bmp' width = '100%;'></div></div>","null","neg","CS","CS","1","category1/CS10.png","","","","",""
"","html-keyboard-response","54","435406","0.0-6.0-4.0-0.6","1px6htx436","one_one","1","direct_first","1","le07es21","1","25","1","1","3","1","Nach Teilnahme würde mich interessieren, was genau untersucht wird ;)","0","1","0","null","","","<div class = 'row'><div class = 'column'><img src = 'category3/CS1.png' width = '70%;'></div><div class = 'column'><img src = 'uspos/1710.bmp' width = '100%;'></div></div>","null","pos","CS","CS","3","category3/CS1.png","","","","",""
"","html-keyboard-response","55","437911","0.0-6.0-4.0-0.7","1px6htx436","one_one","1","direct_first","1","le07es21","1","25","1","1","3","1","Nach Teilnahme würde mich interessieren, was genau untersucht wird ;)","0","1","0","null","","","<div class = 'row'><div class = 'column'><img src = 'uspos/4599.bmp' width = '100%;'></div><div class = 'column'><img src = 'category2/CS1.png' width = '70%;'></div></div>","null","pos","CS","CS","2","category2/CS1.png","","","","",""
"","html-keyboard-response","56","440416","0.0-6.0-4.0-0.8","1px6htx436","one_one","1","direct_first","1","le07es21","1","25","1","1","3","1","Nach Teilnahme würde mich interessieren, was genau untersucht wird ;)","0","1","0","null","","","<div class = 'row'><div class = 'column'><img src = 'category4/CS2.png' width = '70%;'></div><div class = 'column'><img src = 'usneg/9561.bmp' width = '100%;'></div></div>","null","neg","CS","CS","4","category4/CS2.png","","","","",""
"","html-keyboard-response","57","442922","0.0-6.0-4.0-0.9","1px6htx436","one_one","1","direct_first","1","le07es21","1","25","1","1","3","1","Nach Teilnahme würde mich interessieren, was genau untersucht wird ;)","0","1","0","null","","","<div class = 'row'><div class = 'column'><img src = 'category2/CS1.png' width = '70%;'></div><div class = 'column'><img src = 'uspos/4599.bmp' width = '100%;'></div></div>","null","pos","CS","CS","2","category2/CS1.png","","","","",""
"","html-keyboard-response","58","445427","0.0-6.0-4.0-0.10","1px6htx436","one_one","1","direct_first","1","le07es21","1","25","1","1","3","1","Nach Teilnahme würde mich interessieren, was genau untersucht wird ;)","0","1","0","null","","","<div class = 'row'><div class = 'column'><img src = 'usneg/9180.bmp' width = '100%;'></div><div class = 'column'><img src = 'category1/CS10.png' width = '70%;'></div></div>","null","neg","CS","CS","1","category1/CS10.png","","","","",""
"","html-keyboard-response","59","447932","0.0-6.0-4.0-0.11","1px6htx436","one_one","1","direct_first","1","le07es21","1","25","1","1","3","1","Nach Teilnahme würde mich interessieren, was genau untersucht wird ;)","0","1","0","null","","","<div class = 'row'><div class = 'column'><img src = 'category3/CS1.png' width = '70%;'></div><div class = 'column'><img src = 'uspos/1710.bmp' width = '100%;'></div></div>","null","pos","CS","CS","3","category3/CS1.png","","","","",""
"","html-keyboard-response","60","450438","0.0-6.0-4.0-0.12","1px6htx436","one_one","1","direct_first","1","le07es21","1","25","1","1","3","1","Nach Teilnahme würde mich interessieren, was genau untersucht wird ;)","0","1","0","null","","","<div class = 'row'><div class = 'column'><img src = 'uspos/4599.bmp' width = '100%;'></div><div class = 'column'><img src = 'category2/CS1.png' width = '70%;'></div></div>","null","pos","CS","CS","2","category2/CS1.png","","","","",""
"","html-keyboard-response","61","452943","0.0-6.0-4.0-0.13","1px6htx436","one_one","1","direct_first","1","le07es21","1","25","1","1","3","1","Nach Teilnahme würde mich interessieren, was genau untersucht wird ;)","0","1","0","null","","","<div class = 'row'><div class = 'column'><img src = 'uspos/1710.bmp' width = '100%;'></div><div class = 'column'><img src = 'category3/CS1.png' width = '70%;'></div></div>","null","pos","CS","CS","3","category3/CS1.png","","","","",""
"","html-keyboard-response","62","455447","0.0-6.0-4.0-0.14","1px6htx436","one_one","1","direct_first","1","le07es21","1","25","1","1","3","1","Nach Teilnahme würde mich interessieren, was genau untersucht wird ;)","0","1","0","null","","","<div class = 'row'><div class = 'column'><img src = 'uspos/4599.bmp' width = '100%;'></div><div class = 'column'><img src = 'category2/CS1.png' width = '70%;'></div></div>","null","pos","CS","CS","2","category2/CS1.png","","","","",""
"","html-keyboard-response","63","457953","0.0-6.0-4.0-0.15","1px6htx436","one_one","1","direct_first","1","le07es21","1","25","1","1","3","1","Nach Teilnahme würde mich interessieren, was genau untersucht wird ;)","0","1","0","null","","","<div class = 'row'><div class = 'column'><img src = 'category3/CS1.png' width = '70%;'></div><div class = 'column'><img src = 'uspos/1710.bmp' width = '100%;'></div></div>","null","pos","CS","CS","3","category3/CS1.png","","","","",""
"","html-keyboard-response","64","460459","0.0-6.0-4.0-0.16","1px6htx436","one_one","1","direct_first","1","le07es21","1","25","1","1","3","1","Nach Teilnahme würde mich interessieren, was genau untersucht wird ;)","0","1","0","null","","","<div class = 'row'><div class = 'column'><img src = 'uspos/4599.bmp' width = '100%;'></div><div class = 'column'><img src = 'category2/CS1.png' width = '70%;'></div></div>","null","pos","CS","CS","2","category2/CS1.png","","","","",""
"","html-keyboard-response","65","462965","0.0-6.0-4.0-0.17","1px6htx436","one_one","1","direct_first","1","le07es21","1","25","1","1","3","1","Nach Teilnahme würde mich interessieren, was genau untersucht wird ;)","0","1","0","null","","","<div class = 'row'><div class = 'column'><img src = 'category4/CS2.png' width = '70%;'></div><div class = 'column'><img src = 'usneg/9561.bmp' width = '100%;'></div></div>","null","neg","CS","CS","4","category4/CS2.png","","","","",""
"","html-keyboard-response","66","465470","0.0-6.0-4.0-0.18","1px6htx436","one_one","1","direct_first","1","le07es21","1","25","1","1","3","1","Nach Teilnahme würde mich interessieren, was genau untersucht wird ;)","0","1","0","null","","","<div class = 'row'><div class = 'column'><img src = 'category1/CS10.png' width = '70%;'></div><div class = 'column'><img src = 'usneg/9180.bmp' width = '100%;'></div></div>","null","neg","CS","CS","1","category1/CS10.png","","","","",""
"","html-keyboard-response","67","467976","0.0-6.0-4.0-0.19","1px6htx436","one_one","1","direct_first","1","le07es21","1","25","1","1","3","1","Nach Teilnahme würde mich interessieren, was genau untersucht wird ;)","0","1","0","null","","","<div class = 'row'><div class = 'column'><img src = 'uspos/1710.bmp' width = '100%;'></div><div class = 'column'><img src = 'category3/CS1.png' width = '70%;'></div></div>","null","pos","CS","CS","3","category3/CS1.png","","","","",""
"","survey-html-form","68","471547","0.0-6.0-5.0","1px6htx436","one_one","1","direct_first","1","le07es21","1","25","1","1","3","1","Nach Teilnahme würde mich interessieren, was genau untersucht wird ;)","0","1","0","3068.989999999758","","{}","","","","","","","","","","","",""
"","html-keyboard-response","69","475557","0.0-6.0-6.0-0.0","1px6htx436","one_one","1","direct_first","1","le07es21","1","25","1","1","3","1","Nach Teilnahme würde mich interessieren, was genau untersucht wird ;)","0","1","0","null","","","<div class = 'row'><div class = 'column'><img src = 'uspos/4599.bmp' width = '100%;'></div><div class = 'column'><img src = 'category2/CS1.png' width = '70%;'></div></div>","null","pos","CS","CS","2","category2/CS1.png","","","","",""
"","html-keyboard-response","70","478062","0.0-6.0-6.0-0.1","1px6htx436","one_one","1","direct_first","1","le07es21","1","25","1","1","3","1","Nach Teilnahme würde mich interessieren, was genau untersucht wird ;)","0","1","0","null","","","<div class = 'row'><div class = 'column'><img src = 'category4/CS2.png' width = '70%;'></div><div class = 'column'><img src = 'usneg/9561.bmp' width = '100%;'></div></div>","null","neg","CS","CS","4","category4/CS2.png","","","","",""
"","html-keyboard-response","71","480567","0.0-6.0-6.0-0.2","1px6htx436","one_one","1","direct_first","1","le07es21","1","25","1","1","3","1","Nach Teilnahme würde mich interessieren, was genau untersucht wird ;)","0","1","0","null","","","<div class = 'row'><div class = 'column'><img src = 'category3/CS1.png' width = '70%;'></div><div class = 'column'><img src = 'uspos/1710.bmp' width = '100%;'></div></div>","null","pos","CS","CS","3","category3/CS1.png","","","","",""
"","html-keyboard-response","72","483072","0.0-6.0-6.0-0.3","1px6htx436","one_one","1","direct_first","1","le07es21","1","25","1","1","3","1","Nach Teilnahme würde mich interessieren, was genau untersucht wird ;)","0","1","0","null","","","<div class = 'row'><div class = 'column'><img src = 'category1/CS10.png' width = '70%;'></div><div class = 'column'><img src = 'usneg/9180.bmp' width = '100%;'></div></div>","null","neg","CS","CS","1","category1/CS10.png","","","","",""
"","html-keyboard-response","73","485577","0.0-6.0-6.0-0.4","1px6htx436","one_one","1","direct_first","1","le07es21","1","25","1","1","3","1","Nach Teilnahme würde mich interessieren, was genau untersucht wird ;)","0","1","0","null","","","<div class = 'row'><div class = 'column'><img src = 'category2/CS1.png' width = '70%;'></div><div class = 'column'><img src = 'uspos/4599.bmp' width = '100%;'></div></div>","null","pos","CS","CS","2","category2/CS1.png","","","","",""
"","html-keyboard-response","74","488082","0.0-6.0-6.0-0.5","1px6htx436","one_one","1","direct_first","1","le07es21","1","25","1","1","3","1","Nach Teilnahme würde mich interessieren, was genau untersucht wird ;)","0","1","0","null","","","<div class = 'row'><div class = 'column'><img src = 'uspos/1710.bmp' width = '100%;'></div><div class = 'column'><img src = 'category3/CS1.png' width = '70%;'></div></div>","null","pos","CS","CS","3","category3/CS1.png","","","","",""
"","html-keyboard-response","75","490588","0.0-6.0-6.0-0.6","1px6htx436","one_one","1","direct_first","1","le07es21","1","25","1","1","3","1","Nach Teilnahme würde mich interessieren, was genau untersucht wird ;)","0","1","0","null","","","<div class = 'row'><div class = 'column'><img src = 'usneg/9561.bmp' width = '100%;'></div><div class = 'column'><img src = 'category4/CS2.png' width = '70%;'></div></div>","null","neg","CS","CS","4","category4/CS2.png","","","","",""
"","html-keyboard-response","76","493094","0.0-6.0-6.0-0.7","1px6htx436","one_one","1","direct_first","1","le07es21","1","25","1","1","3","1","Nach Teilnahme würde mich interessieren, was genau untersucht wird ;)","0","1","0","null","","","<div class = 'row'><div class = 'column'><img src = 'usneg/9180.bmp' width = '100%;'></div><div class = 'column'><img src = 'category1/CS10.png' width = '70%;'></div></div>","null","neg","CS","CS","1","category1/CS10.png","","","","",""
"","html-keyboard-response","77","495598","0.0-6.0-6.0-0.8","1px6htx436","one_one","1","direct_first","1","le07es21","1","25","1","1","3","1","Nach Teilnahme würde mich interessieren, was genau untersucht wird ;)","0","1","0","null","","","<div class = 'row'><div class = 'column'><img src = 'category4/CS2.png' width = '70%;'></div><div class = 'column'><img src = 'usneg/9561.bmp' width = '100%;'></div></div>","null","neg","CS","CS","4","category4/CS2.png","","","","",""
"","html-keyboard-response","78","498103","0.0-6.0-6.0-0.9","1px6htx436","one_one","1","direct_first","1","le07es21","1","25","1","1","3","1","Nach Teilnahme würde mich interessieren, was genau untersucht wird ;)","0","1","0","null","","","<div class = 'row'><div class = 'column'><img src = 'usneg/9180.bmp' width = '100%;'></div><div class = 'column'><img src = 'category1/CS10.png' width = '70%;'></div></div>","null","neg","CS","CS","1","category1/CS10.png","","","","",""
"","html-keyboard-response","79","500608","0.0-6.0-6.0-0.10","1px6htx436","one_one","1","direct_first","1","le07es21","1","25","1","1","3","1","Nach Teilnahme würde mich interessieren, was genau untersucht wird ;)","0","1","0","null","","","<div class = 'row'><div class = 'column'><img src = 'uspos/4599.bmp' width = '100%;'></div><div class = 'column'><img src = 'category2/CS1.png' width = '70%;'></div></div>","null","pos","CS","CS","2","category2/CS1.png","","","","",""
"","html-keyboard-response","80","503112","0.0-6.0-6.0-0.11","1px6htx436","one_one","1","direct_first","1","le07es21","1","25","1","1","3","1","Nach Teilnahme würde mich interessieren, was genau untersucht wird ;)","0","1","0","null","","","<div class = 'row'><div class = 'column'><img src = 'category1/CS10.png' width = '70%;'></div><div class = 'column'><img src = 'usneg/9180.bmp' width = '100%;'></div></div>","null","neg","CS","CS","1","category1/CS10.png","","","","",""
"","html-keyboard-response","81","505616","0.0-6.0-6.0-0.12","1px6htx436","one_one","1","direct_first","1","le07es21","1","25","1","1","3","1","Nach Teilnahme würde mich interessieren, was genau untersucht wird ;)","0","1","0","null","","","<div class = 'row'><div class = 'column'><img src = 'category4/CS2.png' width = '70%;'></div><div class = 'column'><img src = 'usneg/9561.bmp' width = '100%;'></div></div>","null","neg","CS","CS","4","category4/CS2.png","","","","",""
"","html-keyboard-response","82","508121","0.0-6.0-6.0-0.13","1px6htx436","one_one","1","direct_first","1","le07es21","1","25","1","1","3","1","Nach Teilnahme würde mich interessieren, was genau untersucht wird ;)","0","1","0","null","","","<div class = 'row'><div class = 'column'><img src = 'uspos/1710.bmp' width = '100%;'></div><div class = 'column'><img src = 'category3/CS1.png' width = '70%;'></div></div>","null","pos","CS","CS","3","category3/CS1.png","","","","",""
"","html-keyboard-response","83","510626","0.0-6.0-6.0-0.14","1px6htx436","one_one","1","direct_first","1","le07es21","1","25","1","1","3","1","Nach Teilnahme würde mich interessieren, was genau untersucht wird ;)","0","1","0","null","","","<div class = 'row'><div class = 'column'><img src = 'category2/CS1.png' width = '70%;'></div><div class = 'column'><img src = 'uspos/4599.bmp' width = '100%;'></div></div>","null","pos","CS","CS","2","category2/CS1.png","","","","",""
"","html-keyboard-response","84","513132","0.0-6.0-6.0-0.15","1px6htx436","one_one","1","direct_first","1","le07es21","1","25","1","1","3","1","Nach Teilnahme würde mich interessieren, was genau untersucht wird ;)","0","1","0","null","","","<div class = 'row'><div class = 'column'><img src = 'category1/CS10.png' width = '70%;'></div><div class = 'column'><img src = 'usneg/9180.bmp' width = '100%;'></div></div>","null","neg","CS","CS","1","category1/CS10.png","","","","",""
"","html-keyboard-response","85","515636","0.0-6.0-6.0-0.16","1px6htx436","one_one","1","direct_first","1","le07es21","1","25","1","1","3","1","Nach Teilnahme würde mich interessieren, was genau untersucht wird ;)","0","1","0","null","","","<div class = 'row'><div class = 'column'><img src = 'category3/CS1.png' width = '70%;'></div><div class = 'column'><img src = 'uspos/1710.bmp' width = '100%;'></div></div>","null","pos","CS","CS","3","category3/CS1.png","","","","",""
"","html-keyboard-response","86","518141","0.0-6.0-6.0-0.17","1px6htx436","one_one","1","direct_first","1","le07es21","1","25","1","1","3","1","Nach Teilnahme würde mich interessieren, was genau untersucht wird ;)","0","1","0","null","","","<div class = 'row'><div class = 'column'><img src = 'category2/CS1.png' width = '70%;'></div><div class = 'column'><img src = 'uspos/4599.bmp' width = '100%;'></div></div>","null","pos","CS","CS","2","category2/CS1.png","","","","",""
"","html-keyboard-response","87","520647","0.0-6.0-6.0-0.18","1px6htx436","one_one","1","direct_first","1","le07es21","1","25","1","1","3","1","Nach Teilnahme würde mich interessieren, was genau untersucht wird ;)","0","1","0","null","","","<div class = 'row'><div class = 'column'><img src = 'category3/CS1.png' width = '70%;'></div><div class = 'column'><img src = 'uspos/1710.bmp' width = '100%;'></div></div>","null","pos","CS","CS","3","category3/CS1.png","","","","",""
"","html-keyboard-response","88","523152","0.0-6.0-6.0-0.19","1px6htx436","one_one","1","direct_first","1","le07es21","1","25","1","1","3","1","Nach Teilnahme würde mich interessieren, was genau untersucht wird ;)","0","1","0","null","","","<div class = 'row'><div class = 'column'><img src = 'category4/CS2.png' width = '70%;'></div><div class = 'column'><img src = 'usneg/9561.bmp' width = '100%;'></div></div>","null","neg","CS","CS","4","category4/CS2.png","","","","",""
"","survey-html-form","89","541015","0.0-7.0","1px6htx436","one_one","1","direct_first","1","le07es21","1","25","1","1","3","1","Nach Teilnahme würde mich interessieren, was genau untersucht wird ;)","0","1","0","17360.88999999629","","{}","","","","","","","","","","","",""
"","image-slider-response","90","558517","0.0-8.0-0.0","1px6htx436","one_one","1","direct_first","1","le07es21","1","25","1","1","3","1","Nach Teilnahme würde mich interessieren, was genau untersucht wird ;)","0","1","0","15498.984999998356","","","","","pos","GS","GSnew","3","category3/GS3.png","37","targets/39.png","direct","",""
"","image-slider-response","91","565386","0.0-8.0-0.1","1px6htx436","one_one","1","direct_first","1","le07es21","1","25","1","1","3","1","Nach Teilnahme würde mich interessieren, was genau untersucht wird ;)","0","1","0","6868.210000000545","","","","","pos","GS","GSnew","2","category2/GS1.png","-28","targets/27.png","direct","",""
"","image-slider-response","92","569448","0.0-8.0-0.2","1px6htx436","one_one","1","direct_first","1","le07es21","1","25","1","1","3","1","Nach Teilnahme würde mich interessieren, was genau untersucht wird ;)","0","1","0","4060.6100000004517","","","","","neg","GS","GSold","4","category4/CS3.png","-71","targets/40.png","direct","",""
"","image-slider-response","93","575438","0.0-8.0-0.3","1px6htx436","one_one","1","direct_first","1","le07es21","1","25","1","1","3","1","Nach Teilnahme würde mich interessieren, was genau untersucht wird ;)","0","1","0","5988.595000002533","","","","","neg","GS","GSold","1","category1/CS9.png","-40","targets/45.png","direct","",""
"","image-slider-response","94","581068","0.0-8.0-0.4","1px6htx436","one_one","1","direct_first","1","le07es21","1","25","1","1","3","1","Nach Teilnahme würde mich interessieren, was genau untersucht wird ;)","0","1","0","5628.214999989723","","","","","neg","GS","GSnew","1","category1/GS2.png","-48","targets/35.png","direct","",""
"","image-slider-response","95","587764","0.0-8.0-0.5","1px6htx436","one_one","1","direct_first","1","le07es21","1","25","1","1","3","1","Nach Teilnahme würde mich interessieren, was genau untersucht wird ;)","0","1","0","6694.635000007111","","","","","pos","GS","GSnew","3","category3/GS2.png","45","targets/15.png","direct","",""
"","image-slider-response","96","590802","0.0-8.0-0.6","1px6htx436","one_one","1","direct_first","1","le07es21","1","25","1","1","3","1","Nach Teilnahme würde mich interessieren, was genau untersucht wird ;)","0","1","0","3036.5600000077393","","","","","pos","GS","GSold","3","category3/CS9.png","43","targets/37.png","direct","",""
"","image-slider-response","97","594005","0.0-8.0-0.7","1px6htx436","one_one","1","direct_first","1","le07es21","1","25","1","1","3","1","Nach Teilnahme würde mich interessieren, was genau untersucht wird ;)","0","1","0","3200.8550000027753","","","","","neg","GS","GSold","1","category1/CS6.png","-41","targets/20.png","direct","",""
"","image-slider-response","98","598148","0.0-8.0-0.8","1px6htx436","one_one","1","direct_first","1","le07es21","1","25","1","1","3","1","Nach Teilnahme würde mich interessieren, was genau untersucht wird ;)","0","1","0","4142.90500000061","","","","","pos","GS","GSold","3","category3/CS3.png","32","targets/14.png","direct","",""
"","image-slider-response","99","604770","0.0-8.0-0.9","1px6htx436","one_one","1","direct_first","1","le07es21","1","25","1","1","3","1","Nach Teilnahme würde mich interessieren, was genau untersucht wird ;)","0","1","0","6620.584999996936","","","","","neg","GS","GSnew","1","category1/GS3.png","-19","targets/10.png","direct","",""
"","image-slider-response","100","608526","0.0-8.0-0.10","1px6htx436","one_one","1","direct_first","1","le07es21","1","25","1","1","3","1","Nach Teilnahme würde mich interessieren, was genau untersucht wird ;)","0","1","0","3754.6000000002095","","","","","neg","CS","CS","1","category1/CS10.png","-100","targets/18.png","direct","",""
"","image-slider-response","101","611562","0.0-8.0-0.11","1px6htx436","one_one","1","direct_first","1","le07es21","1","25","1","1","3","1","Nach Teilnahme würde mich interessieren, was genau untersucht wird ;)","0","1","0","3034.909999987576","","","","","neg","GS","GSold","4","category4/CS1.png","-50","targets/38.png","direct","",""
"","image-slider-response","102","614198","0.0-8.0-0.12","1px6htx436","one_one","1","direct_first","1","le07es21","1","25","1","1","3","1","Nach Teilnahme würde mich interessieren, was genau untersucht wird ;)","0","1","0","2634.6750000084285","","","","","neg","GS","GSold","4","category4/CS5.png","-50","targets/25.png","direct","",""
"","image-slider-response","103","619729","0.0-8.0-0.13","1px6htx436","one_one","1","direct_first","1","le07es21","1","25","1","1","3","1","Nach Teilnahme würde mich interessieren, was genau untersucht wird ;)","0","1","0","5528.955000001588","","","","","neg","GS","GSnew","4","category4/GS1.png","37","targets/31.png","direct","",""
"","image-slider-response","104","625197","0.0-8.0-0.14","1px6htx436","one_one","1","direct_first","1","le07es21","1","25","1","1","3","1","Nach Teilnahme würde mich interessieren, was genau untersucht wird ;)","0","1","0","5466.634999989765","","","","","neg","GS","GSnew","4","category4/GS2.png","45","targets/29.png","direct","",""
"","image-slider-response","105","630785","0.0-8.0-0.15","1px6htx436","one_one","1","direct_first","1","le07es21","1","25","1","1","3","1","Nach Teilnahme würde mich interessieren, was genau untersucht wird ;)","0","1","0","5586.569999999483","","","","","pos","GS","GSnew","2","category2/GS2.png","-45","targets/28.png","direct","",""
"","image-slider-response","106","633721","0.0-8.0-0.16","1px6htx436","one_one","1","direct_first","1","le07es21","1","25","1","1","3","1","Nach Teilnahme würde mich interessieren, was genau untersucht wird ;)","0","1","0","2934.5099999918602","","","","","neg","GS","GSnew","4","category4/GS3.png","-69","targets/44.png","direct","",""
"","image-slider-response","107","638263","0.0-8.0-0.17","1px6htx436","one_one","1","direct_first","1","le07es21","1","25","1","1","3","1","Nach Teilnahme würde mich interessieren, was genau untersucht wird ;)","0","1","0","4541.104999996605","","","","","pos","GS","GSnew","2","category2/GS3.png","5","targets/26.png","direct","",""
"","image-slider-response","108","641523","0.0-8.0-0.18","1px6htx436","one_one","1","direct_first","1","le07es21","1","25","1","1","3","1","Nach Teilnahme würde mich interessieren, was genau untersucht wird ;)","0","1","0","3258.6450000089826","","","","","neg","GS","GSold","1","category1/CS3.png","-100","targets/36.png","direct","",""
"","image-slider-response","109","644117","0.0-8.0-0.19","1px6htx436","one_one","1","direct_first","1","le07es21","1","25","1","1","3","1","Nach Teilnahme würde mich interessieren, was genau untersucht wird ;)","0","1","0","2592.724999994971","","","","","pos","GS","abstract","3","category3/wang.png","71","targets/43.png","direct","",""
"","image-slider-response","110","646519","0.0-8.0-0.20","1px6htx436","one_one","1","direct_first","1","le07es21","1","25","1","1","3","1","Nach Teilnahme würde mich interessieren, was genau untersucht wird ;)","0","1","0","2401.159999993979","","","","","pos","GS","abstract","2","category2/men.png","-45","targets/8.png","direct","",""
"","image-slider-response","111","650473","0.0-8.0-0.21","1px6htx436","one_one","1","direct_first","1","le07es21","1","25","1","1","3","1","Nach Teilnahme würde mich interessieren, was genau untersucht wird ;)","0","1","0","3953.1149999966146","","","","","pos","GS","GSold","3","category3/CS7.png","55","targets/41.png","direct","",""
"","image-slider-response","112","655917","0.0-8.0-0.22","1px6htx436","one_one","1","direct_first","1","le07es21","1","25","1","1","3","1","Nach Teilnahme würde mich interessieren, was genau untersucht wird ;)","0","1","0","5442.0850000024075","","","","","pos","GS","GSold","2","category2/CS6.png","38","targets/34.png","direct","",""
"","image-slider-response","113","658843","0.0-8.0-0.23","1px6htx436","one_one","1","direct_first","1","le07es21","1","25","1","1","3","1","Nach Teilnahme würde mich interessieren, was genau untersucht wird ;)","0","1","0","2924.7750000067754","","","","","pos","CS","CS","2","category2/CS1.png","100","targets/16.png","direct","",""
"","image-slider-response","114","661345","0.0-8.0-0.24","1px6htx436","one_one","1","direct_first","1","le07es21","1","25","1","1","3","1","Nach Teilnahme würde mich interessieren, was genau untersucht wird ;)","0","1","0","2500.800000008894","","","","","neg","CS","CS","4","category4/CS2.png","-100","targets/17.png","direct","",""
"","image-slider-response","115","664419","0.0-8.0-0.25","1px6htx436","one_one","1","direct_first","1","le07es21","1","25","1","1","3","1","Nach Teilnahme würde mich interessieren, was genau untersucht wird ;)","0","1","0","3072.715000002063","","","","","pos","GS","GSold","2","category2/CS2.png","43","targets/33.png","direct","",""
"","image-slider-response","116","666397","0.0-8.0-0.26","1px6htx436","one_one","1","direct_first","1","le07es21","1","25","1","1","3","1","Nach Teilnahme würde mich interessieren, was genau untersucht wird ;)","0","1","0","1977.100000003702","","","","","pos","GS","GSold","2","category2/CS5.png","58","targets/4.png","direct","",""
"","image-slider-response","117","670077","0.0-8.0-0.27","1px6htx436","one_one","1","direct_first","1","le07es21","1","25","1","1","3","1","Nach Teilnahme würde mich interessieren, was genau untersucht wird ;)","0","1","0","3678.960000004736","","","","","neg","GS","abstract","4","category4/lin.png","-30","targets/42.png","direct","",""
"","image-slider-response","118","672199","0.0-8.0-0.28","1px6htx436","one_one","1","direct_first","1","le07es21","1","25","1","1","3","1","Nach Teilnahme würde mich interessieren, was genau untersucht wird ;)","0","1","0","2120.4599999909988","","","","","pos","GS","GSnew","3","category3/GS1.png","37","targets/22.png","direct","",""
"","image-slider-response","119","674507","0.0-8.0-0.29","1px6htx436","one_one","1","direct_first","1","le07es21","1","25","1","1","3","1","Nach Teilnahme würde mich interessieren, was genau untersucht wird ;)","0","1","0","2307.249999998021","","","","","neg","GS","abstract","1","category1/ma.png","-100","targets/6.png","direct","",""
"","image-slider-response","120","676805","0.0-8.0-0.30","1px6htx436","one_one","1","direct_first","1","le07es21","1","25","1","1","3","1","Nach Teilnahme würde mich interessieren, was genau untersucht wird ;)","0","1","0","2297.005000000354","","","","","neg","GS","GSnew","1","category1/GS1.png","-41","targets/24.png","direct","",""
"","image-slider-response","121","679253","0.0-8.0-0.31","1px6htx436","one_one","1","direct_first","1","le07es21","1","25","1","1","3","1","Nach Teilnahme würde mich interessieren, was genau untersucht wird ;)","0","1","0","2446.7749999894295","","","","","pos","CS","CS","3","category3/CS1.png","67","targets/47.png","direct","",""
"","html-keyboard-response","122","710188","0.0-9.0","1px6htx436","one_one","1","direct_first","1","le07es21","1","25","1","1","3","1","Nach Teilnahme würde mich interessieren, was genau untersucht wird ;)","0","1","0","30933.96500000381","","","<p>Sie sehen nun die chinesischen Zeichen nur ganz kurz. Danach sehen Sie die jeweilige Aussprache der Zeichen als Silbe auf dem Bildschrim. Ihre Aufgabe ist es, für jede Silbe anzugeben, ob diese etwas angenehmes, oder unangenehmes bedeuten könnte. Verlassen Sie sich hier vor allem auf Ihre Intuition.<br><br>Die Zeichen werden nur zur Orientierung dargestellt, beachten Sie sie deshalb nicht. Konzentrieren Sie sich vor allem auf die Silben. <br>Reagieren Sie mit folgenden zwei Tasten: <br><br><b>'D' </b> wenn die Silbe etwas <b>unangenehmes</b> bedeuten könnte. <br><b>'K'</b> wenn die Silbe etwas <b>angenehmes</b> bedeuten könnte. <br><br>Bitte legen Sie nun den Zeigefinger der linken Hand auf die Taste 'D' und den Zeigefinger der rechten Hand auf die Taste 'K'. <br>Reagieren Sie auf jede Silbe so schnell wie möglich. Uns interessiert Ihre spontane Reaktion. <br> <br> <br>Drücken Sie 'D' oder 'K', um die nächste Aufgabe zu starten. </p>","75","","","","","","","","","",""
"","html-keyboard-response","123","713190","0.0-10.0-0.0","1px6htx436","one_one","1","direct_first","1","le07es21","1","25","1","1","3","1","Nach Teilnahme würde mich interessieren, was genau untersucht wird ;)","0","1","0","null","","","<div style=""font-size:60px;"">+</div>","null","","","","","","","","","",""
"","html-keyboard-response","124","713283","0.0-10.0-1.0","1px6htx436","one_one","1","direct_first","1","le07es21","1","25","1","1","3","1","Nach Teilnahme würde mich interessieren, was genau untersucht wird ;)","0","1","0","null","","","<img src = 'category4/CS3.png' width = '100%;'>","null","","","","","","","","","",""
"","html-keyboard-response","125","713537","0.0-10.0-2.0","1px6htx436","one_one","1","direct_first","1","le07es21","1","25","1","1","3","1","Nach Teilnahme würde mich interessieren, was genau untersucht wird ;)","0","1","0","null","","","<img src = 'targets/40.png' width = '100%;'>","null","","","","","","","","","",""
"","html-keyboard-response","126","713698","0.0-10.0-3.0","1px6htx436","one_one","1","direct_first","1","le07es21","1","25","1","1","3","1","Nach Teilnahme würde mich interessieren, was genau untersucht wird ;)","0","1","0","160.1950000040233","","","<img src = 'targets/mask.png' width = '100%;'>","75","neg","GS","GSold","4","category4/CS3.png","","targets/40.png","indirect","1","0"
"","html-keyboard-response","127","715206","0.0-10.0-0.1","1px6htx436","one_one","1","direct_first","1","le07es21","1","25","1","1","3","1","Nach Teilnahme würde mich interessieren, was genau untersucht wird ;)","0","1","0","null","","","<div style=""font-size:60px;"">+</div>","null","","","","","","","","","",""
"","html-keyboard-response","128","715298","0.0-10.0-1.1","1px6htx436","one_one","1","direct_first","1","le07es21","1","25","1","1","3","1","Nach Teilnahme würde mich interessieren, was genau untersucht wird ;)","0","1","0","null","","","<img src = 'category1/CS9.png' width = '100%;'>","null","","","","","","","","","",""
"","html-keyboard-response","129","715551","0.0-10.0-2.1","1px6htx436","one_one","1","direct_first","1","le07es21","1","25","1","1","3","1","Nach Teilnahme würde mich interessieren, was genau untersucht wird ;)","0","1","0","null","","","<img src = 'targets/45.png' width = '100%;'>","null","","","","","","","","","",""
"","html-keyboard-response","130","720435","0.0-10.0-3.1","1px6htx436","one_one","1","direct_first","1","le07es21","1","25","1","1","3","1","Nach Teilnahme würde mich interessieren, was genau untersucht wird ;)","0","1","0","4882.00000001234","","","<img src = 'targets/mask.png' width = '100%;'>","68","neg","GS","GSold","1","category1/CS9.png","","targets/45.png","indirect","0","1"
"","html-keyboard-response","131","721937","0.0-10.0-0.2","1px6htx436","one_one","1","direct_first","1","le07es21","1","25","1","1","3","1","Nach Teilnahme würde mich interessieren, was genau untersucht wird ;)","0","1","0","null","","","<div style=""font-size:60px;"">+</div>","null","","","","","","","","","",""
"","html-keyboard-response","132","722029","0.0-10.0-1.2","1px6htx436","one_one","1","direct_first","1","le07es21","1","25","1","1","3","1","Nach Teilnahme würde mich interessieren, was genau untersucht wird ;)","0","1","0","null","","","<img src = 'category4/CS1.png' width = '100%;'>","null","","","","","","","","","",""
"","html-keyboard-response","133","722298","0.0-10.0-2.2","1px6htx436","one_one","1","direct_first","1","le07es21","1","25","1","1","3","1","Nach Teilnahme würde mich interessieren, was genau untersucht wird ;)","0","1","0","null","","","<img src = 'targets/38.png' width = '100%;'>","null","","","","","","","","","",""
"","html-keyboard-response","134","727269","0.0-10.0-3.2","1px6htx436","one_one","1","direct_first","1","le07es21","1","25","1","1","3","1","Nach Teilnahme würde mich interessieren, was genau untersucht wird ;)","0","1","0","4968.47500000149","","","<img src = 'targets/mask.png' width = '100%;'>","75","neg","GS","GSold","4","category4/CS1.png","","targets/38.png","indirect","1","2"
"","html-keyboard-response","135","728776","0.0-10.0-0.3","1px6htx436","one_one","1","direct_first","1","le07es21","1","25","1","1","3","1","Nach Teilnahme würde mich interessieren, was genau untersucht wird ;)","0","1","0","null","","","<div style=""font-size:60px;"">+</div>","null","","","","","","","","","",""
"","html-keyboard-response","136","728868","0.0-10.0-1.3","1px6htx436","one_one","1","direct_first","1","le07es21","1","25","1","1","3","1","Nach Teilnahme würde mich interessieren, was genau untersucht wird ;)","0","1","0","null","","","<img src = 'category1/CS6.png' width = '100%;'>","null","","","","","","","","","",""
"","html-keyboard-response","137","729120","0.0-10.0-2.3","1px6htx436","one_one","1","direct_first","1","le07es21","1","25","1","1","3","1","Nach Teilnahme würde mich interessieren, was genau untersucht wird ;)","0","1","0","null","","","<img src = 'targets/20.png' width = '100%;'>","null","","","","","","","","","",""
"","html-keyboard-response","138","731194","0.0-10.0-3.3","1px6htx436","one_one","1","direct_first","1","le07es21","1","25","1","1","3","1","Nach Teilnahme würde mich interessieren, was genau untersucht wird ;)","0","1","0","2071.11000000441","","","<img src = 'targets/mask.png' width = '100%;'>","68","neg","GS","GSold","1","category1/CS6.png","","targets/20.png","indirect","0","3"
"","html-keyboard-response","139","732696","0.0-10.0-0.4","1px6htx436","one_one","1","direct_first","1","le07es21","1","25","1","1","3","1","Nach Teilnahme würde mich interessieren, was genau untersucht wird ;)","0","1","0","null","","","<div style=""font-size:60px;"">+</div>","null","","","","","","","","","",""
"","html-keyboard-response","140","732788","0.0-10.0-1.4","1px6htx436","one_one","1","direct_first","1","le07es21","1","25","1","1","3","1","Nach Teilnahme würde mich interessieren, was genau untersucht wird ;)","0","1","0","null","","","<img src = 'category1/CS3.png' width = '100%;'>","null","","","","","","","","","",""
"","html-keyboard-response","141","733041","0.0-10.0-2.4","1px6htx436","one_one","1","direct_first","1","le07es21","1","25","1","1","3","1","Nach Teilnahme würde mich interessieren, was genau untersucht wird ;)","0","1","0","null","","","<img src = 'targets/36.png' width = '100%;'>","null","","","","","","","","","",""
"","html-keyboard-response","142","736057","0.0-10.0-3.4","1px6htx436","one_one","1","direct_first","1","le07es21","1","25","1","1","3","1","Nach Teilnahme würde mich interessieren, was genau untersucht wird ;)","0","1","0","3012.750000008964","","","<img src = 'targets/mask.png' width = '100%;'>","68","neg","GS","GSold","1","category1/CS3.png","","targets/36.png","indirect","0","4"
"","html-keyboard-response","143","737559","0.0-10.0-0.5","1px6htx436","one_one","1","direct_first","1","le07es21","1","25","1","1","3","1","Nach Teilnahme würde mich interessieren, was genau untersucht wird ;)","0","1","0","null","","","<div style=""font-size:60px;"">+</div>","null","","","","","","","","","",""
"","html-keyboard-response","144","737651","0.0-10.0-1.5","1px6htx436","one_one","1","direct_first","1","le07es21","1","25","1","1","3","1","Nach Teilnahme würde mich interessieren, was genau untersucht wird ;)","0","1","0","null","","","<img src = 'category2/CS5.png' width = '100%;'>","null","","","","","","","","","",""
"","html-keyboard-response","145","737904","0.0-10.0-2.5","1px6htx436","one_one","1","direct_first","1","le07es21","1","25","1","1","3","1","Nach Teilnahme würde mich interessieren, was genau untersucht wird ;)","0","1","0","null","","","<img src = 'targets/4.png' width = '100%;'>","null","","","","","","","","","",""
"","html-keyboard-response","146","739912","0.0-10.0-3.5","1px6htx436","one_one","1","direct_first","1","le07es21","1","25","1","1","3","1","Nach Teilnahme würde mich interessieren, was genau untersucht wird ;)","0","1","0","2005.139999993844","","","<img src = 'targets/mask.png' width = '100%;'>","75","pos","GS","GSold","2","category2/CS5.png","","targets/4.png","indirect","1","5"
"","html-keyboard-response","147","741414","0.0-10.0-0.6","1px6htx436","one_one","1","direct_first","1","le07es21","1","25","1","1","3","1","Nach Teilnahme würde mich interessieren, was genau untersucht wird ;)","0","1","0","null","","","<div style=""font-size:60px;"">+</div>","null","","","","","","","","","",""
"","html-keyboard-response","148","741507","0.0-10.0-1.6","1px6htx436","one_one","1","direct_first","1","le07es21","1","25","1","1","3","1","Nach Teilnahme würde mich interessieren, was genau untersucht wird ;)","0","1","0","null","","","<img src = 'category2/CS6.png' width = '100%;'>","null","","","","","","","","","",""
"","html-keyboard-response","149","741759","0.0-10.0-2.6","1px6htx436","one_one","1","direct_first","1","le07es21","1","25","1","1","3","1","Nach Teilnahme würde mich interessieren, was genau untersucht wird ;)","0","1","0","null","","","<img src = 'targets/34.png' width = '100%;'>","null","","","","","","","","","",""
"","html-keyboard-response","150","743715","0.0-10.0-3.6","1px6htx436","one_one","1","direct_first","1","le07es21","1","25","1","1","3","1","Nach Teilnahme würde mich interessieren, was genau untersucht wird ;)","0","1","0","1953.6799999914365","","","<img src = 'targets/mask.png' width = '100%;'>","75","pos","GS","GSold","2","category2/CS6.png","","targets/34.png","indirect","1","6"
"","html-keyboard-response","151","745218","0.0-10.0-0.7","1px6htx436","one_one","1","direct_first","1","le07es21","1","25","1","1","3","1","Nach Teilnahme würde mich interessieren, was genau untersucht wird ;)","0","1","0","null","","","<div style=""font-size:60px;"">+</div>","null","","","","","","","","","",""
"","html-keyboard-response","152","745311","0.0-10.0-1.7","1px6htx436","one_one","1","direct_first","1","le07es21","1","25","1","1","3","1","Nach Teilnahme würde mich interessieren, was genau untersucht wird ;)","0","1","0","null","","","<img src = 'category2/CS2.png' width = '100%;'>","null","","","","","","","","","",""
"","html-keyboard-response","153","745563","0.0-10.0-2.7","1px6htx436","one_one","1","direct_first","1","le07es21","1","25","1","1","3","1","Nach Teilnahme würde mich interessieren, was genau untersucht wird ;)","0","1","0","null","","","<img src = 'targets/33.png' width = '100%;'>","null","","","","","","","","","",""
"","html-keyboard-response","154","747298","0.0-10.0-3.7","1px6htx436","one_one","1","direct_first","1","le07es21","1","25","1","1","3","1","Nach Teilnahme würde mich interessieren, was genau untersucht wird ;)","0","1","0","1732.81999999017","","","<img src = 'targets/mask.png' width = '100%;'>","75","pos","GS","GSold","2","category2/CS2.png","","targets/33.png","indirect","1","7"
"","html-keyboard-response","155","748800","0.0-10.0-0.8","1px6htx436","one_one","1","direct_first","1","le07es21","1","25","1","1","3","1","Nach Teilnahme würde mich interessieren, was genau untersucht wird ;)","0","1","0","null","","","<div style=""font-size:60px;"">+</div>","null","","","","","","","","","",""
"","html-keyboard-response","156","748892","0.0-10.0-1.8","1px6htx436","one_one","1","direct_first","1","le07es21","1","25","1","1","3","1","Nach Teilnahme würde mich interessieren, was genau untersucht wird ;)","0","1","0","null","","","<img src = 'category2/CS1.png' width = '100%;'>","null","","","","","","","","","",""
"","html-keyboard-response","157","749145","0.0-10.0-2.8","1px6htx436","one_one","1","direct_first","1","le07es21","1","25","1","1","3","1","Nach Teilnahme würde mich interessieren, was genau untersucht wird ;)","0","1","0","null","","","<img src = 'targets/16.png' width = '100%;'>","null","","","","","","","","","",""
"","html-keyboard-response","158","750514","0.0-10.0-3.8","1px6htx436","one_one","1","direct_first","1","le07es21","1","25","1","1","3","1","Nach Teilnahme würde mich interessieren, was genau untersucht wird ;)","0","1","0","1366.65000001085","","","<img src = 'targets/mask.png' width = '100%;'>","68","pos","CS","CS","2","category2/CS1.png","","targets/16.png","indirect","0","8"
"","html-keyboard-response","159","752016","0.0-10.0-0.9","1px6htx436","one_one","1","direct_first","1","le07es21","1","25","1","1","3","1","Nach Teilnahme würde mich interessieren, was genau untersucht wird ;)","0","1","0","null","","","<div style=""font-size:60px;"">+</div>","null","","","","","","","","","",""
"","html-keyboard-response","160","752109","0.0-10.0-1.9","1px6htx436","one_one","1","direct_first","1","le07es21","1","25","1","1","3","1","Nach Teilnahme würde mich interessieren, was genau untersucht wird ;)","0","1","0","null","","","<img src = 'category4/CS5.png' width = '100%;'>","null","","","","","","","","","",""
"","html-keyboard-response","161","752361","0.0-10.0-2.9","1px6htx436","one_one","1","direct_first","1","le07es21","1","25","1","1","3","1","Nach Teilnahme würde mich interessieren, was genau untersucht wird ;)","0","1","0","null","","","<img src = 'targets/25.png' width = '100%;'>","null","","","","","","","","","",""
"","html-keyboard-response","162","753595","0.0-10.0-3.9","1px6htx436","one_one","1","direct_first","1","le07es21","1","25","1","1","3","1","Nach Teilnahme würde mich interessieren, was genau untersucht wird ;)","0","1","0","1231.0100000031525","","","<img src = 'targets/mask.png' width = '100%;'>","75","neg","GS","GSold","4","category4/CS5.png","","targets/25.png","indirect","1","9"
"","html-keyboard-response","163","755098","0.0-10.0-0.10","1px6htx436","one_one","1","direct_first","1","le07es21","1","25","1","1","3","1","Nach Teilnahme würde mich interessieren, was genau untersucht wird ;)","0","1","0","null","","","<div style=""font-size:60px;"">+</div>","null","","","","","","","","","",""
"","html-keyboard-response","164","755191","0.0-10.0-1.10","1px6htx436","one_one","1","direct_first","1","le07es21","1","25","1","1","3","1","Nach Teilnahme würde mich interessieren, was genau untersucht wird ;)","0","1","0","null","","","<img src = 'category4/CS2.png' width = '100%;'>","null","","","","","","","","","",""
"","html-keyboard-response","165","755442","0.0-10.0-2.10","1px6htx436","one_one","1","direct_first","1","le07es21","1","25","1","1","3","1","Nach Teilnahme würde mich interessieren, was genau untersucht wird ;)","0","1","0","null","","","<img src = 'targets/17.png' width = '100%;'>","null","","","","","","","","","",""
"","html-keyboard-response","166","756271","0.0-10.0-3.10","1px6htx436","one_one","1","direct_first","1","le07es21","1","25","1","1","3","1","Nach Teilnahme würde mich interessieren, was genau untersucht wird ;)","0","1","0","826.9250000012107","","","<img src = 'targets/mask.png' width = '100%;'>","68","neg","CS","CS","4","category4/CS2.png","","targets/17.png","indirect","0","10"
"","html-keyboard-response","167","757774","0.0-10.0-0.11","1px6htx436","one_one","1","direct_first","1","le07es21","1","25","1","1","3","1","Nach Teilnahme würde mich interessieren, was genau untersucht wird ;)","0","1","0","null","","","<div style=""font-size:60px;"">+</div>","null","","","","","","","","","",""
"","html-keyboard-response","168","757866","0.0-10.0-1.11","1px6htx436","one_one","1","direct_first","1","le07es21","1","25","1","1","3","1","Nach Teilnahme würde mich interessieren, was genau untersucht wird ;)","0","1","0","null","","","<img src = 'category3/CS7.png' width = '100%;'>","null","","","","","","","","","",""
"","html-keyboard-response","169","758118","0.0-10.0-2.11","1px6htx436","one_one","1","direct_first","1","le07es21","1","25","1","1","3","1","Nach Teilnahme würde mich interessieren, was genau untersucht wird ;)","0","1","0","null","","","<img src = 'targets/41.png' width = '100%;'>","null","","","","","","","","","",""
"","html-keyboard-response","170","759572","0.0-10.0-3.11","1px6htx436","one_one","1","direct_first","1","le07es21","1","25","1","1","3","1","Nach Teilnahme würde mich interessieren, was genau untersucht wird ;)","0","1","0","1451.920000006794","","","<img src = 'targets/mask.png' width = '100%;'>","75","pos","GS","GSold","3","category3/CS7.png","","targets/41.png","indirect","1","11"
"","html-keyboard-response","171","761074","0.0-10.0-0.12","1px6htx436","one_one","1","direct_first","1","le07es21","1","25","1","1","3","1","Nach Teilnahme würde mich interessieren, was genau untersucht wird ;)","0","1","0","null","","","<div style=""font-size:60px;"">+</div>","null","","","","","","","","","",""
"","html-keyboard-response","172","761166","0.0-10.0-1.12","1px6htx436","one_one","1","direct_first","1","le07es21","1","25","1","1","3","1","Nach Teilnahme würde mich interessieren, was genau untersucht wird ;)","0","1","0","null","","","<img src = 'category1/CS10.png' width = '100%;'>","null","","","","","","","","","",""
"","html-keyboard-response","173","761419","0.0-10.0-2.12","1px6htx436","one_one","1","direct_first","1","le07es21","1","25","1","1","3","1","Nach Teilnahme würde mich interessieren, was genau untersucht wird ;)","0","1","0","null","","","<img src = 'targets/18.png' width = '100%;'>","null","","","","","","","","","",""
"","html-keyboard-response","174","762448","0.0-10.0-3.12","1px6htx436","one_one","1","direct_first","1","le07es21","1","25","1","1","3","1","Nach Teilnahme würde mich interessieren, was genau untersucht wird ;)","0","1","0","1027.0600000076229","","","<img src = 'targets/mask.png' width = '100%;'>","68","neg","CS","CS","1","category1/CS10.png","","targets/18.png","indirect","0","12"
"","html-keyboard-response","175","763950","0.0-10.0-0.13","1px6htx436","one_one","1","direct_first","1","le07es21","1","25","1","1","3","1","Nach Teilnahme würde mich interessieren, was genau untersucht wird ;)","0","1","0","null","","","<div style=""font-size:60px;"">+</div>","null","","","","","","","","","",""
"","html-keyboard-response","176","764042","0.0-10.0-1.13","1px6htx436","one_one","1","direct_first","1","le07es21","1","25","1","1","3","1","Nach Teilnahme würde mich interessieren, was genau untersucht wird ;)","0","1","0","null","","","<img src = 'category3/CS1.png' width = '100%;'>","null","","","","","","","","","",""
"","html-keyboard-response","177","764295","0.0-10.0-2.13","1px6htx436","one_one","1","direct_first","1","le07es21","1","25","1","1","3","1","Nach Teilnahme würde mich interessieren, was genau untersucht wird ;)","0","1","0","null","","","<img src = 'targets/47.png' width = '100%;'>","null","","","","","","","","","",""
"","html-keyboard-response","178","765494","0.0-10.0-3.13","1px6htx436","one_one","1","direct_first","1","le07es21","1","25","1","1","3","1","Nach Teilnahme würde mich interessieren, was genau untersucht wird ;)","0","1","0","1196.3450000039302","","","<img src = 'targets/mask.png' width = '100%;'>","75","pos","CS","CS","3","category3/CS1.png","","targets/47.png","indirect","1","13"
"","html-keyboard-response","179","766996","0.0-10.0-0.14","1px6htx436","one_one","1","direct_first","1","le07es21","1","25","1","1","3","1","Nach Teilnahme würde mich interessieren, was genau untersucht wird ;)","0","1","0","null","","","<div style=""font-size:60px;"">+</div>","null","","","","","","","","","",""
"","html-keyboard-response","180","767089","0.0-10.0-1.14","1px6htx436","one_one","1","direct_first","1","le07es21","1","25","1","1","3","1","Nach Teilnahme würde mich interessieren, was genau untersucht wird ;)","0","1","0","null","","","<img src = 'category3/CS3.png' width = '100%;'>","null","","","","","","","","","",""
"","html-keyboard-response","181","767342","0.0-10.0-2.14","1px6htx436","one_one","1","direct_first","1","le07es21","1","25","1","1","3","1","Nach Teilnahme würde mich interessieren, was genau untersucht wird ;)","0","1","0","null","","","<img src = 'targets/14.png' width = '100%;'>","null","","","","","","","","","",""
"","html-keyboard-response","182","768378","0.0-10.0-3.14","1px6htx436","one_one","1","direct_first","1","le07es21","1","25","1","1","3","1","Nach Teilnahme würde mich interessieren, was genau untersucht wird ;)","0","1","0","1033.8699999992969","","","<img src = 'targets/mask.png' width = '100%;'>","75","pos","GS","GSold","3","category3/CS3.png","","targets/14.png","indirect","1","14"
"","html-keyboard-response","183","769880","0.0-10.0-0.15","1px6htx436","one_one","1","direct_first","1","le07es21","1","25","1","1","3","1","Nach Teilnahme würde mich interessieren, was genau untersucht wird ;)","0","1","0","null","","","<div style=""font-size:60px;"">+</div>","null","","","","","","","","","",""
"","html-keyboard-response","184","769972","0.0-10.0-1.15","1px6htx436","one_one","1","direct_first","1","le07es21","1","25","1","1","3","1","Nach Teilnahme würde mich interessieren, was genau untersucht wird ;)","0","1","0","null","","","<img src = 'category3/CS9.png' width = '100%;'>","null","","","","","","","","","",""
"","html-keyboard-response","185","770226","0.0-10.0-2.15","1px6htx436","one_one","1","direct_first","1","le07es21","1","25","1","1","3","1","Nach Teilnahme würde mich interessieren, was genau untersucht wird ;)","0","1","0","null","","","<img src = 'targets/37.png' width = '100%;'>","null","","","","","","","","","",""
"","html-keyboard-response","186","771162","0.0-10.0-3.15","1px6htx436","one_one","1","direct_first","1","le07es21","1","25","1","1","3","1","Nach Teilnahme würde mich interessieren, was genau untersucht wird ;)","0","1","0","933.3049999986542","","","<img src = 'targets/mask.png' width = '100%;'>","75","pos","GS","GSold","3","category3/CS9.png","","targets/37.png","indirect","1","15"
"","survey-html-form","187","774031","0.0-11.0","1px6htx436","one_one","1","direct_first","1","le07es21","1","25","1","1","3","1","Nach Teilnahme würde mich interessieren, was genau untersucht wird ;)","0","1","0","2367.245000001276","","{}","","","","","","","","","","","",""
"","html-keyboard-response","188","777033","0.0-12.0-0.0","1px6htx436","one_one","1","direct_first","1","le07es21","1","25","1","1","3","1","Nach Teilnahme würde mich interessieren, was genau untersucht wird ;)","0","1","0","null","","","<div style=""font-size:60px;"">+</div>","null","","","","","","","","","",""
"","html-keyboard-response","189","777125","0.0-12.0-1.0","1px6htx436","one_one","1","direct_first","1","le07es21","1","25","1","1","3","1","Nach Teilnahme würde mich interessieren, was genau untersucht wird ;)","0","1","0","null","","","<img src = 'category2/men.png' width = '100%;'>","null","","","","","","","","","",""
"","html-keyboard-response","190","777377","0.0-12.0-2.0","1px6htx436","one_one","1","direct_first","1","le07es21","1","25","1","1","3","1","Nach Teilnahme würde mich interessieren, was genau untersucht wird ;)","0","1","0","null","","","<img src = 'targets/8.png' width = '100%;'>","null","","","","","","","","","",""
"","html-keyboard-response","191","778754","0.0-12.0-3.0","1px6htx436","one_one","1","direct_first","1","le07es21","1","25","1","1","3","1","Nach Teilnahme würde mich interessieren, was genau untersucht wird ;)","0","1","0","1373.7850000034086","","","<img src = 'targets/mask.png' width = '100%;'>","75","pos","GS","abstract","2","category2/men.png","","targets/8.png","indirect","1","16"
"","html-keyboard-response","192","780256","0.0-12.0-0.1","1px6htx436","one_one","1","direct_first","1","le07es21","1","25","1","1","3","1","Nach Teilnahme würde mich interessieren, was genau untersucht wird ;)","0","1","0","null","","","<div style=""font-size:60px;"">+</div>","null","","","","","","","","","",""
"","html-keyboard-response","193","780349","0.0-12.0-1.1","1px6htx436","one_one","1","direct_first","1","le07es21","1","25","1","1","3","1","Nach Teilnahme würde mich interessieren, was genau untersucht wird ;)","0","1","0","null","","","<img src = 'category4/lin.png' width = '100%;'>","null","","","","","","","","","",""
"","html-keyboard-response","194","780601","0.0-12.0-2.1","1px6htx436","one_one","1","direct_first","1","le07es21","1","25","1","1","3","1","Nach Teilnahme würde mich interessieren, was genau untersucht wird ;)","0","1","0","null","","","<img src = 'targets/42.png' width = '100%;'>","null","","","","","","","","","",""
"","html-keyboard-response","195","781863","0.0-12.0-3.1","1px6htx436","one_one","1","direct_first","1","le07es21","1","25","1","1","3","1","Nach Teilnahme würde mich interessieren, was genau untersucht wird ;)","0","1","0","1258.4550000028685","","","<img src = 'targets/mask.png' width = '100%;'>","68","neg","GS","abstract","4","category4/lin.png","","targets/42.png","indirect","0","17"
"","html-keyboard-response","196","783365","0.0-12.0-0.2","1px6htx436","one_one","1","direct_first","1","le07es21","1","25","1","1","3","1","Nach Teilnahme würde mich interessieren, was genau untersucht wird ;)","0","1","0","null","","","<div style=""font-size:60px;"">+</div>","null","","","","","","","","","",""
"","html-keyboard-response","197","783457","0.0-12.0-1.2","1px6htx436","one_one","1","direct_first","1","le07es21","1","25","1","1","3","1","Nach Teilnahme würde mich interessieren, was genau untersucht wird ;)","0","1","0","null","","","<img src = 'category4/GS1.png' width = '100%;'>","null","","","","","","","","","",""
"","html-keyboard-response","198","783711","0.0-12.0-2.2","1px6htx436","one_one","1","direct_first","1","le07es21","1","25","1","1","3","1","Nach Teilnahme würde mich interessieren, was genau untersucht wird ;)","0","1","0","null","","","<img src = 'targets/31.png' width = '100%;'>","null","","","","","","","","","",""
"","html-keyboard-response","199","785075","0.0-12.0-3.2","1px6htx436","one_one","1","direct_first","1","le07es21","1","25","1","1","3","1","Nach Teilnahme würde mich interessieren, was genau untersucht wird ;)","0","1","0","1362.5299999985145","","","<img src = 'targets/mask.png' width = '100%;'>","68","neg","GS","GSnew","4","category4/GS1.png","","targets/31.png","indirect","0","18"
"","html-keyboard-response","200","786577","0.0-12.0-0.3","1px6htx436","one_one","1","direct_first","1","le07es21","1","25","1","1","3","1","Nach Teilnahme würde mich interessieren, was genau untersucht wird ;)","0","1","0","null","","","<div style=""font-size:60px;"">+</div>","null","","","","","","","","","",""
"","html-keyboard-response","201","786670","0.0-12.0-1.3","1px6htx436","one_one","1","direct_first","1","le07es21","1","25","1","1","3","1","Nach Teilnahme würde mich interessieren, was genau untersucht wird ;)","0","1","0","null","","","<img src = 'category1/GS2.png' width = '100%;'>","null","","","","","","","","","",""
"","html-keyboard-response","202","786922","0.0-12.0-2.3","1px6htx436","one_one","1","direct_first","1","le07es21","1","25","1","1","3","1","Nach Teilnahme würde mich interessieren, was genau untersucht wird ;)","0","1","0","null","","","<img src = 'targets/35.png' width = '100%;'>","null","","","","","","","","","",""
"","html-keyboard-response","203","788137","0.0-12.0-3.3","1px6htx436","one_one","1","direct_first","1","le07es21","1","25","1","1","3","1","Nach Teilnahme würde mich interessieren, was genau untersucht wird ;)","0","1","0","1212.9450000065845","","","<img src = 'targets/mask.png' width = '100%;'>","75","neg","GS","GSnew","1","category1/GS2.png","","targets/35.png","indirect","1","19"
"","html-keyboard-response","204","789642","0.0-12.0-0.4","1px6htx436","one_one","1","direct_first","1","le07es21","1","25","1","1","3","1","Nach Teilnahme würde mich interessieren, was genau untersucht wird ;)","0","1","0","null","","","<div style=""font-size:60px;"">+</div>","null","","","","","","","","","",""
"","html-keyboard-response","205","789734","0.0-12.0-1.4","1px6htx436","one_one","1","direct_first","1","le07es21","1","25","1","1","3","1","Nach Teilnahme würde mich interessieren, was genau untersucht wird ;)","0","1","0","null","","","<img src = 'category4/GS3.png' width = '100%;'>","null","","","","","","","","","",""
"","html-keyboard-response","206","789987","0.0-12.0-2.4","1px6htx436","one_one","1","direct_first","1","le07es21","1","25","1","1","3","1","Nach Teilnahme würde mich interessieren, was genau untersucht wird ;)","0","1","0","null","","","<img src = 'targets/44.png' width = '100%;'>","null","","","","","","","","","",""
"","html-keyboard-response","207","791498","0.0-12.0-3.4","1px6htx436","one_one","1","direct_first","1","le07es21","1","25","1","1","3","1","Nach Teilnahme würde mich interessieren, was genau untersucht wird ;)","0","1","0","1509.9900000059279","","","<img src = 'targets/mask.png' width = '100%;'>","68","neg","GS","GSnew","4","category4/GS3.png","","targets/44.png","indirect","0","20"
"","html-keyboard-response","208","793000","0.0-12.0-0.5","1px6htx436","one_one","1","direct_first","1","le07es21","1","25","1","1","3","1","Nach Teilnahme würde mich interessieren, was genau untersucht wird ;)","0","1","0","null","","","<div style=""font-size:60px;"">+</div>","null","","","","","","","","","",""
"","html-keyboard-response","209","793093","0.0-12.0-1.5","1px6htx436","one_one","1","direct_first","1","le07es21","1","25","1","1","3","1","Nach Teilnahme würde mich interessieren, was genau untersucht wird ;)","0","1","0","null","","","<img src = 'category2/GS2.png' width = '100%;'>","null","","","","","","","","","",""
"","html-keyboard-response","210","793344","0.0-12.0-2.5","1px6htx436","one_one","1","direct_first","1","le07es21","1","25","1","1","3","1","Nach Teilnahme würde mich interessieren, was genau untersucht wird ;)","0","1","0","null","","","<img src = 'targets/28.png' width = '100%;'>","null","","","","","","","","","",""
"","html-keyboard-response","211","794334","0.0-12.0-3.5","1px6htx436","one_one","1","direct_first","1","le07es21","1","25","1","1","3","1","Nach Teilnahme würde mich interessieren, was genau untersucht wird ;)","0","1","0","987.1249999996508","","","<img src = 'targets/mask.png' width = '100%;'>","68","pos","GS","GSnew","2","category2/GS2.png","","targets/28.png","indirect","0","21"
"","html-keyboard-response","212","795836","0.0-12.0-0.6","1px6htx436","one_one","1","direct_first","1","le07es21","1","25","1","1","3","1","Nach Teilnahme würde mich interessieren, was genau untersucht wird ;)","0","1","0","null","","","<div style=""font-size:60px;"">+</div>","null","","","","","","","","","",""
"","html-keyboard-response","213","795928","0.0-12.0-1.6","1px6htx436","one_one","1","direct_first","1","le07es21","1","25","1","1","3","1","Nach Teilnahme würde mich interessieren, was genau untersucht wird ;)","0","1","0","null","","","<img src = 'category1/GS3.png' width = '100%;'>","null","","","","","","","","","",""
"","html-keyboard-response","214","796181","0.0-12.0-2.6","1px6htx436","one_one","1","direct_first","1","le07es21","1","25","1","1","3","1","Nach Teilnahme würde mich interessieren, was genau untersucht wird ;)","0","1","0","null","","","<img src = 'targets/10.png' width = '100%;'>","null","","","","","","","","","",""
"","html-keyboard-response","215","797271","0.0-12.0-3.6","1px6htx436","one_one","1","direct_first","1","le07es21","1","25","1","1","3","1","Nach Teilnahme würde mich interessieren, was genau untersucht wird ;)","0","1","0","1088.4850000002189","","","<img src = 'targets/mask.png' width = '100%;'>","68","neg","GS","GSnew","1","category1/GS3.png","","targets/10.png","indirect","0","22"
"","html-keyboard-response","216","798773","0.0-12.0-0.7","1px6htx436","one_one","1","direct_first","1","le07es21","1","25","1","1","3","1","Nach Teilnahme würde mich interessieren, was genau untersucht wird ;)","0","1","0","null","","","<div style=""font-size:60px;"">+</div>","null","","","","","","","","","",""
"","html-keyboard-response","217","798865","0.0-12.0-1.7","1px6htx436","one_one","1","direct_first","1","le07es21","1","25","1","1","3","1","Nach Teilnahme würde mich interessieren, was genau untersucht wird ;)","0","1","0","null","","","<img src = 'category3/GS2.png' width = '100%;'>","null","","","","","","","","","",""
"","html-keyboard-response","218","799117","0.0-12.0-2.7","1px6htx436","one_one","1","direct_first","1","le07es21","1","25","1","1","3","1","Nach Teilnahme würde mich interessieren, was genau untersucht wird ;)","0","1","0","null","","","<img src = 'targets/15.png' width = '100%;'>","null","","","","","","","","","",""
"","html-keyboard-response","219","800165","0.0-12.0-3.7","1px6htx436","one_one","1","direct_first","1","le07es21","1","25","1","1","3","1","Nach Teilnahme würde mich interessieren, was genau untersucht wird ;)","0","1","0","1044.6200000005774","","","<img src = 'targets/mask.png' width = '100%;'>","75","pos","GS","GSnew","3","category3/GS2.png","","targets/15.png","indirect","1","23"
"","html-keyboard-response","220","801667","0.0-12.0-0.8","1px6htx436","one_one","1","direct_first","1","le07es21","1","25","1","1","3","1","Nach Teilnahme würde mich interessieren, was genau untersucht wird ;)","0","1","0","null","","","<div style=""font-size:60px;"">+</div>","null","","","","","","","","","",""
"","html-keyboard-response","221","801762","0.0-12.0-1.8","1px6htx436","one_one","1","direct_first","1","le07es21","1","25","1","1","3","1","Nach Teilnahme würde mich interessieren, was genau untersucht wird ;)","0","1","0","null","","","<img src = 'category2/GS3.png' width = '100%;'>","null","","","","","","","","","",""
"","html-keyboard-response","222","802015","0.0-12.0-2.8","1px6htx436","one_one","1","direct_first","1","le07es21","1","25","1","1","3","1","Nach Teilnahme würde mich interessieren, was genau untersucht wird ;)","0","1","0","null","","","<img src = 'targets/26.png' width = '100%;'>","null","","","","","","","","","",""
"","html-keyboard-response","223","802817","0.0-12.0-3.8","1px6htx436","one_one","1","direct_first","1","le07es21","1","25","1","1","3","1","Nach Teilnahme würde mich interessieren, was genau untersucht wird ;)","0","1","0","799.975000001723","","","<img src = 'targets/mask.png' width = '100%;'>","68","pos","GS","GSnew","2","category2/GS3.png","","targets/26.png","indirect","0","24"
"","html-keyboard-response","224","804319","0.0-12.0-0.9","1px6htx436","one_one","1","direct_first","1","le07es21","1","25","1","1","3","1","Nach Teilnahme würde mich interessieren, was genau untersucht wird ;)","0","1","0","null","","","<div style=""font-size:60px;"">+</div>","null","","","","","","","","","",""
"","html-keyboard-response","225","804411","0.0-12.0-1.9","1px6htx436","one_one","1","direct_first","1","le07es21","1","25","1","1","3","1","Nach Teilnahme würde mich interessieren, was genau untersucht wird ;)","0","1","0","null","","","<img src = 'category4/GS2.png' width = '100%;'>","null","","","","","","","","","",""
"","html-keyboard-response","226","804664","0.0-12.0-2.9","1px6htx436","one_one","1","direct_first","1","le07es21","1","25","1","1","3","1","Nach Teilnahme würde mich interessieren, was genau untersucht wird ;)","0","1","0","null","","","<img src = 'targets/29.png' width = '100%;'>","null","","","","","","","","","",""
"","html-keyboard-response","227","807966","0.0-12.0-3.9","1px6htx436","one_one","1","direct_first","1","le07es21","1","25","1","1","3","1","Nach Teilnahme würde mich interessieren, was genau untersucht wird ;)","0","1","0","3299.7900000045775","","","<img src = 'targets/mask.png' width = '100%;'>","75","neg","GS","GSnew","4","category4/GS2.png","","targets/29.png","indirect","1","25"
"","html-keyboard-response","228","809469","0.0-12.0-0.10","1px6htx436","one_one","1","direct_first","1","le07es21","1","25","1","1","3","1","Nach Teilnahme würde mich interessieren, was genau untersucht wird ;)","0","1","0","null","","","<div style=""font-size:60px;"">+</div>","null","","","","","","","","","",""
"","html-keyboard-response","229","809561","0.0-12.0-1.10","1px6htx436","one_one","1","direct_first","1","le07es21","1","25","1","1","3","1","Nach Teilnahme würde mich interessieren, was genau untersucht wird ;)","0","1","0","null","","","<img src = 'category1/GS1.png' width = '100%;'>","null","","","","","","","","","",""
"","html-keyboard-response","230","809814","0.0-12.0-2.10","1px6htx436","one_one","1","direct_first","1","le07es21","1","25","1","1","3","1","Nach Teilnahme würde mich interessieren, was genau untersucht wird ;)","0","1","0","null","","","<img src = 'targets/24.png' width = '100%;'>","null","","","","","","","","","",""
"","html-keyboard-response","231","811460","0.0-12.0-3.10","1px6htx436","one_one","1","direct_first","1","le07es21","1","25","1","1","3","1","Nach Teilnahme würde mich interessieren, was genau untersucht wird ;)","0","1","0","1643.51500000339","","","<img src = 'targets/mask.png' width = '100%;'>","68","neg","GS","GSnew","1","category1/GS1.png","","targets/24.png","indirect","0","26"
"","html-keyboard-response","232","812962","0.0-12.0-0.11","1px6htx436","one_one","1","direct_first","1","le07es21","1","25","1","1","3","1","Nach Teilnahme würde mich interessieren, was genau untersucht wird ;)","0","1","0","null","","","<div style=""font-size:60px;"">+</div>","null","","","","","","","","","",""
"","html-keyboard-response","233","813055","0.0-12.0-1.11","1px6htx436","one_one","1","direct_first","1","le07es21","1","25","1","1","3","1","Nach Teilnahme würde mich interessieren, was genau untersucht wird ;)","0","1","0","null","","","<img src = 'category3/GS3.png' width = '100%;'>","null","","","","","","","","","",""
"","html-keyboard-response","234","813308","0.0-12.0-2.11","1px6htx436","one_one","1","direct_first","1","le07es21","1","25","1","1","3","1","Nach Teilnahme würde mich interessieren, was genau untersucht wird ;)","0","1","0","null","","","<img src = 'targets/39.png' width = '100%;'>","null","","","","","","","","","",""
"","html-keyboard-response","235","816899","0.0-12.0-3.11","1px6htx436","one_one","1","direct_first","1","le07es21","1","25","1","1","3","1","Nach Teilnahme würde mich interessieren, was genau untersucht wird ;)","0","1","0","3587.840000007418","","","<img src = 'targets/mask.png' width = '100%;'>","68","pos","GS","GSnew","3","category3/GS3.png","","targets/39.png","indirect","0","27"
"","html-keyboard-response","236","818401","0.0-12.0-0.12","1px6htx436","one_one","1","direct_first","1","le07es21","1","25","1","1","3","1","Nach Teilnahme würde mich interessieren, was genau untersucht wird ;)","0","1","0","null","","","<div style=""font-size:60px;"">+</div>","null","","","","","","","","","",""
"","html-keyboard-response","237","818493","0.0-12.0-1.12","1px6htx436","one_one","1","direct_first","1","le07es21","1","25","1","1","3","1","Nach Teilnahme würde mich interessieren, was genau untersucht wird ;)","0","1","0","null","","","<img src = 'category1/ma.png' width = '100%;'>","null","","","","","","","","","",""
"","html-keyboard-response","238","818746","0.0-12.0-2.12","1px6htx436","one_one","1","direct_first","1","le07es21","1","25","1","1","3","1","Nach Teilnahme würde mich interessieren, was genau untersucht wird ;)","0","1","0","null","","","<img src = 'targets/6.png' width = '100%;'>","null","","","","","","","","","",""
"","html-keyboard-response","239","819922","0.0-12.0-3.12","1px6htx436","one_one","1","direct_first","1","le07es21","1","25","1","1","3","1","Nach Teilnahme würde mich interessieren, was genau untersucht wird ;)","0","1","0","1173.450000002049","","","<img src = 'targets/mask.png' width = '100%;'>","68","neg","GS","abstract","1","category1/ma.png","","targets/6.png","indirect","0","28"
"","html-keyboard-response","240","821424","0.0-12.0-0.13","1px6htx436","one_one","1","direct_first","1","le07es21","1","25","1","1","3","1","Nach Teilnahme würde mich interessieren, was genau untersucht wird ;)","0","1","0","null","","","<div style=""font-size:60px;"">+</div>","null","","","","","","","","","",""
"","html-keyboard-response","241","821516","0.0-12.0-1.13","1px6htx436","one_one","1","direct_first","1","le07es21","1","25","1","1","3","1","Nach Teilnahme würde mich interessieren, was genau untersucht wird ;)","0","1","0","null","","","<img src = 'category2/GS1.png' width = '100%;'>","null","","","","","","","","","",""
"","html-keyboard-response","242","821769","0.0-12.0-2.13","1px6htx436","one_one","1","direct_first","1","le07es21","1","25","1","1","3","1","Nach Teilnahme würde mich interessieren, was genau untersucht wird ;)","0","1","0","null","","","<img src = 'targets/27.png' width = '100%;'>","null","","","","","","","","","",""
"","html-keyboard-response","243","822819","0.0-12.0-3.13","1px6htx436","one_one","1","direct_first","1","le07es21","1","25","1","1","3","1","Nach Teilnahme würde mich interessieren, was genau untersucht wird ;)","0","1","0","1047.8749999892898","","","<img src = 'targets/mask.png' width = '100%;'>","75","pos","GS","GSnew","2","category2/GS1.png","","targets/27.png","indirect","1","29"
"","html-keyboard-response","244","824321","0.0-12.0-0.14","1px6htx436","one_one","1","direct_first","1","le07es21","1","25","1","1","3","1","Nach Teilnahme würde mich interessieren, was genau untersucht wird ;)","0","1","0","null","","","<div style=""font-size:60px;"">+</div>","null","","","","","","","","","",""
"","html-keyboard-response","245","824414","0.0-12.0-1.14","1px6htx436","one_one","1","direct_first","1","le07es21","1","25","1","1","3","1","Nach Teilnahme würde mich interessieren, was genau untersucht wird ;)","0","1","0","null","","","<img src = 'category3/wang.png' width = '100%;'>","null","","","","","","","","","",""
"","html-keyboard-response","246","824666","0.0-12.0-2.14","1px6htx436","one_one","1","direct_first","1","le07es21","1","25","1","1","3","1","Nach Teilnahme würde mich interessieren, was genau untersucht wird ;)","0","1","0","null","","","<img src = 'targets/43.png' width = '100%;'>","null","","","","","","","","","",""
"","html-keyboard-response","247","826544","0.0-12.0-3.14","1px6htx436","one_one","1","direct_first","1","le07es21","1","25","1","1","3","1","Nach Teilnahme würde mich interessieren, was genau untersucht wird ;)","0","1","0","1875.0050000089686","","","<img src = 'targets/mask.png' width = '100%;'>","68","pos","GS","abstract","3","category3/wang.png","","targets/43.png","indirect","0","30"
"","html-keyboard-response","248","828046","0.0-12.0-0.15","1px6htx436","one_one","1","direct_first","1","le07es21","1","25","1","1","3","1","Nach Teilnahme würde mich interessieren, was genau untersucht wird ;)","0","1","0","null","","","<div style=""font-size:60px;"">+</div>","null","","","","","","","","","",""
"","html-keyboard-response","249","828138","0.0-12.0-1.15","1px6htx436","one_one","1","direct_first","1","le07es21","1","25","1","1","3","1","Nach Teilnahme würde mich interessieren, was genau untersucht wird ;)","0","1","0","null","","","<img src = 'category3/GS1.png' width = '100%;'>","null","","","","","","","","","",""
"","html-keyboard-response","250","828391","0.0-12.0-2.15","1px6htx436","one_one","1","direct_first","1","le07es21","1","25","1","1","3","1","Nach Teilnahme würde mich interessieren, was genau untersucht wird ;)","0","1","0","null","","","<img src = 'targets/22.png' width = '100%;'>","null","","","","","","","","","",""
"","html-keyboard-response","251","829396","0.0-12.0-3.15","1px6htx436","one_one","1","direct_first","1","le07es21","1","25","1","1","3","1","Nach Teilnahme würde mich interessieren, was genau untersucht wird ;)","0","1","0","1002.0100000110688","","","<img src = 'targets/mask.png' width = '100%;'>","75","pos","GS","GSnew","3","category3/GS1.png","","targets/22.png","indirect","1","31"
"","survey-html-form","252","837853","0.0-13.0","1px6htx436","one_one","1","direct_first","1","le07es21","1","25","1","1","3","1","Nach Teilnahme würde mich interessieren, was genau untersucht wird ;)","0","1","0","7955.779999989318","","{}","","","","","","","","","","","",""
"","image-slider-response","253","847575","0.0-14.0-0.0","1px6htx436","one_one","1","direct_first","1","le07es21","1","25","1","1","3","1","Nach Teilnahme würde mich interessieren, was genau untersucht wird ;)","0","1","0","8718.45499999472","","","","","pos","All","all","3","category3/wang_all.png","51","","all","",""
"","image-slider-response","254","854361","0.0-14.0-0.1","1px6htx436","one_one","1","direct_first","1","le07es21","1","25","1","1","3","1","Nach Teilnahme würde mich interessieren, was genau untersucht wird ;)","0","1","0","6784.604999993462","","","","","neg","All","all","4","category4/lin_all.png","40","","all","",""
"","image-slider-response","255","859311","0.0-14.0-0.2","1px6htx436","one_one","1","direct_first","1","le07es21","1","25","1","1","3","1","Nach Teilnahme würde mich interessieren, was genau untersucht wird ;)","0","1","0","4948.729999989155","","","","","pos","All","all","2","category2/men_all.png","44","","all","",""
"","image-slider-response","256","862289","0.0-14.0-0.3","1px6htx436","one_one","1","direct_first","1","le07es21","1","25","1","1","3","1","Nach Teilnahme würde mich interessieren, was genau untersucht wird ;)","0","1","0","2976.615000006859","","","","","neg","All","all","1","category1/ma_all.png","-51","","all","",""
"","survey-text","257","903665","0.0-15.0","1px6htx436","one_one","1","direct_first","1","le07es21","1","25","1","1","3","1","Nach Teilnahme würde mich interessieren, was genau untersucht wird ;)","0","1","0","41368.069999996806","","{""comment"":""Nach Teilnahme würde mich interessieren, was genau untersucht wird ;)""}","","","","","","","","","","","",""
"","survey-html-form","258","927645","0.0-16.0","1px6htx436","one_one","1","direct_first","1","le07es21","1","25","1","1","3","1","Nach Teilnahme würde mich interessieren, was genau untersucht wird ;)","0","1","0","23977.859999999055","","{""hinschauen"":""0"",""ablenkung"":""1"",""gewissenhaft"":""0""}","","","","","","","","","","","",""
