"success","trial_type","trial_index","time_elapsed","internal_node_id","subject","condition","condition_code","measure","measure_code","codeword","gender","age","education","chinese","fach","handedness","comment","hinschauen","ablenkung","gewissenhaft","rt","url","responses","stimulus","key_press","val","type","type_specific","category","cs_selected","response","target","task","indirect","nr_pres"
"true","fullscreen","0","4161","0.0-0.0","3vfjglht24","many_one","0","direct_first","1","ak04et12","1","24","1","1","3","1","","0","1","0","","","","","","","","","","","","","","",""
"","external-html","1","30336","0.0-1.0","3vfjglht24","many_one","0","direct_first","1","ak04et12","1","24","1","1","3","1","","0","1","0","26139.700000174344","text/information.html","","","","","","","","","","","","",""
"","external-html","2","44246","0.0-2.0","3vfjglht24","many_one","0","direct_first","1","ak04et12","1","24","1","1","3","1","","0","1","0","13782.100000185892","text/consent.html","","","","","","","","","","","","",""
"","survey-html-form","3","95012","0.0-3.0","3vfjglht24","many_one","0","direct_first","1","ak04et12","1","24","1","1","3","1","","0","1","0","50762.03000009991","","{""codeword_enter"":""ak04et12""}","","","","","","","","","","","",""
"","survey-html-form","4","111557","0.0-4.0","3vfjglht24","many_one","0","direct_first","1","ak04et12","1","24","1","1","3","1","","0","1","0","16539.094999898225","","{""age"":""24"",""education"":""1"",""subject"":""3"",""gender"":""1"",""handedness"":""1"",""chinese"":""1""}","","","","","","","","","","","",""
"","survey-html-form","5","113120","0.0-5.0","3vfjglht24","many_one","0","direct_first","1","ak04et12","1","24","1","1","3","1","","0","1","0","1559.7149999812245","","{}","","","","","","","","","","","",""
"","html-keyboard-response","6","117137","0.0-6.0-0.0-0.0","3vfjglht24","many_one","0","direct_first","1","ak04et12","1","24","1","1","3","1","","0","1","0","null","","","<div class = 'row'><div class = 'column'><img src = 'uspos/5700.bmp' width = '100%;'></div><div class = 'column'><img src = 'category4/CS3.png' width = '70%;'></div></div>","null","pos","CS","CS","4","category4/CS3.png","","","","",""
"","html-keyboard-response","7","119658","0.0-6.0-0.0-0.1","3vfjglht24","many_one","0","direct_first","1","ak04et12","1","24","1","1","3","1","","0","1","0","null","","","<div class = 'row'><div class = 'column'><img src = 'category3/CS4.png' width = '70%;'></div><div class = 'column'><img src = 'usneg/9435.bmp' width = '100%;'></div></div>","null","neg","CS","CS","3","category3/CS4.png","","","","",""
"","html-keyboard-response","8","122173","0.0-6.0-0.0-0.2","3vfjglht24","many_one","0","direct_first","1","ak04et12","1","24","1","1","3","1","","0","1","0","null","","","<div class = 'row'><div class = 'column'><img src = 'category4/CS8.png' width = '70%;'></div><div class = 'column'><img src = 'uspos/8350.bmp' width = '100%;'></div></div>","null","pos","CS","CS","4","category4/CS8.png","","","","",""
"","html-keyboard-response","9","124696","0.0-6.0-0.0-0.3","3vfjglht24","many_one","0","direct_first","1","ak04et12","1","24","1","1","3","1","","0","1","0","null","","","<div class = 'row'><div class = 'column'><img src = 'uspos/1710.bmp' width = '100%;'></div><div class = 'column'><img src = 'category2/CS8.png' width = '70%;'></div></div>","null","pos","CS","CS","2","category2/CS8.png","","","","",""
"","html-keyboard-response","10","127222","0.0-6.0-0.0-0.4","3vfjglht24","many_one","0","direct_first","1","ak04et12","1","24","1","1","3","1","","0","1","0","null","","","<div class = 'row'><div class = 'column'><img src = 'category1/CS6.png' width = '70%;'></div><div class = 'column'><img src = 'usneg/8485.bmp' width = '100%;'></div></div>","null","neg","CS","CS","1","category1/CS6.png","","","","",""
"","html-keyboard-response","11","129741","0.0-6.0-0.0-0.5","3vfjglht24","many_one","0","direct_first","1","ak04et12","1","24","1","1","3","1","","0","1","0","null","","","<div class = 'row'><div class = 'column'><img src = 'uspos/2057.bmp' width = '100%;'></div><div class = 'column'><img src = 'category2/CS3.png' width = '70%;'></div></div>","null","pos","CS","CS","2","category2/CS3.png","","","","",""
"","html-keyboard-response","12","132264","0.0-6.0-0.0-0.6","3vfjglht24","many_one","0","direct_first","1","ak04et12","1","24","1","1","3","1","","0","1","0","null","","","<div class = 'row'><div class = 'column'><img src = 'category3/CS6.png' width = '70%;'></div><div class = 'column'><img src = 'usneg/9181.bmp' width = '100%;'></div></div>","null","neg","CS","CS","3","category3/CS6.png","","","","",""
"","html-keyboard-response","13","134790","0.0-6.0-0.0-0.7","3vfjglht24","many_one","0","direct_first","1","ak04et12","1","24","1","1","3","1","","0","1","0","null","","","<div class = 'row'><div class = 'column'><img src = 'category3/CS3.png' width = '70%;'></div><div class = 'column'><img src = 'usneg/9180.bmp' width = '100%;'></div></div>","null","neg","CS","CS","3","category3/CS3.png","","","","",""
"","html-keyboard-response","14","137297","0.0-6.0-0.0-0.8","3vfjglht24","many_one","0","direct_first","1","ak04et12","1","24","1","1","3","1","","0","1","0","null","","","<div class = 'row'><div class = 'column'><img src = 'category1/CS4.png' width = '70%;'></div><div class = 'column'><img src = 'usneg/9415.bmp' width = '100%;'></div></div>","null","neg","CS","CS","1","category1/CS4.png","","","","",""
"","html-keyboard-response","15","139810","0.0-6.0-0.0-0.9","3vfjglht24","many_one","0","direct_first","1","ak04et12","1","24","1","1","3","1","","0","1","0","null","","","<div class = 'row'><div class = 'column'><img src = 'usneg/9041.bmp' width = '100%;'></div><div class = 'column'><img src = 'category3/CS7.png' width = '70%;'></div></div>","null","neg","CS","CS","3","category3/CS7.png","","","","",""
"","html-keyboard-response","16","142340","0.0-6.0-0.0-0.10","3vfjglht24","many_one","0","direct_first","1","ak04et12","1","24","1","1","3","1","","0","1","0","null","","","<div class = 'row'><div class = 'column'><img src = 'uspos/4599.bmp' width = '100%;'></div><div class = 'column'><img src = 'category2/CS9.png' width = '70%;'></div></div>","null","pos","CS","CS","2","category2/CS9.png","","","","",""
"","html-keyboard-response","17","144860","0.0-6.0-0.0-0.11","3vfjglht24","many_one","0","direct_first","1","ak04et12","1","24","1","1","3","1","","0","1","0","null","","","<div class = 'row'><div class = 'column'><img src = 'uspos/2360.bmp' width = '100%;'></div><div class = 'column'><img src = 'category4/CS5.png' width = '70%;'></div></div>","null","pos","CS","CS","4","category4/CS5.png","","","","",""
"","html-keyboard-response","18","147383","0.0-6.0-0.0-0.12","3vfjglht24","many_one","0","direct_first","1","ak04et12","1","24","1","1","3","1","","0","1","0","null","","","<div class = 'row'><div class = 'column'><img src = 'category4/CS6.png' width = '70%;'></div><div class = 'column'><img src = 'uspos/2150.bmp' width = '100%;'></div></div>","null","pos","CS","CS","4","category4/CS6.png","","","","",""
"","html-keyboard-response","19","149923","0.0-6.0-0.0-0.13","3vfjglht24","many_one","0","direct_first","1","ak04et12","1","24","1","1","3","1","","0","1","0","null","","","<div class = 'row'><div class = 'column'><img src = 'usneg/9635.2.bmp' width = '100%;'></div><div class = 'column'><img src = 'category1/CS3.png' width = '70%;'></div></div>","null","neg","CS","CS","1","category1/CS3.png","","","","",""
"","html-keyboard-response","20","152445","0.0-6.0-0.0-0.14","3vfjglht24","many_one","0","direct_first","1","ak04et12","1","24","1","1","3","1","","0","1","0","null","","","<div class = 'row'><div class = 'column'><img src = 'category3/CS5.png' width = '70%;'></div><div class = 'column'><img src = 'usneg/3160.bmp' width = '100%;'></div></div>","null","neg","CS","CS","3","category3/CS5.png","","","","",""
"","html-keyboard-response","21","154952","0.0-6.0-0.0-0.15","3vfjglht24","many_one","0","direct_first","1","ak04et12","1","24","1","1","3","1","","0","1","0","null","","","<div class = 'row'><div class = 'column'><img src = 'usneg/6020.bmp' width = '100%;'></div><div class = 'column'><img src = 'category1/CS1.png' width = '70%;'></div></div>","null","neg","CS","CS","1","category1/CS1.png","","","","",""
"","html-keyboard-response","22","157459","0.0-6.0-0.0-0.16","3vfjglht24","many_one","0","direct_first","1","ak04et12","1","24","1","1","3","1","","0","1","0","null","","","<div class = 'row'><div class = 'column'><img src = 'uspos/2530.bmp' width = '100%;'></div><div class = 'column'><img src = 'category2/CS7.png' width = '70%;'></div></div>","null","pos","CS","CS","2","category2/CS7.png","","","","",""
"","html-keyboard-response","23","159966","0.0-6.0-0.0-0.17","3vfjglht24","many_one","0","direct_first","1","ak04et12","1","24","1","1","3","1","","0","1","0","null","","","<div class = 'row'><div class = 'column'><img src = 'category4/CS4.png' width = '70%;'></div><div class = 'column'><img src = 'uspos/4625.bmp' width = '100%;'></div></div>","null","pos","CS","CS","4","category4/CS4.png","","","","",""
"","html-keyboard-response","24","162485","0.0-6.0-0.0-0.18","3vfjglht24","many_one","0","direct_first","1","ak04et12","1","24","1","1","3","1","","0","1","0","null","","","<div class = 'row'><div class = 'column'><img src = 'usneg/2205.bmp' width = '100%;'></div><div class = 'column'><img src = 'category1/CS9.png' width = '70%;'></div></div>","null","neg","CS","CS","1","category1/CS9.png","","","","",""
"","html-keyboard-response","25","165015","0.0-6.0-0.0-0.19","3vfjglht24","many_one","0","direct_first","1","ak04et12","1","24","1","1","3","1","","0","1","0","null","","","<div class = 'row'><div class = 'column'><img src = 'category2/CS10.png' width = '70%;'></div><div class = 'column'><img src = 'uspos/2900.2.bmp' width = '100%;'></div></div>","null","pos","CS","CS","2","category2/CS10.png","","","","",""
"","survey-html-form","26","168103","0.0-6.0-1.0","3vfjglht24","many_one","0","direct_first","1","ak04et12","1","24","1","1","3","1","","0","1","0","2576.4949999284","","{}","","","","","","","","","","","",""
"","html-keyboard-response","27","172128","0.0-6.0-2.0-0.0","3vfjglht24","many_one","0","direct_first","1","ak04et12","1","24","1","1","3","1","","0","1","0","null","","","<div class = 'row'><div class = 'column'><img src = 'uspos/4625.bmp' width = '100%;'></div><div class = 'column'><img src = 'category4/CS4.png' width = '70%;'></div></div>","null","pos","CS","CS","4","category4/CS4.png","","","","",""
"","html-keyboard-response","28","174657","0.0-6.0-2.0-0.1","3vfjglht24","many_one","0","direct_first","1","ak04et12","1","24","1","1","3","1","","0","1","0","null","","","<div class = 'row'><div class = 'column'><img src = 'uspos/8350.bmp' width = '100%;'></div><div class = 'column'><img src = 'category4/CS8.png' width = '70%;'></div></div>","null","pos","CS","CS","4","category4/CS8.png","","","","",""
"","html-keyboard-response","29","177200","0.0-6.0-2.0-0.2","3vfjglht24","many_one","0","direct_first","1","ak04et12","1","24","1","1","3","1","","0","1","0","null","","","<div class = 'row'><div class = 'column'><img src = 'category4/CS3.png' width = '70%;'></div><div class = 'column'><img src = 'uspos/5700.bmp' width = '100%;'></div></div>","null","pos","CS","CS","4","category4/CS3.png","","","","",""
"","html-keyboard-response","30","179724","0.0-6.0-2.0-0.3","3vfjglht24","many_one","0","direct_first","1","ak04et12","1","24","1","1","3","1","","0","1","0","null","","","<div class = 'row'><div class = 'column'><img src = 'category4/CS5.png' width = '70%;'></div><div class = 'column'><img src = 'uspos/2360.bmp' width = '100%;'></div></div>","null","pos","CS","CS","4","category4/CS5.png","","","","",""
"","html-keyboard-response","31","182247","0.0-6.0-2.0-0.4","3vfjglht24","many_one","0","direct_first","1","ak04et12","1","24","1","1","3","1","","0","1","0","null","","","<div class = 'row'><div class = 'column'><img src = 'category1/CS6.png' width = '70%;'></div><div class = 'column'><img src = 'usneg/8485.bmp' width = '100%;'></div></div>","null","neg","CS","CS","1","category1/CS6.png","","","","",""
"","html-keyboard-response","32","184759","0.0-6.0-2.0-0.5","3vfjglht24","many_one","0","direct_first","1","ak04et12","1","24","1","1","3","1","","0","1","0","null","","","<div class = 'row'><div class = 'column'><img src = 'category2/CS3.png' width = '70%;'></div><div class = 'column'><img src = 'uspos/2057.bmp' width = '100%;'></div></div>","null","pos","CS","CS","2","category2/CS3.png","","","","",""
"","html-keyboard-response","33","187279","0.0-6.0-2.0-0.6","3vfjglht24","many_one","0","direct_first","1","ak04et12","1","24","1","1","3","1","","0","1","0","null","","","<div class = 'row'><div class = 'column'><img src = 'usneg/9181.bmp' width = '100%;'></div><div class = 'column'><img src = 'category3/CS6.png' width = '70%;'></div></div>","null","neg","CS","CS","3","category3/CS6.png","","","","",""
"","html-keyboard-response","34","189802","0.0-6.0-2.0-0.7","3vfjglht24","many_one","0","direct_first","1","ak04et12","1","24","1","1","3","1","","0","1","0","null","","","<div class = 'row'><div class = 'column'><img src = 'uspos/2530.bmp' width = '100%;'></div><div class = 'column'><img src = 'category2/CS7.png' width = '70%;'></div></div>","null","pos","CS","CS","2","category2/CS7.png","","","","",""
"","html-keyboard-response","35","192309","0.0-6.0-2.0-0.8","3vfjglht24","many_one","0","direct_first","1","ak04et12","1","24","1","1","3","1","","0","1","0","null","","","<div class = 'row'><div class = 'column'><img src = 'category4/CS6.png' width = '70%;'></div><div class = 'column'><img src = 'uspos/2150.bmp' width = '100%;'></div></div>","null","pos","CS","CS","4","category4/CS6.png","","","","",""
"","html-keyboard-response","36","194830","0.0-6.0-2.0-0.9","3vfjglht24","many_one","0","direct_first","1","ak04et12","1","24","1","1","3","1","","0","1","0","null","","","<div class = 'row'><div class = 'column'><img src = 'category1/CS9.png' width = '70%;'></div><div class = 'column'><img src = 'usneg/2205.bmp' width = '100%;'></div></div>","null","neg","CS","CS","1","category1/CS9.png","","","","",""
"","html-keyboard-response","37","197359","0.0-6.0-2.0-0.10","3vfjglht24","many_one","0","direct_first","1","ak04et12","1","24","1","1","3","1","","0","1","0","null","","","<div class = 'row'><div class = 'column'><img src = 'uspos/1710.bmp' width = '100%;'></div><div class = 'column'><img src = 'category2/CS8.png' width = '70%;'></div></div>","null","pos","CS","CS","2","category2/CS8.png","","","","",""
"","html-keyboard-response","38","199883","0.0-6.0-2.0-0.11","3vfjglht24","many_one","0","direct_first","1","ak04et12","1","24","1","1","3","1","","0","1","0","null","","","<div class = 'row'><div class = 'column'><img src = 'usneg/3160.bmp' width = '100%;'></div><div class = 'column'><img src = 'category3/CS5.png' width = '70%;'></div></div>","null","neg","CS","CS","3","category3/CS5.png","","","","",""
"","html-keyboard-response","39","202407","0.0-6.0-2.0-0.12","3vfjglht24","many_one","0","direct_first","1","ak04et12","1","24","1","1","3","1","","0","1","0","null","","","<div class = 'row'><div class = 'column'><img src = 'uspos/2900.2.bmp' width = '100%;'></div><div class = 'column'><img src = 'category2/CS10.png' width = '70%;'></div></div>","null","pos","CS","CS","2","category2/CS10.png","","","","",""
"","html-keyboard-response","40","204934","0.0-6.0-2.0-0.13","3vfjglht24","many_one","0","direct_first","1","ak04et12","1","24","1","1","3","1","","0","1","0","null","","","<div class = 'row'><div class = 'column'><img src = 'usneg/9041.bmp' width = '100%;'></div><div class = 'column'><img src = 'category3/CS7.png' width = '70%;'></div></div>","null","neg","CS","CS","3","category3/CS7.png","","","","",""
"","html-keyboard-response","41","207456","0.0-6.0-2.0-0.14","3vfjglht24","many_one","0","direct_first","1","ak04et12","1","24","1","1","3","1","","0","1","0","null","","","<div class = 'row'><div class = 'column'><img src = 'category1/CS4.png' width = '70%;'></div><div class = 'column'><img src = 'usneg/9415.bmp' width = '100%;'></div></div>","null","neg","CS","CS","1","category1/CS4.png","","","","",""
"","html-keyboard-response","42","209980","0.0-6.0-2.0-0.15","3vfjglht24","many_one","0","direct_first","1","ak04et12","1","24","1","1","3","1","","0","1","0","null","","","<div class = 'row'><div class = 'column'><img src = 'usneg/9635.2.bmp' width = '100%;'></div><div class = 'column'><img src = 'category1/CS3.png' width = '70%;'></div></div>","null","neg","CS","CS","1","category1/CS3.png","","","","",""
"","html-keyboard-response","43","212505","0.0-6.0-2.0-0.16","3vfjglht24","many_one","0","direct_first","1","ak04et12","1","24","1","1","3","1","","0","1","0","null","","","<div class = 'row'><div class = 'column'><img src = 'usneg/9180.bmp' width = '100%;'></div><div class = 'column'><img src = 'category3/CS3.png' width = '70%;'></div></div>","null","neg","CS","CS","3","category3/CS3.png","","","","",""
"","html-keyboard-response","44","215013","0.0-6.0-2.0-0.17","3vfjglht24","many_one","0","direct_first","1","ak04et12","1","24","1","1","3","1","","0","1","0","null","","","<div class = 'row'><div class = 'column'><img src = 'category1/CS1.png' width = '70%;'></div><div class = 'column'><img src = 'usneg/6020.bmp' width = '100%;'></div></div>","null","neg","CS","CS","1","category1/CS1.png","","","","",""
"","html-keyboard-response","45","217523","0.0-6.0-2.0-0.18","3vfjglht24","many_one","0","direct_first","1","ak04et12","1","24","1","1","3","1","","0","1","0","null","","","<div class = 'row'><div class = 'column'><img src = 'category2/CS9.png' width = '70%;'></div><div class = 'column'><img src = 'uspos/4599.bmp' width = '100%;'></div></div>","null","pos","CS","CS","2","category2/CS9.png","","","","",""
"","html-keyboard-response","46","220032","0.0-6.0-2.0-0.19","3vfjglht24","many_one","0","direct_first","1","ak04et12","1","24","1","1","3","1","","0","1","0","null","","","<div class = 'row'><div class = 'column'><img src = 'category3/CS4.png' width = '70%;'></div><div class = 'column'><img src = 'usneg/9435.bmp' width = '100%;'></div></div>","null","neg","CS","CS","3","category3/CS4.png","","","","",""
"","survey-html-form","47","222995","0.0-6.0-3.0","3vfjglht24","many_one","0","direct_first","1","ak04et12","1","24","1","1","3","1","","0","1","0","2445.4049998894334","","{}","","","","","","","","","","","",""
"","html-keyboard-response","48","227014","0.0-6.0-4.0-0.0","3vfjglht24","many_one","0","direct_first","1","ak04et12","1","24","1","1","3","1","","0","1","0","null","","","<div class = 'row'><div class = 'column'><img src = 'usneg/2205.bmp' width = '100%;'></div><div class = 'column'><img src = 'category1/CS9.png' width = '70%;'></div></div>","null","neg","CS","CS","1","category1/CS9.png","","","","",""
"","html-keyboard-response","49","229522","0.0-6.0-4.0-0.1","3vfjglht24","many_one","0","direct_first","1","ak04et12","1","24","1","1","3","1","","0","1","0","null","","","<div class = 'row'><div class = 'column'><img src = 'usneg/9435.bmp' width = '100%;'></div><div class = 'column'><img src = 'category3/CS4.png' width = '70%;'></div></div>","null","neg","CS","CS","3","category3/CS4.png","","","","",""
"","html-keyboard-response","50","232045","0.0-6.0-4.0-0.2","3vfjglht24","many_one","0","direct_first","1","ak04et12","1","24","1","1","3","1","","0","1","0","null","","","<div class = 'row'><div class = 'column'><img src = 'category4/CS3.png' width = '70%;'></div><div class = 'column'><img src = 'uspos/5700.bmp' width = '100%;'></div></div>","null","pos","CS","CS","4","category4/CS3.png","","","","",""
"","html-keyboard-response","51","234568","0.0-6.0-4.0-0.3","3vfjglht24","many_one","0","direct_first","1","ak04et12","1","24","1","1","3","1","","0","1","0","null","","","<div class = 'row'><div class = 'column'><img src = 'usneg/9180.bmp' width = '100%;'></div><div class = 'column'><img src = 'category3/CS3.png' width = '70%;'></div></div>","null","neg","CS","CS","3","category3/CS3.png","","","","",""
"","html-keyboard-response","52","237076","0.0-6.0-4.0-0.4","3vfjglht24","many_one","0","direct_first","1","ak04et12","1","24","1","1","3","1","","0","1","0","null","","","<div class = 'row'><div class = 'column'><img src = 'category2/CS7.png' width = '70%;'></div><div class = 'column'><img src = 'uspos/2530.bmp' width = '100%;'></div></div>","null","pos","CS","CS","2","category2/CS7.png","","","","",""
"","html-keyboard-response","53","239599","0.0-6.0-4.0-0.5","3vfjglht24","many_one","0","direct_first","1","ak04et12","1","24","1","1","3","1","","0","1","0","null","","","<div class = 'row'><div class = 'column'><img src = 'category1/CS4.png' width = '70%;'></div><div class = 'column'><img src = 'usneg/9415.bmp' width = '100%;'></div></div>","null","neg","CS","CS","1","category1/CS4.png","","","","",""
"","html-keyboard-response","54","242119","0.0-6.0-4.0-0.6","3vfjglht24","many_one","0","direct_first","1","ak04et12","1","24","1","1","3","1","","0","1","0","null","","","<div class = 'row'><div class = 'column'><img src = 'category4/CS8.png' width = '70%;'></div><div class = 'column'><img src = 'uspos/8350.bmp' width = '100%;'></div></div>","null","pos","CS","CS","4","category4/CS8.png","","","","",""
"","html-keyboard-response","55","244642","0.0-6.0-4.0-0.7","3vfjglht24","many_one","0","direct_first","1","ak04et12","1","24","1","1","3","1","","0","1","0","null","","","<div class = 'row'><div class = 'column'><img src = 'uspos/2150.bmp' width = '100%;'></div><div class = 'column'><img src = 'category4/CS6.png' width = '70%;'></div></div>","null","pos","CS","CS","4","category4/CS6.png","","","","",""
"","html-keyboard-response","56","247176","0.0-6.0-4.0-0.8","3vfjglht24","many_one","0","direct_first","1","ak04et12","1","24","1","1","3","1","","0","1","0","null","","","<div class = 'row'><div class = 'column'><img src = 'category3/CS5.png' width = '70%;'></div><div class = 'column'><img src = 'usneg/3160.bmp' width = '100%;'></div></div>","null","neg","CS","CS","3","category3/CS5.png","","","","",""
"","html-keyboard-response","57","249697","0.0-6.0-4.0-0.9","3vfjglht24","many_one","0","direct_first","1","ak04et12","1","24","1","1","3","1","","0","1","0","null","","","<div class = 'row'><div class = 'column'><img src = 'uspos/2360.bmp' width = '100%;'></div><div class = 'column'><img src = 'category4/CS5.png' width = '70%;'></div></div>","null","pos","CS","CS","4","category4/CS5.png","","","","",""
"","html-keyboard-response","58","252225","0.0-6.0-4.0-0.10","3vfjglht24","many_one","0","direct_first","1","ak04et12","1","24","1","1","3","1","","0","1","0","null","","","<div class = 'row'><div class = 'column'><img src = 'category3/CS7.png' width = '70%;'></div><div class = 'column'><img src = 'usneg/9041.bmp' width = '100%;'></div></div>","null","neg","CS","CS","3","category3/CS7.png","","","","",""
"","html-keyboard-response","59","254738","0.0-6.0-4.0-0.11","3vfjglht24","many_one","0","direct_first","1","ak04et12","1","24","1","1","3","1","","0","1","0","null","","","<div class = 'row'><div class = 'column'><img src = 'category3/CS6.png' width = '70%;'></div><div class = 'column'><img src = 'usneg/9181.bmp' width = '100%;'></div></div>","null","neg","CS","CS","3","category3/CS6.png","","","","",""
"","html-keyboard-response","60","257266","0.0-6.0-4.0-0.12","3vfjglht24","many_one","0","direct_first","1","ak04et12","1","24","1","1","3","1","","0","1","0","null","","","<div class = 'row'><div class = 'column'><img src = 'category1/CS1.png' width = '70%;'></div><div class = 'column'><img src = 'usneg/6020.bmp' width = '100%;'></div></div>","null","neg","CS","CS","1","category1/CS1.png","","","","",""
"","html-keyboard-response","61","259773","0.0-6.0-4.0-0.13","3vfjglht24","many_one","0","direct_first","1","ak04et12","1","24","1","1","3","1","","0","1","0","null","","","<div class = 'row'><div class = 'column'><img src = 'uspos/2057.bmp' width = '100%;'></div><div class = 'column'><img src = 'category2/CS3.png' width = '70%;'></div></div>","null","pos","CS","CS","2","category2/CS3.png","","","","",""
"","html-keyboard-response","62","262279","0.0-6.0-4.0-0.14","3vfjglht24","many_one","0","direct_first","1","ak04et12","1","24","1","1","3","1","","0","1","0","null","","","<div class = 'row'><div class = 'column'><img src = 'category2/CS8.png' width = '70%;'></div><div class = 'column'><img src = 'uspos/1710.bmp' width = '100%;'></div></div>","null","pos","CS","CS","2","category2/CS8.png","","","","",""
"","html-keyboard-response","63","264805","0.0-6.0-4.0-0.15","3vfjglht24","many_one","0","direct_first","1","ak04et12","1","24","1","1","3","1","","0","1","0","null","","","<div class = 'row'><div class = 'column'><img src = 'category2/CS10.png' width = '70%;'></div><div class = 'column'><img src = 'uspos/2900.2.bmp' width = '100%;'></div></div>","null","pos","CS","CS","2","category2/CS10.png","","","","",""
"","html-keyboard-response","64","267328","0.0-6.0-4.0-0.16","3vfjglht24","many_one","0","direct_first","1","ak04et12","1","24","1","1","3","1","","0","1","0","null","","","<div class = 'row'><div class = 'column'><img src = 'uspos/4599.bmp' width = '100%;'></div><div class = 'column'><img src = 'category2/CS9.png' width = '70%;'></div></div>","null","pos","CS","CS","2","category2/CS9.png","","","","",""
"","html-keyboard-response","65","269840","0.0-6.0-4.0-0.17","3vfjglht24","many_one","0","direct_first","1","ak04et12","1","24","1","1","3","1","","0","1","0","null","","","<div class = 'row'><div class = 'column'><img src = 'category1/CS6.png' width = '70%;'></div><div class = 'column'><img src = 'usneg/8485.bmp' width = '100%;'></div></div>","null","neg","CS","CS","1","category1/CS6.png","","","","",""
"","html-keyboard-response","66","272358","0.0-6.0-4.0-0.18","3vfjglht24","many_one","0","direct_first","1","ak04et12","1","24","1","1","3","1","","0","1","0","null","","","<div class = 'row'><div class = 'column'><img src = 'category4/CS4.png' width = '70%;'></div><div class = 'column'><img src = 'uspos/4625.bmp' width = '100%;'></div></div>","null","pos","CS","CS","4","category4/CS4.png","","","","",""
"","html-keyboard-response","67","274885","0.0-6.0-4.0-0.19","3vfjglht24","many_one","0","direct_first","1","ak04et12","1","24","1","1","3","1","","0","1","0","null","","","<div class = 'row'><div class = 'column'><img src = 'category1/CS3.png' width = '70%;'></div><div class = 'column'><img src = 'usneg/9635.2.bmp' width = '100%;'></div></div>","null","neg","CS","CS","1","category1/CS3.png","","","","",""
"","survey-html-form","68","276958","0.0-6.0-5.0","3vfjglht24","many_one","0","direct_first","1","ak04et12","1","24","1","1","3","1","","0","1","0","1554.939999943599","","{}","","","","","","","","","","","",""
"","html-keyboard-response","69","280970","0.0-6.0-6.0-0.0","3vfjglht24","many_one","0","direct_first","1","ak04et12","1","24","1","1","3","1","","0","1","0","null","","","<div class = 'row'><div class = 'column'><img src = 'usneg/3160.bmp' width = '100%;'></div><div class = 'column'><img src = 'category3/CS5.png' width = '70%;'></div></div>","null","neg","CS","CS","3","category3/CS5.png","","","","",""
"","html-keyboard-response","70","283501","0.0-6.0-6.0-0.1","3vfjglht24","many_one","0","direct_first","1","ak04et12","1","24","1","1","3","1","","0","1","0","null","","","<div class = 'row'><div class = 'column'><img src = 'category4/CS5.png' width = '70%;'></div><div class = 'column'><img src = 'uspos/2360.bmp' width = '100%;'></div></div>","null","pos","CS","CS","4","category4/CS5.png","","","","",""
"","html-keyboard-response","71","286016","0.0-6.0-6.0-0.2","3vfjglht24","many_one","0","direct_first","1","ak04et12","1","24","1","1","3","1","","0","1","0","null","","","<div class = 'row'><div class = 'column'><img src = 'usneg/9635.2.bmp' width = '100%;'></div><div class = 'column'><img src = 'category1/CS3.png' width = '70%;'></div></div>","null","neg","CS","CS","1","category1/CS3.png","","","","",""
"","html-keyboard-response","72","288524","0.0-6.0-6.0-0.3","3vfjglht24","many_one","0","direct_first","1","ak04et12","1","24","1","1","3","1","","0","1","0","null","","","<div class = 'row'><div class = 'column'><img src = 'uspos/2900.2.bmp' width = '100%;'></div><div class = 'column'><img src = 'category2/CS10.png' width = '70%;'></div></div>","null","pos","CS","CS","2","category2/CS10.png","","","","",""
"","html-keyboard-response","73","291049","0.0-6.0-6.0-0.4","3vfjglht24","many_one","0","direct_first","1","ak04et12","1","24","1","1","3","1","","0","1","0","null","","","<div class = 'row'><div class = 'column'><img src = 'usneg/9041.bmp' width = '100%;'></div><div class = 'column'><img src = 'category3/CS7.png' width = '70%;'></div></div>","null","neg","CS","CS","3","category3/CS7.png","","","","",""
"","html-keyboard-response","74","293574","0.0-6.0-6.0-0.5","3vfjglht24","many_one","0","direct_first","1","ak04et12","1","24","1","1","3","1","","0","1","0","null","","","<div class = 'row'><div class = 'column'><img src = 'category1/CS4.png' width = '70%;'></div><div class = 'column'><img src = 'usneg/9415.bmp' width = '100%;'></div></div>","null","neg","CS","CS","1","category1/CS4.png","","","","",""
"","html-keyboard-response","75","296087","0.0-6.0-6.0-0.6","3vfjglht24","many_one","0","direct_first","1","ak04et12","1","24","1","1","3","1","","0","1","0","null","","","<div class = 'row'><div class = 'column'><img src = 'category3/CS4.png' width = '70%;'></div><div class = 'column'><img src = 'usneg/9435.bmp' width = '100%;'></div></div>","null","neg","CS","CS","3","category3/CS4.png","","","","",""
"","html-keyboard-response","76","298609","0.0-6.0-6.0-0.7","3vfjglht24","many_one","0","direct_first","1","ak04et12","1","24","1","1","3","1","","0","1","0","null","","","<div class = 'row'><div class = 'column'><img src = 'uspos/2057.bmp' width = '100%;'></div><div class = 'column'><img src = 'category2/CS3.png' width = '70%;'></div></div>","null","pos","CS","CS","2","category2/CS3.png","","","","",""
"","html-keyboard-response","77","301132","0.0-6.0-6.0-0.8","3vfjglht24","many_one","0","direct_first","1","ak04et12","1","24","1","1","3","1","","0","1","0","null","","","<div class = 'row'><div class = 'column'><img src = 'uspos/8350.bmp' width = '100%;'></div><div class = 'column'><img src = 'category4/CS8.png' width = '70%;'></div></div>","null","pos","CS","CS","4","category4/CS8.png","","","","",""
"","html-keyboard-response","78","303669","0.0-6.0-6.0-0.9","3vfjglht24","many_one","0","direct_first","1","ak04et12","1","24","1","1","3","1","","0","1","0","null","","","<div class = 'row'><div class = 'column'><img src = 'uspos/4599.bmp' width = '100%;'></div><div class = 'column'><img src = 'category2/CS9.png' width = '70%;'></div></div>","null","pos","CS","CS","2","category2/CS9.png","","","","",""
"","html-keyboard-response","79","306195","0.0-6.0-6.0-0.10","3vfjglht24","many_one","0","direct_first","1","ak04et12","1","24","1","1","3","1","","0","1","0","null","","","<div class = 'row'><div class = 'column'><img src = 'uspos/1710.bmp' width = '100%;'></div><div class = 'column'><img src = 'category2/CS8.png' width = '70%;'></div></div>","null","pos","CS","CS","2","category2/CS8.png","","","","",""
"","html-keyboard-response","80","308702","0.0-6.0-6.0-0.11","3vfjglht24","many_one","0","direct_first","1","ak04et12","1","24","1","1","3","1","","0","1","0","null","","","<div class = 'row'><div class = 'column'><img src = 'category1/CS9.png' width = '70%;'></div><div class = 'column'><img src = 'usneg/2205.bmp' width = '100%;'></div></div>","null","neg","CS","CS","1","category1/CS9.png","","","","",""
"","html-keyboard-response","81","311224","0.0-6.0-6.0-0.12","3vfjglht24","many_one","0","direct_first","1","ak04et12","1","24","1","1","3","1","","0","1","0","null","","","<div class = 'row'><div class = 'column'><img src = 'usneg/6020.bmp' width = '100%;'></div><div class = 'column'><img src = 'category1/CS1.png' width = '70%;'></div></div>","null","neg","CS","CS","1","category1/CS1.png","","","","",""
"","html-keyboard-response","82","313732","0.0-6.0-6.0-0.13","3vfjglht24","many_one","0","direct_first","1","ak04et12","1","24","1","1","3","1","","0","1","0","null","","","<div class = 'row'><div class = 'column'><img src = 'category4/CS6.png' width = '70%;'></div><div class = 'column'><img src = 'uspos/2150.bmp' width = '100%;'></div></div>","null","pos","CS","CS","4","category4/CS6.png","","","","",""
"","html-keyboard-response","83","316259","0.0-6.0-6.0-0.14","3vfjglht24","many_one","0","direct_first","1","ak04et12","1","24","1","1","3","1","","0","1","0","null","","","<div class = 'row'><div class = 'column'><img src = 'usneg/9181.bmp' width = '100%;'></div><div class = 'column'><img src = 'category3/CS6.png' width = '70%;'></div></div>","null","neg","CS","CS","3","category3/CS6.png","","","","",""
"","html-keyboard-response","84","318782","0.0-6.0-6.0-0.15","3vfjglht24","many_one","0","direct_first","1","ak04et12","1","24","1","1","3","1","","0","1","0","null","","","<div class = 'row'><div class = 'column'><img src = 'category4/CS4.png' width = '70%;'></div><div class = 'column'><img src = 'uspos/4625.bmp' width = '100%;'></div></div>","null","pos","CS","CS","4","category4/CS4.png","","","","",""
"","html-keyboard-response","85","321304","0.0-6.0-6.0-0.16","3vfjglht24","many_one","0","direct_first","1","ak04et12","1","24","1","1","3","1","","0","1","0","null","","","<div class = 'row'><div class = 'column'><img src = 'uspos/2530.bmp' width = '100%;'></div><div class = 'column'><img src = 'category2/CS7.png' width = '70%;'></div></div>","null","pos","CS","CS","2","category2/CS7.png","","","","",""
"","html-keyboard-response","86","323813","0.0-6.0-6.0-0.17","3vfjglht24","many_one","0","direct_first","1","ak04et12","1","24","1","1","3","1","","0","1","0","null","","","<div class = 'row'><div class = 'column'><img src = 'usneg/8485.bmp' width = '100%;'></div><div class = 'column'><img src = 'category1/CS6.png' width = '70%;'></div></div>","null","neg","CS","CS","1","category1/CS6.png","","","","",""
"","html-keyboard-response","87","326341","0.0-6.0-6.0-0.18","3vfjglht24","many_one","0","direct_first","1","ak04et12","1","24","1","1","3","1","","0","1","0","null","","","<div class = 'row'><div class = 'column'><img src = 'usneg/9180.bmp' width = '100%;'></div><div class = 'column'><img src = 'category3/CS3.png' width = '70%;'></div></div>","null","neg","CS","CS","3","category3/CS3.png","","","","",""
"","html-keyboard-response","88","328850","0.0-6.0-6.0-0.19","3vfjglht24","many_one","0","direct_first","1","ak04et12","1","24","1","1","3","1","","0","1","0","null","","","<div class = 'row'><div class = 'column'><img src = 'uspos/5700.bmp' width = '100%;'></div><div class = 'column'><img src = 'category4/CS3.png' width = '70%;'></div></div>","null","pos","CS","CS","4","category4/CS3.png","","","","",""
"","survey-html-form","89","335691","0.0-7.0","3vfjglht24","many_one","0","direct_first","1","ak04et12","1","24","1","1","3","1","","0","1","0","6338.2800000254065","","{}","","","","","","","","","","","",""
"","image-slider-response","90","342571","0.0-8.0-0.0","3vfjglht24","many_one","0","direct_first","1","ak04et12","1","24","1","1","3","1","","0","1","0","4863.464999943972","","","","","pos","CS","CS","2","category2/CS3.png","58","targets/26.png","direct","",""
"","image-slider-response","91","346066","0.0-8.0-0.1","3vfjglht24","many_one","0","direct_first","1","ak04et12","1","24","1","1","3","1","","0","1","0","3490.860000019893","","","","","pos","GS","GSold","4","category4/CS10.png","36","targets/23.png","direct","",""
"","image-slider-response","92","349814","0.0-8.0-0.2","3vfjglht24","many_one","0","direct_first","1","ak04et12","1","24","1","1","3","1","","0","1","0","3745.9299999754876","","","","","neg","CS","CS","3","category3/CS5.png","-75","targets/48.png","direct","",""
"","image-slider-response","93","356095","0.0-8.0-0.3","3vfjglht24","many_one","0","direct_first","1","ak04et12","1","24","1","1","3","1","","0","1","0","6278.320000041276","","","","","pos","GS","GSold","2","category2/CS4.png","-21","targets/32.png","direct","",""
"","image-slider-response","94","359770","0.0-8.0-0.4","3vfjglht24","many_one","0","direct_first","1","ak04et12","1","24","1","1","3","1","","0","1","0","3671.9649999868125","","","","","pos","CS","CS","4","category4/CS4.png","52","targets/15.png","direct","",""
"","image-slider-response","95","362914","0.0-8.0-0.5","3vfjglht24","many_one","0","direct_first","1","ak04et12","1","24","1","1","3","1","","0","1","0","3141.2299999501556","","","","","pos","GS","GSnew","4","category4/GS1.png","50","targets/2.png","direct","",""
"","image-slider-response","96","366758","0.0-8.0-0.6","3vfjglht24","many_one","0","direct_first","1","ak04et12","1","24","1","1","3","1","","0","1","0","3841.859999811277","","","","","pos","CS","CS","4","category4/CS5.png","97","targets/9.png","direct","",""
"","image-slider-response","97","370165","0.0-8.0-0.7","3vfjglht24","many_one","0","direct_first","1","ak04et12","1","24","1","1","3","1","","0","1","0","3403.720000060275","","","","","pos","CS","CS","2","category2/CS10.png","59","targets/8.png","direct","",""
"","image-slider-response","98","373541","0.0-8.0-0.8","3vfjglht24","many_one","0","direct_first","1","ak04et12","1","24","1","1","3","1","","0","1","0","3373.9300000015646","","","","","neg","GS","GSnew","3","category3/GS2.png","-100","targets/5.png","direct","",""
"","image-slider-response","99","379175","0.0-8.0-0.9","3vfjglht24","many_one","0","direct_first","1","ak04et12","1","24","1","1","3","1","","0","1","0","5631.639999803156","","","","","neg","GS","GSold","1","category1/CS8.png","-60","targets/25.png","direct","",""
"","image-slider-response","100","382398","0.0-8.0-0.10","3vfjglht24","many_one","0","direct_first","1","ak04et12","1","24","1","1","3","1","","0","1","0","3220.919999992475","","","","","neg","CS","CS","1","category1/CS4.png","-88","targets/38.png","direct","",""
"","image-slider-response","101","385123","0.0-8.0-0.11","3vfjglht24","many_one","0","direct_first","1","ak04et12","1","24","1","1","3","1","","0","1","0","2721.7250000685453","","","","","pos","GS","GSold","4","category4/CS7.png","45","targets/46.png","direct","",""
"","image-slider-response","102","388464","0.0-8.0-0.12","3vfjglht24","many_one","0","direct_first","1","ak04et12","1","24","1","1","3","1","","0","1","0","3339.295000070706","","","","","neg","GS","GSnew","1","category1/GS3.png","-11","targets/12.png","direct","",""
"","image-slider-response","103","392578","0.0-8.0-0.13","3vfjglht24","many_one","0","direct_first","1","ak04et12","1","24","1","1","3","1","","0","1","0","4111.670000012964","","","","","pos","GS","GSnew","4","category4/GS2.png","22","targets/17.png","direct","",""
"","image-slider-response","104","401835","0.0-8.0-0.14","3vfjglht24","many_one","0","direct_first","1","ak04et12","1","24","1","1","3","1","","0","1","0","9253.500000108033","","","","","neg","CS","CS","3","category3/CS4.png","-88","targets/4.png","direct","",""
"","image-slider-response","105","404789","0.0-8.0-0.15","3vfjglht24","many_one","0","direct_first","1","ak04et12","1","24","1","1","3","1","","0","1","0","2951.13499998115","","","","","neg","CS","CS","3","category3/CS6.png","-86","targets/30.png","direct","",""
"","image-slider-response","106","408971","0.0-8.0-0.16","3vfjglht24","many_one","0","direct_first","1","ak04et12","1","24","1","1","3","1","","0","1","0","4179.544999962673","","","","","neg","GS","GSnew","1","category1/GS2.png","-19","targets/41.png","direct","",""
"","image-slider-response","107","411827","0.0-8.0-0.17","3vfjglht24","many_one","0","direct_first","1","ak04et12","1","24","1","1","3","1","","0","1","0","2853.1800000928342","","","","","pos","CS","CS","4","category4/CS3.png","56","targets/28.png","direct","",""
"","image-slider-response","108","415107","0.0-8.0-0.18","3vfjglht24","many_one","0","direct_first","1","ak04et12","1","24","1","1","3","1","","0","1","0","3278.679999988526","","","","","pos","GS","GSold","2","category2/CS5.png","22","targets/13.png","direct","",""
"","image-slider-response","109","419079","0.0-8.0-0.19","3vfjglht24","many_one","0","direct_first","1","ak04et12","1","24","1","1","3","1","","0","1","0","3968.7349998857826","","","","","pos","CS","CS","4","category4/CS8.png","80","targets/34.png","direct","",""
"","image-slider-response","110","422755","0.0-8.0-0.20","3vfjglht24","many_one","0","direct_first","1","ak04et12","1","24","1","1","3","1","","0","1","0","3673.33500017412","","","","","pos","CS","CS","2","category2/CS7.png","67","targets/42.png","direct","",""
"","image-slider-response","111","427146","0.0-8.0-0.21","3vfjglht24","many_one","0","direct_first","1","ak04et12","1","24","1","1","3","1","","0","1","0","4386.755000101402","","","","","neg","CS","CS","1","category1/CS3.png","-76","targets/11.png","direct","",""
"","image-slider-response","112","431410","0.0-8.0-0.22","3vfjglht24","many_one","0","direct_first","1","ak04et12","1","24","1","1","3","1","","0","1","0","4261.929999804124","","","","","pos","GS","abstract","4","category4/lin.png","26","targets/6.png","direct","",""
"","image-slider-response","113","434237","0.0-8.0-0.23","3vfjglht24","many_one","0","direct_first","1","ak04et12","1","24","1","1","3","1","","0","1","0","2823.7749999389052","","","","","neg","CS","CS","1","category1/CS9.png","-45","targets/39.png","direct","",""
"","image-slider-response","114","439296","0.0-8.0-0.24","3vfjglht24","many_one","0","direct_first","1","ak04et12","1","24","1","1","3","1","","0","1","0","5055.990000022575","","","","","neg","CS","CS","1","category1/CS6.png","-31","targets/20.png","direct","",""
"","image-slider-response","115","443312","0.0-8.0-0.25","3vfjglht24","many_one","0","direct_first","1","ak04et12","1","24","1","1","3","1","","0","1","0","4012.269999831915","","","","","neg","GS","GSnew","3","category3/GS3.png","-98","targets/21.png","direct","",""
"","image-slider-response","116","446544","0.0-8.0-0.26","3vfjglht24","many_one","0","direct_first","1","ak04et12","1","24","1","1","3","1","","0","1","0","3229.924999875948","","","","","neg","CS","CS","3","category3/CS3.png","-96","targets/36.png","direct","",""
"","image-slider-response","117","450808","0.0-8.0-0.27","3vfjglht24","many_one","0","direct_first","1","ak04et12","1","24","1","1","3","1","","0","1","0","4260.699999984354","","","","","neg","GS","abstract","3","category3/wang.png","-87","targets/29.png","direct","",""
"","image-slider-response","118","454176","0.0-8.0-0.28","3vfjglht24","many_one","0","direct_first","1","ak04et12","1","24","1","1","3","1","","0","1","0","3364.869999932125","","","","","neg","CS","CS","3","category3/CS7.png","-90","targets/45.png","direct","",""
"","image-slider-response","119","457600","0.0-8.0-0.29","3vfjglht24","many_one","0","direct_first","1","ak04et12","1","24","1","1","3","1","","0","1","0","3421.940000029281","","","","","pos","CS","CS","2","category2/CS9.png","65","targets/19.png","direct","",""
"","image-slider-response","120","461431","0.0-8.0-0.30","3vfjglht24","many_one","0","direct_first","1","ak04et12","1","24","1","1","3","1","","0","1","0","3828.8850001990795","","","","","pos","GS","GSnew","2","category2/GS2.png","90","targets/16.png","direct","",""
"","image-slider-response","121","466861","0.0-8.0-0.31","3vfjglht24","many_one","0","direct_first","1","ak04et12","1","24","1","1","3","1","","0","1","0","5426.734999986365","","","","","neg","CS","CS","1","category1/CS1.png","-55","targets/27.png","direct","",""
"","image-slider-response","122","469597","0.0-8.0-0.32","3vfjglht24","many_one","0","direct_first","1","ak04et12","1","24","1","1","3","1","","0","1","0","2733.3050000015646","","","","","pos","GS","GSold","2","category2/CS1.png","38","targets/18.png","direct","",""
"","image-slider-response","123","472318","0.0-8.0-0.33","3vfjglht24","many_one","0","direct_first","1","ak04et12","1","24","1","1","3","1","","0","1","0","2719.3650000263005","","","","","pos","CS","CS","2","category2/CS8.png","76","targets/40.png","direct","",""
"","image-slider-response","124","475413","0.0-8.0-0.34","3vfjglht24","many_one","0","direct_first","1","ak04et12","1","24","1","1","3","1","","0","1","0","3092.2199999913573","","","","","neg","GS","GSold","3","category3/CS1.png","-90","targets/1.png","direct","",""
"","image-slider-response","125","481253","0.0-8.0-0.35","3vfjglht24","many_one","0","direct_first","1","ak04et12","1","24","1","1","3","1","","0","1","0","5838.039999827743","","","","","pos","GS","GSnew","4","category4/GS3.png","97","targets/22.png","direct","",""
"","image-slider-response","126","484959","0.0-8.0-0.36","3vfjglht24","many_one","0","direct_first","1","ak04et12","1","24","1","1","3","1","","0","1","0","3702.874999959022","","","","","pos","CS","CS","4","category4/CS6.png","81","targets/3.png","direct","",""
"","image-slider-response","127","488968","0.0-8.0-0.37","3vfjglht24","many_one","0","direct_first","1","ak04et12","1","24","1","1","3","1","","0","1","0","4005.6700001005083","","","","","neg","GS","GSold","3","category3/CS8.png","-100","targets/31.png","direct","",""
"","image-slider-response","128","491897","0.0-8.0-0.38","3vfjglht24","many_one","0","direct_first","1","ak04et12","1","24","1","1","3","1","","0","1","0","2925.739999860525","","","","","neg","GS","GSold","1","category1/CS7.png","-64","targets/44.png","direct","",""
"","image-slider-response","129","495438","0.0-8.0-0.39","3vfjglht24","many_one","0","direct_first","1","ak04et12","1","24","1","1","3","1","","0","1","0","3538.99999987334","","","","","pos","GS","GSnew","2","category2/GS1.png","21","targets/14.png","direct","",""
"","image-slider-response","130","499713","0.0-8.0-0.40","3vfjglht24","many_one","0","direct_first","1","ak04et12","1","24","1","1","3","1","","0","1","0","4272.554999915883","","","","","neg","GS","GSnew","1","category1/GS1.png","20","targets/35.png","direct","",""
"","image-slider-response","131","503013","0.0-8.0-0.41","3vfjglht24","many_one","0","direct_first","1","ak04et12","1","24","1","1","3","1","","0","1","0","3296.7149999458343","","","","","pos","GS","GSnew","2","category2/GS3.png","58","targets/33.png","direct","",""
"","image-slider-response","132","507162","0.0-8.0-0.42","3vfjglht24","many_one","0","direct_first","1","ak04et12","1","24","1","1","3","1","","0","1","0","4146.149999927729","","","","","neg","GS","abstract","1","category1/ma.png","-95","targets/47.png","direct","",""
"","image-slider-response","133","512478","0.0-8.0-0.43","3vfjglht24","many_one","0","direct_first","1","ak04et12","1","24","1","1","3","1","","0","1","0","5313.839999958873","","","","","pos","GS","abstract","2","category2/men.png","97","targets/7.png","direct","",""
"","image-slider-response","134","518304","0.0-8.0-0.44","3vfjglht24","many_one","0","direct_first","1","ak04et12","1","24","1","1","3","1","","0","1","0","5822.919999947771","","","","","neg","GS","GSold","1","category1/CS2.png","-59","targets/43.png","direct","",""
"","image-slider-response","135","522098","0.0-8.0-0.45","3vfjglht24","many_one","0","direct_first","1","ak04et12","1","24","1","1","3","1","","0","1","0","3791.4799998980016","","","","","neg","GS","GSold","3","category3/CS10.png","-99","targets/10.png","direct","",""
"","image-slider-response","136","525442","0.0-8.0-0.46","3vfjglht24","many_one","0","direct_first","1","ak04et12","1","24","1","1","3","1","","0","1","0","3341.065000044182","","","","","pos","GS","GSold","4","category4/CS1.png","91","targets/37.png","direct","",""
"","image-slider-response","137","531205","0.0-8.0-0.47","3vfjglht24","many_one","0","direct_first","1","ak04et12","1","24","1","1","3","1","","0","1","0","5761.0800000838935","","","","","neg","GS","GSnew","3","category3/GS1.png","-96","targets/24.png","direct","",""
"","html-keyboard-response","138","547576","0.0-9.0","3vfjglht24","many_one","0","direct_first","1","ak04et12","1","24","1","1","3","1","","0","1","0","16368.345000082627","","","<p>Sie sehen nun die chinesischen Zeichen nur ganz kurz. Danach sehen Sie die jeweilige Aussprache der Zeichen als Silbe auf dem Bildschrim. Ihre Aufgabe ist es, für jede Silbe anzugeben, ob diese etwas angenehmes, oder unangenehmes bedeuten könnte. Verlassen Sie sich hier vor allem auf Ihre Intuition.<br><br>Die Zeichen werden nur zur Orientierung dargestellt, beachten Sie sie deshalb nicht. Konzentrieren Sie sich vor allem auf die Silben. <br>Reagieren Sie mit folgenden zwei Tasten: <br><br><b>'D' </b> wenn die Silbe etwas <b>unangenehmes</b> bedeuten könnte. <br><b>'K'</b> wenn die Silbe etwas <b>angenehmes</b> bedeuten könnte. <br><br>Bitte legen Sie nun den Zeigefinger der linken Hand auf die Taste 'D' und den Zeigefinger der rechten Hand auf die Taste 'K'. <br>Reagieren Sie auf jede Silbe so schnell wie möglich. Uns interessiert Ihre spontane Reaktion. <br> <br> <br>Drücken Sie 'D' oder 'K', um die nächste Aufgabe zu starten. </p>","75","","","","","","","","","",""
"","html-keyboard-response","139","550592","0.0-10.0-0.0","3vfjglht24","many_one","0","direct_first","1","ak04et12","1","24","1","1","3","1","","0","1","0","null","","","<div style=""font-size:60px;"">+</div>","null","","","","","","","","","",""
"","html-keyboard-response","140","550686","0.0-10.0-1.0","3vfjglht24","many_one","0","direct_first","1","ak04et12","1","24","1","1","3","1","","0","1","0","null","","","<img src = 'category1/CS1.png' width = '100%;'>","null","","","","","","","","","",""
"","html-keyboard-response","141","550956","0.0-10.0-2.0","3vfjglht24","many_one","0","direct_first","1","ak04et12","1","24","1","1","3","1","","0","1","0","null","","","<img src = 'targets/27.png' width = '100%;'>","null","","","","","","","","","",""
"","html-keyboard-response","142","555260","0.0-10.0-3.0","3vfjglht24","many_one","0","direct_first","1","ak04et12","1","24","1","1","3","1","","0","1","0","4302.794999908656","","","<img src = 'targets/mask.png' width = '100%;'>","75","neg","CS","CS","1","category1/CS1.png","","targets/27.png","indirect","1","0"
"","html-keyboard-response","143","556770","0.0-10.0-0.1","3vfjglht24","many_one","0","direct_first","1","ak04et12","1","24","1","1","3","1","","0","1","0","null","","","<div style=""font-size:60px;"">+</div>","null","","","","","","","","","",""
"","html-keyboard-response","144","556869","0.0-10.0-1.1","3vfjglht24","many_one","0","direct_first","1","ak04et12","1","24","1","1","3","1","","0","1","0","null","","","<img src = 'category1/CS9.png' width = '100%;'>","null","","","","","","","","","",""
"","html-keyboard-response","145","557138","0.0-10.0-2.1","3vfjglht24","many_one","0","direct_first","1","ak04et12","1","24","1","1","3","1","","0","1","0","null","","","<img src = 'targets/39.png' width = '100%;'>","null","","","","","","","","","",""
"","html-keyboard-response","146","558400","0.0-10.0-3.1","3vfjglht24","many_one","0","direct_first","1","ak04et12","1","24","1","1","3","1","","0","1","0","1260.9450002200902","","","<img src = 'targets/mask.png' width = '100%;'>","68","neg","CS","CS","1","category1/CS9.png","","targets/39.png","indirect","0","1"
"","html-keyboard-response","147","559911","0.0-10.0-0.2","3vfjglht24","many_one","0","direct_first","1","ak04et12","1","24","1","1","3","1","","0","1","0","null","","","<div style=""font-size:60px;"">+</div>","null","","","","","","","","","",""
"","html-keyboard-response","148","560008","0.0-10.0-1.2","3vfjglht24","many_one","0","direct_first","1","ak04et12","1","24","1","1","3","1","","0","1","0","null","","","<img src = 'category1/CS3.png' width = '100%;'>","null","","","","","","","","","",""
"","html-keyboard-response","149","560278","0.0-10.0-2.2","3vfjglht24","many_one","0","direct_first","1","ak04et12","1","24","1","1","3","1","","0","1","0","null","","","<img src = 'targets/11.png' width = '100%;'>","null","","","","","","","","","",""
"","html-keyboard-response","150","560950","0.0-10.0-3.2","3vfjglht24","many_one","0","direct_first","1","ak04et12","1","24","1","1","3","1","","0","1","0","670.285000000149","","","<img src = 'targets/mask.png' width = '100%;'>","68","neg","CS","CS","1","category1/CS3.png","","targets/11.png","indirect","0","2"
"","html-keyboard-response","151","562459","0.0-10.0-0.3","3vfjglht24","many_one","0","direct_first","1","ak04et12","1","24","1","1","3","1","","0","1","0","null","","","<div style=""font-size:60px;"">+</div>","null","","","","","","","","","",""
"","html-keyboard-response","152","562557","0.0-10.0-1.3","3vfjglht24","many_one","0","direct_first","1","ak04et12","1","24","1","1","3","1","","0","1","0","null","","","<img src = 'category1/CS4.png' width = '100%;'>","null","","","","","","","","","",""
"","html-keyboard-response","153","562824","0.0-10.0-2.3","3vfjglht24","many_one","0","direct_first","1","ak04et12","1","24","1","1","3","1","","0","1","0","null","","","<img src = 'targets/38.png' width = '100%;'>","null","","","","","","","","","",""
"","html-keyboard-response","154","563093","0.0-10.0-3.3","3vfjglht24","many_one","0","direct_first","1","ak04et12","1","24","1","1","3","1","","0","1","0","267.44500012136996","","","<img src = 'targets/mask.png' width = '100%;'>","68","neg","CS","CS","1","category1/CS4.png","","targets/38.png","indirect","0","3"
"","html-keyboard-response","155","564620","0.0-10.0-0.4","3vfjglht24","many_one","0","direct_first","1","ak04et12","1","24","1","1","3","1","","0","1","0","null","","","<div style=""font-size:60px;"">+</div>","null","","","","","","","","","",""
"","html-keyboard-response","156","564712","0.0-10.0-1.4","3vfjglht24","many_one","0","direct_first","1","ak04et12","1","24","1","1","3","1","","0","1","0","null","","","<img src = 'category2/CS8.png' width = '100%;'>","null","","","","","","","","","",""
"","html-keyboard-response","157","564974","0.0-10.0-2.4","3vfjglht24","many_one","0","direct_first","1","ak04et12","1","24","1","1","3","1","","0","1","0","null","","","<img src = 'targets/40.png' width = '100%;'>","null","","","","","","","","","",""
"","html-keyboard-response","158","565289","0.0-10.0-3.4","3vfjglht24","many_one","0","direct_first","1","ak04et12","1","24","1","1","3","1","","0","1","0","313.8900001067668","","","<img src = 'targets/mask.png' width = '100%;'>","75","pos","CS","CS","2","category2/CS8.png","","targets/40.png","indirect","1","4"
"","html-keyboard-response","159","566799","0.0-10.0-0.5","3vfjglht24","many_one","0","direct_first","1","ak04et12","1","24","1","1","3","1","","0","1","0","null","","","<div style=""font-size:60px;"">+</div>","null","","","","","","","","","",""
"","html-keyboard-response","160","566900","0.0-10.0-1.5","3vfjglht24","many_one","0","direct_first","1","ak04et12","1","24","1","1","3","1","","0","1","0","null","","","<img src = 'category4/CS6.png' width = '100%;'>","null","","","","","","","","","",""
"","html-keyboard-response","161","567170","0.0-10.0-2.5","3vfjglht24","many_one","0","direct_first","1","ak04et12","1","24","1","1","3","1","","0","1","0","null","","","<img src = 'targets/3.png' width = '100%;'>","null","","","","","","","","","",""
"","html-keyboard-response","162","567528","0.0-10.0-3.5","3vfjglht24","many_one","0","direct_first","1","ak04et12","1","24","1","1","3","1","","0","1","0","356.50500003248453","","","<img src = 'targets/mask.png' width = '100%;'>","75","pos","CS","CS","4","category4/CS6.png","","targets/3.png","indirect","1","5"
"","html-keyboard-response","163","569042","0.0-10.0-0.6","3vfjglht24","many_one","0","direct_first","1","ak04et12","1","24","1","1","3","1","","0","1","0","null","","","<div style=""font-size:60px;"">+</div>","null","","","","","","","","","",""
"","html-keyboard-response","164","569146","0.0-10.0-1.6","3vfjglht24","many_one","0","direct_first","1","ak04et12","1","24","1","1","3","1","","0","1","0","null","","","<img src = 'category4/CS3.png' width = '100%;'>","null","","","","","","","","","",""
"","html-keyboard-response","165","569409","0.0-10.0-2.6","3vfjglht24","many_one","0","direct_first","1","ak04et12","1","24","1","1","3","1","","0","1","0","null","","","<img src = 'targets/28.png' width = '100%;'>","null","","","","","","","","","",""
"","html-keyboard-response","166","569636","0.0-10.0-3.6","3vfjglht24","many_one","0","direct_first","1","ak04et12","1","24","1","1","3","1","","0","1","0","225.5550001282245","","","<img src = 'targets/mask.png' width = '100%;'>","75","pos","CS","CS","4","category4/CS3.png","","targets/28.png","indirect","1","6"
"","html-keyboard-response","167","571147","0.0-10.0-0.7","3vfjglht24","many_one","0","direct_first","1","ak04et12","1","24","1","1","3","1","","0","1","0","null","","","<div style=""font-size:60px;"">+</div>","null","","","","","","","","","",""
"","html-keyboard-response","168","571245","0.0-10.0-1.7","3vfjglht24","many_one","0","direct_first","1","ak04et12","1","24","1","1","3","1","","0","1","0","null","","","<img src = 'category3/CS3.png' width = '100%;'>","null","","","","","","","","","",""
"","html-keyboard-response","169","571516","0.0-10.0-2.7","3vfjglht24","many_one","0","direct_first","1","ak04et12","1","24","1","1","3","1","","0","1","0","null","","","<img src = 'targets/36.png' width = '100%;'>","null","","","","","","","","","",""
"","html-keyboard-response","170","571744","0.0-10.0-3.7","3vfjglht24","many_one","0","direct_first","1","ak04et12","1","24","1","1","3","1","","0","1","0","227.47000004164875","","","<img src = 'targets/mask.png' width = '100%;'>","68","neg","CS","CS","3","category3/CS3.png","","targets/36.png","indirect","0","7"
"","html-keyboard-response","171","573258","0.0-10.0-0.8","3vfjglht24","many_one","0","direct_first","1","ak04et12","1","24","1","1","3","1","","0","1","0","null","","","<div style=""font-size:60px;"">+</div>","null","","","","","","","","","",""
"","html-keyboard-response","172","573354","0.0-10.0-1.8","3vfjglht24","many_one","0","direct_first","1","ak04et12","1","24","1","1","3","1","","0","1","0","null","","","<img src = 'category1/CS6.png' width = '100%;'>","null","","","","","","","","","",""
"","html-keyboard-response","173","573620","0.0-10.0-2.8","3vfjglht24","many_one","0","direct_first","1","ak04et12","1","24","1","1","3","1","","0","1","0","null","","","<img src = 'targets/20.png' width = '100%;'>","null","","","","","","","","","",""
"","html-keyboard-response","174","573968","0.0-10.0-3.8","3vfjglht24","many_one","0","direct_first","1","ak04et12","1","24","1","1","3","1","","0","1","0","345.4899999778718","","","<img src = 'targets/mask.png' width = '100%;'>","68","neg","CS","CS","1","category1/CS6.png","","targets/20.png","indirect","0","8"
"","html-keyboard-response","175","575474","0.0-10.0-0.9","3vfjglht24","many_one","0","direct_first","1","ak04et12","1","24","1","1","3","1","","0","1","0","null","","","<div style=""font-size:60px;"">+</div>","null","","","","","","","","","",""
"","html-keyboard-response","176","575576","0.0-10.0-1.9","3vfjglht24","many_one","0","direct_first","1","ak04et12","1","24","1","1","3","1","","0","1","0","null","","","<img src = 'category2/CS9.png' width = '100%;'>","null","","","","","","","","","",""
"","html-keyboard-response","177","575845","0.0-10.0-2.9","3vfjglht24","many_one","0","direct_first","1","ak04et12","1","24","1","1","3","1","","0","1","0","null","","","<img src = 'targets/19.png' width = '100%;'>","null","","","","","","","","","",""
"","html-keyboard-response","178","576147","0.0-10.0-3.9","3vfjglht24","many_one","0","direct_first","1","ak04et12","1","24","1","1","3","1","","0","1","0","299.9150000978261","","","<img src = 'targets/mask.png' width = '100%;'>","75","pos","CS","CS","2","category2/CS9.png","","targets/19.png","indirect","1","9"
"","html-keyboard-response","179","577666","0.0-10.0-0.10","3vfjglht24","many_one","0","direct_first","1","ak04et12","1","24","1","1","3","1","","0","1","0","null","","","<div style=""font-size:60px;"">+</div>","null","","","","","","","","","",""
"","html-keyboard-response","180","577773","0.0-10.0-1.10","3vfjglht24","many_one","0","direct_first","1","ak04et12","1","24","1","1","3","1","","0","1","0","null","","","<img src = 'category1/CS8.png' width = '100%;'>","null","","","","","","","","","",""
"","html-keyboard-response","181","578037","0.0-10.0-2.10","3vfjglht24","many_one","0","direct_first","1","ak04et12","1","24","1","1","3","1","","0","1","0","null","","","<img src = 'targets/25.png' width = '100%;'>","null","","","","","","","","","",""
"","html-keyboard-response","182","578364","0.0-10.0-3.10","3vfjglht24","many_one","0","direct_first","1","ak04et12","1","24","1","1","3","1","","0","1","0","325.4749998450279","","","<img src = 'targets/mask.png' width = '100%;'>","68","neg","GS","GSold","1","category1/CS8.png","","targets/25.png","indirect","0","10"
"","html-keyboard-response","183","579881","0.0-10.0-0.11","3vfjglht24","many_one","0","direct_first","1","ak04et12","1","24","1","1","3","1","","0","1","0","null","","","<div style=""font-size:60px;"">+</div>","null","","","","","","","","","",""
"","html-keyboard-response","184","579978","0.0-10.0-1.11","3vfjglht24","many_one","0","direct_first","1","ak04et12","1","24","1","1","3","1","","0","1","0","null","","","<img src = 'category1/CS2.png' width = '100%;'>","null","","","","","","","","","",""
"","html-keyboard-response","185","580244","0.0-10.0-2.11","3vfjglht24","many_one","0","direct_first","1","ak04et12","1","24","1","1","3","1","","0","1","0","null","","","<img src = 'targets/43.png' width = '100%;'>","null","","","","","","","","","",""
"","html-keyboard-response","186","580441","0.0-10.0-3.11","3vfjglht24","many_one","0","direct_first","1","ak04et12","1","24","1","1","3","1","","0","1","0","194.92999999783933","","","<img src = 'targets/mask.png' width = '100%;'>","68","neg","GS","GSold","1","category1/CS2.png","","targets/43.png","indirect","0","11"
"","html-keyboard-response","187","581948","0.0-10.0-0.12","3vfjglht24","many_one","0","direct_first","1","ak04et12","1","24","1","1","3","1","","0","1","0","null","","","<div style=""font-size:60px;"">+</div>","null","","","","","","","","","",""
"","html-keyboard-response","188","582049","0.0-10.0-1.12","3vfjglht24","many_one","0","direct_first","1","ak04et12","1","24","1","1","3","1","","0","1","0","null","","","<img src = 'category3/CS5.png' width = '100%;'>","null","","","","","","","","","",""
"","html-keyboard-response","189","582325","0.0-10.0-2.12","3vfjglht24","many_one","0","direct_first","1","ak04et12","1","24","1","1","3","1","","0","1","0","null","","","<img src = 'targets/48.png' width = '100%;'>","null","","","","","","","","","",""
"","html-keyboard-response","190","582520","0.0-10.0-3.12","3vfjglht24","many_one","0","direct_first","1","ak04et12","1","24","1","1","3","1","","0","1","0","193.17499990575016","","","<img src = 'targets/mask.png' width = '100%;'>","75","neg","CS","CS","3","category3/CS5.png","","targets/48.png","indirect","1","12"
"","html-keyboard-response","191","584039","0.0-10.0-0.13","3vfjglht24","many_one","0","direct_first","1","ak04et12","1","24","1","1","3","1","","0","1","0","null","","","<div style=""font-size:60px;"">+</div>","null","","","","","","","","","",""
"","html-keyboard-response","192","584140","0.0-10.0-1.13","3vfjglht24","many_one","0","direct_first","1","ak04et12","1","24","1","1","3","1","","0","1","0","null","","","<img src = 'category3/CS6.png' width = '100%;'>","null","","","","","","","","","",""
"","html-keyboard-response","193","584410","0.0-10.0-2.13","3vfjglht24","many_one","0","direct_first","1","ak04et12","1","24","1","1","3","1","","0","1","0","null","","","<img src = 'targets/30.png' width = '100%;'>","null","","","","","","","","","",""
"","html-keyboard-response","194","584615","0.0-10.0-3.13","3vfjglht24","many_one","0","direct_first","1","ak04et12","1","24","1","1","3","1","","0","1","0","203.44500010833144","","","<img src = 'targets/mask.png' width = '100%;'>","68","neg","CS","CS","3","category3/CS6.png","","targets/30.png","indirect","0","13"
"","html-keyboard-response","195","586129","0.0-10.0-0.14","3vfjglht24","many_one","0","direct_first","1","ak04et12","1","24","1","1","3","1","","0","1","0","null","","","<div style=""font-size:60px;"">+</div>","null","","","","","","","","","",""
"","html-keyboard-response","196","586235","0.0-10.0-1.14","3vfjglht24","many_one","0","direct_first","1","ak04et12","1","24","1","1","3","1","","0","1","0","null","","","<img src = 'category4/CS1.png' width = '100%;'>","null","","","","","","","","","",""
"","html-keyboard-response","197","586502","0.0-10.0-2.14","3vfjglht24","many_one","0","direct_first","1","ak04et12","1","24","1","1","3","1","","0","1","0","null","","","<img src = 'targets/37.png' width = '100%;'>","null","","","","","","","","","",""
"","html-keyboard-response","198","586849","0.0-10.0-3.14","3vfjglht24","many_one","0","direct_first","1","ak04et12","1","24","1","1","3","1","","0","1","0","345.3999999910593","","","<img src = 'targets/mask.png' width = '100%;'>","75","pos","GS","GSold","4","category4/CS1.png","","targets/37.png","indirect","1","14"
"","html-keyboard-response","199","588354","0.0-10.0-0.15","3vfjglht24","many_one","0","direct_first","1","ak04et12","1","24","1","1","3","1","","0","1","0","null","","","<div style=""font-size:60px;"">+</div>","null","","","","","","","","","",""
"","html-keyboard-response","200","588459","0.0-10.0-1.15","3vfjglht24","many_one","0","direct_first","1","ak04et12","1","24","1","1","3","1","","0","1","0","null","","","<img src = 'category4/CS8.png' width = '100%;'>","null","","","","","","","","","",""
"","html-keyboard-response","201","588724","0.0-10.0-2.15","3vfjglht24","many_one","0","direct_first","1","ak04et12","1","24","1","1","3","1","","0","1","0","null","","","<img src = 'targets/34.png' width = '100%;'>","null","","","","","","","","","",""
"","html-keyboard-response","202","589032","0.0-10.0-3.15","3vfjglht24","many_one","0","direct_first","1","ak04et12","1","24","1","1","3","1","","0","1","0","305.99999986588955","","","<img src = 'targets/mask.png' width = '100%;'>","75","pos","CS","CS","4","category4/CS8.png","","targets/34.png","indirect","1","15"
"","html-keyboard-response","203","590561","0.0-10.0-0.16","3vfjglht24","many_one","0","direct_first","1","ak04et12","1","24","1","1","3","1","","0","1","0","null","","","<div style=""font-size:60px;"">+</div>","null","","","","","","","","","",""
"","html-keyboard-response","204","590666","0.0-10.0-1.16","3vfjglht24","many_one","0","direct_first","1","ak04et12","1","24","1","1","3","1","","0","1","0","null","","","<img src = 'category2/CS3.png' width = '100%;'>","null","","","","","","","","","",""
"","html-keyboard-response","205","590931","0.0-10.0-2.16","3vfjglht24","many_one","0","direct_first","1","ak04et12","1","24","1","1","3","1","","0","1","0","null","","","<img src = 'targets/26.png' width = '100%;'>","null","","","","","","","","","",""
"","html-keyboard-response","206","591235","0.0-10.0-3.16","3vfjglht24","many_one","0","direct_first","1","ak04et12","1","24","1","1","3","1","","0","1","0","302.2600000258535","","","<img src = 'targets/mask.png' width = '100%;'>","75","pos","CS","CS","2","category2/CS3.png","","targets/26.png","indirect","1","16"
"","html-keyboard-response","207","592740","0.0-10.0-0.17","3vfjglht24","many_one","0","direct_first","1","ak04et12","1","24","1","1","3","1","","0","1","0","null","","","<div style=""font-size:60px;"">+</div>","null","","","","","","","","","",""
"","html-keyboard-response","208","592846","0.0-10.0-1.17","3vfjglht24","many_one","0","direct_first","1","ak04et12","1","24","1","1","3","1","","0","1","0","null","","","<img src = 'category1/CS7.png' width = '100%;'>","null","","","","","","","","","",""
"","html-keyboard-response","209","593124","0.0-10.0-2.17","3vfjglht24","many_one","0","direct_first","1","ak04et12","1","24","1","1","3","1","","0","1","0","null","","","<img src = 'targets/44.png' width = '100%;'>","null","","","","","","","","","",""
"","html-keyboard-response","210","593460","0.0-10.0-3.17","3vfjglht24","many_one","0","direct_first","1","ak04et12","1","24","1","1","3","1","","0","1","0","333.8949999306351","","","<img src = 'targets/mask.png' width = '100%;'>","68","neg","GS","GSold","1","category1/CS7.png","","targets/44.png","indirect","0","17"
"","html-keyboard-response","211","594974","0.0-10.0-0.18","3vfjglht24","many_one","0","direct_first","1","ak04et12","1","24","1","1","3","1","","0","1","0","null","","","<div style=""font-size:60px;"">+</div>","null","","","","","","","","","",""
"","html-keyboard-response","212","595072","0.0-10.0-1.18","3vfjglht24","many_one","0","direct_first","1","ak04et12","1","24","1","1","3","1","","0","1","0","null","","","<img src = 'category4/CS5.png' width = '100%;'>","null","","","","","","","","","",""
"","html-keyboard-response","213","595337","0.0-10.0-2.18","3vfjglht24","many_one","0","direct_first","1","ak04et12","1","24","1","1","3","1","","0","1","0","null","","","<img src = 'targets/9.png' width = '100%;'>","null","","","","","","","","","",""
"","html-keyboard-response","214","595705","0.0-10.0-3.18","3vfjglht24","many_one","0","direct_first","1","ak04et12","1","24","1","1","3","1","","0","1","0","366.2699998822063","","","<img src = 'targets/mask.png' width = '100%;'>","75","pos","CS","CS","4","category4/CS5.png","","targets/9.png","indirect","1","18"
"","html-keyboard-response","215","597207","0.0-10.0-0.19","3vfjglht24","many_one","0","direct_first","1","ak04et12","1","24","1","1","3","1","","0","1","0","null","","","<div style=""font-size:60px;"">+</div>","null","","","","","","","","","",""
"","html-keyboard-response","216","597307","0.0-10.0-1.19","3vfjglht24","many_one","0","direct_first","1","ak04et12","1","24","1","1","3","1","","0","1","0","null","","","<img src = 'category3/CS7.png' width = '100%;'>","null","","","","","","","","","",""
"","html-keyboard-response","217","597577","0.0-10.0-2.19","3vfjglht24","many_one","0","direct_first","1","ak04et12","1","24","1","1","3","1","","0","1","0","null","","","<img src = 'targets/45.png' width = '100%;'>","null","","","","","","","","","",""
"","html-keyboard-response","218","597783","0.0-10.0-3.19","3vfjglht24","many_one","0","direct_first","1","ak04et12","1","24","1","1","3","1","","0","1","0","204.9099998548627","","","<img src = 'targets/mask.png' width = '100%;'>","68","neg","CS","CS","3","category3/CS7.png","","targets/45.png","indirect","0","19"
"","html-keyboard-response","219","599295","0.0-10.0-0.20","3vfjglht24","many_one","0","direct_first","1","ak04et12","1","24","1","1","3","1","","0","1","0","null","","","<div style=""font-size:60px;"">+</div>","null","","","","","","","","","",""
"","html-keyboard-response","220","599390","0.0-10.0-1.20","3vfjglht24","many_one","0","direct_first","1","ak04et12","1","24","1","1","3","1","","0","1","0","null","","","<img src = 'category4/CS4.png' width = '100%;'>","null","","","","","","","","","",""
"","html-keyboard-response","221","599672","0.0-10.0-2.20","3vfjglht24","many_one","0","direct_first","1","ak04et12","1","24","1","1","3","1","","0","1","0","null","","","<img src = 'targets/15.png' width = '100%;'>","null","","","","","","","","","",""
"","html-keyboard-response","222","600143","0.0-10.0-3.20","3vfjglht24","many_one","0","direct_first","1","ak04et12","1","24","1","1","3","1","","0","1","0","469.3299999926239","","","<img src = 'targets/mask.png' width = '100%;'>","75","pos","CS","CS","4","category4/CS4.png","","targets/15.png","indirect","1","20"
"","html-keyboard-response","223","601650","0.0-10.0-0.21","3vfjglht24","many_one","0","direct_first","1","ak04et12","1","24","1","1","3","1","","0","1","0","null","","","<div style=""font-size:60px;"">+</div>","null","","","","","","","","","",""
"","html-keyboard-response","224","601745","0.0-10.0-1.21","3vfjglht24","many_one","0","direct_first","1","ak04et12","1","24","1","1","3","1","","0","1","0","null","","","<img src = 'category2/CS7.png' width = '100%;'>","null","","","","","","","","","",""
"","html-keyboard-response","225","602020","0.0-10.0-2.21","3vfjglht24","many_one","0","direct_first","1","ak04et12","1","24","1","1","3","1","","0","1","0","null","","","<img src = 'targets/42.png' width = '100%;'>","null","","","","","","","","","",""
"","html-keyboard-response","226","602398","0.0-10.0-3.21","3vfjglht24","many_one","0","direct_first","1","ak04et12","1","24","1","1","3","1","","0","1","0","375.96500013023615","","","<img src = 'targets/mask.png' width = '100%;'>","75","pos","CS","CS","2","category2/CS7.png","","targets/42.png","indirect","1","21"
"","html-keyboard-response","227","603926","0.0-10.0-0.22","3vfjglht24","many_one","0","direct_first","1","ak04et12","1","24","1","1","3","1","","0","1","0","null","","","<div style=""font-size:60px;"">+</div>","null","","","","","","","","","",""
"","html-keyboard-response","228","604027","0.0-10.0-1.22","3vfjglht24","many_one","0","direct_first","1","ak04et12","1","24","1","1","3","1","","0","1","0","null","","","<img src = 'category2/CS10.png' width = '100%;'>","null","","","","","","","","","",""
"","html-keyboard-response","229","604294","0.0-10.0-2.22","3vfjglht24","many_one","0","direct_first","1","ak04et12","1","24","1","1","3","1","","0","1","0","null","","","<img src = 'targets/8.png' width = '100%;'>","null","","","","","","","","","",""
"","html-keyboard-response","230","605044","0.0-10.0-3.22","3vfjglht24","many_one","0","direct_first","1","ak04et12","1","24","1","1","3","1","","0","1","0","748.3200000133365","","","<img src = 'targets/mask.png' width = '100%;'>","75","pos","CS","CS","2","category2/CS10.png","","targets/8.png","indirect","1","22"
"","html-keyboard-response","231","606550","0.0-10.0-0.23","3vfjglht24","many_one","0","direct_first","1","ak04et12","1","24","1","1","3","1","","0","1","0","null","","","<div style=""font-size:60px;"">+</div>","null","","","","","","","","","",""
"","html-keyboard-response","232","606650","0.0-10.0-1.23","3vfjglht24","many_one","0","direct_first","1","ak04et12","1","24","1","1","3","1","","0","1","0","null","","","<img src = 'category3/CS4.png' width = '100%;'>","null","","","","","","","","","",""
"","html-keyboard-response","233","606917","0.0-10.0-2.23","3vfjglht24","many_one","0","direct_first","1","ak04et12","1","24","1","1","3","1","","0","1","0","null","","","<img src = 'targets/4.png' width = '100%;'>","null","","","","","","","","","",""
"","html-keyboard-response","234","607467","0.0-10.0-3.23","3vfjglht24","many_one","0","direct_first","1","ak04et12","1","24","1","1","3","1","","0","1","0","547.9349999222904","","","<img src = 'targets/mask.png' width = '100%;'>","68","neg","CS","CS","3","category3/CS4.png","","targets/4.png","indirect","0","23"
"","survey-html-form","235","611288","0.0-11.0","3vfjglht24","many_one","0","direct_first","1","ak04et12","1","24","1","1","3","1","","0","1","0","3318.445000099018","","{}","","","","","","","","","","","",""
"","html-keyboard-response","236","614310","0.0-12.0-0.0","3vfjglht24","many_one","0","direct_first","1","ak04et12","1","24","1","1","3","1","","0","1","0","null","","","<div style=""font-size:60px;"">+</div>","null","","","","","","","","","",""
"","html-keyboard-response","237","614405","0.0-12.0-1.0","3vfjglht24","many_one","0","direct_first","1","ak04et12","1","24","1","1","3","1","","0","1","0","null","","","<img src = 'category4/GS1.png' width = '100%;'>","null","","","","","","","","","",""
"","html-keyboard-response","238","614665","0.0-12.0-2.0","3vfjglht24","many_one","0","direct_first","1","ak04et12","1","24","1","1","3","1","","0","1","0","null","","","<img src = 'targets/2.png' width = '100%;'>","null","","","","","","","","","",""
"","html-keyboard-response","239","614959","0.0-12.0-3.0","3vfjglht24","many_one","0","direct_first","1","ak04et12","1","24","1","1","3","1","","0","1","0","291.26999992877245","","","<img src = 'targets/mask.png' width = '100%;'>","75","pos","GS","GSnew","4","category4/GS1.png","","targets/2.png","indirect","1","24"
"","html-keyboard-response","240","616493","0.0-12.0-0.1","3vfjglht24","many_one","0","direct_first","1","ak04et12","1","24","1","1","3","1","","0","1","0","null","","","<div style=""font-size:60px;"">+</div>","null","","","","","","","","","",""
"","html-keyboard-response","241","616591","0.0-12.0-1.1","3vfjglht24","many_one","0","direct_first","1","ak04et12","1","24","1","1","3","1","","0","1","0","null","","","<img src = 'category2/CS4.png' width = '100%;'>","null","","","","","","","","","",""
"","html-keyboard-response","242","616870","0.0-12.0-2.1","3vfjglht24","many_one","0","direct_first","1","ak04et12","1","24","1","1","3","1","","0","1","0","null","","","<img src = 'targets/32.png' width = '100%;'>","null","","","","","","","","","",""
"","html-keyboard-response","243","617169","0.0-12.0-3.1","3vfjglht24","many_one","0","direct_first","1","ak04et12","1","24","1","1","3","1","","0","1","0","297.77500010095537","","","<img src = 'targets/mask.png' width = '100%;'>","75","pos","GS","GSold","2","category2/CS4.png","","targets/32.png","indirect","1","25"
"","html-keyboard-response","244","618680","0.0-12.0-0.2","3vfjglht24","many_one","0","direct_first","1","ak04et12","1","24","1","1","3","1","","0","1","0","null","","","<div style=""font-size:60px;"">+</div>","null","","","","","","","","","",""
"","html-keyboard-response","245","618782","0.0-12.0-1.2","3vfjglht24","many_one","0","direct_first","1","ak04et12","1","24","1","1","3","1","","0","1","0","null","","","<img src = 'category2/GS1.png' width = '100%;'>","null","","","","","","","","","",""
"","html-keyboard-response","246","619053","0.0-12.0-2.2","3vfjglht24","many_one","0","direct_first","1","ak04et12","1","24","1","1","3","1","","0","1","0","null","","","<img src = 'targets/14.png' width = '100%;'>","null","","","","","","","","","",""
"","html-keyboard-response","247","619306","0.0-12.0-3.2","3vfjglht24","many_one","0","direct_first","1","ak04et12","1","24","1","1","3","1","","0","1","0","251.26000004820526","","","<img src = 'targets/mask.png' width = '100%;'>","75","pos","GS","GSnew","2","category2/GS1.png","","targets/14.png","indirect","1","26"
"","html-keyboard-response","248","620824","0.0-12.0-0.3","3vfjglht24","many_one","0","direct_first","1","ak04et12","1","24","1","1","3","1","","0","1","0","null","","","<div style=""font-size:60px;"">+</div>","null","","","","","","","","","",""
"","html-keyboard-response","249","620927","0.0-12.0-1.3","3vfjglht24","many_one","0","direct_first","1","ak04et12","1","24","1","1","3","1","","0","1","0","null","","","<img src = 'category4/CS10.png' width = '100%;'>","null","","","","","","","","","",""
"","html-keyboard-response","250","621192","0.0-12.0-2.3","3vfjglht24","many_one","0","direct_first","1","ak04et12","1","24","1","1","3","1","","0","1","0","null","","","<img src = 'targets/23.png' width = '100%;'>","null","","","","","","","","","",""
"","html-keyboard-response","251","621432","0.0-12.0-3.3","3vfjglht24","many_one","0","direct_first","1","ak04et12","1","24","1","1","3","1","","0","1","0","238.6549999937415","","","<img src = 'targets/mask.png' width = '100%;'>","75","pos","GS","GSold","4","category4/CS10.png","","targets/23.png","indirect","1","27"
"","html-keyboard-response","252","622955","0.0-12.0-0.4","3vfjglht24","many_one","0","direct_first","1","ak04et12","1","24","1","1","3","1","","0","1","0","null","","","<div style=""font-size:60px;"">+</div>","null","","","","","","","","","",""
"","html-keyboard-response","253","623053","0.0-12.0-1.4","3vfjglht24","many_one","0","direct_first","1","ak04et12","1","24","1","1","3","1","","0","1","0","null","","","<img src = 'category2/GS3.png' width = '100%;'>","null","","","","","","","","","",""
"","html-keyboard-response","254","623323","0.0-12.0-2.4","3vfjglht24","many_one","0","direct_first","1","ak04et12","1","24","1","1","3","1","","0","1","0","null","","","<img src = 'targets/33.png' width = '100%;'>","null","","","","","","","","","",""
"","html-keyboard-response","255","623607","0.0-12.0-3.4","3vfjglht24","many_one","0","direct_first","1","ak04et12","1","24","1","1","3","1","","0","1","0","282.3399999178946","","","<img src = 'targets/mask.png' width = '100%;'>","75","pos","GS","GSnew","2","category2/GS3.png","","targets/33.png","indirect","1","28"
"","html-keyboard-response","256","625125","0.0-12.0-0.5","3vfjglht24","many_one","0","direct_first","1","ak04et12","1","24","1","1","3","1","","0","1","0","null","","","<div style=""font-size:60px;"">+</div>","null","","","","","","","","","",""
"","html-keyboard-response","257","625227","0.0-12.0-1.5","3vfjglht24","many_one","0","direct_first","1","ak04et12","1","24","1","1","3","1","","0","1","0","null","","","<img src = 'category3/CS10.png' width = '100%;'>","null","","","","","","","","","",""
"","html-keyboard-response","258","625496","0.0-12.0-2.5","3vfjglht24","many_one","0","direct_first","1","ak04et12","1","24","1","1","3","1","","0","1","0","null","","","<img src = 'targets/10.png' width = '100%;'>","null","","","","","","","","","",""
"","html-keyboard-response","259","625867","0.0-12.0-3.5","3vfjglht24","many_one","0","direct_first","1","ak04et12","1","24","1","1","3","1","","0","1","0","369.3200000561774","","","<img src = 'targets/mask.png' width = '100%;'>","68","neg","GS","GSold","3","category3/CS10.png","","targets/10.png","indirect","0","29"
"","html-keyboard-response","260","627402","0.0-12.0-0.6","3vfjglht24","many_one","0","direct_first","1","ak04et12","1","24","1","1","3","1","","0","1","0","null","","","<div style=""font-size:60px;"">+</div>","null","","","","","","","","","",""
"","html-keyboard-response","261","627503","0.0-12.0-1.6","3vfjglht24","many_one","0","direct_first","1","ak04et12","1","24","1","1","3","1","","0","1","0","null","","","<img src = 'category1/GS1.png' width = '100%;'>","null","","","","","","","","","",""
"","html-keyboard-response","262","627769","0.0-12.0-2.6","3vfjglht24","many_one","0","direct_first","1","ak04et12","1","24","1","1","3","1","","0","1","0","null","","","<img src = 'targets/35.png' width = '100%;'>","null","","","","","","","","","",""
"","html-keyboard-response","263","628254","0.0-12.0-3.6","3vfjglht24","many_one","0","direct_first","1","ak04et12","1","24","1","1","3","1","","0","1","0","483.6899999063462","","","<img src = 'targets/mask.png' width = '100%;'>","68","neg","GS","GSnew","1","category1/GS1.png","","targets/35.png","indirect","0","30"
"","html-keyboard-response","264","629767","0.0-12.0-0.7","3vfjglht24","many_one","0","direct_first","1","ak04et12","1","24","1","1","3","1","","0","1","0","null","","","<div style=""font-size:60px;"">+</div>","null","","","","","","","","","",""
"","html-keyboard-response","265","629860","0.0-12.0-1.7","3vfjglht24","many_one","0","direct_first","1","ak04et12","1","24","1","1","3","1","","0","1","0","null","","","<img src = 'category2/GS2.png' width = '100%;'>","null","","","","","","","","","",""
"","html-keyboard-response","266","630127","0.0-12.0-2.7","3vfjglht24","many_one","0","direct_first","1","ak04et12","1","24","1","1","3","1","","0","1","0","null","","","<img src = 'targets/16.png' width = '100%;'>","null","","","","","","","","","",""
"","html-keyboard-response","267","630385","0.0-12.0-3.7","3vfjglht24","many_one","0","direct_first","1","ak04et12","1","24","1","1","3","1","","0","1","0","255.72500005364418","","","<img src = 'targets/mask.png' width = '100%;'>","75","pos","GS","GSnew","2","category2/GS2.png","","targets/16.png","indirect","1","31"
"","html-keyboard-response","268","631895","0.0-12.0-0.8","3vfjglht24","many_one","0","direct_first","1","ak04et12","1","24","1","1","3","1","","0","1","0","null","","","<div style=""font-size:60px;"">+</div>","null","","","","","","","","","",""
"","html-keyboard-response","269","631989","0.0-12.0-1.8","3vfjglht24","many_one","0","direct_first","1","ak04et12","1","24","1","1","3","1","","0","1","0","null","","","<img src = 'category2/CS5.png' width = '100%;'>","null","","","","","","","","","",""
"","html-keyboard-response","270","632263","0.0-12.0-2.8","3vfjglht24","many_one","0","direct_first","1","ak04et12","1","24","1","1","3","1","","0","1","0","null","","","<img src = 'targets/13.png' width = '100%;'>","null","","","","","","","","","",""
"","html-keyboard-response","271","632511","0.0-12.0-3.8","3vfjglht24","many_one","0","direct_first","1","ak04et12","1","24","1","1","3","1","","0","1","0","246.2400000076741","","","<img src = 'targets/mask.png' width = '100%;'>","75","pos","GS","GSold","2","category2/CS5.png","","targets/13.png","indirect","1","32"
"","html-keyboard-response","272","634024","0.0-12.0-0.9","3vfjglht24","many_one","0","direct_first","1","ak04et12","1","24","1","1","3","1","","0","1","0","null","","","<div style=""font-size:60px;"">+</div>","null","","","","","","","","","",""
"","html-keyboard-response","273","634125","0.0-12.0-1.9","3vfjglht24","many_one","0","direct_first","1","ak04et12","1","24","1","1","3","1","","0","1","0","null","","","<img src = 'category2/CS1.png' width = '100%;'>","null","","","","","","","","","",""
"","html-keyboard-response","274","634391","0.0-12.0-2.9","3vfjglht24","many_one","0","direct_first","1","ak04et12","1","24","1","1","3","1","","0","1","0","null","","","<img src = 'targets/18.png' width = '100%;'>","null","","","","","","","","","",""
"","html-keyboard-response","275","634553","0.0-12.0-3.9","3vfjglht24","many_one","0","direct_first","1","ak04et12","1","24","1","1","3","1","","0","1","0","159.6999999601394","","","<img src = 'targets/mask.png' width = '100%;'>","75","pos","GS","GSold","2","category2/CS1.png","","targets/18.png","indirect","1","33"
"","html-keyboard-response","276","636063","0.0-12.0-0.10","3vfjglht24","many_one","0","direct_first","1","ak04et12","1","24","1","1","3","1","","0","1","0","null","","","<div style=""font-size:60px;"">+</div>","null","","","","","","","","","",""
"","html-keyboard-response","277","636161","0.0-12.0-1.10","3vfjglht24","many_one","0","direct_first","1","ak04et12","1","24","1","1","3","1","","0","1","0","null","","","<img src = 'category4/GS3.png' width = '100%;'>","null","","","","","","","","","",""
"","html-keyboard-response","278","636430","0.0-12.0-2.10","3vfjglht24","many_one","0","direct_first","1","ak04et12","1","24","1","1","3","1","","0","1","0","null","","","<img src = 'targets/22.png' width = '100%;'>","null","","","","","","","","","",""
"","html-keyboard-response","279","636557","0.0-12.0-3.10","3vfjglht24","many_one","0","direct_first","1","ak04et12","1","24","1","1","3","1","","0","1","0","124.7499999590218","","","<img src = 'targets/mask.png' width = '100%;'>","75","pos","GS","GSnew","4","category4/GS3.png","","targets/22.png","indirect","1","34"
"","html-keyboard-response","280","638068","0.0-12.0-0.11","3vfjglht24","many_one","0","direct_first","1","ak04et12","1","24","1","1","3","1","","0","1","0","null","","","<div style=""font-size:60px;"">+</div>","null","","","","","","","","","",""
"","html-keyboard-response","281","638172","0.0-12.0-1.11","3vfjglht24","many_one","0","direct_first","1","ak04et12","1","24","1","1","3","1","","0","1","0","null","","","<img src = 'category3/GS3.png' width = '100%;'>","null","","","","","","","","","",""
"","html-keyboard-response","282","638435","0.0-12.0-2.11","3vfjglht24","many_one","0","direct_first","1","ak04et12","1","24","1","1","3","1","","0","1","0","null","","","<img src = 'targets/21.png' width = '100%;'>","null","","","","","","","","","",""
"","html-keyboard-response","283","638538","0.0-12.0-3.11","3vfjglht24","many_one","0","direct_first","1","ak04et12","1","24","1","1","3","1","","0","1","0","101.1299998499453","","","<img src = 'targets/mask.png' width = '100%;'>","75","neg","GS","GSnew","3","category3/GS3.png","","targets/21.png","indirect","1","35"
"","html-keyboard-response","284","640057","0.0-12.0-0.12","3vfjglht24","many_one","0","direct_first","1","ak04et12","1","24","1","1","3","1","","0","1","0","null","","","<div style=""font-size:60px;"">+</div>","null","","","","","","","","","",""
"","html-keyboard-response","285","640158","0.0-12.0-1.12","3vfjglht24","many_one","0","direct_first","1","ak04et12","1","24","1","1","3","1","","0","1","0","null","","","<img src = 'category4/lin.png' width = '100%;'>","null","","","","","","","","","",""
"","html-keyboard-response","286","640441","0.0-12.0-2.12","3vfjglht24","many_one","0","direct_first","1","ak04et12","1","24","1","1","3","1","","0","1","0","null","","","<img src = 'targets/6.png' width = '100%;'>","null","","","","","","","","","",""
"","html-keyboard-response","287","640713","0.0-12.0-3.12","3vfjglht24","many_one","0","direct_first","1","ak04et12","1","24","1","1","3","1","","0","1","0","270.06000000983477","","","<img src = 'targets/mask.png' width = '100%;'>","75","pos","GS","abstract","4","category4/lin.png","","targets/6.png","indirect","1","36"
"","html-keyboard-response","288","642245","0.0-12.0-0.13","3vfjglht24","many_one","0","direct_first","1","ak04et12","1","24","1","1","3","1","","0","1","0","null","","","<div style=""font-size:60px;"">+</div>","null","","","","","","","","","",""
"","html-keyboard-response","289","642345","0.0-12.0-1.13","3vfjglht24","many_one","0","direct_first","1","ak04et12","1","24","1","1","3","1","","0","1","0","null","","","<img src = 'category4/GS2.png' width = '100%;'>","null","","","","","","","","","",""
"","html-keyboard-response","290","642614","0.0-12.0-2.13","3vfjglht24","many_one","0","direct_first","1","ak04et12","1","24","1","1","3","1","","0","1","0","null","","","<img src = 'targets/17.png' width = '100%;'>","null","","","","","","","","","",""
"","html-keyboard-response","291","642921","0.0-12.0-3.13","3vfjglht24","many_one","0","direct_first","1","ak04et12","1","24","1","1","3","1","","0","1","0","305.6449999567121","","","<img src = 'targets/mask.png' width = '100%;'>","75","pos","GS","GSnew","4","category4/GS2.png","","targets/17.png","indirect","1","37"
"","html-keyboard-response","292","644453","0.0-12.0-0.14","3vfjglht24","many_one","0","direct_first","1","ak04et12","1","24","1","1","3","1","","0","1","0","null","","","<div style=""font-size:60px;"">+</div>","null","","","","","","","","","",""
"","html-keyboard-response","293","644554","0.0-12.0-1.14","3vfjglht24","many_one","0","direct_first","1","ak04et12","1","24","1","1","3","1","","0","1","0","null","","","<img src = 'category3/GS2.png' width = '100%;'>","null","","","","","","","","","",""
"","html-keyboard-response","294","644812","0.0-12.0-2.14","3vfjglht24","many_one","0","direct_first","1","ak04et12","1","24","1","1","3","1","","0","1","0","null","","","<img src = 'targets/5.png' width = '100%;'>","null","","","","","","","","","",""
"","html-keyboard-response","295","645058","0.0-12.0-3.14","3vfjglht24","many_one","0","direct_first","1","ak04et12","1","24","1","1","3","1","","0","1","0","244.72500011324883","","","<img src = 'targets/mask.png' width = '100%;'>","68","neg","GS","GSnew","3","category3/GS2.png","","targets/5.png","indirect","0","38"
"","html-keyboard-response","296","646575","0.0-12.0-0.15","3vfjglht24","many_one","0","direct_first","1","ak04et12","1","24","1","1","3","1","","0","1","0","null","","","<div style=""font-size:60px;"">+</div>","null","","","","","","","","","",""
"","html-keyboard-response","297","646670","0.0-12.0-1.15","3vfjglht24","many_one","0","direct_first","1","ak04et12","1","24","1","1","3","1","","0","1","0","null","","","<img src = 'category1/ma.png' width = '100%;'>","null","","","","","","","","","",""
"","html-keyboard-response","298","646941","0.0-12.0-2.15","3vfjglht24","many_one","0","direct_first","1","ak04et12","1","24","1","1","3","1","","0","1","0","null","","","<img src = 'targets/47.png' width = '100%;'>","null","","","","","","","","","",""
"","html-keyboard-response","299","647425","0.0-12.0-3.15","3vfjglht24","many_one","0","direct_first","1","ak04et12","1","24","1","1","3","1","","0","1","0","481.69000004418194","","","<img src = 'targets/mask.png' width = '100%;'>","68","neg","GS","abstract","1","category1/ma.png","","targets/47.png","indirect","0","39"
"","html-keyboard-response","300","648943","0.0-12.0-0.16","3vfjglht24","many_one","0","direct_first","1","ak04et12","1","24","1","1","3","1","","0","1","0","null","","","<div style=""font-size:60px;"">+</div>","null","","","","","","","","","",""
"","html-keyboard-response","301","649038","0.0-12.0-1.16","3vfjglht24","many_one","0","direct_first","1","ak04et12","1","24","1","1","3","1","","0","1","0","null","","","<img src = 'category1/GS3.png' width = '100%;'>","null","","","","","","","","","",""
"","html-keyboard-response","302","649306","0.0-12.0-2.16","3vfjglht24","many_one","0","direct_first","1","ak04et12","1","24","1","1","3","1","","0","1","0","null","","","<img src = 'targets/12.png' width = '100%;'>","null","","","","","","","","","",""
"","html-keyboard-response","303","649819","0.0-12.0-3.16","3vfjglht24","many_one","0","direct_first","1","ak04et12","1","24","1","1","3","1","","0","1","0","510.5850000400096","","","<img src = 'targets/mask.png' width = '100%;'>","75","neg","GS","GSnew","1","category1/GS3.png","","targets/12.png","indirect","1","40"
"","html-keyboard-response","304","651324","0.0-12.0-0.17","3vfjglht24","many_one","0","direct_first","1","ak04et12","1","24","1","1","3","1","","0","1","0","null","","","<div style=""font-size:60px;"">+</div>","null","","","","","","","","","",""
"","html-keyboard-response","305","651428","0.0-12.0-1.17","3vfjglht24","many_one","0","direct_first","1","ak04et12","1","24","1","1","3","1","","0","1","0","null","","","<img src = 'category3/CS1.png' width = '100%;'>","null","","","","","","","","","",""
"","html-keyboard-response","306","651693","0.0-12.0-2.17","3vfjglht24","many_one","0","direct_first","1","ak04et12","1","24","1","1","3","1","","0","1","0","null","","","<img src = 'targets/1.png' width = '100%;'>","null","","","","","","","","","",""
"","html-keyboard-response","307","651938","0.0-12.0-3.17","3vfjglht24","many_one","0","direct_first","1","ak04et12","1","24","1","1","3","1","","0","1","0","243.70999983511865","","","<img src = 'targets/mask.png' width = '100%;'>","68","neg","GS","GSold","3","category3/CS1.png","","targets/1.png","indirect","0","41"
"","html-keyboard-response","308","653447","0.0-12.0-0.18","3vfjglht24","many_one","0","direct_first","1","ak04et12","1","24","1","1","3","1","","0","1","0","null","","","<div style=""font-size:60px;"">+</div>","null","","","","","","","","","",""
"","html-keyboard-response","309","653551","0.0-12.0-1.18","3vfjglht24","many_one","0","direct_first","1","ak04et12","1","24","1","1","3","1","","0","1","0","null","","","<img src = 'category3/GS1.png' width = '100%;'>","null","","","","","","","","","",""
"","html-keyboard-response","310","653819","0.0-12.0-2.18","3vfjglht24","many_one","0","direct_first","1","ak04et12","1","24","1","1","3","1","","0","1","0","null","","","<img src = 'targets/24.png' width = '100%;'>","null","","","","","","","","","",""
"","html-keyboard-response","311","653977","0.0-12.0-3.18","3vfjglht24","many_one","0","direct_first","1","ak04et12","1","24","1","1","3","1","","0","1","0","156.1249999795109","","","<img src = 'targets/mask.png' width = '100%;'>","68","neg","GS","GSnew","3","category3/GS1.png","","targets/24.png","indirect","0","42"
"","html-keyboard-response","312","655504","0.0-12.0-0.19","3vfjglht24","many_one","0","direct_first","1","ak04et12","1","24","1","1","3","1","","0","1","0","null","","","<div style=""font-size:60px;"">+</div>","null","","","","","","","","","",""
"","html-keyboard-response","313","655608","0.0-12.0-1.19","3vfjglht24","many_one","0","direct_first","1","ak04et12","1","24","1","1","3","1","","0","1","0","null","","","<img src = 'category1/GS2.png' width = '100%;'>","null","","","","","","","","","",""
"","html-keyboard-response","314","655877","0.0-12.0-2.19","3vfjglht24","many_one","0","direct_first","1","ak04et12","1","24","1","1","3","1","","0","1","0","null","","","<img src = 'targets/41.png' width = '100%;'>","null","","","","","","","","","",""
"","html-keyboard-response","315","656142","0.0-12.0-3.19","3vfjglht24","many_one","0","direct_first","1","ak04et12","1","24","1","1","3","1","","0","1","0","263.5599998757243","","","<img src = 'targets/mask.png' width = '100%;'>","75","neg","GS","GSnew","1","category1/GS2.png","","targets/41.png","indirect","1","43"
"","html-keyboard-response","316","657648","0.0-12.0-0.20","3vfjglht24","many_one","0","direct_first","1","ak04et12","1","24","1","1","3","1","","0","1","0","null","","","<div style=""font-size:60px;"">+</div>","null","","","","","","","","","",""
"","html-keyboard-response","317","657755","0.0-12.0-1.20","3vfjglht24","many_one","0","direct_first","1","ak04et12","1","24","1","1","3","1","","0","1","0","null","","","<img src = 'category3/wang.png' width = '100%;'>","null","","","","","","","","","",""
"","html-keyboard-response","318","658020","0.0-12.0-2.20","3vfjglht24","many_one","0","direct_first","1","ak04et12","1","24","1","1","3","1","","0","1","0","null","","","<img src = 'targets/29.png' width = '100%;'>","null","","","","","","","","","",""
"","html-keyboard-response","319","658195","0.0-12.0-3.20","3vfjglht24","many_one","0","direct_first","1","ak04et12","1","24","1","1","3","1","","0","1","0","173.2450001873076","","","<img src = 'targets/mask.png' width = '100%;'>","68","neg","GS","abstract","3","category3/wang.png","","targets/29.png","indirect","0","44"
"","html-keyboard-response","320","659722","0.0-12.0-0.21","3vfjglht24","many_one","0","direct_first","1","ak04et12","1","24","1","1","3","1","","0","1","0","null","","","<div style=""font-size:60px;"">+</div>","null","","","","","","","","","",""
"","html-keyboard-response","321","659814","0.0-12.0-1.21","3vfjglht24","many_one","0","direct_first","1","ak04et12","1","24","1","1","3","1","","0","1","0","null","","","<img src = 'category3/CS8.png' width = '100%;'>","null","","","","","","","","","",""
"","html-keyboard-response","322","660084","0.0-12.0-2.21","3vfjglht24","many_one","0","direct_first","1","ak04et12","1","24","1","1","3","1","","0","1","0","null","","","<img src = 'targets/31.png' width = '100%;'>","null","","","","","","","","","",""
"","html-keyboard-response","323","660204","0.0-12.0-3.21","3vfjglht24","many_one","0","direct_first","1","ak04et12","1","24","1","1","3","1","","0","1","0","118.36500000208616","","","<img src = 'targets/mask.png' width = '100%;'>","68","neg","GS","GSold","3","category3/CS8.png","","targets/31.png","indirect","0","45"
"","html-keyboard-response","324","661713","0.0-12.0-0.22","3vfjglht24","many_one","0","direct_first","1","ak04et12","1","24","1","1","3","1","","0","1","0","null","","","<div style=""font-size:60px;"">+</div>","null","","","","","","","","","",""
"","html-keyboard-response","325","661813","0.0-12.0-1.22","3vfjglht24","many_one","0","direct_first","1","ak04et12","1","24","1","1","3","1","","0","1","0","null","","","<img src = 'category4/CS7.png' width = '100%;'>","null","","","","","","","","","",""
"","html-keyboard-response","326","662076","0.0-12.0-2.22","3vfjglht24","many_one","0","direct_first","1","ak04et12","1","24","1","1","3","1","","0","1","0","null","","","<img src = 'targets/46.png' width = '100%;'>","null","","","","","","","","","",""
"","html-keyboard-response","327","662340","0.0-12.0-3.22","3vfjglht24","many_one","0","direct_first","1","ak04et12","1","24","1","1","3","1","","0","1","0","262.6150001306087","","","<img src = 'targets/mask.png' width = '100%;'>","75","pos","GS","GSold","4","category4/CS7.png","","targets/46.png","indirect","1","46"
