"success","trial_type","trial_index","time_elapsed","internal_node_id","subject","condition","condition_code","measure","measure_code","codeword","gender","age","education","chinese","fach","handedness","comment","hinschauen","ablenkung","gewissenhaft","rt","url","responses","stimulus","key_press","val","type","type_specific","category","cs_selected","response","target","task","indirect","nr_pres"
"true","fullscreen","0","140749","0.0-0.0","r9aeuuag1e","one_one","1","direct_first","1","is04as10","1","26","1","1","3","1","","0","1","0","","","","","","","","","","","","","","",""
"","external-html","1","180427","0.0-1.0","r9aeuuag1e","one_one","1","direct_first","1","is04as10","1","26","1","1","3","1","","0","1","0","39495.24000007659","text/information.html","","","","","","","","","","","","",""
"","external-html","2","195228","0.0-2.0","r9aeuuag1e","one_one","1","direct_first","1","is04as10","1","26","1","1","3","1","","0","1","0","14582.904999959283","text/consent.html","","","","","","","","","","","","",""
"","survey-html-form","3","265880","0.0-3.0","r9aeuuag1e","one_one","1","direct_first","1","is04as10","1","26","1","1","3","1","","0","1","0","70637.2899999842","","{""codeword_enter"":""is04as10""}","","","","","","","","","","","",""
"","survey-html-form","4","292550","0.0-4.0","r9aeuuag1e","one_one","1","direct_first","1","is04as10","1","26","1","1","3","1","","0","1","0","26641.120000043884","","{""age"":""26"",""education"":""1"",""subject"":""3"",""gender"":""1"",""handedness"":""1"",""chinese"":""1""}","","","","","","","","","","","",""
"","survey-html-form","5","305471","0.0-5.0","r9aeuuag1e","one_one","1","direct_first","1","is04as10","1","26","1","1","3","1","","0","1","0","12898.030000040308","","{}","","","","","","","","","","","",""
"","html-keyboard-response","6","309505","0.0-6.0-0.0-0.0","r9aeuuag1e","one_one","1","direct_first","1","is04as10","1","26","1","1","3","1","","0","1","0","null","","","<div class = 'row'><div class = 'column'><img src = 'category1/CS1.png' width = '70%;'></div><div class = 'column'><img src = 'usneg/6838.bmp' width = '100%;'></div></div>","null","neg","CS","CS","1","category1/CS1.png","","","","",""
"","html-keyboard-response","7","312019","0.0-6.0-0.0-0.1","r9aeuuag1e","one_one","1","direct_first","1","is04as10","1","26","1","1","3","1","","0","1","0","null","","","<div class = 'row'><div class = 'column'><img src = 'category4/CS10.png' width = '70%;'></div><div class = 'column'><img src = 'usneg/9560.bmp' width = '100%;'></div></div>","null","neg","CS","CS","4","category4/CS10.png","","","","",""
"","html-keyboard-response","8","314533","0.0-6.0-0.0-0.2","r9aeuuag1e","one_one","1","direct_first","1","is04as10","1","26","1","1","3","1","","0","1","0","null","","","<div class = 'row'><div class = 'column'><img src = 'category3/CS8.png' width = '70%;'></div><div class = 'column'><img src = 'uspos/5470.bmp' width = '100%;'></div></div>","null","pos","CS","CS","3","category3/CS8.png","","","","",""
"","html-keyboard-response","9","317052","0.0-6.0-0.0-0.3","r9aeuuag1e","one_one","1","direct_first","1","is04as10","1","26","1","1","3","1","","0","1","0","null","","","<div class = 'row'><div class = 'column'><img src = 'uspos/2360.bmp' width = '100%;'></div><div class = 'column'><img src = 'category2/CS3.png' width = '70%;'></div></div>","null","pos","CS","CS","2","category2/CS3.png","","","","",""
"","html-keyboard-response","10","319571","0.0-6.0-0.0-0.4","r9aeuuag1e","one_one","1","direct_first","1","is04as10","1","26","1","1","3","1","","0","1","0","null","","","<div class = 'row'><div class = 'column'><img src = 'category1/CS1.png' width = '70%;'></div><div class = 'column'><img src = 'usneg/6838.bmp' width = '100%;'></div></div>","null","neg","CS","CS","1","category1/CS1.png","","","","",""
"","html-keyboard-response","11","322085","0.0-6.0-0.0-0.5","r9aeuuag1e","one_one","1","direct_first","1","is04as10","1","26","1","1","3","1","","0","1","0","null","","","<div class = 'row'><div class = 'column'><img src = 'usneg/9560.bmp' width = '100%;'></div><div class = 'column'><img src = 'category4/CS10.png' width = '70%;'></div></div>","null","neg","CS","CS","4","category4/CS10.png","","","","",""
"","html-keyboard-response","12","324596","0.0-6.0-0.0-0.6","r9aeuuag1e","one_one","1","direct_first","1","is04as10","1","26","1","1","3","1","","0","1","0","null","","","<div class = 'row'><div class = 'column'><img src = 'category3/CS8.png' width = '70%;'></div><div class = 'column'><img src = 'uspos/5470.bmp' width = '100%;'></div></div>","null","pos","CS","CS","3","category3/CS8.png","","","","",""
"","html-keyboard-response","13","327101","0.0-6.0-0.0-0.7","r9aeuuag1e","one_one","1","direct_first","1","is04as10","1","26","1","1","3","1","","0","1","0","null","","","<div class = 'row'><div class = 'column'><img src = 'category2/CS3.png' width = '70%;'></div><div class = 'column'><img src = 'uspos/2360.bmp' width = '100%;'></div></div>","null","pos","CS","CS","2","category2/CS3.png","","","","",""
"","html-keyboard-response","14","329616","0.0-6.0-0.0-0.8","r9aeuuag1e","one_one","1","direct_first","1","is04as10","1","26","1","1","3","1","","0","1","0","null","","","<div class = 'row'><div class = 'column'><img src = 'uspos/5470.bmp' width = '100%;'></div><div class = 'column'><img src = 'category3/CS8.png' width = '70%;'></div></div>","null","pos","CS","CS","3","category3/CS8.png","","","","",""
"","html-keyboard-response","15","332127","0.0-6.0-0.0-0.9","r9aeuuag1e","one_one","1","direct_first","1","is04as10","1","26","1","1","3","1","","0","1","0","null","","","<div class = 'row'><div class = 'column'><img src = 'usneg/9560.bmp' width = '100%;'></div><div class = 'column'><img src = 'category4/CS10.png' width = '70%;'></div></div>","null","neg","CS","CS","4","category4/CS10.png","","","","",""
"","html-keyboard-response","16","334642","0.0-6.0-0.0-0.10","r9aeuuag1e","one_one","1","direct_first","1","is04as10","1","26","1","1","3","1","","0","1","0","null","","","<div class = 'row'><div class = 'column'><img src = 'category3/CS8.png' width = '70%;'></div><div class = 'column'><img src = 'uspos/5470.bmp' width = '100%;'></div></div>","null","pos","CS","CS","3","category3/CS8.png","","","","",""
"","html-keyboard-response","17","337153","0.0-6.0-0.0-0.11","r9aeuuag1e","one_one","1","direct_first","1","is04as10","1","26","1","1","3","1","","0","1","0","null","","","<div class = 'row'><div class = 'column'><img src = 'uspos/2360.bmp' width = '100%;'></div><div class = 'column'><img src = 'category2/CS3.png' width = '70%;'></div></div>","null","pos","CS","CS","2","category2/CS3.png","","","","",""
"","html-keyboard-response","18","339693","0.0-6.0-0.0-0.12","r9aeuuag1e","one_one","1","direct_first","1","is04as10","1","26","1","1","3","1","","0","1","0","null","","","<div class = 'row'><div class = 'column'><img src = 'category1/CS1.png' width = '70%;'></div><div class = 'column'><img src = 'usneg/6838.bmp' width = '100%;'></div></div>","null","neg","CS","CS","1","category1/CS1.png","","","","",""
"","html-keyboard-response","19","342215","0.0-6.0-0.0-0.13","r9aeuuag1e","one_one","1","direct_first","1","is04as10","1","26","1","1","3","1","","0","1","0","null","","","<div class = 'row'><div class = 'column'><img src = 'category2/CS3.png' width = '70%;'></div><div class = 'column'><img src = 'uspos/2360.bmp' width = '100%;'></div></div>","null","pos","CS","CS","2","category2/CS3.png","","","","",""
"","html-keyboard-response","20","344736","0.0-6.0-0.0-0.14","r9aeuuag1e","one_one","1","direct_first","1","is04as10","1","26","1","1","3","1","","0","1","0","null","","","<div class = 'row'><div class = 'column'><img src = 'usneg/9560.bmp' width = '100%;'></div><div class = 'column'><img src = 'category4/CS10.png' width = '70%;'></div></div>","null","neg","CS","CS","4","category4/CS10.png","","","","",""
"","html-keyboard-response","21","347250","0.0-6.0-0.0-0.15","r9aeuuag1e","one_one","1","direct_first","1","is04as10","1","26","1","1","3","1","","0","1","0","null","","","<div class = 'row'><div class = 'column'><img src = 'category1/CS1.png' width = '70%;'></div><div class = 'column'><img src = 'usneg/6838.bmp' width = '100%;'></div></div>","null","neg","CS","CS","1","category1/CS1.png","","","","",""
"","html-keyboard-response","22","349781","0.0-6.0-0.0-0.16","r9aeuuag1e","one_one","1","direct_first","1","is04as10","1","26","1","1","3","1","","0","1","0","null","","","<div class = 'row'><div class = 'column'><img src = 'category3/CS8.png' width = '70%;'></div><div class = 'column'><img src = 'uspos/5470.bmp' width = '100%;'></div></div>","null","pos","CS","CS","3","category3/CS8.png","","","","",""
"","html-keyboard-response","23","352300","0.0-6.0-0.0-0.17","r9aeuuag1e","one_one","1","direct_first","1","is04as10","1","26","1","1","3","1","","0","1","0","null","","","<div class = 'row'><div class = 'column'><img src = 'category2/CS3.png' width = '70%;'></div><div class = 'column'><img src = 'uspos/2360.bmp' width = '100%;'></div></div>","null","pos","CS","CS","2","category2/CS3.png","","","","",""
"","html-keyboard-response","24","354822","0.0-6.0-0.0-0.18","r9aeuuag1e","one_one","1","direct_first","1","is04as10","1","26","1","1","3","1","","0","1","0","null","","","<div class = 'row'><div class = 'column'><img src = 'category4/CS10.png' width = '70%;'></div><div class = 'column'><img src = 'usneg/9560.bmp' width = '100%;'></div></div>","null","neg","CS","CS","4","category4/CS10.png","","","","",""
"","html-keyboard-response","25","357356","0.0-6.0-0.0-0.19","r9aeuuag1e","one_one","1","direct_first","1","is04as10","1","26","1","1","3","1","","0","1","0","null","","","<div class = 'row'><div class = 'column'><img src = 'usneg/6838.bmp' width = '100%;'></div><div class = 'column'><img src = 'category1/CS1.png' width = '70%;'></div></div>","null","neg","CS","CS","1","category1/CS1.png","","","","",""
"","survey-html-form","26","361803","0.0-6.0-1.0","r9aeuuag1e","one_one","1","direct_first","1","is04as10","1","26","1","1","3","1","","0","1","0","3939.8700000019744","","{}","","","","","","","","","","","",""
"","html-keyboard-response","27","365833","0.0-6.0-2.0-0.0","r9aeuuag1e","one_one","1","direct_first","1","is04as10","1","26","1","1","3","1","","0","1","0","null","","","<div class = 'row'><div class = 'column'><img src = 'usneg/9560.bmp' width = '100%;'></div><div class = 'column'><img src = 'category4/CS10.png' width = '70%;'></div></div>","null","neg","CS","CS","4","category4/CS10.png","","","","",""
"","html-keyboard-response","28","368354","0.0-6.0-2.0-0.1","r9aeuuag1e","one_one","1","direct_first","1","is04as10","1","26","1","1","3","1","","0","1","0","null","","","<div class = 'row'><div class = 'column'><img src = 'category3/CS8.png' width = '70%;'></div><div class = 'column'><img src = 'uspos/5470.bmp' width = '100%;'></div></div>","null","pos","CS","CS","3","category3/CS8.png","","","","",""
"","html-keyboard-response","29","370883","0.0-6.0-2.0-0.2","r9aeuuag1e","one_one","1","direct_first","1","is04as10","1","26","1","1","3","1","","0","1","0","null","","","<div class = 'row'><div class = 'column'><img src = 'category2/CS3.png' width = '70%;'></div><div class = 'column'><img src = 'uspos/2360.bmp' width = '100%;'></div></div>","null","pos","CS","CS","2","category2/CS3.png","","","","",""
"","html-keyboard-response","30","373400","0.0-6.0-2.0-0.3","r9aeuuag1e","one_one","1","direct_first","1","is04as10","1","26","1","1","3","1","","0","1","0","null","","","<div class = 'row'><div class = 'column'><img src = 'category4/CS10.png' width = '70%;'></div><div class = 'column'><img src = 'usneg/9560.bmp' width = '100%;'></div></div>","null","neg","CS","CS","4","category4/CS10.png","","","","",""
"","html-keyboard-response","31","375929","0.0-6.0-2.0-0.4","r9aeuuag1e","one_one","1","direct_first","1","is04as10","1","26","1","1","3","1","","0","1","0","null","","","<div class = 'row'><div class = 'column'><img src = 'uspos/5470.bmp' width = '100%;'></div><div class = 'column'><img src = 'category3/CS8.png' width = '70%;'></div></div>","null","pos","CS","CS","3","category3/CS8.png","","","","",""
"","html-keyboard-response","32","378449","0.0-6.0-2.0-0.5","r9aeuuag1e","one_one","1","direct_first","1","is04as10","1","26","1","1","3","1","","0","1","0","null","","","<div class = 'row'><div class = 'column'><img src = 'usneg/6838.bmp' width = '100%;'></div><div class = 'column'><img src = 'category1/CS1.png' width = '70%;'></div></div>","null","neg","CS","CS","1","category1/CS1.png","","","","",""
"","html-keyboard-response","33","380987","0.0-6.0-2.0-0.6","r9aeuuag1e","one_one","1","direct_first","1","is04as10","1","26","1","1","3","1","","0","1","0","null","","","<div class = 'row'><div class = 'column'><img src = 'usneg/9560.bmp' width = '100%;'></div><div class = 'column'><img src = 'category4/CS10.png' width = '70%;'></div></div>","null","neg","CS","CS","4","category4/CS10.png","","","","",""
"","html-keyboard-response","34","383505","0.0-6.0-2.0-0.7","r9aeuuag1e","one_one","1","direct_first","1","is04as10","1","26","1","1","3","1","","0","1","0","null","","","<div class = 'row'><div class = 'column'><img src = 'category2/CS3.png' width = '70%;'></div><div class = 'column'><img src = 'uspos/2360.bmp' width = '100%;'></div></div>","null","pos","CS","CS","2","category2/CS3.png","","","","",""
"","html-keyboard-response","35","386025","0.0-6.0-2.0-0.8","r9aeuuag1e","one_one","1","direct_first","1","is04as10","1","26","1","1","3","1","","0","1","0","null","","","<div class = 'row'><div class = 'column'><img src = 'category3/CS8.png' width = '70%;'></div><div class = 'column'><img src = 'uspos/5470.bmp' width = '100%;'></div></div>","null","pos","CS","CS","3","category3/CS8.png","","","","",""
"","html-keyboard-response","36","388557","0.0-6.0-2.0-0.9","r9aeuuag1e","one_one","1","direct_first","1","is04as10","1","26","1","1","3","1","","0","1","0","null","","","<div class = 'row'><div class = 'column'><img src = 'category2/CS3.png' width = '70%;'></div><div class = 'column'><img src = 'uspos/2360.bmp' width = '100%;'></div></div>","null","pos","CS","CS","2","category2/CS3.png","","","","",""
"","html-keyboard-response","37","391090","0.0-6.0-2.0-0.10","r9aeuuag1e","one_one","1","direct_first","1","is04as10","1","26","1","1","3","1","","0","1","0","null","","","<div class = 'row'><div class = 'column'><img src = 'usneg/6838.bmp' width = '100%;'></div><div class = 'column'><img src = 'category1/CS1.png' width = '70%;'></div></div>","null","neg","CS","CS","1","category1/CS1.png","","","","",""
"","html-keyboard-response","38","393603","0.0-6.0-2.0-0.11","r9aeuuag1e","one_one","1","direct_first","1","is04as10","1","26","1","1","3","1","","0","1","0","null","","","<div class = 'row'><div class = 'column'><img src = 'category3/CS8.png' width = '70%;'></div><div class = 'column'><img src = 'uspos/5470.bmp' width = '100%;'></div></div>","null","pos","CS","CS","3","category3/CS8.png","","","","",""
"","html-keyboard-response","39","396125","0.0-6.0-2.0-0.12","r9aeuuag1e","one_one","1","direct_first","1","is04as10","1","26","1","1","3","1","","0","1","0","null","","","<div class = 'row'><div class = 'column'><img src = 'category1/CS1.png' width = '70%;'></div><div class = 'column'><img src = 'usneg/6838.bmp' width = '100%;'></div></div>","null","neg","CS","CS","1","category1/CS1.png","","","","",""
"","html-keyboard-response","40","398647","0.0-6.0-2.0-0.13","r9aeuuag1e","one_one","1","direct_first","1","is04as10","1","26","1","1","3","1","","0","1","0","null","","","<div class = 'row'><div class = 'column'><img src = 'category4/CS10.png' width = '70%;'></div><div class = 'column'><img src = 'usneg/9560.bmp' width = '100%;'></div></div>","null","neg","CS","CS","4","category4/CS10.png","","","","",""
"","html-keyboard-response","41","401186","0.0-6.0-2.0-0.14","r9aeuuag1e","one_one","1","direct_first","1","is04as10","1","26","1","1","3","1","","0","1","0","null","","","<div class = 'row'><div class = 'column'><img src = 'uspos/5470.bmp' width = '100%;'></div><div class = 'column'><img src = 'category3/CS8.png' width = '70%;'></div></div>","null","pos","CS","CS","3","category3/CS8.png","","","","",""
"","html-keyboard-response","42","403713","0.0-6.0-2.0-0.15","r9aeuuag1e","one_one","1","direct_first","1","is04as10","1","26","1","1","3","1","","0","1","0","null","","","<div class = 'row'><div class = 'column'><img src = 'usneg/9560.bmp' width = '100%;'></div><div class = 'column'><img src = 'category4/CS10.png' width = '70%;'></div></div>","null","neg","CS","CS","4","category4/CS10.png","","","","",""
"","html-keyboard-response","43","406250","0.0-6.0-2.0-0.16","r9aeuuag1e","one_one","1","direct_first","1","is04as10","1","26","1","1","3","1","","0","1","0","null","","","<div class = 'row'><div class = 'column'><img src = 'usneg/6838.bmp' width = '100%;'></div><div class = 'column'><img src = 'category1/CS1.png' width = '70%;'></div></div>","null","neg","CS","CS","1","category1/CS1.png","","","","",""
"","html-keyboard-response","44","408770","0.0-6.0-2.0-0.17","r9aeuuag1e","one_one","1","direct_first","1","is04as10","1","26","1","1","3","1","","0","1","0","null","","","<div class = 'row'><div class = 'column'><img src = 'category2/CS3.png' width = '70%;'></div><div class = 'column'><img src = 'uspos/2360.bmp' width = '100%;'></div></div>","null","pos","CS","CS","2","category2/CS3.png","","","","",""
"","html-keyboard-response","45","411291","0.0-6.0-2.0-0.18","r9aeuuag1e","one_one","1","direct_first","1","is04as10","1","26","1","1","3","1","","0","1","0","null","","","<div class = 'row'><div class = 'column'><img src = 'category1/CS1.png' width = '70%;'></div><div class = 'column'><img src = 'usneg/6838.bmp' width = '100%;'></div></div>","null","neg","CS","CS","1","category1/CS1.png","","","","",""
"","html-keyboard-response","46","413801","0.0-6.0-2.0-0.19","r9aeuuag1e","one_one","1","direct_first","1","is04as10","1","26","1","1","3","1","","0","1","0","null","","","<div class = 'row'><div class = 'column'><img src = 'category2/CS3.png' width = '70%;'></div><div class = 'column'><img src = 'uspos/2360.bmp' width = '100%;'></div></div>","null","pos","CS","CS","2","category2/CS3.png","","","","",""
"","survey-html-form","47","416963","0.0-6.0-3.0","r9aeuuag1e","one_one","1","direct_first","1","is04as10","1","26","1","1","3","1","","0","1","0","2645.9199999226257","","{}","","","","","","","","","","","",""
"","html-keyboard-response","48","420987","0.0-6.0-4.0-0.0","r9aeuuag1e","one_one","1","direct_first","1","is04as10","1","26","1","1","3","1","","0","1","0","null","","","<div class = 'row'><div class = 'column'><img src = 'category1/CS1.png' width = '70%;'></div><div class = 'column'><img src = 'usneg/6838.bmp' width = '100%;'></div></div>","null","neg","CS","CS","1","category1/CS1.png","","","","",""
"","html-keyboard-response","49","423514","0.0-6.0-4.0-0.1","r9aeuuag1e","one_one","1","direct_first","1","is04as10","1","26","1","1","3","1","","0","1","0","null","","","<div class = 'row'><div class = 'column'><img src = 'usneg/9560.bmp' width = '100%;'></div><div class = 'column'><img src = 'category4/CS10.png' width = '70%;'></div></div>","null","neg","CS","CS","4","category4/CS10.png","","","","",""
"","html-keyboard-response","50","426032","0.0-6.0-4.0-0.2","r9aeuuag1e","one_one","1","direct_first","1","is04as10","1","26","1","1","3","1","","0","1","0","null","","","<div class = 'row'><div class = 'column'><img src = 'category1/CS1.png' width = '70%;'></div><div class = 'column'><img src = 'usneg/6838.bmp' width = '100%;'></div></div>","null","neg","CS","CS","1","category1/CS1.png","","","","",""
"","html-keyboard-response","51","428562","0.0-6.0-4.0-0.3","r9aeuuag1e","one_one","1","direct_first","1","is04as10","1","26","1","1","3","1","","0","1","0","null","","","<div class = 'row'><div class = 'column'><img src = 'usneg/9560.bmp' width = '100%;'></div><div class = 'column'><img src = 'category4/CS10.png' width = '70%;'></div></div>","null","neg","CS","CS","4","category4/CS10.png","","","","",""
"","html-keyboard-response","52","431083","0.0-6.0-4.0-0.4","r9aeuuag1e","one_one","1","direct_first","1","is04as10","1","26","1","1","3","1","","0","1","0","null","","","<div class = 'row'><div class = 'column'><img src = 'category1/CS1.png' width = '70%;'></div><div class = 'column'><img src = 'usneg/6838.bmp' width = '100%;'></div></div>","null","neg","CS","CS","1","category1/CS1.png","","","","",""
"","html-keyboard-response","53","433601","0.0-6.0-4.0-0.5","r9aeuuag1e","one_one","1","direct_first","1","is04as10","1","26","1","1","3","1","","0","1","0","null","","","<div class = 'row'><div class = 'column'><img src = 'category3/CS8.png' width = '70%;'></div><div class = 'column'><img src = 'uspos/5470.bmp' width = '100%;'></div></div>","null","pos","CS","CS","3","category3/CS8.png","","","","",""
"","html-keyboard-response","54","436112","0.0-6.0-4.0-0.6","r9aeuuag1e","one_one","1","direct_first","1","is04as10","1","26","1","1","3","1","","0","1","0","null","","","<div class = 'row'><div class = 'column'><img src = 'category2/CS3.png' width = '70%;'></div><div class = 'column'><img src = 'uspos/2360.bmp' width = '100%;'></div></div>","null","pos","CS","CS","2","category2/CS3.png","","","","",""
"","html-keyboard-response","55","438631","0.0-6.0-4.0-0.7","r9aeuuag1e","one_one","1","direct_first","1","is04as10","1","26","1","1","3","1","","0","1","0","null","","","<div class = 'row'><div class = 'column'><img src = 'usneg/9560.bmp' width = '100%;'></div><div class = 'column'><img src = 'category4/CS10.png' width = '70%;'></div></div>","null","neg","CS","CS","4","category4/CS10.png","","","","",""
"","html-keyboard-response","56","441158","0.0-6.0-4.0-0.8","r9aeuuag1e","one_one","1","direct_first","1","is04as10","1","26","1","1","3","1","","0","1","0","null","","","<div class = 'row'><div class = 'column'><img src = 'category2/CS3.png' width = '70%;'></div><div class = 'column'><img src = 'uspos/2360.bmp' width = '100%;'></div></div>","null","pos","CS","CS","2","category2/CS3.png","","","","",""
"","html-keyboard-response","57","443682","0.0-6.0-4.0-0.9","r9aeuuag1e","one_one","1","direct_first","1","is04as10","1","26","1","1","3","1","","0","1","0","null","","","<div class = 'row'><div class = 'column'><img src = 'usneg/6838.bmp' width = '100%;'></div><div class = 'column'><img src = 'category1/CS1.png' width = '70%;'></div></div>","null","neg","CS","CS","1","category1/CS1.png","","","","",""
"","html-keyboard-response","58","446200","0.0-6.0-4.0-0.10","r9aeuuag1e","one_one","1","direct_first","1","is04as10","1","26","1","1","3","1","","0","1","0","null","","","<div class = 'row'><div class = 'column'><img src = 'category3/CS8.png' width = '70%;'></div><div class = 'column'><img src = 'uspos/5470.bmp' width = '100%;'></div></div>","null","pos","CS","CS","3","category3/CS8.png","","","","",""
"","html-keyboard-response","59","448728","0.0-6.0-4.0-0.11","r9aeuuag1e","one_one","1","direct_first","1","is04as10","1","26","1","1","3","1","","0","1","0","null","","","<div class = 'row'><div class = 'column'><img src = 'uspos/2360.bmp' width = '100%;'></div><div class = 'column'><img src = 'category2/CS3.png' width = '70%;'></div></div>","null","pos","CS","CS","2","category2/CS3.png","","","","",""
"","html-keyboard-response","60","451267","0.0-6.0-4.0-0.12","r9aeuuag1e","one_one","1","direct_first","1","is04as10","1","26","1","1","3","1","","0","1","0","null","","","<div class = 'row'><div class = 'column'><img src = 'uspos/5470.bmp' width = '100%;'></div><div class = 'column'><img src = 'category3/CS8.png' width = '70%;'></div></div>","null","pos","CS","CS","3","category3/CS8.png","","","","",""
"","html-keyboard-response","61","453786","0.0-6.0-4.0-0.13","r9aeuuag1e","one_one","1","direct_first","1","is04as10","1","26","1","1","3","1","","0","1","0","null","","","<div class = 'row'><div class = 'column'><img src = 'usneg/6838.bmp' width = '100%;'></div><div class = 'column'><img src = 'category1/CS1.png' width = '70%;'></div></div>","null","neg","CS","CS","1","category1/CS1.png","","","","",""
"","html-keyboard-response","62","456309","0.0-6.0-4.0-0.14","r9aeuuag1e","one_one","1","direct_first","1","is04as10","1","26","1","1","3","1","","0","1","0","null","","","<div class = 'row'><div class = 'column'><img src = 'category2/CS3.png' width = '70%;'></div><div class = 'column'><img src = 'uspos/2360.bmp' width = '100%;'></div></div>","null","pos","CS","CS","2","category2/CS3.png","","","","",""
"","html-keyboard-response","63","458825","0.0-6.0-4.0-0.15","r9aeuuag1e","one_one","1","direct_first","1","is04as10","1","26","1","1","3","1","","0","1","0","null","","","<div class = 'row'><div class = 'column'><img src = 'usneg/9560.bmp' width = '100%;'></div><div class = 'column'><img src = 'category4/CS10.png' width = '70%;'></div></div>","null","neg","CS","CS","4","category4/CS10.png","","","","",""
"","html-keyboard-response","64","461343","0.0-6.0-4.0-0.16","r9aeuuag1e","one_one","1","direct_first","1","is04as10","1","26","1","1","3","1","","0","1","0","null","","","<div class = 'row'><div class = 'column'><img src = 'category3/CS8.png' width = '70%;'></div><div class = 'column'><img src = 'uspos/5470.bmp' width = '100%;'></div></div>","null","pos","CS","CS","3","category3/CS8.png","","","","",""
"","html-keyboard-response","65","463874","0.0-6.0-4.0-0.17","r9aeuuag1e","one_one","1","direct_first","1","is04as10","1","26","1","1","3","1","","0","1","0","null","","","<div class = 'row'><div class = 'column'><img src = 'usneg/9560.bmp' width = '100%;'></div><div class = 'column'><img src = 'category4/CS10.png' width = '70%;'></div></div>","null","neg","CS","CS","4","category4/CS10.png","","","","",""
"","html-keyboard-response","66","466391","0.0-6.0-4.0-0.18","r9aeuuag1e","one_one","1","direct_first","1","is04as10","1","26","1","1","3","1","","0","1","0","null","","","<div class = 'row'><div class = 'column'><img src = 'uspos/2360.bmp' width = '100%;'></div><div class = 'column'><img src = 'category2/CS3.png' width = '70%;'></div></div>","null","pos","CS","CS","2","category2/CS3.png","","","","",""
"","html-keyboard-response","67","468913","0.0-6.0-4.0-0.19","r9aeuuag1e","one_one","1","direct_first","1","is04as10","1","26","1","1","3","1","","0","1","0","null","","","<div class = 'row'><div class = 'column'><img src = 'uspos/5470.bmp' width = '100%;'></div><div class = 'column'><img src = 'category3/CS8.png' width = '70%;'></div></div>","null","pos","CS","CS","3","category3/CS8.png","","","","",""
"","survey-html-form","68","472959","0.0-6.0-5.0","r9aeuuag1e","one_one","1","direct_first","1","is04as10","1","26","1","1","3","1","","0","1","0","3540.1249999413267","","{}","","","","","","","","","","","",""
"","html-keyboard-response","69","476987","0.0-6.0-6.0-0.0","r9aeuuag1e","one_one","1","direct_first","1","is04as10","1","26","1","1","3","1","","0","1","0","null","","","<div class = 'row'><div class = 'column'><img src = 'category2/CS3.png' width = '70%;'></div><div class = 'column'><img src = 'uspos/2360.bmp' width = '100%;'></div></div>","null","pos","CS","CS","2","category2/CS3.png","","","","",""
"","html-keyboard-response","70","479525","0.0-6.0-6.0-0.1","r9aeuuag1e","one_one","1","direct_first","1","is04as10","1","26","1","1","3","1","","0","1","0","null","","","<div class = 'row'><div class = 'column'><img src = 'category4/CS10.png' width = '70%;'></div><div class = 'column'><img src = 'usneg/9560.bmp' width = '100%;'></div></div>","null","neg","CS","CS","4","category4/CS10.png","","","","",""
"","html-keyboard-response","71","482059","0.0-6.0-6.0-0.2","r9aeuuag1e","one_one","1","direct_first","1","is04as10","1","26","1","1","3","1","","0","1","0","null","","","<div class = 'row'><div class = 'column'><img src = 'category3/CS8.png' width = '70%;'></div><div class = 'column'><img src = 'uspos/5470.bmp' width = '100%;'></div></div>","null","pos","CS","CS","3","category3/CS8.png","","","","",""
"","html-keyboard-response","72","484589","0.0-6.0-6.0-0.3","r9aeuuag1e","one_one","1","direct_first","1","is04as10","1","26","1","1","3","1","","0","1","0","null","","","<div class = 'row'><div class = 'column'><img src = 'category1/CS1.png' width = '70%;'></div><div class = 'column'><img src = 'usneg/6838.bmp' width = '100%;'></div></div>","null","neg","CS","CS","1","category1/CS1.png","","","","",""
"","html-keyboard-response","73","487099","0.0-6.0-6.0-0.4","r9aeuuag1e","one_one","1","direct_first","1","is04as10","1","26","1","1","3","1","","0","1","0","null","","","<div class = 'row'><div class = 'column'><img src = 'category2/CS3.png' width = '70%;'></div><div class = 'column'><img src = 'uspos/2360.bmp' width = '100%;'></div></div>","null","pos","CS","CS","2","category2/CS3.png","","","","",""
"","html-keyboard-response","74","489620","0.0-6.0-6.0-0.5","r9aeuuag1e","one_one","1","direct_first","1","is04as10","1","26","1","1","3","1","","0","1","0","null","","","<div class = 'row'><div class = 'column'><img src = 'category1/CS1.png' width = '70%;'></div><div class = 'column'><img src = 'usneg/6838.bmp' width = '100%;'></div></div>","null","neg","CS","CS","1","category1/CS1.png","","","","",""
"","html-keyboard-response","75","492134","0.0-6.0-6.0-0.6","r9aeuuag1e","one_one","1","direct_first","1","is04as10","1","26","1","1","3","1","","0","1","0","null","","","<div class = 'row'><div class = 'column'><img src = 'category4/CS10.png' width = '70%;'></div><div class = 'column'><img src = 'usneg/9560.bmp' width = '100%;'></div></div>","null","neg","CS","CS","4","category4/CS10.png","","","","",""
"","html-keyboard-response","76","494668","0.0-6.0-6.0-0.7","r9aeuuag1e","one_one","1","direct_first","1","is04as10","1","26","1","1","3","1","","0","1","0","null","","","<div class = 'row'><div class = 'column'><img src = 'usneg/6838.bmp' width = '100%;'></div><div class = 'column'><img src = 'category1/CS1.png' width = '70%;'></div></div>","null","neg","CS","CS","1","category1/CS1.png","","","","",""
"","html-keyboard-response","77","497195","0.0-6.0-6.0-0.8","r9aeuuag1e","one_one","1","direct_first","1","is04as10","1","26","1","1","3","1","","0","1","0","null","","","<div class = 'row'><div class = 'column'><img src = 'usneg/9560.bmp' width = '100%;'></div><div class = 'column'><img src = 'category4/CS10.png' width = '70%;'></div></div>","null","neg","CS","CS","4","category4/CS10.png","","","","",""
"","html-keyboard-response","78","499714","0.0-6.0-6.0-0.9","r9aeuuag1e","one_one","1","direct_first","1","is04as10","1","26","1","1","3","1","","0","1","0","null","","","<div class = 'row'><div class = 'column'><img src = 'category2/CS3.png' width = '70%;'></div><div class = 'column'><img src = 'uspos/2360.bmp' width = '100%;'></div></div>","null","pos","CS","CS","2","category2/CS3.png","","","","",""
"","html-keyboard-response","79","502241","0.0-6.0-6.0-0.10","r9aeuuag1e","one_one","1","direct_first","1","is04as10","1","26","1","1","3","1","","0","1","0","null","","","<div class = 'row'><div class = 'column'><img src = 'category3/CS8.png' width = '70%;'></div><div class = 'column'><img src = 'uspos/5470.bmp' width = '100%;'></div></div>","null","pos","CS","CS","3","category3/CS8.png","","","","",""
"","html-keyboard-response","80","504761","0.0-6.0-6.0-0.11","r9aeuuag1e","one_one","1","direct_first","1","is04as10","1","26","1","1","3","1","","0","1","0","null","","","<div class = 'row'><div class = 'column'><img src = 'category4/CS10.png' width = '70%;'></div><div class = 'column'><img src = 'usneg/9560.bmp' width = '100%;'></div></div>","null","neg","CS","CS","4","category4/CS10.png","","","","",""
"","html-keyboard-response","81","507286","0.0-6.0-6.0-0.12","r9aeuuag1e","one_one","1","direct_first","1","is04as10","1","26","1","1","3","1","","0","1","0","null","","","<div class = 'row'><div class = 'column'><img src = 'category3/CS8.png' width = '70%;'></div><div class = 'column'><img src = 'uspos/5470.bmp' width = '100%;'></div></div>","null","pos","CS","CS","3","category3/CS8.png","","","","",""
"","html-keyboard-response","82","509810","0.0-6.0-6.0-0.13","r9aeuuag1e","one_one","1","direct_first","1","is04as10","1","26","1","1","3","1","","0","1","0","null","","","<div class = 'row'><div class = 'column'><img src = 'usneg/9560.bmp' width = '100%;'></div><div class = 'column'><img src = 'category4/CS10.png' width = '70%;'></div></div>","null","neg","CS","CS","4","category4/CS10.png","","","","",""
"","html-keyboard-response","83","512339","0.0-6.0-6.0-0.14","r9aeuuag1e","one_one","1","direct_first","1","is04as10","1","26","1","1","3","1","","0","1","0","null","","","<div class = 'row'><div class = 'column'><img src = 'category1/CS1.png' width = '70%;'></div><div class = 'column'><img src = 'usneg/6838.bmp' width = '100%;'></div></div>","null","neg","CS","CS","1","category1/CS1.png","","","","",""
"","html-keyboard-response","84","514863","0.0-6.0-6.0-0.15","r9aeuuag1e","one_one","1","direct_first","1","is04as10","1","26","1","1","3","1","","0","1","0","null","","","<div class = 'row'><div class = 'column'><img src = 'category3/CS8.png' width = '70%;'></div><div class = 'column'><img src = 'uspos/5470.bmp' width = '100%;'></div></div>","null","pos","CS","CS","3","category3/CS8.png","","","","",""
"","html-keyboard-response","85","517376","0.0-6.0-6.0-0.16","r9aeuuag1e","one_one","1","direct_first","1","is04as10","1","26","1","1","3","1","","0","1","0","null","","","<div class = 'row'><div class = 'column'><img src = 'usneg/6838.bmp' width = '100%;'></div><div class = 'column'><img src = 'category1/CS1.png' width = '70%;'></div></div>","null","neg","CS","CS","1","category1/CS1.png","","","","",""
"","html-keyboard-response","86","519889","0.0-6.0-6.0-0.17","r9aeuuag1e","one_one","1","direct_first","1","is04as10","1","26","1","1","3","1","","0","1","0","null","","","<div class = 'row'><div class = 'column'><img src = 'uspos/2360.bmp' width = '100%;'></div><div class = 'column'><img src = 'category2/CS3.png' width = '70%;'></div></div>","null","pos","CS","CS","2","category2/CS3.png","","","","",""
"","html-keyboard-response","87","522412","0.0-6.0-6.0-0.18","r9aeuuag1e","one_one","1","direct_first","1","is04as10","1","26","1","1","3","1","","0","1","0","null","","","<div class = 'row'><div class = 'column'><img src = 'category3/CS8.png' width = '70%;'></div><div class = 'column'><img src = 'uspos/5470.bmp' width = '100%;'></div></div>","null","pos","CS","CS","3","category3/CS8.png","","","","",""
"","html-keyboard-response","88","524935","0.0-6.0-6.0-0.19","r9aeuuag1e","one_one","1","direct_first","1","is04as10","1","26","1","1","3","1","","0","1","0","null","","","<div class = 'row'><div class = 'column'><img src = 'uspos/2360.bmp' width = '100%;'></div><div class = 'column'><img src = 'category2/CS3.png' width = '70%;'></div></div>","null","pos","CS","CS","2","category2/CS3.png","","","","",""
"","survey-html-form","89","544589","0.0-7.0","r9aeuuag1e","one_one","1","direct_first","1","is04as10","1","26","1","1","3","1","","0","1","0","19148.20499997586","","{}","","","","","","","","","","","",""
"","image-slider-response","90","560790","0.0-8.0-0.0","r9aeuuag1e","one_one","1","direct_first","1","is04as10","1","26","1","1","3","1","","0","1","0","14187.105000019073","","","","","pos","GS","GSold","3","category3/CS6.png","-2","targets/37.png","direct","",""
"","image-slider-response","91","569337","0.0-8.0-0.1","r9aeuuag1e","one_one","1","direct_first","1","is04as10","1","26","1","1","3","1","","0","1","0","8537.494999938644","","","","","neg","GS","GSnew","4","category4/GS1.png","-45","targets/19.png","direct","",""
"","image-slider-response","92","576870","0.0-8.0-0.2","r9aeuuag1e","one_one","1","direct_first","1","is04as10","1","26","1","1","3","1","","0","1","0","7527.050000033341","","","","","pos","GS","GSold","2","category2/CS1.png","-21","targets/29.png","direct","",""
"","image-slider-response","93","580551","0.0-8.0-0.3","r9aeuuag1e","one_one","1","direct_first","1","is04as10","1","26","1","1","3","1","","0","1","0","3671.555000008084","","","","","neg","GS","GSold","4","category4/CS5.png","54","targets/47.png","direct","",""
"","image-slider-response","94","589434","0.0-8.0-0.4","r9aeuuag1e","one_one","1","direct_first","1","is04as10","1","26","1","1","3","1","","0","1","0","8871.730000013486","","","","","neg","GS","abstract","4","category4/lin.png","-76","targets/23.png","direct","",""
"","image-slider-response","95","594833","0.0-8.0-0.5","r9aeuuag1e","one_one","1","direct_first","1","is04as10","1","26","1","1","3","1","","0","1","0","5388.964999932796","","","","","pos","GS","GSold","3","category3/CS7.png","94","targets/46.png","direct","",""
"","image-slider-response","96","599466","0.0-8.0-0.6","r9aeuuag1e","one_one","1","direct_first","1","is04as10","1","26","1","1","3","1","","0","1","0","4624.019999988377","","","","","pos","GS","GSold","2","category2/CS6.png","25","targets/2.png","direct","",""
"","image-slider-response","97","604164","0.0-8.0-0.7","r9aeuuag1e","one_one","1","direct_first","1","is04as10","1","26","1","1","3","1","","0","1","0","4690.494999988005","","","","","neg","GS","GSold","1","category1/CS4.png","16","targets/8.png","direct","",""
"","image-slider-response","98","608795","0.0-8.0-0.8","r9aeuuag1e","one_one","1","direct_first","1","is04as10","1","26","1","1","3","1","","0","1","0","4623.080000048503","","","","","pos","GS","GSnew","3","category3/GS2.png","56","targets/3.png","direct","",""
"","image-slider-response","99","612555","0.0-8.0-0.9","r9aeuuag1e","one_one","1","direct_first","1","is04as10","1","26","1","1","3","1","","0","1","0","3753.525000065565","","","","","neg","GS","GSold","4","category4/CS8.png","-30","targets/12.png","direct","",""
"","image-slider-response","100","616626","0.0-8.0-0.10","r9aeuuag1e","one_one","1","direct_first","1","is04as10","1","26","1","1","3","1","","0","1","0","4063.744999933988","","","","","neg","GS","GSnew","1","category1/GS1.png","4","targets/1.png","direct","",""
"","image-slider-response","101","620839","0.0-8.0-0.11","r9aeuuag1e","one_one","1","direct_first","1","is04as10","1","26","1","1","3","1","","0","1","0","4206.630000029691","","","","","neg","GS","GSnew","1","category1/GS2.png","-16","targets/16.png","direct","",""
"","image-slider-response","102","625795","0.0-8.0-0.12","r9aeuuag1e","one_one","1","direct_first","1","is04as10","1","26","1","1","3","1","","0","1","0","4949.945000000298","","","","","pos","GS","GSold","3","category3/CS3.png","4","targets/45.png","direct","",""
"","image-slider-response","103","631325","0.0-8.0-0.13","r9aeuuag1e","one_one","1","direct_first","1","is04as10","1","26","1","1","3","1","","0","1","0","5520.554999937303","","","","","neg","GS","GSnew","4","category4/GS3.png","-7","targets/21.png","direct","",""
"","image-slider-response","104","638354","0.0-8.0-0.14","r9aeuuag1e","one_one","1","direct_first","1","is04as10","1","26","1","1","3","1","","0","1","0","7016.09000004828","","","","","neg","GS","GSold","1","category1/CS8.png","3","targets/30.png","direct","",""
"","image-slider-response","105","643716","0.0-8.0-0.15","r9aeuuag1e","one_one","1","direct_first","1","is04as10","1","26","1","1","3","1","","0","1","0","5356.55999998562","","","","","pos","GS","GSold","2","category2/CS5.png","99","targets/34.png","direct","",""
"","image-slider-response","106","651487","0.0-8.0-0.16","r9aeuuag1e","one_one","1","direct_first","1","is04as10","1","26","1","1","3","1","","0","1","0","7762.589999940246","","","","","pos","GS","abstract","3","category3/wang.png","100","targets/10.png","direct","",""
"","image-slider-response","107","654968","0.0-8.0-0.17","r9aeuuag1e","one_one","1","direct_first","1","is04as10","1","26","1","1","3","1","","0","1","0","3474.7000000206754","","","","","neg","GS","abstract","1","category1/ma.png","-20","targets/36.png","direct","",""
"","image-slider-response","108","660689","0.0-8.0-0.18","r9aeuuag1e","one_one","1","direct_first","1","is04as10","1","26","1","1","3","1","","0","1","0","5714.88500002306","","","","","neg","GS","GSold","4","category4/CS3.png","-32","targets/27.png","direct","",""
"","image-slider-response","109","663914","0.0-8.0-0.19","r9aeuuag1e","one_one","1","direct_first","1","is04as10","1","26","1","1","3","1","","0","1","0","3214.8550000274554","","","","","pos","GS","GSnew","2","category2/GS2.png","19","targets/26.png","direct","",""
"","image-slider-response","110","667447","0.0-8.0-0.20","r9aeuuag1e","one_one","1","direct_first","1","is04as10","1","26","1","1","3","1","","0","1","0","3525.5899999756366","","","","","neg","GS","GSnew","1","category1/GS3.png","-35","targets/14.png","direct","",""
"","image-slider-response","111","670196","0.0-8.0-0.21","r9aeuuag1e","one_one","1","direct_first","1","is04as10","1","26","1","1","3","1","","0","1","0","2741.150000016205","","","","","pos","GS","GSnew","2","category2/GS3.png","26","targets/9.png","direct","",""
"","image-slider-response","112","673879","0.0-8.0-0.22","r9aeuuag1e","one_one","1","direct_first","1","is04as10","1","26","1","1","3","1","","0","1","0","3674.9549999367446","","","","","pos","CS","CS","2","category2/CS3.png","100","targets/24.png","direct","",""
"","image-slider-response","113","682183","0.0-8.0-0.23","r9aeuuag1e","one_one","1","direct_first","1","is04as10","1","26","1","1","3","1","","0","1","0","8297.535000019707","","","","","neg","CS","CS","4","category4/CS10.png","-40","targets/48.png","direct","",""
"","image-slider-response","114","688916","0.0-8.0-0.24","r9aeuuag1e","one_one","1","direct_first","1","is04as10","1","26","1","1","3","1","","0","1","0","6725.295000011101","","","","","neg","CS","CS","1","category1/CS1.png","-14","targets/43.png","direct","",""
"","image-slider-response","115","693649","0.0-8.0-0.25","r9aeuuag1e","one_one","1","direct_first","1","is04as10","1","26","1","1","3","1","","0","1","0","4726.855000015348","","","","","pos","GS","GSnew","3","category3/GS3.png","35","targets/42.png","direct","",""
"","image-slider-response","116","697396","0.0-8.0-0.26","r9aeuuag1e","one_one","1","direct_first","1","is04as10","1","26","1","1","3","1","","0","1","0","3740.609999978915","","","","","pos","GS","GSnew","2","category2/GS1.png","8","targets/11.png","direct","",""
"","image-slider-response","117","704012","0.0-8.0-0.27","r9aeuuag1e","one_one","1","direct_first","1","is04as10","1","26","1","1","3","1","","0","1","0","6609.895000001416","","","","","pos","CS","CS","3","category3/CS8.png","67","targets/15.png","direct","",""
"","image-slider-response","118","708161","0.0-8.0-0.28","r9aeuuag1e","one_one","1","direct_first","1","is04as10","1","26","1","1","3","1","","0","1","0","4144.14999994915","","","","","neg","GS","GSnew","4","category4/GS2.png","-39","targets/20.png","direct","",""
"","image-slider-response","119","714841","0.0-8.0-0.29","r9aeuuag1e","one_one","1","direct_first","1","is04as10","1","26","1","1","3","1","","0","1","0","6672.804999980144","","","","","pos","GS","GSnew","3","category3/GS1.png","37","targets/25.png","direct","",""
"","image-slider-response","120","719583","0.0-8.0-0.30","r9aeuuag1e","one_one","1","direct_first","1","is04as10","1","26","1","1","3","1","","0","1","0","4737.405000021681","","","","","pos","GS","abstract","2","category2/men.png","72","targets/7.png","direct","",""
"","image-slider-response","121","724163","0.0-8.0-0.31","r9aeuuag1e","one_one","1","direct_first","1","is04as10","1","26","1","1","3","1","","0","1","0","4572.045000037178","","","","","neg","GS","GSold","1","category1/CS5.png","22","targets/18.png","direct","",""
"","html-keyboard-response","122","757318","0.0-9.0","r9aeuuag1e","one_one","1","direct_first","1","is04as10","1","26","1","1","3","1","","0","1","0","33148.55000004172","","","<p>Sie sehen nun die chinesischen Zeichen nur ganz kurz. Danach sehen Sie die jeweilige Aussprache der Zeichen als Silbe auf dem Bildschrim. Ihre Aufgabe ist es, für jede Silbe anzugeben, ob diese etwas angenehmes, oder unangenehmes bedeuten könnte. Verlassen Sie sich hier vor allem auf Ihre Intuition.<br><br>Die Zeichen werden nur zur Orientierung dargestellt, beachten Sie sie deshalb nicht. Konzentrieren Sie sich vor allem auf die Silben. <br>Reagieren Sie mit folgenden zwei Tasten: <br><br><b>'D' </b> wenn die Silbe etwas <b>unangenehmes</b> bedeuten könnte. <br><b>'K'</b> wenn die Silbe etwas <b>angenehmes</b> bedeuten könnte. <br><br>Bitte legen Sie nun den Zeigefinger der linken Hand auf die Taste 'D' und den Zeigefinger der rechten Hand auf die Taste 'K'. <br>Reagieren Sie auf jede Silbe so schnell wie möglich. Uns interessiert Ihre spontane Reaktion. <br> <br> <br>Drücken Sie 'D' oder 'K', um die nächste Aufgabe zu starten. </p>","68","","","","","","","","","",""
"","html-keyboard-response","123","760328","0.0-10.0-0.0","r9aeuuag1e","one_one","1","direct_first","1","is04as10","1","26","1","1","3","1","","0","1","0","null","","","<div style=""font-size:60px;"">+</div>","null","","","","","","","","","",""
"","html-keyboard-response","124","760423","0.0-10.0-1.0","r9aeuuag1e","one_one","1","direct_first","1","is04as10","1","26","1","1","3","1","","0","1","0","null","","","<img src = 'category1/CS1.png' width = '100%;'>","null","","","","","","","","","",""
"","html-keyboard-response","125","760689","0.0-10.0-2.0","r9aeuuag1e","one_one","1","direct_first","1","is04as10","1","26","1","1","3","1","","0","1","0","null","","","<img src = 'targets/43.png' width = '100%;'>","null","","","","","","","","","",""
"","html-keyboard-response","126","764273","0.0-10.0-3.0","r9aeuuag1e","one_one","1","direct_first","1","is04as10","1","26","1","1","3","1","","0","1","0","3580.4749999661","","","<img src = 'targets/mask.png' width = '100%;'>","75","neg","CS","CS","1","category1/CS1.png","","targets/43.png","indirect","1","0"
"","html-keyboard-response","127","765794","0.0-10.0-0.1","r9aeuuag1e","one_one","1","direct_first","1","is04as10","1","26","1","1","3","1","","0","1","0","null","","","<div style=""font-size:60px;"">+</div>","null","","","","","","","","","",""
"","html-keyboard-response","128","765887","0.0-10.0-1.1","r9aeuuag1e","one_one","1","direct_first","1","is04as10","1","26","1","1","3","1","","0","1","0","null","","","<img src = 'category4/CS3.png' width = '100%;'>","null","","","","","","","","","",""
"","html-keyboard-response","129","766153","0.0-10.0-2.1","r9aeuuag1e","one_one","1","direct_first","1","is04as10","1","26","1","1","3","1","","0","1","0","null","","","<img src = 'targets/27.png' width = '100%;'>","null","","","","","","","","","",""
"","html-keyboard-response","130","767575","0.0-10.0-3.1","r9aeuuag1e","one_one","1","direct_first","1","is04as10","1","26","1","1","3","1","","0","1","0","1418.4099999256432","","","<img src = 'targets/mask.png' width = '100%;'>","68","neg","GS","GSold","4","category4/CS3.png","","targets/27.png","indirect","0","1"
"","html-keyboard-response","131","769087","0.0-10.0-0.2","r9aeuuag1e","one_one","1","direct_first","1","is04as10","1","26","1","1","3","1","","0","1","0","null","","","<div style=""font-size:60px;"">+</div>","null","","","","","","","","","",""
"","html-keyboard-response","132","769178","0.0-10.0-1.2","r9aeuuag1e","one_one","1","direct_first","1","is04as10","1","26","1","1","3","1","","0","1","0","null","","","<img src = 'category4/CS10.png' width = '100%;'>","null","","","","","","","","","",""
"","html-keyboard-response","133","769433","0.0-10.0-2.2","r9aeuuag1e","one_one","1","direct_first","1","is04as10","1","26","1","1","3","1","","0","1","0","null","","","<img src = 'targets/48.png' width = '100%;'>","null","","","","","","","","","",""
"","html-keyboard-response","134","770892","0.0-10.0-3.2","r9aeuuag1e","one_one","1","direct_first","1","is04as10","1","26","1","1","3","1","","0","1","0","1454.3600000906736","","","<img src = 'targets/mask.png' width = '100%;'>","75","neg","CS","CS","4","category4/CS10.png","","targets/48.png","indirect","1","2"
"","html-keyboard-response","135","772408","0.0-10.0-0.3","r9aeuuag1e","one_one","1","direct_first","1","is04as10","1","26","1","1","3","1","","0","1","0","null","","","<div style=""font-size:60px;"">+</div>","null","","","","","","","","","",""
"","html-keyboard-response","136","772501","0.0-10.0-1.3","r9aeuuag1e","one_one","1","direct_first","1","is04as10","1","26","1","1","3","1","","0","1","0","null","","","<img src = 'category2/CS1.png' width = '100%;'>","null","","","","","","","","","",""
"","html-keyboard-response","137","772756","0.0-10.0-2.3","r9aeuuag1e","one_one","1","direct_first","1","is04as10","1","26","1","1","3","1","","0","1","0","null","","","<img src = 'targets/29.png' width = '100%;'>","null","","","","","","","","","",""
"","html-keyboard-response","138","775123","0.0-10.0-3.3","r9aeuuag1e","one_one","1","direct_first","1","is04as10","1","26","1","1","3","1","","0","1","0","2363.935000030324","","","<img src = 'targets/mask.png' width = '100%;'>","75","pos","GS","GSold","2","category2/CS1.png","","targets/29.png","indirect","1","3"
"","html-keyboard-response","139","776644","0.0-10.0-0.4","r9aeuuag1e","one_one","1","direct_first","1","is04as10","1","26","1","1","3","1","","0","1","0","null","","","<div style=""font-size:60px;"">+</div>","null","","","","","","","","","",""
"","html-keyboard-response","140","776736","0.0-10.0-1.4","r9aeuuag1e","one_one","1","direct_first","1","is04as10","1","26","1","1","3","1","","0","1","0","null","","","<img src = 'category3/CS7.png' width = '100%;'>","null","","","","","","","","","",""
"","html-keyboard-response","141","776993","0.0-10.0-2.4","r9aeuuag1e","one_one","1","direct_first","1","is04as10","1","26","1","1","3","1","","0","1","0","null","","","<img src = 'targets/46.png' width = '100%;'>","null","","","","","","","","","",""
"","html-keyboard-response","142","779533","0.0-10.0-3.4","r9aeuuag1e","one_one","1","direct_first","1","is04as10","1","26","1","1","3","1","","0","1","0","2536.019999999553","","","<img src = 'targets/mask.png' width = '100%;'>","75","pos","GS","GSold","3","category3/CS7.png","","targets/46.png","indirect","1","4"
"","html-keyboard-response","143","781059","0.0-10.0-0.5","r9aeuuag1e","one_one","1","direct_first","1","is04as10","1","26","1","1","3","1","","0","1","0","null","","","<div style=""font-size:60px;"">+</div>","null","","","","","","","","","",""
"","html-keyboard-response","144","781152","0.0-10.0-1.5","r9aeuuag1e","one_one","1","direct_first","1","is04as10","1","26","1","1","3","1","","0","1","0","null","","","<img src = 'category4/CS8.png' width = '100%;'>","null","","","","","","","","","",""
"","html-keyboard-response","145","781408","0.0-10.0-2.5","r9aeuuag1e","one_one","1","direct_first","1","is04as10","1","26","1","1","3","1","","0","1","0","null","","","<img src = 'targets/12.png' width = '100%;'>","null","","","","","","","","","",""
"","html-keyboard-response","146","782257","0.0-10.0-3.5","r9aeuuag1e","one_one","1","direct_first","1","is04as10","1","26","1","1","3","1","","0","1","0","842.7249999949709","","","<img src = 'targets/mask.png' width = '100%;'>","68","neg","GS","GSold","4","category4/CS8.png","","targets/12.png","indirect","0","5"
"","html-keyboard-response","147","783769","0.0-10.0-0.6","r9aeuuag1e","one_one","1","direct_first","1","is04as10","1","26","1","1","3","1","","0","1","0","null","","","<div style=""font-size:60px;"">+</div>","null","","","","","","","","","",""
"","html-keyboard-response","148","783877","0.0-10.0-1.6","r9aeuuag1e","one_one","1","direct_first","1","is04as10","1","26","1","1","3","1","","0","1","0","null","","","<img src = 'category1/CS5.png' width = '100%;'>","null","","","","","","","","","",""
"","html-keyboard-response","149","784145","0.0-10.0-2.6","r9aeuuag1e","one_one","1","direct_first","1","is04as10","1","26","1","1","3","1","","0","1","0","null","","","<img src = 'targets/18.png' width = '100%;'>","null","","","","","","","","","",""
"","html-keyboard-response","150","785674","0.0-10.0-3.6","r9aeuuag1e","one_one","1","direct_first","1","is04as10","1","26","1","1","3","1","","0","1","0","1525.7500000298023","","","<img src = 'targets/mask.png' width = '100%;'>","75","neg","GS","GSold","1","category1/CS5.png","","targets/18.png","indirect","1","6"
"","html-keyboard-response","151","787180","0.0-10.0-0.7","r9aeuuag1e","one_one","1","direct_first","1","is04as10","1","26","1","1","3","1","","0","1","0","null","","","<div style=""font-size:60px;"">+</div>","null","","","","","","","","","",""
"","html-keyboard-response","152","787274","0.0-10.0-1.7","r9aeuuag1e","one_one","1","direct_first","1","is04as10","1","26","1","1","3","1","","0","1","0","null","","","<img src = 'category3/CS8.png' width = '100%;'>","null","","","","","","","","","",""
"","html-keyboard-response","153","787557","0.0-10.0-2.7","r9aeuuag1e","one_one","1","direct_first","1","is04as10","1","26","1","1","3","1","","0","1","0","null","","","<img src = 'targets/15.png' width = '100%;'>","null","","","","","","","","","",""
"","html-keyboard-response","154","789928","0.0-10.0-3.7","r9aeuuag1e","one_one","1","direct_first","1","is04as10","1","26","1","1","3","1","","0","1","0","2365.679999929853","","","<img src = 'targets/mask.png' width = '100%;'>","75","pos","CS","CS","3","category3/CS8.png","","targets/15.png","indirect","1","7"
"","html-keyboard-response","155","791450","0.0-10.0-0.8","r9aeuuag1e","one_one","1","direct_first","1","is04as10","1","26","1","1","3","1","","0","1","0","null","","","<div style=""font-size:60px;"">+</div>","null","","","","","","","","","",""
"","html-keyboard-response","156","791544","0.0-10.0-1.8","r9aeuuag1e","one_one","1","direct_first","1","is04as10","1","26","1","1","3","1","","0","1","0","null","","","<img src = 'category2/CS6.png' width = '100%;'>","null","","","","","","","","","",""
"","html-keyboard-response","157","791812","0.0-10.0-2.8","r9aeuuag1e","one_one","1","direct_first","1","is04as10","1","26","1","1","3","1","","0","1","0","null","","","<img src = 'targets/2.png' width = '100%;'>","null","","","","","","","","","",""
"","html-keyboard-response","158","792993","0.0-10.0-3.8","r9aeuuag1e","one_one","1","direct_first","1","is04as10","1","26","1","1","3","1","","0","1","0","1174.750000005588","","","<img src = 'targets/mask.png' width = '100%;'>","68","pos","GS","GSold","2","category2/CS6.png","","targets/2.png","indirect","0","8"
"","html-keyboard-response","159","794505","0.0-10.0-0.9","r9aeuuag1e","one_one","1","direct_first","1","is04as10","1","26","1","1","3","1","","0","1","0","null","","","<div style=""font-size:60px;"">+</div>","null","","","","","","","","","",""
"","html-keyboard-response","160","794598","0.0-10.0-1.9","r9aeuuag1e","one_one","1","direct_first","1","is04as10","1","26","1","1","3","1","","0","1","0","null","","","<img src = 'category2/CS3.png' width = '100%;'>","null","","","","","","","","","",""
"","html-keyboard-response","161","794856","0.0-10.0-2.9","r9aeuuag1e","one_one","1","direct_first","1","is04as10","1","26","1","1","3","1","","0","1","0","null","","","<img src = 'targets/24.png' width = '100%;'>","null","","","","","","","","","",""
"","html-keyboard-response","162","795939","0.0-10.0-3.9","r9aeuuag1e","one_one","1","direct_first","1","is04as10","1","26","1","1","3","1","","0","1","0","1080.695000011474","","","<img src = 'targets/mask.png' width = '100%;'>","75","pos","CS","CS","2","category2/CS3.png","","targets/24.png","indirect","1","9"
"","html-keyboard-response","163","797456","0.0-10.0-0.10","r9aeuuag1e","one_one","1","direct_first","1","is04as10","1","26","1","1","3","1","","0","1","0","null","","","<div style=""font-size:60px;"">+</div>","null","","","","","","","","","",""
"","html-keyboard-response","164","797552","0.0-10.0-1.10","r9aeuuag1e","one_one","1","direct_first","1","is04as10","1","26","1","1","3","1","","0","1","0","null","","","<img src = 'category3/CS6.png' width = '100%;'>","null","","","","","","","","","",""
"","html-keyboard-response","165","797833","0.0-10.0-2.10","r9aeuuag1e","one_one","1","direct_first","1","is04as10","1","26","1","1","3","1","","0","1","0","null","","","<img src = 'targets/37.png' width = '100%;'>","null","","","","","","","","","",""
"","html-keyboard-response","166","799223","0.0-10.0-3.10","r9aeuuag1e","one_one","1","direct_first","1","is04as10","1","26","1","1","3","1","","0","1","0","1384.2100000474602","","","<img src = 'targets/mask.png' width = '100%;'>","75","pos","GS","GSold","3","category3/CS6.png","","targets/37.png","indirect","1","10"
"","html-keyboard-response","167","800737","0.0-10.0-0.11","r9aeuuag1e","one_one","1","direct_first","1","is04as10","1","26","1","1","3","1","","0","1","0","null","","","<div style=""font-size:60px;"">+</div>","null","","","","","","","","","",""
"","html-keyboard-response","168","800830","0.0-10.0-1.11","r9aeuuag1e","one_one","1","direct_first","1","is04as10","1","26","1","1","3","1","","0","1","0","null","","","<img src = 'category1/CS4.png' width = '100%;'>","null","","","","","","","","","",""
"","html-keyboard-response","169","801111","0.0-10.0-2.11","r9aeuuag1e","one_one","1","direct_first","1","is04as10","1","26","1","1","3","1","","0","1","0","null","","","<img src = 'targets/8.png' width = '100%;'>","null","","","","","","","","","",""
"","html-keyboard-response","170","801968","0.0-10.0-3.11","r9aeuuag1e","one_one","1","direct_first","1","is04as10","1","26","1","1","3","1","","0","1","0","852.2050000028685","","","<img src = 'targets/mask.png' width = '100%;'>","68","neg","GS","GSold","1","category1/CS4.png","","targets/8.png","indirect","0","11"
"","html-keyboard-response","171","803485","0.0-10.0-0.12","r9aeuuag1e","one_one","1","direct_first","1","is04as10","1","26","1","1","3","1","","0","1","0","null","","","<div style=""font-size:60px;"">+</div>","null","","","","","","","","","",""
"","html-keyboard-response","172","803579","0.0-10.0-1.12","r9aeuuag1e","one_one","1","direct_first","1","is04as10","1","26","1","1","3","1","","0","1","0","null","","","<img src = 'category3/CS3.png' width = '100%;'>","null","","","","","","","","","",""
"","html-keyboard-response","173","803845","0.0-10.0-2.12","r9aeuuag1e","one_one","1","direct_first","1","is04as10","1","26","1","1","3","1","","0","1","0","null","","","<img src = 'targets/45.png' width = '100%;'>","null","","","","","","","","","",""
"","html-keyboard-response","174","805303","0.0-10.0-3.12","r9aeuuag1e","one_one","1","direct_first","1","is04as10","1","26","1","1","3","1","","0","1","0","1452.5750000029802","","","<img src = 'targets/mask.png' width = '100%;'>","75","pos","GS","GSold","3","category3/CS3.png","","targets/45.png","indirect","1","12"
"","html-keyboard-response","175","806818","0.0-10.0-0.13","r9aeuuag1e","one_one","1","direct_first","1","is04as10","1","26","1","1","3","1","","0","1","0","null","","","<div style=""font-size:60px;"">+</div>","null","","","","","","","","","",""
"","html-keyboard-response","176","806911","0.0-10.0-1.13","r9aeuuag1e","one_one","1","direct_first","1","is04as10","1","26","1","1","3","1","","0","1","0","null","","","<img src = 'category4/CS5.png' width = '100%;'>","null","","","","","","","","","",""
"","html-keyboard-response","177","807177","0.0-10.0-2.13","r9aeuuag1e","one_one","1","direct_first","1","is04as10","1","26","1","1","3","1","","0","1","0","null","","","<img src = 'targets/47.png' width = '100%;'>","null","","","","","","","","","",""
"","html-keyboard-response","178","808923","0.0-10.0-3.13","r9aeuuag1e","one_one","1","direct_first","1","is04as10","1","26","1","1","3","1","","0","1","0","1742.2850000439212","","","<img src = 'targets/mask.png' width = '100%;'>","68","neg","GS","GSold","4","category4/CS5.png","","targets/47.png","indirect","0","13"
"","html-keyboard-response","179","810447","0.0-10.0-0.14","r9aeuuag1e","one_one","1","direct_first","1","is04as10","1","26","1","1","3","1","","0","1","0","null","","","<div style=""font-size:60px;"">+</div>","null","","","","","","","","","",""
"","html-keyboard-response","180","810542","0.0-10.0-1.14","r9aeuuag1e","one_one","1","direct_first","1","is04as10","1","26","1","1","3","1","","0","1","0","null","","","<img src = 'category2/CS5.png' width = '100%;'>","null","","","","","","","","","",""
"","html-keyboard-response","181","810823","0.0-10.0-2.14","r9aeuuag1e","one_one","1","direct_first","1","is04as10","1","26","1","1","3","1","","0","1","0","null","","","<img src = 'targets/34.png' width = '100%;'>","null","","","","","","","","","",""
"","html-keyboard-response","182","813542","0.0-10.0-3.14","r9aeuuag1e","one_one","1","direct_first","1","is04as10","1","26","1","1","3","1","","0","1","0","2716.2500000558794","","","<img src = 'targets/mask.png' width = '100%;'>","75","pos","GS","GSold","2","category2/CS5.png","","targets/34.png","indirect","1","14"
"","html-keyboard-response","183","815060","0.0-10.0-0.15","r9aeuuag1e","one_one","1","direct_first","1","is04as10","1","26","1","1","3","1","","0","1","0","null","","","<div style=""font-size:60px;"">+</div>","null","","","","","","","","","",""
"","html-keyboard-response","184","815155","0.0-10.0-1.15","r9aeuuag1e","one_one","1","direct_first","1","is04as10","1","26","1","1","3","1","","0","1","0","null","","","<img src = 'category1/CS8.png' width = '100%;'>","null","","","","","","","","","",""
"","html-keyboard-response","185","815437","0.0-10.0-2.15","r9aeuuag1e","one_one","1","direct_first","1","is04as10","1","26","1","1","3","1","","0","1","0","null","","","<img src = 'targets/30.png' width = '100%;'>","null","","","","","","","","","",""
"","html-keyboard-response","186","816934","0.0-10.0-3.15","r9aeuuag1e","one_one","1","direct_first","1","is04as10","1","26","1","1","3","1","","0","1","0","1490.4699999606237","","","<img src = 'targets/mask.png' width = '100%;'>","68","neg","GS","GSold","1","category1/CS8.png","","targets/30.png","indirect","0","15"
"","survey-html-form","187","819952","0.0-11.0","r9aeuuag1e","one_one","1","direct_first","1","is04as10","1","26","1","1","3","1","","0","1","0","2507.57999997586","","{}","","","","","","","","","","","",""
"","html-keyboard-response","188","822970","0.0-12.0-0.0","r9aeuuag1e","one_one","1","direct_first","1","is04as10","1","26","1","1","3","1","","0","1","0","null","","","<div style=""font-size:60px;"">+</div>","null","","","","","","","","","",""
"","html-keyboard-response","189","823064","0.0-12.0-1.0","r9aeuuag1e","one_one","1","direct_first","1","is04as10","1","26","1","1","3","1","","0","1","0","null","","","<img src = 'category3/GS3.png' width = '100%;'>","null","","","","","","","","","",""
"","html-keyboard-response","190","823330","0.0-12.0-2.0","r9aeuuag1e","one_one","1","direct_first","1","is04as10","1","26","1","1","3","1","","0","1","0","null","","","<img src = 'targets/42.png' width = '100%;'>","null","","","","","","","","","",""
"","html-keyboard-response","191","824571","0.0-12.0-3.0","r9aeuuag1e","one_one","1","direct_first","1","is04as10","1","26","1","1","3","1","","0","1","0","1238.4249999886379","","","<img src = 'targets/mask.png' width = '100%;'>","68","pos","GS","GSnew","3","category3/GS3.png","","targets/42.png","indirect","0","16"
"","html-keyboard-response","192","826083","0.0-12.0-0.1","r9aeuuag1e","one_one","1","direct_first","1","is04as10","1","26","1","1","3","1","","0","1","0","null","","","<div style=""font-size:60px;"">+</div>","null","","","","","","","","","",""
"","html-keyboard-response","193","826177","0.0-12.0-1.1","r9aeuuag1e","one_one","1","direct_first","1","is04as10","1","26","1","1","3","1","","0","1","0","null","","","<img src = 'category1/GS1.png' width = '100%;'>","null","","","","","","","","","",""
"","html-keyboard-response","194","826443","0.0-12.0-2.1","r9aeuuag1e","one_one","1","direct_first","1","is04as10","1","26","1","1","3","1","","0","1","0","null","","","<img src = 'targets/1.png' width = '100%;'>","null","","","","","","","","","",""
"","html-keyboard-response","195","827422","0.0-12.0-3.1","r9aeuuag1e","one_one","1","direct_first","1","is04as10","1","26","1","1","3","1","","0","1","0","973.7299999687821","","","<img src = 'targets/mask.png' width = '100%;'>","75","neg","GS","GSnew","1","category1/GS1.png","","targets/1.png","indirect","1","17"
"","html-keyboard-response","196","828938","0.0-12.0-0.2","r9aeuuag1e","one_one","1","direct_first","1","is04as10","1","26","1","1","3","1","","0","1","0","null","","","<div style=""font-size:60px;"">+</div>","null","","","","","","","","","",""
"","html-keyboard-response","197","829032","0.0-12.0-1.2","r9aeuuag1e","one_one","1","direct_first","1","is04as10","1","26","1","1","3","1","","0","1","0","null","","","<img src = 'category4/lin.png' width = '100%;'>","null","","","","","","","","","",""
"","html-keyboard-response","198","829313","0.0-12.0-2.2","r9aeuuag1e","one_one","1","direct_first","1","is04as10","1","26","1","1","3","1","","0","1","0","null","","","<img src = 'targets/23.png' width = '100%;'>","null","","","","","","","","","",""
"","html-keyboard-response","199","830777","0.0-12.0-3.2","r9aeuuag1e","one_one","1","direct_first","1","is04as10","1","26","1","1","3","1","","0","1","0","1460.289999959059","","","<img src = 'targets/mask.png' width = '100%;'>","68","neg","GS","abstract","4","category4/lin.png","","targets/23.png","indirect","0","18"
"","html-keyboard-response","200","832289","0.0-12.0-0.3","r9aeuuag1e","one_one","1","direct_first","1","is04as10","1","26","1","1","3","1","","0","1","0","null","","","<div style=""font-size:60px;"">+</div>","null","","","","","","","","","",""
"","html-keyboard-response","201","832382","0.0-12.0-1.3","r9aeuuag1e","one_one","1","direct_first","1","is04as10","1","26","1","1","3","1","","0","1","0","null","","","<img src = 'category4/GS1.png' width = '100%;'>","null","","","","","","","","","",""
"","html-keyboard-response","202","832636","0.0-12.0-2.3","r9aeuuag1e","one_one","1","direct_first","1","is04as10","1","26","1","1","3","1","","0","1","0","null","","","<img src = 'targets/19.png' width = '100%;'>","null","","","","","","","","","",""
"","html-keyboard-response","203","834806","0.0-12.0-3.3","r9aeuuag1e","one_one","1","direct_first","1","is04as10","1","26","1","1","3","1","","0","1","0","2166.9249999104068","","","<img src = 'targets/mask.png' width = '100%;'>","75","neg","GS","GSnew","4","category4/GS1.png","","targets/19.png","indirect","1","19"
"","html-keyboard-response","204","836337","0.0-12.0-0.4","r9aeuuag1e","one_one","1","direct_first","1","is04as10","1","26","1","1","3","1","","0","1","0","null","","","<div style=""font-size:60px;"">+</div>","null","","","","","","","","","",""
"","html-keyboard-response","205","836433","0.0-12.0-1.4","r9aeuuag1e","one_one","1","direct_first","1","is04as10","1","26","1","1","3","1","","0","1","0","null","","","<img src = 'category2/GS3.png' width = '100%;'>","null","","","","","","","","","",""
"","html-keyboard-response","206","836688","0.0-12.0-2.4","r9aeuuag1e","one_one","1","direct_first","1","is04as10","1","26","1","1","3","1","","0","1","0","null","","","<img src = 'targets/9.png' width = '100%;'>","null","","","","","","","","","",""
"","html-keyboard-response","207","838574","0.0-12.0-3.4","r9aeuuag1e","one_one","1","direct_first","1","is04as10","1","26","1","1","3","1","","0","1","0","1880.4500000551343","","","<img src = 'targets/mask.png' width = '100%;'>","68","pos","GS","GSnew","2","category2/GS3.png","","targets/9.png","indirect","0","20"
"","html-keyboard-response","208","840091","0.0-12.0-0.5","r9aeuuag1e","one_one","1","direct_first","1","is04as10","1","26","1","1","3","1","","0","1","0","null","","","<div style=""font-size:60px;"">+</div>","null","","","","","","","","","",""
"","html-keyboard-response","209","840187","0.0-12.0-1.5","r9aeuuag1e","one_one","1","direct_first","1","is04as10","1","26","1","1","3","1","","0","1","0","null","","","<img src = 'category3/GS1.png' width = '100%;'>","null","","","","","","","","","",""
"","html-keyboard-response","210","840455","0.0-12.0-2.5","r9aeuuag1e","one_one","1","direct_first","1","is04as10","1","26","1","1","3","1","","0","1","0","null","","","<img src = 'targets/25.png' width = '100%;'>","null","","","","","","","","","",""
"","html-keyboard-response","211","841524","0.0-12.0-3.5","r9aeuuag1e","one_one","1","direct_first","1","is04as10","1","26","1","1","3","1","","0","1","0","1063.6400000657886","","","<img src = 'targets/mask.png' width = '100%;'>","75","pos","GS","GSnew","3","category3/GS1.png","","targets/25.png","indirect","1","21"
"","html-keyboard-response","212","843041","0.0-12.0-0.6","r9aeuuag1e","one_one","1","direct_first","1","is04as10","1","26","1","1","3","1","","0","1","0","null","","","<div style=""font-size:60px;"">+</div>","null","","","","","","","","","",""
"","html-keyboard-response","213","843137","0.0-12.0-1.6","r9aeuuag1e","one_one","1","direct_first","1","is04as10","1","26","1","1","3","1","","0","1","0","null","","","<img src = 'category4/GS3.png' width = '100%;'>","null","","","","","","","","","",""
"","html-keyboard-response","214","843405","0.0-12.0-2.6","r9aeuuag1e","one_one","1","direct_first","1","is04as10","1","26","1","1","3","1","","0","1","0","null","","","<img src = 'targets/21.png' width = '100%;'>","null","","","","","","","","","",""
"","html-keyboard-response","215","844886","0.0-12.0-3.6","r9aeuuag1e","one_one","1","direct_first","1","is04as10","1","26","1","1","3","1","","0","1","0","1475.8249999722466","","","<img src = 'targets/mask.png' width = '100%;'>","68","neg","GS","GSnew","4","category4/GS3.png","","targets/21.png","indirect","0","22"
"","html-keyboard-response","216","846404","0.0-12.0-0.7","r9aeuuag1e","one_one","1","direct_first","1","is04as10","1","26","1","1","3","1","","0","1","0","null","","","<div style=""font-size:60px;"">+</div>","null","","","","","","","","","",""
"","html-keyboard-response","217","846497","0.0-12.0-1.7","r9aeuuag1e","one_one","1","direct_first","1","is04as10","1","26","1","1","3","1","","0","1","0","null","","","<img src = 'category2/GS1.png' width = '100%;'>","null","","","","","","","","","",""
"","html-keyboard-response","218","846765","0.0-12.0-2.7","r9aeuuag1e","one_one","1","direct_first","1","is04as10","1","26","1","1","3","1","","0","1","0","null","","","<img src = 'targets/11.png' width = '100%;'>","null","","","","","","","","","",""
"","html-keyboard-response","219","847755","0.0-12.0-3.7","r9aeuuag1e","one_one","1","direct_first","1","is04as10","1","26","1","1","3","1","","0","1","0","984.2550000175834","","","<img src = 'targets/mask.png' width = '100%;'>","75","pos","GS","GSnew","2","category2/GS1.png","","targets/11.png","indirect","1","23"
"","html-keyboard-response","220","849272","0.0-12.0-0.8","r9aeuuag1e","one_one","1","direct_first","1","is04as10","1","26","1","1","3","1","","0","1","0","null","","","<div style=""font-size:60px;"">+</div>","null","","","","","","","","","",""
"","html-keyboard-response","221","849364","0.0-12.0-1.8","r9aeuuag1e","one_one","1","direct_first","1","is04as10","1","26","1","1","3","1","","0","1","0","null","","","<img src = 'category4/GS2.png' width = '100%;'>","null","","","","","","","","","",""
"","html-keyboard-response","222","849632","0.0-12.0-2.8","r9aeuuag1e","one_one","1","direct_first","1","is04as10","1","26","1","1","3","1","","0","1","0","null","","","<img src = 'targets/20.png' width = '100%;'>","null","","","","","","","","","",""
"","html-keyboard-response","223","850814","0.0-12.0-3.8","r9aeuuag1e","one_one","1","direct_first","1","is04as10","1","26","1","1","3","1","","0","1","0","1177.7800000272691","","","<img src = 'targets/mask.png' width = '100%;'>","68","neg","GS","GSnew","4","category4/GS2.png","","targets/20.png","indirect","0","24"
"","html-keyboard-response","224","852323","0.0-12.0-0.9","r9aeuuag1e","one_one","1","direct_first","1","is04as10","1","26","1","1","3","1","","0","1","0","null","","","<div style=""font-size:60px;"">+</div>","null","","","","","","","","","",""
"","html-keyboard-response","225","852433","0.0-12.0-1.9","r9aeuuag1e","one_one","1","direct_first","1","is04as10","1","26","1","1","3","1","","0","1","0","null","","","<img src = 'category2/GS2.png' width = '100%;'>","null","","","","","","","","","",""
"","html-keyboard-response","226","852713","0.0-12.0-2.9","r9aeuuag1e","one_one","1","direct_first","1","is04as10","1","26","1","1","3","1","","0","1","0","null","","","<img src = 'targets/26.png' width = '100%;'>","null","","","","","","","","","",""
"","html-keyboard-response","227","854236","0.0-12.0-3.9","r9aeuuag1e","one_one","1","direct_first","1","is04as10","1","26","1","1","3","1","","0","1","0","1517.1400000108406","","","<img src = 'targets/mask.png' width = '100%;'>","68","pos","GS","GSnew","2","category2/GS2.png","","targets/26.png","indirect","0","25"
"","html-keyboard-response","228","855754","0.0-12.0-0.10","r9aeuuag1e","one_one","1","direct_first","1","is04as10","1","26","1","1","3","1","","0","1","0","null","","","<div style=""font-size:60px;"">+</div>","null","","","","","","","","","",""
"","html-keyboard-response","229","855848","0.0-12.0-1.10","r9aeuuag1e","one_one","1","direct_first","1","is04as10","1","26","1","1","3","1","","0","1","0","null","","","<img src = 'category1/GS3.png' width = '100%;'>","null","","","","","","","","","",""
"","html-keyboard-response","230","856102","0.0-12.0-2.10","r9aeuuag1e","one_one","1","direct_first","1","is04as10","1","26","1","1","3","1","","0","1","0","null","","","<img src = 'targets/14.png' width = '100%;'>","null","","","","","","","","","",""
"","html-keyboard-response","231","858538","0.0-12.0-3.10","r9aeuuag1e","one_one","1","direct_first","1","is04as10","1","26","1","1","3","1","","0","1","0","2428.1000000191852","","","<img src = 'targets/mask.png' width = '100%;'>","68","neg","GS","GSnew","1","category1/GS3.png","","targets/14.png","indirect","0","26"
"","html-keyboard-response","232","860057","0.0-12.0-0.11","r9aeuuag1e","one_one","1","direct_first","1","is04as10","1","26","1","1","3","1","","0","1","0","null","","","<div style=""font-size:60px;"">+</div>","null","","","","","","","","","",""
"","html-keyboard-response","233","860167","0.0-12.0-1.11","r9aeuuag1e","one_one","1","direct_first","1","is04as10","1","26","1","1","3","1","","0","1","0","null","","","<img src = 'category3/wang.png' width = '100%;'>","null","","","","","","","","","",""
"","html-keyboard-response","234","860445","0.0-12.0-2.11","r9aeuuag1e","one_one","1","direct_first","1","is04as10","1","26","1","1","3","1","","0","1","0","null","","","<img src = 'targets/10.png' width = '100%;'>","null","","","","","","","","","",""
"","html-keyboard-response","235","861578","0.0-12.0-3.11","r9aeuuag1e","one_one","1","direct_first","1","is04as10","1","26","1","1","3","1","","0","1","0","1126.8550000386313","","","<img src = 'targets/mask.png' width = '100%;'>","75","pos","GS","abstract","3","category3/wang.png","","targets/10.png","indirect","1","27"
"","html-keyboard-response","236","863089","0.0-12.0-0.12","r9aeuuag1e","one_one","1","direct_first","1","is04as10","1","26","1","1","3","1","","0","1","0","null","","","<div style=""font-size:60px;"">+</div>","null","","","","","","","","","",""
"","html-keyboard-response","237","863197","0.0-12.0-1.12","r9aeuuag1e","one_one","1","direct_first","1","is04as10","1","26","1","1","3","1","","0","1","0","null","","","<img src = 'category3/GS2.png' width = '100%;'>","null","","","","","","","","","",""
"","html-keyboard-response","238","863464","0.0-12.0-2.12","r9aeuuag1e","one_one","1","direct_first","1","is04as10","1","26","1","1","3","1","","0","1","0","null","","","<img src = 'targets/3.png' width = '100%;'>","null","","","","","","","","","",""
"","html-keyboard-response","239","864694","0.0-12.0-3.12","r9aeuuag1e","one_one","1","direct_first","1","is04as10","1","26","1","1","3","1","","0","1","0","1225.715000065975","","","<img src = 'targets/mask.png' width = '100%;'>","68","pos","GS","GSnew","3","category3/GS2.png","","targets/3.png","indirect","0","28"
"","html-keyboard-response","240","866223","0.0-12.0-0.13","r9aeuuag1e","one_one","1","direct_first","1","is04as10","1","26","1","1","3","1","","0","1","0","null","","","<div style=""font-size:60px;"">+</div>","null","","","","","","","","","",""
"","html-keyboard-response","241","866316","0.0-12.0-1.13","r9aeuuag1e","one_one","1","direct_first","1","is04as10","1","26","1","1","3","1","","0","1","0","null","","","<img src = 'category2/men.png' width = '100%;'>","null","","","","","","","","","",""
"","html-keyboard-response","242","866584","0.0-12.0-2.13","r9aeuuag1e","one_one","1","direct_first","1","is04as10","1","26","1","1","3","1","","0","1","0","null","","","<img src = 'targets/7.png' width = '100%;'>","null","","","","","","","","","",""
"","html-keyboard-response","243","867516","0.0-12.0-3.13","r9aeuuag1e","one_one","1","direct_first","1","is04as10","1","26","1","1","3","1","","0","1","0","926.244999980554","","","<img src = 'targets/mask.png' width = '100%;'>","75","pos","GS","abstract","2","category2/men.png","","targets/7.png","indirect","1","29"
"","html-keyboard-response","244","869038","0.0-12.0-0.14","r9aeuuag1e","one_one","1","direct_first","1","is04as10","1","26","1","1","3","1","","0","1","0","null","","","<div style=""font-size:60px;"">+</div>","null","","","","","","","","","",""
"","html-keyboard-response","245","869146","0.0-12.0-1.14","r9aeuuag1e","one_one","1","direct_first","1","is04as10","1","26","1","1","3","1","","0","1","0","null","","","<img src = 'category1/ma.png' width = '100%;'>","null","","","","","","","","","",""
"","html-keyboard-response","246","869429","0.0-12.0-2.14","r9aeuuag1e","one_one","1","direct_first","1","is04as10","1","26","1","1","3","1","","0","1","0","null","","","<img src = 'targets/36.png' width = '100%;'>","null","","","","","","","","","",""
"","html-keyboard-response","247","870267","0.0-12.0-3.14","r9aeuuag1e","one_one","1","direct_first","1","is04as10","1","26","1","1","3","1","","0","1","0","832.9850001027808","","","<img src = 'targets/mask.png' width = '100%;'>","68","neg","GS","abstract","1","category1/ma.png","","targets/36.png","indirect","0","30"
"","html-keyboard-response","248","871776","0.0-12.0-0.15","r9aeuuag1e","one_one","1","direct_first","1","is04as10","1","26","1","1","3","1","","0","1","0","null","","","<div style=""font-size:60px;"">+</div>","null","","","","","","","","","",""
"","html-keyboard-response","249","871869","0.0-12.0-1.15","r9aeuuag1e","one_one","1","direct_first","1","is04as10","1","26","1","1","3","1","","0","1","0","null","","","<img src = 'category1/GS2.png' width = '100%;'>","null","","","","","","","","","",""
"","html-keyboard-response","250","872122","0.0-12.0-2.15","r9aeuuag1e","one_one","1","direct_first","1","is04as10","1","26","1","1","3","1","","0","1","0","null","","","<img src = 'targets/16.png' width = '100%;'>","null","","","","","","","","","",""
"","html-keyboard-response","251","872688","0.0-12.0-3.15","r9aeuuag1e","one_one","1","direct_first","1","is04as10","1","26","1","1","3","1","","0","1","0","561.3700000103563","","","<img src = 'targets/mask.png' width = '100%;'>","75","neg","GS","GSnew","1","category1/GS2.png","","targets/16.png","indirect","1","31"
"","survey-html-form","252","882385","0.0-13.0","r9aeuuag1e","one_one","1","direct_first","1","is04as10","1","26","1","1","3","1","","0","1","0","9176.465000025928","","{}","","","","","","","","","","","",""
"","image-slider-response","253","889550","0.0-14.0-0.0","r9aeuuag1e","one_one","1","direct_first","1","is04as10","1","26","1","1","3","1","","0","1","0","6147.514999960549","","","","","pos","All","all","2","category2/men_all.png","38","","all","",""
"","image-slider-response","254","892461","0.0-14.0-0.1","r9aeuuag1e","one_one","1","direct_first","1","is04as10","1","26","1","1","3","1","","0","1","0","2904.0449999738485","","","","","neg","All","all","4","category4/lin_all.png","-43","","all","",""
"","image-slider-response","255","898020","0.0-14.0-0.2","r9aeuuag1e","one_one","1","direct_first","1","is04as10","1","26","1","1","3","1","","0","1","0","5552.460000035353","","","","","neg","All","all","1","category1/ma_all.png","-7","","all","",""
"","image-slider-response","256","902595","0.0-14.0-0.3","r9aeuuag1e","one_one","1","direct_first","1","is04as10","1","26","1","1","3","1","","0","1","0","4564.844999928027","","","","","pos","All","all","3","category3/wang_all.png","24","","all","",""
"","survey-text","257","908353","0.0-15.0","r9aeuuag1e","one_one","1","direct_first","1","is04as10","1","26","1","1","3","1","","0","1","0","5678.274999954738","","{""comment"":""""}","","","","","","","","","","","",""
"","survey-html-form","258","937163","0.0-16.0","r9aeuuag1e","one_one","1","direct_first","1","is04as10","1","26","1","1","3","1","","0","1","0","28805.615000077523","","{""hinschauen"":""0"",""ablenkung"":""1"",""gewissenhaft"":""0""}","","","","","","","","","","","",""
