"success","trial_type","trial_index","time_elapsed","internal_node_id","subject","condition","condition_code","measure","measure_code","codeword","gender","age","education","chinese","fach","handedness","comment","hinschauen","ablenkung","gewissenhaft","rt","url","responses","stimulus","key_press","val","type","type_specific","category","cs_selected","target","indirect","task","nr_pres","response"
"true","fullscreen","0","29383","0.0-0.0","4ep2ondcw3","one_one","1","indirect_first","0","nz06ch20","0","19","1","1","3","1","einfache Zeichen = angenehme Zeichen","0","1","0","","","","","","","","","","","","","","",""
"","external-html","1","51505","0.0-1.0","4ep2ondcw3","one_one","1","indirect_first","0","nz06ch20","0","19","1","1","3","1","einfache Zeichen = angenehme Zeichen","0","1","0","22043","text/information.html","","","","","","","","","","","","",""
"","external-html","2","58243","0.0-2.0","4ep2ondcw3","one_one","1","indirect_first","0","nz06ch20","0","19","1","1","3","1","einfache Zeichen = angenehme Zeichen","0","1","0","6409","text/consent.html","","","","","","","","","","","","",""
"","survey-html-form","3","97388","0.0-3.0","4ep2ondcw3","one_one","1","indirect_first","0","nz06ch20","0","19","1","1","3","1","einfache Zeichen = angenehme Zeichen","0","1","0","39144","","{""codeword_enter"":""nz06ch20""}","","","","","","","","","","","",""
"","survey-html-form","4","113947","0.0-4.0","4ep2ondcw3","one_one","1","indirect_first","0","nz06ch20","0","19","1","1","3","1","einfache Zeichen = angenehme Zeichen","0","1","0","16557","","{""age"":""19"",""education"":""1"",""subject"":""3"",""gender"":""0"",""handedness"":""1"",""chinese"":""1""}","","","","","","","","","","","",""
"","survey-html-form","5","121403","0.0-5.0","4ep2ondcw3","one_one","1","indirect_first","0","nz06ch20","0","19","1","1","3","1","einfache Zeichen = angenehme Zeichen","0","1","0","7453","","{}","","","","","","","","","","","",""
"","html-keyboard-response","6","125443","0.0-6.0-0.0-0.0","4ep2ondcw3","one_one","1","indirect_first","0","nz06ch20","0","19","1","1","3","1","einfache Zeichen = angenehme Zeichen","0","1","0","null","","","<div class = 'row'><div class = 'column'><img src = 'usneg/9340.bmp' width = '100%;'></div><div class = 'column'><img src = 'category2/CS8.png' width = '70%;'></div></div>","null","neg","CS","CS","2","category2/CS8.png","","","","",""
"","html-keyboard-response","7","127963","0.0-6.0-0.0-0.1","4ep2ondcw3","one_one","1","indirect_first","0","nz06ch20","0","19","1","1","3","1","einfache Zeichen = angenehme Zeichen","0","1","0","null","","","<div class = 'row'><div class = 'column'><img src = 'uspos/5831.bmp' width = '100%;'></div><div class = 'column'><img src = 'category1/CS3.png' width = '70%;'></div></div>","null","pos","CS","CS","1","category1/CS3.png","","","","",""
"","html-keyboard-response","8","130498","0.0-6.0-0.0-0.2","4ep2ondcw3","one_one","1","indirect_first","0","nz06ch20","0","19","1","1","3","1","einfache Zeichen = angenehme Zeichen","0","1","0","null","","","<div class = 'row'><div class = 'column'><img src = 'category4/CS4.png' width = '70%;'></div><div class = 'column'><img src = 'usneg/9181.bmp' width = '100%;'></div></div>","null","neg","CS","CS","4","category4/CS4.png","","","","",""
"","html-keyboard-response","9","133008","0.0-6.0-0.0-0.3","4ep2ondcw3","one_one","1","indirect_first","0","nz06ch20","0","19","1","1","3","1","einfache Zeichen = angenehme Zeichen","0","1","0","null","","","<div class = 'row'><div class = 'column'><img src = 'uspos/5600.bmp' width = '100%;'></div><div class = 'column'><img src = 'category3/CS2.png' width = '70%;'></div></div>","null","pos","CS","CS","3","category3/CS2.png","","","","",""
"","html-keyboard-response","10","135531","0.0-6.0-0.0-0.4","4ep2ondcw3","one_one","1","indirect_first","0","nz06ch20","0","19","1","1","3","1","einfache Zeichen = angenehme Zeichen","0","1","0","null","","","<div class = 'row'><div class = 'column'><img src = 'category2/CS8.png' width = '70%;'></div><div class = 'column'><img src = 'usneg/9340.bmp' width = '100%;'></div></div>","null","neg","CS","CS","2","category2/CS8.png","","","","",""
"","html-keyboard-response","11","138047","0.0-6.0-0.0-0.5","4ep2ondcw3","one_one","1","indirect_first","0","nz06ch20","0","19","1","1","3","1","einfache Zeichen = angenehme Zeichen","0","1","0","null","","","<div class = 'row'><div class = 'column'><img src = 'uspos/5831.bmp' width = '100%;'></div><div class = 'column'><img src = 'category1/CS3.png' width = '70%;'></div></div>","null","pos","CS","CS","1","category1/CS3.png","","","","",""
"","html-keyboard-response","12","140554","0.0-6.0-0.0-0.6","4ep2ondcw3","one_one","1","indirect_first","0","nz06ch20","0","19","1","1","3","1","einfache Zeichen = angenehme Zeichen","0","1","0","null","","","<div class = 'row'><div class = 'column'><img src = 'category3/CS2.png' width = '70%;'></div><div class = 'column'><img src = 'uspos/5600.bmp' width = '100%;'></div></div>","null","pos","CS","CS","3","category3/CS2.png","","","","",""
"","html-keyboard-response","13","143064","0.0-6.0-0.0-0.7","4ep2ondcw3","one_one","1","indirect_first","0","nz06ch20","0","19","1","1","3","1","einfache Zeichen = angenehme Zeichen","0","1","0","null","","","<div class = 'row'><div class = 'column'><img src = 'usneg/9340.bmp' width = '100%;'></div><div class = 'column'><img src = 'category2/CS8.png' width = '70%;'></div></div>","null","neg","CS","CS","2","category2/CS8.png","","","","",""
"","html-keyboard-response","14","145583","0.0-6.0-0.0-0.8","4ep2ondcw3","one_one","1","indirect_first","0","nz06ch20","0","19","1","1","3","1","einfache Zeichen = angenehme Zeichen","0","1","0","null","","","<div class = 'row'><div class = 'column'><img src = 'uspos/5831.bmp' width = '100%;'></div><div class = 'column'><img src = 'category1/CS3.png' width = '70%;'></div></div>","null","pos","CS","CS","1","category1/CS3.png","","","","",""
"","html-keyboard-response","15","148113","0.0-6.0-0.0-0.9","4ep2ondcw3","one_one","1","indirect_first","0","nz06ch20","0","19","1","1","3","1","einfache Zeichen = angenehme Zeichen","0","1","0","null","","","<div class = 'row'><div class = 'column'><img src = 'usneg/9181.bmp' width = '100%;'></div><div class = 'column'><img src = 'category4/CS4.png' width = '70%;'></div></div>","null","neg","CS","CS","4","category4/CS4.png","","","","",""
"","html-keyboard-response","16","150637","0.0-6.0-0.0-0.10","4ep2ondcw3","one_one","1","indirect_first","0","nz06ch20","0","19","1","1","3","1","einfache Zeichen = angenehme Zeichen","0","1","0","null","","","<div class = 'row'><div class = 'column'><img src = 'category3/CS2.png' width = '70%;'></div><div class = 'column'><img src = 'uspos/5600.bmp' width = '100%;'></div></div>","null","pos","CS","CS","3","category3/CS2.png","","","","",""
"","html-keyboard-response","17","153145","0.0-6.0-0.0-0.11","4ep2ondcw3","one_one","1","indirect_first","0","nz06ch20","0","19","1","1","3","1","einfache Zeichen = angenehme Zeichen","0","1","0","null","","","<div class = 'row'><div class = 'column'><img src = 'usneg/9181.bmp' width = '100%;'></div><div class = 'column'><img src = 'category4/CS4.png' width = '70%;'></div></div>","null","neg","CS","CS","4","category4/CS4.png","","","","",""
"","html-keyboard-response","18","155669","0.0-6.0-0.0-0.12","4ep2ondcw3","one_one","1","indirect_first","0","nz06ch20","0","19","1","1","3","1","einfache Zeichen = angenehme Zeichen","0","1","0","null","","","<div class = 'row'><div class = 'column'><img src = 'category3/CS2.png' width = '70%;'></div><div class = 'column'><img src = 'uspos/5600.bmp' width = '100%;'></div></div>","null","pos","CS","CS","3","category3/CS2.png","","","","",""
"","html-keyboard-response","19","158202","0.0-6.0-0.0-0.13","4ep2ondcw3","one_one","1","indirect_first","0","nz06ch20","0","19","1","1","3","1","einfache Zeichen = angenehme Zeichen","0","1","0","null","","","<div class = 'row'><div class = 'column'><img src = 'category1/CS3.png' width = '70%;'></div><div class = 'column'><img src = 'uspos/5831.bmp' width = '100%;'></div></div>","null","pos","CS","CS","1","category1/CS3.png","","","","",""
"","html-keyboard-response","20","160725","0.0-6.0-0.0-0.14","4ep2ondcw3","one_one","1","indirect_first","0","nz06ch20","0","19","1","1","3","1","einfache Zeichen = angenehme Zeichen","0","1","0","null","","","<div class = 'row'><div class = 'column'><img src = 'category2/CS8.png' width = '70%;'></div><div class = 'column'><img src = 'usneg/9340.bmp' width = '100%;'></div></div>","null","neg","CS","CS","2","category2/CS8.png","","","","",""
"","html-keyboard-response","21","163254","0.0-6.0-0.0-0.15","4ep2ondcw3","one_one","1","indirect_first","0","nz06ch20","0","19","1","1","3","1","einfache Zeichen = angenehme Zeichen","0","1","0","null","","","<div class = 'row'><div class = 'column'><img src = 'category4/CS4.png' width = '70%;'></div><div class = 'column'><img src = 'usneg/9181.bmp' width = '100%;'></div></div>","null","neg","CS","CS","4","category4/CS4.png","","","","",""
"","html-keyboard-response","22","165760","0.0-6.0-0.0-0.16","4ep2ondcw3","one_one","1","indirect_first","0","nz06ch20","0","19","1","1","3","1","einfache Zeichen = angenehme Zeichen","0","1","0","null","","","<div class = 'row'><div class = 'column'><img src = 'category1/CS3.png' width = '70%;'></div><div class = 'column'><img src = 'uspos/5831.bmp' width = '100%;'></div></div>","null","pos","CS","CS","1","category1/CS3.png","","","","",""
"","html-keyboard-response","23","168277","0.0-6.0-0.0-0.17","4ep2ondcw3","one_one","1","indirect_first","0","nz06ch20","0","19","1","1","3","1","einfache Zeichen = angenehme Zeichen","0","1","0","null","","","<div class = 'row'><div class = 'column'><img src = 'usneg/9181.bmp' width = '100%;'></div><div class = 'column'><img src = 'category4/CS4.png' width = '70%;'></div></div>","null","neg","CS","CS","4","category4/CS4.png","","","","",""
"","html-keyboard-response","24","170792","0.0-6.0-0.0-0.18","4ep2ondcw3","one_one","1","indirect_first","0","nz06ch20","0","19","1","1","3","1","einfache Zeichen = angenehme Zeichen","0","1","0","null","","","<div class = 'row'><div class = 'column'><img src = 'uspos/5600.bmp' width = '100%;'></div><div class = 'column'><img src = 'category3/CS2.png' width = '70%;'></div></div>","null","pos","CS","CS","3","category3/CS2.png","","","","",""
"","html-keyboard-response","25","173304","0.0-6.0-0.0-0.19","4ep2ondcw3","one_one","1","indirect_first","0","nz06ch20","0","19","1","1","3","1","einfache Zeichen = angenehme Zeichen","0","1","0","null","","","<div class = 'row'><div class = 'column'><img src = 'usneg/9340.bmp' width = '100%;'></div><div class = 'column'><img src = 'category2/CS8.png' width = '70%;'></div></div>","null","neg","CS","CS","2","category2/CS8.png","","","","",""
"","survey-html-form","26","179050","0.0-6.0-1.0","4ep2ondcw3","one_one","1","indirect_first","0","nz06ch20","0","19","1","1","3","1","einfache Zeichen = angenehme Zeichen","0","1","0","5234","","{}","","","","","","","","","","","",""
"","html-keyboard-response","27","183076","0.0-6.0-2.0-0.0","4ep2ondcw3","one_one","1","indirect_first","0","nz06ch20","0","19","1","1","3","1","einfache Zeichen = angenehme Zeichen","0","1","0","null","","","<div class = 'row'><div class = 'column'><img src = 'uspos/5600.bmp' width = '100%;'></div><div class = 'column'><img src = 'category3/CS2.png' width = '70%;'></div></div>","null","pos","CS","CS","3","category3/CS2.png","","","","",""
"","html-keyboard-response","28","185582","0.0-6.0-2.0-0.1","4ep2ondcw3","one_one","1","indirect_first","0","nz06ch20","0","19","1","1","3","1","einfache Zeichen = angenehme Zeichen","0","1","0","null","","","<div class = 'row'><div class = 'column'><img src = 'usneg/9340.bmp' width = '100%;'></div><div class = 'column'><img src = 'category2/CS8.png' width = '70%;'></div></div>","null","neg","CS","CS","2","category2/CS8.png","","","","",""
"","html-keyboard-response","29","188103","0.0-6.0-2.0-0.2","4ep2ondcw3","one_one","1","indirect_first","0","nz06ch20","0","19","1","1","3","1","einfache Zeichen = angenehme Zeichen","0","1","0","null","","","<div class = 'row'><div class = 'column'><img src = 'category1/CS3.png' width = '70%;'></div><div class = 'column'><img src = 'uspos/5831.bmp' width = '100%;'></div></div>","null","pos","CS","CS","1","category1/CS3.png","","","","",""
"","html-keyboard-response","30","190643","0.0-6.0-2.0-0.3","4ep2ondcw3","one_one","1","indirect_first","0","nz06ch20","0","19","1","1","3","1","einfache Zeichen = angenehme Zeichen","0","1","0","null","","","<div class = 'row'><div class = 'column'><img src = 'category4/CS4.png' width = '70%;'></div><div class = 'column'><img src = 'usneg/9181.bmp' width = '100%;'></div></div>","null","neg","CS","CS","4","category4/CS4.png","","","","",""
"","html-keyboard-response","31","193148","0.0-6.0-2.0-0.4","4ep2ondcw3","one_one","1","indirect_first","0","nz06ch20","0","19","1","1","3","1","einfache Zeichen = angenehme Zeichen","0","1","0","null","","","<div class = 'row'><div class = 'column'><img src = 'category3/CS2.png' width = '70%;'></div><div class = 'column'><img src = 'uspos/5600.bmp' width = '100%;'></div></div>","null","pos","CS","CS","3","category3/CS2.png","","","","",""
"","html-keyboard-response","32","195668","0.0-6.0-2.0-0.5","4ep2ondcw3","one_one","1","indirect_first","0","nz06ch20","0","19","1","1","3","1","einfache Zeichen = angenehme Zeichen","0","1","0","null","","","<div class = 'row'><div class = 'column'><img src = 'category4/CS4.png' width = '70%;'></div><div class = 'column'><img src = 'usneg/9181.bmp' width = '100%;'></div></div>","null","neg","CS","CS","4","category4/CS4.png","","","","",""
"","html-keyboard-response","33","198192","0.0-6.0-2.0-0.6","4ep2ondcw3","one_one","1","indirect_first","0","nz06ch20","0","19","1","1","3","1","einfache Zeichen = angenehme Zeichen","0","1","0","null","","","<div class = 'row'><div class = 'column'><img src = 'uspos/5600.bmp' width = '100%;'></div><div class = 'column'><img src = 'category3/CS2.png' width = '70%;'></div></div>","null","pos","CS","CS","3","category3/CS2.png","","","","",""
"","html-keyboard-response","34","200701","0.0-6.0-2.0-0.7","4ep2ondcw3","one_one","1","indirect_first","0","nz06ch20","0","19","1","1","3","1","einfache Zeichen = angenehme Zeichen","0","1","0","null","","","<div class = 'row'><div class = 'column'><img src = 'category2/CS8.png' width = '70%;'></div><div class = 'column'><img src = 'usneg/9340.bmp' width = '100%;'></div></div>","null","neg","CS","CS","2","category2/CS8.png","","","","",""
"","html-keyboard-response","35","203230","0.0-6.0-2.0-0.8","4ep2ondcw3","one_one","1","indirect_first","0","nz06ch20","0","19","1","1","3","1","einfache Zeichen = angenehme Zeichen","0","1","0","null","","","<div class = 'row'><div class = 'column'><img src = 'uspos/5600.bmp' width = '100%;'></div><div class = 'column'><img src = 'category3/CS2.png' width = '70%;'></div></div>","null","pos","CS","CS","3","category3/CS2.png","","","","",""
"","html-keyboard-response","36","205737","0.0-6.0-2.0-0.9","4ep2ondcw3","one_one","1","indirect_first","0","nz06ch20","0","19","1","1","3","1","einfache Zeichen = angenehme Zeichen","0","1","0","null","","","<div class = 'row'><div class = 'column'><img src = 'usneg/9181.bmp' width = '100%;'></div><div class = 'column'><img src = 'category4/CS4.png' width = '70%;'></div></div>","null","neg","CS","CS","4","category4/CS4.png","","","","",""
"","html-keyboard-response","37","208244","0.0-6.0-2.0-0.10","4ep2ondcw3","one_one","1","indirect_first","0","nz06ch20","0","19","1","1","3","1","einfache Zeichen = angenehme Zeichen","0","1","0","null","","","<div class = 'row'><div class = 'column'><img src = 'usneg/9340.bmp' width = '100%;'></div><div class = 'column'><img src = 'category2/CS8.png' width = '70%;'></div></div>","null","neg","CS","CS","2","category2/CS8.png","","","","",""
"","html-keyboard-response","38","210763","0.0-6.0-2.0-0.11","4ep2ondcw3","one_one","1","indirect_first","0","nz06ch20","0","19","1","1","3","1","einfache Zeichen = angenehme Zeichen","0","1","0","null","","","<div class = 'row'><div class = 'column'><img src = 'usneg/9181.bmp' width = '100%;'></div><div class = 'column'><img src = 'category4/CS4.png' width = '70%;'></div></div>","null","neg","CS","CS","4","category4/CS4.png","","","","",""
"","html-keyboard-response","39","213289","0.0-6.0-2.0-0.12","4ep2ondcw3","one_one","1","indirect_first","0","nz06ch20","0","19","1","1","3","1","einfache Zeichen = angenehme Zeichen","0","1","0","null","","","<div class = 'row'><div class = 'column'><img src = 'uspos/5831.bmp' width = '100%;'></div><div class = 'column'><img src = 'category1/CS3.png' width = '70%;'></div></div>","null","pos","CS","CS","1","category1/CS3.png","","","","",""
"","html-keyboard-response","40","215809","0.0-6.0-2.0-0.13","4ep2ondcw3","one_one","1","indirect_first","0","nz06ch20","0","19","1","1","3","1","einfache Zeichen = angenehme Zeichen","0","1","0","null","","","<div class = 'row'><div class = 'column'><img src = 'uspos/5600.bmp' width = '100%;'></div><div class = 'column'><img src = 'category3/CS2.png' width = '70%;'></div></div>","null","pos","CS","CS","3","category3/CS2.png","","","","",""
"","html-keyboard-response","41","218323","0.0-6.0-2.0-0.14","4ep2ondcw3","one_one","1","indirect_first","0","nz06ch20","0","19","1","1","3","1","einfache Zeichen = angenehme Zeichen","0","1","0","null","","","<div class = 'row'><div class = 'column'><img src = 'category1/CS3.png' width = '70%;'></div><div class = 'column'><img src = 'uspos/5831.bmp' width = '100%;'></div></div>","null","pos","CS","CS","1","category1/CS3.png","","","","",""
"","html-keyboard-response","42","220843","0.0-6.0-2.0-0.15","4ep2ondcw3","one_one","1","indirect_first","0","nz06ch20","0","19","1","1","3","1","einfache Zeichen = angenehme Zeichen","0","1","0","null","","","<div class = 'row'><div class = 'column'><img src = 'category4/CS4.png' width = '70%;'></div><div class = 'column'><img src = 'usneg/9181.bmp' width = '100%;'></div></div>","null","neg","CS","CS","4","category4/CS4.png","","","","",""
"","html-keyboard-response","43","223376","0.0-6.0-2.0-0.16","4ep2ondcw3","one_one","1","indirect_first","0","nz06ch20","0","19","1","1","3","1","einfache Zeichen = angenehme Zeichen","0","1","0","null","","","<div class = 'row'><div class = 'column'><img src = 'category2/CS8.png' width = '70%;'></div><div class = 'column'><img src = 'usneg/9340.bmp' width = '100%;'></div></div>","null","neg","CS","CS","2","category2/CS8.png","","","","",""
"","html-keyboard-response","44","225890","0.0-6.0-2.0-0.17","4ep2ondcw3","one_one","1","indirect_first","0","nz06ch20","0","19","1","1","3","1","einfache Zeichen = angenehme Zeichen","0","1","0","null","","","<div class = 'row'><div class = 'column'><img src = 'uspos/5831.bmp' width = '100%;'></div><div class = 'column'><img src = 'category1/CS3.png' width = '70%;'></div></div>","null","pos","CS","CS","1","category1/CS3.png","","","","",""
"","html-keyboard-response","45","228420","0.0-6.0-2.0-0.18","4ep2ondcw3","one_one","1","indirect_first","0","nz06ch20","0","19","1","1","3","1","einfache Zeichen = angenehme Zeichen","0","1","0","null","","","<div class = 'row'><div class = 'column'><img src = 'usneg/9340.bmp' width = '100%;'></div><div class = 'column'><img src = 'category2/CS8.png' width = '70%;'></div></div>","null","neg","CS","CS","2","category2/CS8.png","","","","",""
"","html-keyboard-response","46","230951","0.0-6.0-2.0-0.19","4ep2ondcw3","one_one","1","indirect_first","0","nz06ch20","0","19","1","1","3","1","einfache Zeichen = angenehme Zeichen","0","1","0","null","","","<div class = 'row'><div class = 'column'><img src = 'category1/CS3.png' width = '70%;'></div><div class = 'column'><img src = 'uspos/5831.bmp' width = '100%;'></div></div>","null","pos","CS","CS","1","category1/CS3.png","","","","",""
"","survey-html-form","47","233362","0.0-6.0-3.0","4ep2ondcw3","one_one","1","indirect_first","0","nz06ch20","0","19","1","1","3","1","einfache Zeichen = angenehme Zeichen","0","1","0","1895","","{}","","","","","","","","","","","",""
"","html-keyboard-response","48","237382","0.0-6.0-4.0-0.0","4ep2ondcw3","one_one","1","indirect_first","0","nz06ch20","0","19","1","1","3","1","einfache Zeichen = angenehme Zeichen","0","1","0","null","","","<div class = 'row'><div class = 'column'><img src = 'usneg/9181.bmp' width = '100%;'></div><div class = 'column'><img src = 'category4/CS4.png' width = '70%;'></div></div>","null","neg","CS","CS","4","category4/CS4.png","","","","",""
"","html-keyboard-response","49","239890","0.0-6.0-4.0-0.1","4ep2ondcw3","one_one","1","indirect_first","0","nz06ch20","0","19","1","1","3","1","einfache Zeichen = angenehme Zeichen","0","1","0","null","","","<div class = 'row'><div class = 'column'><img src = 'category2/CS8.png' width = '70%;'></div><div class = 'column'><img src = 'usneg/9340.bmp' width = '100%;'></div></div>","null","neg","CS","CS","2","category2/CS8.png","","","","",""
"","html-keyboard-response","50","242395","0.0-6.0-4.0-0.2","4ep2ondcw3","one_one","1","indirect_first","0","nz06ch20","0","19","1","1","3","1","einfache Zeichen = angenehme Zeichen","0","1","0","null","","","<div class = 'row'><div class = 'column'><img src = 'category3/CS2.png' width = '70%;'></div><div class = 'column'><img src = 'uspos/5600.bmp' width = '100%;'></div></div>","null","pos","CS","CS","3","category3/CS2.png","","","","",""
"","html-keyboard-response","51","244910","0.0-6.0-4.0-0.3","4ep2ondcw3","one_one","1","indirect_first","0","nz06ch20","0","19","1","1","3","1","einfache Zeichen = angenehme Zeichen","0","1","0","null","","","<div class = 'row'><div class = 'column'><img src = 'category2/CS8.png' width = '70%;'></div><div class = 'column'><img src = 'usneg/9340.bmp' width = '100%;'></div></div>","null","neg","CS","CS","2","category2/CS8.png","","","","",""
"","html-keyboard-response","52","247421","0.0-6.0-4.0-0.4","4ep2ondcw3","one_one","1","indirect_first","0","nz06ch20","0","19","1","1","3","1","einfache Zeichen = angenehme Zeichen","0","1","0","null","","","<div class = 'row'><div class = 'column'><img src = 'usneg/9181.bmp' width = '100%;'></div><div class = 'column'><img src = 'category4/CS4.png' width = '70%;'></div></div>","null","neg","CS","CS","4","category4/CS4.png","","","","",""
"","html-keyboard-response","53","249933","0.0-6.0-4.0-0.5","4ep2ondcw3","one_one","1","indirect_first","0","nz06ch20","0","19","1","1","3","1","einfache Zeichen = angenehme Zeichen","0","1","0","null","","","<div class = 'row'><div class = 'column'><img src = 'category3/CS2.png' width = '70%;'></div><div class = 'column'><img src = 'uspos/5600.bmp' width = '100%;'></div></div>","null","pos","CS","CS","3","category3/CS2.png","","","","",""
"","html-keyboard-response","54","252444","0.0-6.0-4.0-0.6","4ep2ondcw3","one_one","1","indirect_first","0","nz06ch20","0","19","1","1","3","1","einfache Zeichen = angenehme Zeichen","0","1","0","null","","","<div class = 'row'><div class = 'column'><img src = 'category1/CS3.png' width = '70%;'></div><div class = 'column'><img src = 'uspos/5831.bmp' width = '100%;'></div></div>","null","pos","CS","CS","1","category1/CS3.png","","","","",""
"","html-keyboard-response","55","254954","0.0-6.0-4.0-0.7","4ep2ondcw3","one_one","1","indirect_first","0","nz06ch20","0","19","1","1","3","1","einfache Zeichen = angenehme Zeichen","0","1","0","null","","","<div class = 'row'><div class = 'column'><img src = 'category2/CS8.png' width = '70%;'></div><div class = 'column'><img src = 'usneg/9340.bmp' width = '100%;'></div></div>","null","neg","CS","CS","2","category2/CS8.png","","","","",""
"","html-keyboard-response","56","257465","0.0-6.0-4.0-0.8","4ep2ondcw3","one_one","1","indirect_first","0","nz06ch20","0","19","1","1","3","1","einfache Zeichen = angenehme Zeichen","0","1","0","null","","","<div class = 'row'><div class = 'column'><img src = 'uspos/5831.bmp' width = '100%;'></div><div class = 'column'><img src = 'category1/CS3.png' width = '70%;'></div></div>","null","pos","CS","CS","1","category1/CS3.png","","","","",""
"","html-keyboard-response","57","259985","0.0-6.0-4.0-0.9","4ep2ondcw3","one_one","1","indirect_first","0","nz06ch20","0","19","1","1","3","1","einfache Zeichen = angenehme Zeichen","0","1","0","null","","","<div class = 'row'><div class = 'column'><img src = 'category3/CS2.png' width = '70%;'></div><div class = 'column'><img src = 'uspos/5600.bmp' width = '100%;'></div></div>","null","pos","CS","CS","3","category3/CS2.png","","","","",""
"","html-keyboard-response","58","262490","0.0-6.0-4.0-0.10","4ep2ondcw3","one_one","1","indirect_first","0","nz06ch20","0","19","1","1","3","1","einfache Zeichen = angenehme Zeichen","0","1","0","null","","","<div class = 'row'><div class = 'column'><img src = 'category2/CS8.png' width = '70%;'></div><div class = 'column'><img src = 'usneg/9340.bmp' width = '100%;'></div></div>","null","neg","CS","CS","2","category2/CS8.png","","","","",""
"","html-keyboard-response","59","265003","0.0-6.0-4.0-0.11","4ep2ondcw3","one_one","1","indirect_first","0","nz06ch20","0","19","1","1","3","1","einfache Zeichen = angenehme Zeichen","0","1","0","null","","","<div class = 'row'><div class = 'column'><img src = 'usneg/9181.bmp' width = '100%;'></div><div class = 'column'><img src = 'category4/CS4.png' width = '70%;'></div></div>","null","neg","CS","CS","4","category4/CS4.png","","","","",""
"","html-keyboard-response","60","267535","0.0-6.0-4.0-0.12","4ep2ondcw3","one_one","1","indirect_first","0","nz06ch20","0","19","1","1","3","1","einfache Zeichen = angenehme Zeichen","0","1","0","null","","","<div class = 'row'><div class = 'column'><img src = 'category3/CS2.png' width = '70%;'></div><div class = 'column'><img src = 'uspos/5600.bmp' width = '100%;'></div></div>","null","pos","CS","CS","3","category3/CS2.png","","","","",""
"","html-keyboard-response","61","270041","0.0-6.0-4.0-0.13","4ep2ondcw3","one_one","1","indirect_first","0","nz06ch20","0","19","1","1","3","1","einfache Zeichen = angenehme Zeichen","0","1","0","null","","","<div class = 'row'><div class = 'column'><img src = 'category1/CS3.png' width = '70%;'></div><div class = 'column'><img src = 'uspos/5831.bmp' width = '100%;'></div></div>","null","pos","CS","CS","1","category1/CS3.png","","","","",""
"","html-keyboard-response","62","272551","0.0-6.0-4.0-0.14","4ep2ondcw3","one_one","1","indirect_first","0","nz06ch20","0","19","1","1","3","1","einfache Zeichen = angenehme Zeichen","0","1","0","null","","","<div class = 'row'><div class = 'column'><img src = 'category2/CS8.png' width = '70%;'></div><div class = 'column'><img src = 'usneg/9340.bmp' width = '100%;'></div></div>","null","neg","CS","CS","2","category2/CS8.png","","","","",""
"","html-keyboard-response","63","275059","0.0-6.0-4.0-0.15","4ep2ondcw3","one_one","1","indirect_first","0","nz06ch20","0","19","1","1","3","1","einfache Zeichen = angenehme Zeichen","0","1","0","null","","","<div class = 'row'><div class = 'column'><img src = 'category4/CS4.png' width = '70%;'></div><div class = 'column'><img src = 'usneg/9181.bmp' width = '100%;'></div></div>","null","neg","CS","CS","4","category4/CS4.png","","","","",""
"","html-keyboard-response","64","277582","0.0-6.0-4.0-0.16","4ep2ondcw3","one_one","1","indirect_first","0","nz06ch20","0","19","1","1","3","1","einfache Zeichen = angenehme Zeichen","0","1","0","null","","","<div class = 'row'><div class = 'column'><img src = 'uspos/5831.bmp' width = '100%;'></div><div class = 'column'><img src = 'category1/CS3.png' width = '70%;'></div></div>","null","pos","CS","CS","1","category1/CS3.png","","","","",""
"","html-keyboard-response","65","280095","0.0-6.0-4.0-0.17","4ep2ondcw3","one_one","1","indirect_first","0","nz06ch20","0","19","1","1","3","1","einfache Zeichen = angenehme Zeichen","0","1","0","null","","","<div class = 'row'><div class = 'column'><img src = 'uspos/5600.bmp' width = '100%;'></div><div class = 'column'><img src = 'category3/CS2.png' width = '70%;'></div></div>","null","pos","CS","CS","3","category3/CS2.png","","","","",""
"","html-keyboard-response","66","282612","0.0-6.0-4.0-0.18","4ep2ondcw3","one_one","1","indirect_first","0","nz06ch20","0","19","1","1","3","1","einfache Zeichen = angenehme Zeichen","0","1","0","null","","","<div class = 'row'><div class = 'column'><img src = 'uspos/5831.bmp' width = '100%;'></div><div class = 'column'><img src = 'category1/CS3.png' width = '70%;'></div></div>","null","pos","CS","CS","1","category1/CS3.png","","","","",""
"","html-keyboard-response","67","285136","0.0-6.0-4.0-0.19","4ep2ondcw3","one_one","1","indirect_first","0","nz06ch20","0","19","1","1","3","1","einfache Zeichen = angenehme Zeichen","0","1","0","null","","","<div class = 'row'><div class = 'column'><img src = 'category4/CS4.png' width = '70%;'></div><div class = 'column'><img src = 'usneg/9181.bmp' width = '100%;'></div></div>","null","neg","CS","CS","4","category4/CS4.png","","","","",""
"","survey-html-form","68","287338","0.0-6.0-5.0","4ep2ondcw3","one_one","1","indirect_first","0","nz06ch20","0","19","1","1","3","1","einfache Zeichen = angenehme Zeichen","0","1","0","1700","","{}","","","","","","","","","","","",""
"","html-keyboard-response","69","291347","0.0-6.0-6.0-0.0","4ep2ondcw3","one_one","1","indirect_first","0","nz06ch20","0","19","1","1","3","1","einfache Zeichen = angenehme Zeichen","0","1","0","null","","","<div class = 'row'><div class = 'column'><img src = 'uspos/5831.bmp' width = '100%;'></div><div class = 'column'><img src = 'category1/CS3.png' width = '70%;'></div></div>","null","pos","CS","CS","1","category1/CS3.png","","","","",""
"","html-keyboard-response","70","293860","0.0-6.0-6.0-0.1","4ep2ondcw3","one_one","1","indirect_first","0","nz06ch20","0","19","1","1","3","1","einfache Zeichen = angenehme Zeichen","0","1","0","null","","","<div class = 'row'><div class = 'column'><img src = 'uspos/5600.bmp' width = '100%;'></div><div class = 'column'><img src = 'category3/CS2.png' width = '70%;'></div></div>","null","pos","CS","CS","3","category3/CS2.png","","","","",""
"","html-keyboard-response","71","296377","0.0-6.0-6.0-0.2","4ep2ondcw3","one_one","1","indirect_first","0","nz06ch20","0","19","1","1","3","1","einfache Zeichen = angenehme Zeichen","0","1","0","null","","","<div class = 'row'><div class = 'column'><img src = 'category4/CS4.png' width = '70%;'></div><div class = 'column'><img src = 'usneg/9181.bmp' width = '100%;'></div></div>","null","neg","CS","CS","4","category4/CS4.png","","","","",""
"","html-keyboard-response","72","298886","0.0-6.0-6.0-0.3","4ep2ondcw3","one_one","1","indirect_first","0","nz06ch20","0","19","1","1","3","1","einfache Zeichen = angenehme Zeichen","0","1","0","null","","","<div class = 'row'><div class = 'column'><img src = 'category1/CS3.png' width = '70%;'></div><div class = 'column'><img src = 'uspos/5831.bmp' width = '100%;'></div></div>","null","pos","CS","CS","1","category1/CS3.png","","","","",""
"","html-keyboard-response","73","301402","0.0-6.0-6.0-0.4","4ep2ondcw3","one_one","1","indirect_first","0","nz06ch20","0","19","1","1","3","1","einfache Zeichen = angenehme Zeichen","0","1","0","null","","","<div class = 'row'><div class = 'column'><img src = 'uspos/5600.bmp' width = '100%;'></div><div class = 'column'><img src = 'category3/CS2.png' width = '70%;'></div></div>","null","pos","CS","CS","3","category3/CS2.png","","","","",""
"","html-keyboard-response","74","303923","0.0-6.0-6.0-0.5","4ep2ondcw3","one_one","1","indirect_first","0","nz06ch20","0","19","1","1","3","1","einfache Zeichen = angenehme Zeichen","0","1","0","null","","","<div class = 'row'><div class = 'column'><img src = 'usneg/9181.bmp' width = '100%;'></div><div class = 'column'><img src = 'category4/CS4.png' width = '70%;'></div></div>","null","neg","CS","CS","4","category4/CS4.png","","","","",""
"","html-keyboard-response","75","306449","0.0-6.0-6.0-0.6","4ep2ondcw3","one_one","1","indirect_first","0","nz06ch20","0","19","1","1","3","1","einfache Zeichen = angenehme Zeichen","0","1","0","null","","","<div class = 'row'><div class = 'column'><img src = 'category2/CS8.png' width = '70%;'></div><div class = 'column'><img src = 'usneg/9340.bmp' width = '100%;'></div></div>","null","neg","CS","CS","2","category2/CS8.png","","","","",""
"","html-keyboard-response","76","308970","0.0-6.0-6.0-0.7","4ep2ondcw3","one_one","1","indirect_first","0","nz06ch20","0","19","1","1","3","1","einfache Zeichen = angenehme Zeichen","0","1","0","null","","","<div class = 'row'><div class = 'column'><img src = 'uspos/5831.bmp' width = '100%;'></div><div class = 'column'><img src = 'category1/CS3.png' width = '70%;'></div></div>","null","pos","CS","CS","1","category1/CS3.png","","","","",""
"","html-keyboard-response","77","311483","0.0-6.0-6.0-0.8","4ep2ondcw3","one_one","1","indirect_first","0","nz06ch20","0","19","1","1","3","1","einfache Zeichen = angenehme Zeichen","0","1","0","null","","","<div class = 'row'><div class = 'column'><img src = 'category2/CS8.png' width = '70%;'></div><div class = 'column'><img src = 'usneg/9340.bmp' width = '100%;'></div></div>","null","neg","CS","CS","2","category2/CS8.png","","","","",""
"","html-keyboard-response","78","313999","0.0-6.0-6.0-0.9","4ep2ondcw3","one_one","1","indirect_first","0","nz06ch20","0","19","1","1","3","1","einfache Zeichen = angenehme Zeichen","0","1","0","null","","","<div class = 'row'><div class = 'column'><img src = 'uspos/5831.bmp' width = '100%;'></div><div class = 'column'><img src = 'category1/CS3.png' width = '70%;'></div></div>","null","pos","CS","CS","1","category1/CS3.png","","","","",""
"","html-keyboard-response","79","316516","0.0-6.0-6.0-0.10","4ep2ondcw3","one_one","1","indirect_first","0","nz06ch20","0","19","1","1","3","1","einfache Zeichen = angenehme Zeichen","0","1","0","null","","","<div class = 'row'><div class = 'column'><img src = 'uspos/5600.bmp' width = '100%;'></div><div class = 'column'><img src = 'category3/CS2.png' width = '70%;'></div></div>","null","pos","CS","CS","3","category3/CS2.png","","","","",""
"","html-keyboard-response","80","319019","0.0-6.0-6.0-0.11","4ep2ondcw3","one_one","1","indirect_first","0","nz06ch20","0","19","1","1","3","1","einfache Zeichen = angenehme Zeichen","0","1","0","null","","","<div class = 'row'><div class = 'column'><img src = 'category2/CS8.png' width = '70%;'></div><div class = 'column'><img src = 'usneg/9340.bmp' width = '100%;'></div></div>","null","neg","CS","CS","2","category2/CS8.png","","","","",""
"","html-keyboard-response","81","321532","0.0-6.0-6.0-0.12","4ep2ondcw3","one_one","1","indirect_first","0","nz06ch20","0","19","1","1","3","1","einfache Zeichen = angenehme Zeichen","0","1","0","null","","","<div class = 'row'><div class = 'column'><img src = 'usneg/9181.bmp' width = '100%;'></div><div class = 'column'><img src = 'category4/CS4.png' width = '70%;'></div></div>","null","neg","CS","CS","4","category4/CS4.png","","","","",""
"","html-keyboard-response","82","324065","0.0-6.0-6.0-0.13","4ep2ondcw3","one_one","1","indirect_first","0","nz06ch20","0","19","1","1","3","1","einfache Zeichen = angenehme Zeichen","0","1","0","null","","","<div class = 'row'><div class = 'column'><img src = 'uspos/5600.bmp' width = '100%;'></div><div class = 'column'><img src = 'category3/CS2.png' width = '70%;'></div></div>","null","pos","CS","CS","3","category3/CS2.png","","","","",""
"","html-keyboard-response","83","326583","0.0-6.0-6.0-0.14","4ep2ondcw3","one_one","1","indirect_first","0","nz06ch20","0","19","1","1","3","1","einfache Zeichen = angenehme Zeichen","0","1","0","null","","","<div class = 'row'><div class = 'column'><img src = 'category1/CS3.png' width = '70%;'></div><div class = 'column'><img src = 'uspos/5831.bmp' width = '100%;'></div></div>","null","pos","CS","CS","1","category1/CS3.png","","","","",""
"","html-keyboard-response","84","329097","0.0-6.0-6.0-0.15","4ep2ondcw3","one_one","1","indirect_first","0","nz06ch20","0","19","1","1","3","1","einfache Zeichen = angenehme Zeichen","0","1","0","null","","","<div class = 'row'><div class = 'column'><img src = 'usneg/9340.bmp' width = '100%;'></div><div class = 'column'><img src = 'category2/CS8.png' width = '70%;'></div></div>","null","neg","CS","CS","2","category2/CS8.png","","","","",""
"","html-keyboard-response","85","331601","0.0-6.0-6.0-0.16","4ep2ondcw3","one_one","1","indirect_first","0","nz06ch20","0","19","1","1","3","1","einfache Zeichen = angenehme Zeichen","0","1","0","null","","","<div class = 'row'><div class = 'column'><img src = 'category3/CS2.png' width = '70%;'></div><div class = 'column'><img src = 'uspos/5600.bmp' width = '100%;'></div></div>","null","pos","CS","CS","3","category3/CS2.png","","","","",""
"","html-keyboard-response","86","334108","0.0-6.0-6.0-0.17","4ep2ondcw3","one_one","1","indirect_first","0","nz06ch20","0","19","1","1","3","1","einfache Zeichen = angenehme Zeichen","0","1","0","null","","","<div class = 'row'><div class = 'column'><img src = 'category4/CS4.png' width = '70%;'></div><div class = 'column'><img src = 'usneg/9181.bmp' width = '100%;'></div></div>","null","neg","CS","CS","4","category4/CS4.png","","","","",""
"","html-keyboard-response","87","336625","0.0-6.0-6.0-0.18","4ep2ondcw3","one_one","1","indirect_first","0","nz06ch20","0","19","1","1","3","1","einfache Zeichen = angenehme Zeichen","0","1","0","null","","","<div class = 'row'><div class = 'column'><img src = 'category2/CS8.png' width = '70%;'></div><div class = 'column'><img src = 'usneg/9340.bmp' width = '100%;'></div></div>","null","neg","CS","CS","2","category2/CS8.png","","","","",""
"","html-keyboard-response","88","339158","0.0-6.0-6.0-0.19","4ep2ondcw3","one_one","1","indirect_first","0","nz06ch20","0","19","1","1","3","1","einfache Zeichen = angenehme Zeichen","0","1","0","null","","","<div class = 'row'><div class = 'column'><img src = 'category4/CS4.png' width = '70%;'></div><div class = 'column'><img src = 'usneg/9181.bmp' width = '100%;'></div></div>","null","neg","CS","CS","4","category4/CS4.png","","","","",""
"","html-keyboard-response","89","368325","0.0-7.0","4ep2ondcw3","one_one","1","indirect_first","0","nz06ch20","0","19","1","1","3","1","einfache Zeichen = angenehme Zeichen","0","1","0","28664","","","<p>Sie sehen nun die chinesischen Zeichen nur ganz kurz. Danach sehen Sie die jeweilige Aussprache der Zeichen als Silbe auf dem Bildschrim. Ihre Aufgabe ist es, für jede Silbe anzugeben, ob diese etwas angenehmes, oder unangenehmes bedeuten könnte. Verlassen Sie sich hier vor allem auf Ihre Intuition.<br><br>Die Zeichen werden nur zur Orientierung dargestellt, beachten Sie sie deshalb nicht. Konzentrieren Sie sich vor allem auf die Silben. <br>Reagieren Sie mit folgenden zwei Tasten: <br><br><b>'D' </b> wenn die Silbe etwas <b>unangenehmes</b> bedeuten könnte. <br><b>'K'</b> wenn die Silbe etwas <b>angenehmes</b> bedeuten könnte. <br><br>Bitte legen Sie nun den Zeigefinger der linken Hand auf die Taste 'D' und den Zeigefinger der rechten Hand auf die Taste 'K'. <br>Reagieren Sie auf jede Silbe so schnell wie möglich. Uns interessiert Ihre spontane Reaktion. <br> <br> <br>Drücken Sie 'D' oder 'K', um die nächste Aufgabe zu starten. </p>","68","","","","","","","","","",""
"","html-keyboard-response","90","371347","0.0-8.0-0.0","4ep2ondcw3","one_one","1","indirect_first","0","nz06ch20","0","19","1","1","3","1","einfache Zeichen = angenehme Zeichen","0","1","0","null","","","<div style=""font-size:60px;"">+</div>","null","","","","","","","","","",""
"","html-keyboard-response","91","371440","0.0-8.0-1.0","4ep2ondcw3","one_one","1","indirect_first","0","nz06ch20","0","19","1","1","3","1","einfache Zeichen = angenehme Zeichen","0","1","0","null","","","<img src = 'category1/CS6.png' width = '100%;'>","null","","","","","","","","","",""
"","html-keyboard-response","92","371708","0.0-8.0-2.0","4ep2ondcw3","one_one","1","indirect_first","0","nz06ch20","0","19","1","1","3","1","einfache Zeichen = angenehme Zeichen","0","1","0","null","","","<img src = 'targets/27.png' width = '100%;'>","null","","","","","","","","","",""
"","html-keyboard-response","93","371843","0.0-8.0-3.0","4ep2ondcw3","one_one","1","indirect_first","0","nz06ch20","0","19","1","1","3","1","einfache Zeichen = angenehme Zeichen","0","1","0","134","","","<img src = 'targets/mask.png' width = '100%;'>","68","pos","GS","GSold","1","category1/CS6.png","targets/27.png","0","indirect","0",""
"","html-keyboard-response","94","373368","0.0-8.0-0.1","4ep2ondcw3","one_one","1","indirect_first","0","nz06ch20","0","19","1","1","3","1","einfache Zeichen = angenehme Zeichen","0","1","0","null","","","<div style=""font-size:60px;"">+</div>","null","","","","","","","","","",""
"","html-keyboard-response","95","373463","0.0-8.0-1.1","4ep2ondcw3","one_one","1","indirect_first","0","nz06ch20","0","19","1","1","3","1","einfache Zeichen = angenehme Zeichen","0","1","0","null","","","<img src = 'category1/CS4.png' width = '100%;'>","null","","","","","","","","","",""
"","html-keyboard-response","96","373730","0.0-8.0-2.1","4ep2ondcw3","one_one","1","indirect_first","0","nz06ch20","0","19","1","1","3","1","einfache Zeichen = angenehme Zeichen","0","1","0","null","","","<img src = 'targets/31.png' width = '100%;'>","null","","","","","","","","","",""
"","html-keyboard-response","97","377541","0.0-8.0-3.1","4ep2ondcw3","one_one","1","indirect_first","0","nz06ch20","0","19","1","1","3","1","einfache Zeichen = angenehme Zeichen","0","1","0","3809","","","<img src = 'targets/mask.png' width = '100%;'>","75","pos","GS","GSold","1","category1/CS4.png","targets/31.png","1","indirect","1",""
"","html-keyboard-response","98","379056","0.0-8.0-0.2","4ep2ondcw3","one_one","1","indirect_first","0","nz06ch20","0","19","1","1","3","1","einfache Zeichen = angenehme Zeichen","0","1","0","null","","","<div style=""font-size:60px;"">+</div>","null","","","","","","","","","",""
"","html-keyboard-response","99","379150","0.0-8.0-1.2","4ep2ondcw3","one_one","1","indirect_first","0","nz06ch20","0","19","1","1","3","1","einfache Zeichen = angenehme Zeichen","0","1","0","null","","","<img src = 'category2/CS8.png' width = '100%;'>","null","","","","","","","","","",""
"","html-keyboard-response","100","379417","0.0-8.0-2.2","4ep2ondcw3","one_one","1","indirect_first","0","nz06ch20","0","19","1","1","3","1","einfache Zeichen = angenehme Zeichen","0","1","0","null","","","<img src = 'targets/2.png' width = '100%;'>","null","","","","","","","","","",""
"","html-keyboard-response","101","381781","0.0-8.0-3.2","4ep2ondcw3","one_one","1","indirect_first","0","nz06ch20","0","19","1","1","3","1","einfache Zeichen = angenehme Zeichen","0","1","0","2363","","","<img src = 'targets/mask.png' width = '100%;'>","75","neg","CS","CS","2","category2/CS8.png","targets/2.png","1","indirect","2",""
"","html-keyboard-response","102","383286","0.0-8.0-0.3","4ep2ondcw3","one_one","1","indirect_first","0","nz06ch20","0","19","1","1","3","1","einfache Zeichen = angenehme Zeichen","0","1","0","null","","","<div style=""font-size:60px;"">+</div>","null","","","","","","","","","",""
"","html-keyboard-response","103","383380","0.0-8.0-1.3","4ep2ondcw3","one_one","1","indirect_first","0","nz06ch20","0","19","1","1","3","1","einfache Zeichen = angenehme Zeichen","0","1","0","null","","","<img src = 'category1/CS10.png' width = '100%;'>","null","","","","","","","","","",""
"","html-keyboard-response","104","383649","0.0-8.0-2.3","4ep2ondcw3","one_one","1","indirect_first","0","nz06ch20","0","19","1","1","3","1","einfache Zeichen = angenehme Zeichen","0","1","0","null","","","<img src = 'targets/4.png' width = '100%;'>","null","","","","","","","","","",""
"","html-keyboard-response","105","384729","0.0-8.0-3.3","4ep2ondcw3","one_one","1","indirect_first","0","nz06ch20","0","19","1","1","3","1","einfache Zeichen = angenehme Zeichen","0","1","0","1079","","","<img src = 'targets/mask.png' width = '100%;'>","75","pos","GS","GSold","1","category1/CS10.png","targets/4.png","1","indirect","3",""
"","html-keyboard-response","106","386248","0.0-8.0-0.4","4ep2ondcw3","one_one","1","indirect_first","0","nz06ch20","0","19","1","1","3","1","einfache Zeichen = angenehme Zeichen","0","1","0","null","","","<div style=""font-size:60px;"">+</div>","null","","","","","","","","","",""
"","html-keyboard-response","107","386342","0.0-8.0-1.4","4ep2ondcw3","one_one","1","indirect_first","0","nz06ch20","0","19","1","1","3","1","einfache Zeichen = angenehme Zeichen","0","1","0","null","","","<img src = 'category4/CS3.png' width = '100%;'>","null","","","","","","","","","",""
"","html-keyboard-response","108","386596","0.0-8.0-2.4","4ep2ondcw3","one_one","1","indirect_first","0","nz06ch20","0","19","1","1","3","1","einfache Zeichen = angenehme Zeichen","0","1","0","null","","","<img src = 'targets/20.png' width = '100%;'>","null","","","","","","","","","",""
"","html-keyboard-response","109","387349","0.0-8.0-3.4","4ep2ondcw3","one_one","1","indirect_first","0","nz06ch20","0","19","1","1","3","1","einfache Zeichen = angenehme Zeichen","0","1","0","751","","","<img src = 'targets/mask.png' width = '100%;'>","75","neg","GS","GSold","4","category4/CS3.png","targets/20.png","1","indirect","4",""
"","html-keyboard-response","110","388867","0.0-8.0-0.5","4ep2ondcw3","one_one","1","indirect_first","0","nz06ch20","0","19","1","1","3","1","einfache Zeichen = angenehme Zeichen","0","1","0","null","","","<div style=""font-size:60px;"">+</div>","null","","","","","","","","","",""
"","html-keyboard-response","111","388960","0.0-8.0-1.5","4ep2ondcw3","one_one","1","indirect_first","0","nz06ch20","0","19","1","1","3","1","einfache Zeichen = angenehme Zeichen","0","1","0","null","","","<img src = 'category3/CS4.png' width = '100%;'>","null","","","","","","","","","",""
"","html-keyboard-response","112","389226","0.0-8.0-2.5","4ep2ondcw3","one_one","1","indirect_first","0","nz06ch20","0","19","1","1","3","1","einfache Zeichen = angenehme Zeichen","0","1","0","null","","","<img src = 'targets/5.png' width = '100%;'>","null","","","","","","","","","",""
"","html-keyboard-response","113","389987","0.0-8.0-3.5","4ep2ondcw3","one_one","1","indirect_first","0","nz06ch20","0","19","1","1","3","1","einfache Zeichen = angenehme Zeichen","0","1","0","761","","","<img src = 'targets/mask.png' width = '100%;'>","68","pos","GS","GSold","3","category3/CS4.png","targets/5.png","0","indirect","5",""
"","html-keyboard-response","114","391503","0.0-8.0-0.6","4ep2ondcw3","one_one","1","indirect_first","0","nz06ch20","0","19","1","1","3","1","einfache Zeichen = angenehme Zeichen","0","1","0","null","","","<div style=""font-size:60px;"">+</div>","null","","","","","","","","","",""
"","html-keyboard-response","115","391603","0.0-8.0-1.6","4ep2ondcw3","one_one","1","indirect_first","0","nz06ch20","0","19","1","1","3","1","einfache Zeichen = angenehme Zeichen","0","1","0","null","","","<img src = 'category3/CS2.png' width = '100%;'>","null","","","","","","","","","",""
"","html-keyboard-response","116","391883","0.0-8.0-2.6","4ep2ondcw3","one_one","1","indirect_first","0","nz06ch20","0","19","1","1","3","1","einfache Zeichen = angenehme Zeichen","0","1","0","null","","","<img src = 'targets/28.png' width = '100%;'>","null","","","","","","","","","",""
"","html-keyboard-response","117","392749","0.0-8.0-3.6","4ep2ondcw3","one_one","1","indirect_first","0","nz06ch20","0","19","1","1","3","1","einfache Zeichen = angenehme Zeichen","0","1","0","864","","","<img src = 'targets/mask.png' width = '100%;'>","75","pos","CS","CS","3","category3/CS2.png","targets/28.png","1","indirect","6",""
"","html-keyboard-response","118","394260","0.0-8.0-0.7","4ep2ondcw3","one_one","1","indirect_first","0","nz06ch20","0","19","1","1","3","1","einfache Zeichen = angenehme Zeichen","0","1","0","null","","","<div style=""font-size:60px;"">+</div>","null","","","","","","","","","",""
"","html-keyboard-response","119","394357","0.0-8.0-1.7","4ep2ondcw3","one_one","1","indirect_first","0","nz06ch20","0","19","1","1","3","1","einfache Zeichen = angenehme Zeichen","0","1","0","null","","","<img src = 'category3/CS9.png' width = '100%;'>","null","","","","","","","","","",""
"","html-keyboard-response","120","394638","0.0-8.0-2.7","4ep2ondcw3","one_one","1","indirect_first","0","nz06ch20","0","19","1","1","3","1","einfache Zeichen = angenehme Zeichen","0","1","0","null","","","<img src = 'targets/40.png' width = '100%;'>","null","","","","","","","","","",""
"","html-keyboard-response","121","395292","0.0-8.0-3.7","4ep2ondcw3","one_one","1","indirect_first","0","nz06ch20","0","19","1","1","3","1","einfache Zeichen = angenehme Zeichen","0","1","0","652","","","<img src = 'targets/mask.png' width = '100%;'>","75","pos","GS","GSold","3","category3/CS9.png","targets/40.png","1","indirect","7",""
"","html-keyboard-response","122","396808","0.0-8.0-0.8","4ep2ondcw3","one_one","1","indirect_first","0","nz06ch20","0","19","1","1","3","1","einfache Zeichen = angenehme Zeichen","0","1","0","null","","","<div style=""font-size:60px;"">+</div>","null","","","","","","","","","",""
"","html-keyboard-response","123","396903","0.0-8.0-1.8","4ep2ondcw3","one_one","1","indirect_first","0","nz06ch20","0","19","1","1","3","1","einfache Zeichen = angenehme Zeichen","0","1","0","null","","","<img src = 'category1/CS3.png' width = '100%;'>","null","","","","","","","","","",""
"","html-keyboard-response","124","397169","0.0-8.0-2.8","4ep2ondcw3","one_one","1","indirect_first","0","nz06ch20","0","19","1","1","3","1","einfache Zeichen = angenehme Zeichen","0","1","0","null","","","<img src = 'targets/6.png' width = '100%;'>","null","","","","","","","","","",""
"","html-keyboard-response","125","400676","0.0-8.0-3.8","4ep2ondcw3","one_one","1","indirect_first","0","nz06ch20","0","19","1","1","3","1","einfache Zeichen = angenehme Zeichen","0","1","0","3507","","","<img src = 'targets/mask.png' width = '100%;'>","68","pos","CS","CS","1","category1/CS3.png","targets/6.png","0","indirect","8",""
"","html-keyboard-response","126","402203","0.0-8.0-0.9","4ep2ondcw3","one_one","1","indirect_first","0","nz06ch20","0","19","1","1","3","1","einfache Zeichen = angenehme Zeichen","0","1","0","null","","","<div style=""font-size:60px;"">+</div>","null","","","","","","","","","",""
"","html-keyboard-response","127","402303","0.0-8.0-1.9","4ep2ondcw3","one_one","1","indirect_first","0","nz06ch20","0","19","1","1","3","1","einfache Zeichen = angenehme Zeichen","0","1","0","null","","","<img src = 'category4/CS8.png' width = '100%;'>","null","","","","","","","","","",""
"","html-keyboard-response","128","402582","0.0-8.0-2.9","4ep2ondcw3","one_one","1","indirect_first","0","nz06ch20","0","19","1","1","3","1","einfache Zeichen = angenehme Zeichen","0","1","0","null","","","<img src = 'targets/34.png' width = '100%;'>","null","","","","","","","","","",""
"","html-keyboard-response","129","403221","0.0-8.0-3.9","4ep2ondcw3","one_one","1","indirect_first","0","nz06ch20","0","19","1","1","3","1","einfache Zeichen = angenehme Zeichen","0","1","0","637","","","<img src = 'targets/mask.png' width = '100%;'>","68","neg","GS","GSold","4","category4/CS8.png","targets/34.png","0","indirect","9",""
"","html-keyboard-response","130","404733","0.0-8.0-0.10","4ep2ondcw3","one_one","1","indirect_first","0","nz06ch20","0","19","1","1","3","1","einfache Zeichen = angenehme Zeichen","0","1","0","null","","","<div style=""font-size:60px;"">+</div>","null","","","","","","","","","",""
"","html-keyboard-response","131","404826","0.0-8.0-1.10","4ep2ondcw3","one_one","1","indirect_first","0","nz06ch20","0","19","1","1","3","1","einfache Zeichen = angenehme Zeichen","0","1","0","null","","","<img src = 'category2/CS2.png' width = '100%;'>","null","","","","","","","","","",""
"","html-keyboard-response","132","405091","0.0-8.0-2.10","4ep2ondcw3","one_one","1","indirect_first","0","nz06ch20","0","19","1","1","3","1","einfache Zeichen = angenehme Zeichen","0","1","0","null","","","<img src = 'targets/22.png' width = '100%;'>","null","","","","","","","","","",""
"","html-keyboard-response","133","406275","0.0-8.0-3.10","4ep2ondcw3","one_one","1","indirect_first","0","nz06ch20","0","19","1","1","3","1","einfache Zeichen = angenehme Zeichen","0","1","0","1183","","","<img src = 'targets/mask.png' width = '100%;'>","75","neg","GS","GSold","2","category2/CS2.png","targets/22.png","1","indirect","10",""
"","html-keyboard-response","134","407793","0.0-8.0-0.11","4ep2ondcw3","one_one","1","indirect_first","0","nz06ch20","0","19","1","1","3","1","einfache Zeichen = angenehme Zeichen","0","1","0","null","","","<div style=""font-size:60px;"">+</div>","null","","","","","","","","","",""
"","html-keyboard-response","135","407886","0.0-8.0-1.11","4ep2ondcw3","one_one","1","indirect_first","0","nz06ch20","0","19","1","1","3","1","einfache Zeichen = angenehme Zeichen","0","1","0","null","","","<img src = 'category3/CS5.png' width = '100%;'>","null","","","","","","","","","",""
"","html-keyboard-response","136","408152","0.0-8.0-2.11","4ep2ondcw3","one_one","1","indirect_first","0","nz06ch20","0","19","1","1","3","1","einfache Zeichen = angenehme Zeichen","0","1","0","null","","","<img src = 'targets/35.png' width = '100%;'>","null","","","","","","","","","",""
"","html-keyboard-response","137","408691","0.0-8.0-3.11","4ep2ondcw3","one_one","1","indirect_first","0","nz06ch20","0","19","1","1","3","1","einfache Zeichen = angenehme Zeichen","0","1","0","537","","","<img src = 'targets/mask.png' width = '100%;'>","75","pos","GS","GSold","3","category3/CS5.png","targets/35.png","1","indirect","11",""
"","html-keyboard-response","138","410205","0.0-8.0-0.12","4ep2ondcw3","one_one","1","indirect_first","0","nz06ch20","0","19","1","1","3","1","einfache Zeichen = angenehme Zeichen","0","1","0","null","","","<div style=""font-size:60px;"">+</div>","null","","","","","","","","","",""
"","html-keyboard-response","139","410300","0.0-8.0-1.12","4ep2ondcw3","one_one","1","indirect_first","0","nz06ch20","0","19","1","1","3","1","einfache Zeichen = angenehme Zeichen","0","1","0","null","","","<img src = 'category2/CS6.png' width = '100%;'>","null","","","","","","","","","",""
"","html-keyboard-response","140","410567","0.0-8.0-2.12","4ep2ondcw3","one_one","1","indirect_first","0","nz06ch20","0","19","1","1","3","1","einfache Zeichen = angenehme Zeichen","0","1","0","null","","","<img src = 'targets/46.png' width = '100%;'>","null","","","","","","","","","",""
"","html-keyboard-response","141","412964","0.0-8.0-3.12","4ep2ondcw3","one_one","1","indirect_first","0","nz06ch20","0","19","1","1","3","1","einfache Zeichen = angenehme Zeichen","0","1","0","2395","","","<img src = 'targets/mask.png' width = '100%;'>","75","neg","GS","GSold","2","category2/CS6.png","targets/46.png","1","indirect","12",""
"","html-keyboard-response","142","414486","0.0-8.0-0.13","4ep2ondcw3","one_one","1","indirect_first","0","nz06ch20","0","19","1","1","3","1","einfache Zeichen = angenehme Zeichen","0","1","0","null","","","<div style=""font-size:60px;"">+</div>","null","","","","","","","","","",""
"","html-keyboard-response","143","414582","0.0-8.0-1.13","4ep2ondcw3","one_one","1","indirect_first","0","nz06ch20","0","19","1","1","3","1","einfache Zeichen = angenehme Zeichen","0","1","0","null","","","<img src = 'category2/CS4.png' width = '100%;'>","null","","","","","","","","","",""
"","html-keyboard-response","144","414834","0.0-8.0-2.13","4ep2ondcw3","one_one","1","indirect_first","0","nz06ch20","0","19","1","1","3","1","einfache Zeichen = angenehme Zeichen","0","1","0","null","","","<img src = 'targets/45.png' width = '100%;'>","null","","","","","","","","","",""
"","html-keyboard-response","145","415397","0.0-8.0-3.13","4ep2ondcw3","one_one","1","indirect_first","0","nz06ch20","0","19","1","1","3","1","einfache Zeichen = angenehme Zeichen","0","1","0","562","","","<img src = 'targets/mask.png' width = '100%;'>","68","neg","GS","GSold","2","category2/CS4.png","targets/45.png","0","indirect","13",""
"","html-keyboard-response","146","416906","0.0-8.0-0.14","4ep2ondcw3","one_one","1","indirect_first","0","nz06ch20","0","19","1","1","3","1","einfache Zeichen = angenehme Zeichen","0","1","0","null","","","<div style=""font-size:60px;"">+</div>","null","","","","","","","","","",""
"","html-keyboard-response","147","416999","0.0-8.0-1.14","4ep2ondcw3","one_one","1","indirect_first","0","nz06ch20","0","19","1","1","3","1","einfache Zeichen = angenehme Zeichen","0","1","0","null","","","<img src = 'category4/CS2.png' width = '100%;'>","null","","","","","","","","","",""
"","html-keyboard-response","148","417252","0.0-8.0-2.14","4ep2ondcw3","one_one","1","indirect_first","0","nz06ch20","0","19","1","1","3","1","einfache Zeichen = angenehme Zeichen","0","1","0","null","","","<img src = 'targets/37.png' width = '100%;'>","null","","","","","","","","","",""
"","html-keyboard-response","149","417736","0.0-8.0-3.14","4ep2ondcw3","one_one","1","indirect_first","0","nz06ch20","0","19","1","1","3","1","einfache Zeichen = angenehme Zeichen","0","1","0","483","","","<img src = 'targets/mask.png' width = '100%;'>","75","neg","GS","GSold","4","category4/CS2.png","targets/37.png","1","indirect","14",""
"","html-keyboard-response","150","419249","0.0-8.0-0.15","4ep2ondcw3","one_one","1","indirect_first","0","nz06ch20","0","19","1","1","3","1","einfache Zeichen = angenehme Zeichen","0","1","0","null","","","<div style=""font-size:60px;"">+</div>","null","","","","","","","","","",""
"","html-keyboard-response","151","419342","0.0-8.0-1.15","4ep2ondcw3","one_one","1","indirect_first","0","nz06ch20","0","19","1","1","3","1","einfache Zeichen = angenehme Zeichen","0","1","0","null","","","<img src = 'category4/CS4.png' width = '100%;'>","null","","","","","","","","","",""
"","html-keyboard-response","152","419623","0.0-8.0-2.15","4ep2ondcw3","one_one","1","indirect_first","0","nz06ch20","0","19","1","1","3","1","einfache Zeichen = angenehme Zeichen","0","1","0","null","","","<img src = 'targets/17.png' width = '100%;'>","null","","","","","","","","","",""
"","html-keyboard-response","153","420010","0.0-8.0-3.15","4ep2ondcw3","one_one","1","indirect_first","0","nz06ch20","0","19","1","1","3","1","einfache Zeichen = angenehme Zeichen","0","1","0","385","","","<img src = 'targets/mask.png' width = '100%;'>","75","neg","CS","CS","4","category4/CS4.png","targets/17.png","1","indirect","15",""
"","survey-html-form","154","423434","0.0-9.0","4ep2ondcw3","one_one","1","indirect_first","0","nz06ch20","0","19","1","1","3","1","einfache Zeichen = angenehme Zeichen","0","1","0","2923","","{}","","","","","","","","","","","",""
"","html-keyboard-response","155","426449","0.0-10.0-0.0","4ep2ondcw3","one_one","1","indirect_first","0","nz06ch20","0","19","1","1","3","1","einfache Zeichen = angenehme Zeichen","0","1","0","null","","","<div style=""font-size:60px;"">+</div>","null","","","","","","","","","",""
"","html-keyboard-response","156","426543","0.0-10.0-1.0","4ep2ondcw3","one_one","1","indirect_first","0","nz06ch20","0","19","1","1","3","1","einfache Zeichen = angenehme Zeichen","0","1","0","null","","","<img src = 'category2/men.png' width = '100%;'>","null","","","","","","","","","",""
"","html-keyboard-response","157","426795","0.0-10.0-2.0","4ep2ondcw3","one_one","1","indirect_first","0","nz06ch20","0","19","1","1","3","1","einfache Zeichen = angenehme Zeichen","0","1","0","null","","","<img src = 'targets/14.png' width = '100%;'>","null","","","","","","","","","",""
"","html-keyboard-response","158","428800","0.0-10.0-3.0","4ep2ondcw3","one_one","1","indirect_first","0","nz06ch20","0","19","1","1","3","1","einfache Zeichen = angenehme Zeichen","0","1","0","2004","","","<img src = 'targets/mask.png' width = '100%;'>","75","neg","GS","abstract","2","category2/men.png","targets/14.png","1","indirect","16",""
"","html-keyboard-response","159","430316","0.0-10.0-0.1","4ep2ondcw3","one_one","1","indirect_first","0","nz06ch20","0","19","1","1","3","1","einfache Zeichen = angenehme Zeichen","0","1","0","null","","","<div style=""font-size:60px;"">+</div>","null","","","","","","","","","",""
"","html-keyboard-response","160","430409","0.0-10.0-1.1","4ep2ondcw3","one_one","1","indirect_first","0","nz06ch20","0","19","1","1","3","1","einfache Zeichen = angenehme Zeichen","0","1","0","null","","","<img src = 'category4/GS3.png' width = '100%;'>","null","","","","","","","","","",""
"","html-keyboard-response","161","430662","0.0-10.0-2.1","4ep2ondcw3","one_one","1","indirect_first","0","nz06ch20","0","19","1","1","3","1","einfache Zeichen = angenehme Zeichen","0","1","0","null","","","<img src = 'targets/44.png' width = '100%;'>","null","","","","","","","","","",""
"","html-keyboard-response","162","431624","0.0-10.0-3.1","4ep2ondcw3","one_one","1","indirect_first","0","nz06ch20","0","19","1","1","3","1","einfache Zeichen = angenehme Zeichen","0","1","0","962","","","<img src = 'targets/mask.png' width = '100%;'>","75","neg","GS","GSnew","4","category4/GS3.png","targets/44.png","1","indirect","17",""
"","html-keyboard-response","163","433137","0.0-10.0-0.2","4ep2ondcw3","one_one","1","indirect_first","0","nz06ch20","0","19","1","1","3","1","einfache Zeichen = angenehme Zeichen","0","1","0","null","","","<div style=""font-size:60px;"">+</div>","null","","","","","","","","","",""
"","html-keyboard-response","164","433232","0.0-10.0-1.2","4ep2ondcw3","one_one","1","indirect_first","0","nz06ch20","0","19","1","1","3","1","einfache Zeichen = angenehme Zeichen","0","1","0","null","","","<img src = 'category3/GS1.png' width = '100%;'>","null","","","","","","","","","",""
"","html-keyboard-response","165","433497","0.0-10.0-2.2","4ep2ondcw3","one_one","1","indirect_first","0","nz06ch20","0","19","1","1","3","1","einfache Zeichen = angenehme Zeichen","0","1","0","null","","","<img src = 'targets/47.png' width = '100%;'>","null","","","","","","","","","",""
"","html-keyboard-response","166","434200","0.0-10.0-3.2","4ep2ondcw3","one_one","1","indirect_first","0","nz06ch20","0","19","1","1","3","1","einfache Zeichen = angenehme Zeichen","0","1","0","702","","","<img src = 'targets/mask.png' width = '100%;'>","75","pos","GS","GSnew","3","category3/GS1.png","targets/47.png","1","indirect","18",""
"","html-keyboard-response","167","435722","0.0-10.0-0.3","4ep2ondcw3","one_one","1","indirect_first","0","nz06ch20","0","19","1","1","3","1","einfache Zeichen = angenehme Zeichen","0","1","0","null","","","<div style=""font-size:60px;"">+</div>","null","","","","","","","","","",""
"","html-keyboard-response","168","435815","0.0-10.0-1.3","4ep2ondcw3","one_one","1","indirect_first","0","nz06ch20","0","19","1","1","3","1","einfache Zeichen = angenehme Zeichen","0","1","0","null","","","<img src = 'category1/ma.png' width = '100%;'>","null","","","","","","","","","",""
"","html-keyboard-response","169","436081","0.0-10.0-2.3","4ep2ondcw3","one_one","1","indirect_first","0","nz06ch20","0","19","1","1","3","1","einfache Zeichen = angenehme Zeichen","0","1","0","null","","","<img src = 'targets/38.png' width = '100%;'>","null","","","","","","","","","",""
"","html-keyboard-response","170","436946","0.0-10.0-3.3","4ep2ondcw3","one_one","1","indirect_first","0","nz06ch20","0","19","1","1","3","1","einfache Zeichen = angenehme Zeichen","0","1","0","864","","","<img src = 'targets/mask.png' width = '100%;'>","75","pos","GS","abstract","1","category1/ma.png","targets/38.png","1","indirect","19",""
"","html-keyboard-response","171","438472","0.0-10.0-0.4","4ep2ondcw3","one_one","1","indirect_first","0","nz06ch20","0","19","1","1","3","1","einfache Zeichen = angenehme Zeichen","0","1","0","null","","","<div style=""font-size:60px;"">+</div>","null","","","","","","","","","",""
"","html-keyboard-response","172","438566","0.0-10.0-1.4","4ep2ondcw3","one_one","1","indirect_first","0","nz06ch20","0","19","1","1","3","1","einfache Zeichen = angenehme Zeichen","0","1","0","null","","","<img src = 'category4/GS2.png' width = '100%;'>","null","","","","","","","","","",""
"","html-keyboard-response","173","438819","0.0-10.0-2.4","4ep2ondcw3","one_one","1","indirect_first","0","nz06ch20","0","19","1","1","3","1","einfache Zeichen = angenehme Zeichen","0","1","0","null","","","<img src = 'targets/29.png' width = '100%;'>","null","","","","","","","","","",""
"","html-keyboard-response","174","439322","0.0-10.0-3.4","4ep2ondcw3","one_one","1","indirect_first","0","nz06ch20","0","19","1","1","3","1","einfache Zeichen = angenehme Zeichen","0","1","0","502","","","<img src = 'targets/mask.png' width = '100%;'>","68","neg","GS","GSnew","4","category4/GS2.png","targets/29.png","0","indirect","20",""
"","html-keyboard-response","175","440840","0.0-10.0-0.5","4ep2ondcw3","one_one","1","indirect_first","0","nz06ch20","0","19","1","1","3","1","einfache Zeichen = angenehme Zeichen","0","1","0","null","","","<div style=""font-size:60px;"">+</div>","null","","","","","","","","","",""
"","html-keyboard-response","176","440932","0.0-10.0-1.5","4ep2ondcw3","one_one","1","indirect_first","0","nz06ch20","0","19","1","1","3","1","einfache Zeichen = angenehme Zeichen","0","1","0","null","","","<img src = 'category4/GS1.png' width = '100%;'>","null","","","","","","","","","",""
"","html-keyboard-response","177","441199","0.0-10.0-2.5","4ep2ondcw3","one_one","1","indirect_first","0","nz06ch20","0","19","1","1","3","1","einfache Zeichen = angenehme Zeichen","0","1","0","null","","","<img src = 'targets/33.png' width = '100%;'>","null","","","","","","","","","",""
"","html-keyboard-response","178","441947","0.0-10.0-3.5","4ep2ondcw3","one_one","1","indirect_first","0","nz06ch20","0","19","1","1","3","1","einfache Zeichen = angenehme Zeichen","0","1","0","747","","","<img src = 'targets/mask.png' width = '100%;'>","75","neg","GS","GSnew","4","category4/GS1.png","targets/33.png","1","indirect","21",""
"","html-keyboard-response","179","443465","0.0-10.0-0.6","4ep2ondcw3","one_one","1","indirect_first","0","nz06ch20","0","19","1","1","3","1","einfache Zeichen = angenehme Zeichen","0","1","0","null","","","<div style=""font-size:60px;"">+</div>","null","","","","","","","","","",""
"","html-keyboard-response","180","443558","0.0-10.0-1.6","4ep2ondcw3","one_one","1","indirect_first","0","nz06ch20","0","19","1","1","3","1","einfache Zeichen = angenehme Zeichen","0","1","0","null","","","<img src = 'category3/wang.png' width = '100%;'>","null","","","","","","","","","",""
"","html-keyboard-response","181","443840","0.0-10.0-2.6","4ep2ondcw3","one_one","1","indirect_first","0","nz06ch20","0","19","1","1","3","1","einfache Zeichen = angenehme Zeichen","0","1","0","null","","","<img src = 'targets/23.png' width = '100%;'>","null","","","","","","","","","",""
"","html-keyboard-response","182","444292","0.0-10.0-3.6","4ep2ondcw3","one_one","1","indirect_first","0","nz06ch20","0","19","1","1","3","1","einfache Zeichen = angenehme Zeichen","0","1","0","450","","","<img src = 'targets/mask.png' width = '100%;'>","75","pos","GS","abstract","3","category3/wang.png","targets/23.png","1","indirect","22",""
"","html-keyboard-response","183","445803","0.0-10.0-0.7","4ep2ondcw3","one_one","1","indirect_first","0","nz06ch20","0","19","1","1","3","1","einfache Zeichen = angenehme Zeichen","0","1","0","null","","","<div style=""font-size:60px;"">+</div>","null","","","","","","","","","",""
"","html-keyboard-response","184","445903","0.0-10.0-1.7","4ep2ondcw3","one_one","1","indirect_first","0","nz06ch20","0","19","1","1","3","1","einfache Zeichen = angenehme Zeichen","0","1","0","null","","","<img src = 'category1/GS2.png' width = '100%;'>","null","","","","","","","","","",""
"","html-keyboard-response","185","446183","0.0-10.0-2.7","4ep2ondcw3","one_one","1","indirect_first","0","nz06ch20","0","19","1","1","3","1","einfache Zeichen = angenehme Zeichen","0","1","0","null","","","<img src = 'targets/19.png' width = '100%;'>","null","","","","","","","","","",""
"","html-keyboard-response","186","446714","0.0-10.0-3.7","4ep2ondcw3","one_one","1","indirect_first","0","nz06ch20","0","19","1","1","3","1","einfache Zeichen = angenehme Zeichen","0","1","0","530","","","<img src = 'targets/mask.png' width = '100%;'>","68","pos","GS","GSnew","1","category1/GS2.png","targets/19.png","0","indirect","23",""
"","html-keyboard-response","187","448226","0.0-10.0-0.8","4ep2ondcw3","one_one","1","indirect_first","0","nz06ch20","0","19","1","1","3","1","einfache Zeichen = angenehme Zeichen","0","1","0","null","","","<div style=""font-size:60px;"">+</div>","null","","","","","","","","","",""
"","html-keyboard-response","188","448320","0.0-10.0-1.8","4ep2ondcw3","one_one","1","indirect_first","0","nz06ch20","0","19","1","1","3","1","einfache Zeichen = angenehme Zeichen","0","1","0","null","","","<img src = 'category1/GS3.png' width = '100%;'>","null","","","","","","","","","",""
"","html-keyboard-response","189","448587","0.0-10.0-2.8","4ep2ondcw3","one_one","1","indirect_first","0","nz06ch20","0","19","1","1","3","1","einfache Zeichen = angenehme Zeichen","0","1","0","null","","","<img src = 'targets/1.png' width = '100%;'>","null","","","","","","","","","",""
"","html-keyboard-response","190","449178","0.0-10.0-3.8","4ep2ondcw3","one_one","1","indirect_first","0","nz06ch20","0","19","1","1","3","1","einfache Zeichen = angenehme Zeichen","0","1","0","589","","","<img src = 'targets/mask.png' width = '100%;'>","75","pos","GS","GSnew","1","category1/GS3.png","targets/1.png","1","indirect","24",""
"","html-keyboard-response","191","450685","0.0-10.0-0.9","4ep2ondcw3","one_one","1","indirect_first","0","nz06ch20","0","19","1","1","3","1","einfache Zeichen = angenehme Zeichen","0","1","0","null","","","<div style=""font-size:60px;"">+</div>","null","","","","","","","","","",""
"","html-keyboard-response","192","450779","0.0-10.0-1.9","4ep2ondcw3","one_one","1","indirect_first","0","nz06ch20","0","19","1","1","3","1","einfache Zeichen = angenehme Zeichen","0","1","0","null","","","<img src = 'category2/GS2.png' width = '100%;'>","null","","","","","","","","","",""
"","html-keyboard-response","193","451031","0.0-10.0-2.9","4ep2ondcw3","one_one","1","indirect_first","0","nz06ch20","0","19","1","1","3","1","einfache Zeichen = angenehme Zeichen","0","1","0","null","","","<img src = 'targets/13.png' width = '100%;'>","null","","","","","","","","","",""
"","html-keyboard-response","194","451663","0.0-10.0-3.9","4ep2ondcw3","one_one","1","indirect_first","0","nz06ch20","0","19","1","1","3","1","einfache Zeichen = angenehme Zeichen","0","1","0","632","","","<img src = 'targets/mask.png' width = '100%;'>","75","neg","GS","GSnew","2","category2/GS2.png","targets/13.png","1","indirect","25",""
"","html-keyboard-response","195","453183","0.0-10.0-0.10","4ep2ondcw3","one_one","1","indirect_first","0","nz06ch20","0","19","1","1","3","1","einfache Zeichen = angenehme Zeichen","0","1","0","null","","","<div style=""font-size:60px;"">+</div>","null","","","","","","","","","",""
"","html-keyboard-response","196","453277","0.0-10.0-1.10","4ep2ondcw3","one_one","1","indirect_first","0","nz06ch20","0","19","1","1","3","1","einfache Zeichen = angenehme Zeichen","0","1","0","null","","","<img src = 'category4/lin.png' width = '100%;'>","null","","","","","","","","","",""
"","html-keyboard-response","197","453558","0.0-10.0-2.10","4ep2ondcw3","one_one","1","indirect_first","0","nz06ch20","0","19","1","1","3","1","einfache Zeichen = angenehme Zeichen","0","1","0","null","","","<img src = 'targets/36.png' width = '100%;'>","null","","","","","","","","","",""
"","html-keyboard-response","198","454717","0.0-10.0-3.10","4ep2ondcw3","one_one","1","indirect_first","0","nz06ch20","0","19","1","1","3","1","einfache Zeichen = angenehme Zeichen","0","1","0","1159","","","<img src = 'targets/mask.png' width = '100%;'>","75","neg","GS","abstract","4","category4/lin.png","targets/36.png","1","indirect","26",""
"","html-keyboard-response","199","456237","0.0-10.0-0.11","4ep2ondcw3","one_one","1","indirect_first","0","nz06ch20","0","19","1","1","3","1","einfache Zeichen = angenehme Zeichen","0","1","0","null","","","<div style=""font-size:60px;"">+</div>","null","","","","","","","","","",""
"","html-keyboard-response","200","456332","0.0-10.0-1.11","4ep2ondcw3","one_one","1","indirect_first","0","nz06ch20","0","19","1","1","3","1","einfache Zeichen = angenehme Zeichen","0","1","0","null","","","<img src = 'category3/GS2.png' width = '100%;'>","null","","","","","","","","","",""
"","html-keyboard-response","201","456585","0.0-10.0-2.11","4ep2ondcw3","one_one","1","indirect_first","0","nz06ch20","0","19","1","1","3","1","einfache Zeichen = angenehme Zeichen","0","1","0","null","","","<img src = 'targets/3.png' width = '100%;'>","null","","","","","","","","","",""
"","html-keyboard-response","202","457676","0.0-10.0-3.11","4ep2ondcw3","one_one","1","indirect_first","0","nz06ch20","0","19","1","1","3","1","einfache Zeichen = angenehme Zeichen","0","1","0","1090","","","<img src = 'targets/mask.png' width = '100%;'>","68","pos","GS","GSnew","3","category3/GS2.png","targets/3.png","0","indirect","27",""
"","html-keyboard-response","203","459203","0.0-10.0-0.12","4ep2ondcw3","one_one","1","indirect_first","0","nz06ch20","0","19","1","1","3","1","einfache Zeichen = angenehme Zeichen","0","1","0","null","","","<div style=""font-size:60px;"">+</div>","null","","","","","","","","","",""
"","html-keyboard-response","204","459298","0.0-10.0-1.12","4ep2ondcw3","one_one","1","indirect_first","0","nz06ch20","0","19","1","1","3","1","einfache Zeichen = angenehme Zeichen","0","1","0","null","","","<img src = 'category2/GS1.png' width = '100%;'>","null","","","","","","","","","",""
"","html-keyboard-response","205","459563","0.0-10.0-2.12","4ep2ondcw3","one_one","1","indirect_first","0","nz06ch20","0","19","1","1","3","1","einfache Zeichen = angenehme Zeichen","0","1","0","null","","","<img src = 'targets/24.png' width = '100%;'>","null","","","","","","","","","",""
"","html-keyboard-response","206","460651","0.0-10.0-3.12","4ep2ondcw3","one_one","1","indirect_first","0","nz06ch20","0","19","1","1","3","1","einfache Zeichen = angenehme Zeichen","0","1","0","1086","","","<img src = 'targets/mask.png' width = '100%;'>","68","neg","GS","GSnew","2","category2/GS1.png","targets/24.png","0","indirect","28",""
"","html-keyboard-response","207","462168","0.0-10.0-0.13","4ep2ondcw3","one_one","1","indirect_first","0","nz06ch20","0","19","1","1","3","1","einfache Zeichen = angenehme Zeichen","0","1","0","null","","","<div style=""font-size:60px;"">+</div>","null","","","","","","","","","",""
"","html-keyboard-response","208","462261","0.0-10.0-1.13","4ep2ondcw3","one_one","1","indirect_first","0","nz06ch20","0","19","1","1","3","1","einfache Zeichen = angenehme Zeichen","0","1","0","null","","","<img src = 'category3/GS3.png' width = '100%;'>","null","","","","","","","","","",""
"","html-keyboard-response","209","462540","0.0-10.0-2.13","4ep2ondcw3","one_one","1","indirect_first","0","nz06ch20","0","19","1","1","3","1","einfache Zeichen = angenehme Zeichen","0","1","0","null","","","<img src = 'targets/8.png' width = '100%;'>","null","","","","","","","","","",""
"","html-keyboard-response","210","463072","0.0-10.0-3.13","4ep2ondcw3","one_one","1","indirect_first","0","nz06ch20","0","19","1","1","3","1","einfache Zeichen = angenehme Zeichen","0","1","0","530","","","<img src = 'targets/mask.png' width = '100%;'>","75","pos","GS","GSnew","3","category3/GS3.png","targets/8.png","1","indirect","29",""
"","html-keyboard-response","211","464584","0.0-10.0-0.14","4ep2ondcw3","one_one","1","indirect_first","0","nz06ch20","0","19","1","1","3","1","einfache Zeichen = angenehme Zeichen","0","1","0","null","","","<div style=""font-size:60px;"">+</div>","null","","","","","","","","","",""
"","html-keyboard-response","212","464678","0.0-10.0-1.14","4ep2ondcw3","one_one","1","indirect_first","0","nz06ch20","0","19","1","1","3","1","einfache Zeichen = angenehme Zeichen","0","1","0","null","","","<img src = 'category1/GS1.png' width = '100%;'>","null","","","","","","","","","",""
"","html-keyboard-response","213","464961","0.0-10.0-2.14","4ep2ondcw3","one_one","1","indirect_first","0","nz06ch20","0","19","1","1","3","1","einfache Zeichen = angenehme Zeichen","0","1","0","null","","","<img src = 'targets/12.png' width = '100%;'>","null","","","","","","","","","",""
"","html-keyboard-response","214","465422","0.0-10.0-3.14","4ep2ondcw3","one_one","1","indirect_first","0","nz06ch20","0","19","1","1","3","1","einfache Zeichen = angenehme Zeichen","0","1","0","461","","","<img src = 'targets/mask.png' width = '100%;'>","68","pos","GS","GSnew","1","category1/GS1.png","targets/12.png","0","indirect","30",""
"","html-keyboard-response","215","466945","0.0-10.0-0.15","4ep2ondcw3","one_one","1","indirect_first","0","nz06ch20","0","19","1","1","3","1","einfache Zeichen = angenehme Zeichen","0","1","0","null","","","<div style=""font-size:60px;"">+</div>","null","","","","","","","","","",""
"","html-keyboard-response","216","467039","0.0-10.0-1.15","4ep2ondcw3","one_one","1","indirect_first","0","nz06ch20","0","19","1","1","3","1","einfache Zeichen = angenehme Zeichen","0","1","0","null","","","<img src = 'category2/GS3.png' width = '100%;'>","null","","","","","","","","","",""
"","html-keyboard-response","217","467308","0.0-10.0-2.15","4ep2ondcw3","one_one","1","indirect_first","0","nz06ch20","0","19","1","1","3","1","einfache Zeichen = angenehme Zeichen","0","1","0","null","","","<img src = 'targets/7.png' width = '100%;'>","null","","","","","","","","","",""
"","html-keyboard-response","218","468773","0.0-10.0-3.15","4ep2ondcw3","one_one","1","indirect_first","0","nz06ch20","0","19","1","1","3","1","einfache Zeichen = angenehme Zeichen","0","1","0","1464","","","<img src = 'targets/mask.png' width = '100%;'>","68","neg","GS","GSnew","2","category2/GS3.png","targets/7.png","0","indirect","31",""
"","survey-html-form","219","476274","0.0-11.0","4ep2ondcw3","one_one","1","indirect_first","0","nz06ch20","0","19","1","1","3","1","einfache Zeichen = angenehme Zeichen","0","1","0","6992","","{}","","","","","","","","","","","",""
"","image-slider-response","220","485274","0.0-12.0-0.0","4ep2ondcw3","one_one","1","indirect_first","0","nz06ch20","0","19","1","1","3","1","einfache Zeichen = angenehme Zeichen","0","1","0","6979","","","","","neg","GS","GSold","2","category2/CS6.png","targets/46.png","","direct","","70"
"","image-slider-response","221","492394","0.0-12.0-0.1","4ep2ondcw3","one_one","1","indirect_first","0","nz06ch20","0","19","1","1","3","1","einfache Zeichen = angenehme Zeichen","0","1","0","7117","","","","","pos","GS","GSnew","1","category1/GS3.png","targets/1.png","","direct","","43"
"","image-slider-response","222","494602","0.0-12.0-0.2","4ep2ondcw3","one_one","1","indirect_first","0","nz06ch20","0","19","1","1","3","1","einfache Zeichen = angenehme Zeichen","0","1","0","2205","","","","","pos","GS","GSnew","3","category3/GS3.png","targets/8.png","","direct","","64"
"","image-slider-response","223","497490","0.0-12.0-0.3","4ep2ondcw3","one_one","1","indirect_first","0","nz06ch20","0","19","1","1","3","1","einfache Zeichen = angenehme Zeichen","0","1","0","2885","","","","","neg","GS","GSold","4","category4/CS3.png","targets/20.png","","direct","","74"
"","image-slider-response","224","500009","0.0-12.0-0.4","4ep2ondcw3","one_one","1","indirect_first","0","nz06ch20","0","19","1","1","3","1","einfache Zeichen = angenehme Zeichen","0","1","0","2518","","","","","neg","GS","GSnew","4","category4/GS3.png","targets/44.png","","direct","","48"
"","image-slider-response","225","502002","0.0-12.0-0.5","4ep2ondcw3","one_one","1","indirect_first","0","nz06ch20","0","19","1","1","3","1","einfache Zeichen = angenehme Zeichen","0","1","0","1990","","","","","pos","GS","GSold","3","category3/CS9.png","targets/40.png","","direct","","72"
"","image-slider-response","226","504137","0.0-12.0-0.6","4ep2ondcw3","one_one","1","indirect_first","0","nz06ch20","0","19","1","1","3","1","einfache Zeichen = angenehme Zeichen","0","1","0","2135","","","","","pos","GS","abstract","1","category1/ma.png","targets/38.png","","direct","","-18"
"","image-slider-response","227","506314","0.0-12.0-0.7","4ep2ondcw3","one_one","1","indirect_first","0","nz06ch20","0","19","1","1","3","1","einfache Zeichen = angenehme Zeichen","0","1","0","2174","","","","","neg","CS","CS","2","category2/CS8.png","targets/2.png","","direct","","-21"
"","image-slider-response","228","508145","0.0-12.0-0.8","4ep2ondcw3","one_one","1","indirect_first","0","nz06ch20","0","19","1","1","3","1","einfache Zeichen = angenehme Zeichen","0","1","0","1830","","","","","neg","GS","GSnew","4","category4/GS1.png","targets/33.png","","direct","","47"
"","image-slider-response","229","511713","0.0-12.0-0.9","4ep2ondcw3","one_one","1","indirect_first","0","nz06ch20","0","19","1","1","3","1","einfache Zeichen = angenehme Zeichen","0","1","0","3566","","","","","neg","GS","GSnew","4","category4/GS2.png","targets/29.png","","direct","","-17"
"","image-slider-response","230","513930","0.0-12.0-0.10","4ep2ondcw3","one_one","1","indirect_first","0","nz06ch20","0","19","1","1","3","1","einfache Zeichen = angenehme Zeichen","0","1","0","2215","","","","","pos","GS","GSnew","3","category3/GS1.png","targets/47.png","","direct","","-21"
"","image-slider-response","231","515881","0.0-12.0-0.11","4ep2ondcw3","one_one","1","indirect_first","0","nz06ch20","0","19","1","1","3","1","einfache Zeichen = angenehme Zeichen","0","1","0","1950","","","","","pos","GS","abstract","3","category3/wang.png","targets/23.png","","direct","","61"
"","image-slider-response","232","518137","0.0-12.0-0.12","4ep2ondcw3","one_one","1","indirect_first","0","nz06ch20","0","19","1","1","3","1","einfache Zeichen = angenehme Zeichen","0","1","0","2255","","","","","pos","CS","CS","3","category3/CS2.png","targets/28.png","","direct","","55"
"","image-slider-response","233","520185","0.0-12.0-0.13","4ep2ondcw3","one_one","1","indirect_first","0","nz06ch20","0","19","1","1","3","1","einfache Zeichen = angenehme Zeichen","0","1","0","2046","","","","","pos","GS","GSold","1","category1/CS4.png","targets/31.png","","direct","","-42"
"","image-slider-response","234","522809","0.0-12.0-0.14","4ep2ondcw3","one_one","1","indirect_first","0","nz06ch20","0","19","1","1","3","1","einfache Zeichen = angenehme Zeichen","0","1","0","2622","","","","","neg","GS","GSnew","2","category2/GS1.png","targets/24.png","","direct","","34"
"","image-slider-response","235","525577","0.0-12.0-0.15","4ep2ondcw3","one_one","1","indirect_first","0","nz06ch20","0","19","1","1","3","1","einfache Zeichen = angenehme Zeichen","0","1","0","2766","","","","","neg","CS","CS","4","category4/CS4.png","targets/17.png","","direct","","-34"
"","image-slider-response","236","528075","0.0-12.0-0.16","4ep2ondcw3","one_one","1","indirect_first","0","nz06ch20","0","19","1","1","3","1","einfache Zeichen = angenehme Zeichen","0","1","0","2496","","","","","pos","GS","GSnew","1","category1/GS2.png","targets/19.png","","direct","","29"
"","image-slider-response","237","529641","0.0-12.0-0.17","4ep2ondcw3","one_one","1","indirect_first","0","nz06ch20","0","19","1","1","3","1","einfache Zeichen = angenehme Zeichen","0","1","0","1564","","","","","pos","GS","GSnew","1","category1/GS1.png","targets/12.png","","direct","","15"
"","image-slider-response","238","531337","0.0-12.0-0.18","4ep2ondcw3","one_one","1","indirect_first","0","nz06ch20","0","19","1","1","3","1","einfache Zeichen = angenehme Zeichen","0","1","0","1693","","","","","pos","GS","GSold","3","category3/CS4.png","targets/5.png","","direct","","37"
"","image-slider-response","239","532794","0.0-12.0-0.19","4ep2ondcw3","one_one","1","indirect_first","0","nz06ch20","0","19","1","1","3","1","einfache Zeichen = angenehme Zeichen","0","1","0","1455","","","","","pos","GS","GSnew","3","category3/GS2.png","targets/3.png","","direct","","35"
"","image-slider-response","240","535025","0.0-12.0-0.20","4ep2ondcw3","one_one","1","indirect_first","0","nz06ch20","0","19","1","1","3","1","einfache Zeichen = angenehme Zeichen","0","1","0","2229","","","","","neg","GS","GSold","4","category4/CS2.png","targets/37.png","","direct","","44"
"","image-slider-response","241","537970","0.0-12.0-0.21","4ep2ondcw3","one_one","1","indirect_first","0","nz06ch20","0","19","1","1","3","1","einfache Zeichen = angenehme Zeichen","0","1","0","2943","","","","","neg","GS","GSnew","2","category2/GS2.png","targets/13.png","","direct","","-28"
"","image-slider-response","242","540026","0.0-12.0-0.22","4ep2ondcw3","one_one","1","indirect_first","0","nz06ch20","0","19","1","1","3","1","einfache Zeichen = angenehme Zeichen","0","1","0","2056","","","","","neg","GS","GSold","4","category4/CS8.png","targets/34.png","","direct","","-17"
"","image-slider-response","243","542065","0.0-12.0-0.23","4ep2ondcw3","one_one","1","indirect_first","0","nz06ch20","0","19","1","1","3","1","einfache Zeichen = angenehme Zeichen","0","1","0","2038","","","","","pos","GS","GSold","1","category1/CS10.png","targets/4.png","","direct","","-41"
"","image-slider-response","244","544233","0.0-12.0-0.24","4ep2ondcw3","one_one","1","indirect_first","0","nz06ch20","0","19","1","1","3","1","einfache Zeichen = angenehme Zeichen","0","1","0","2166","","","","","neg","GS","GSold","2","category2/CS2.png","targets/22.png","","direct","","29"
"","image-slider-response","245","546881","0.0-12.0-0.25","4ep2ondcw3","one_one","1","indirect_first","0","nz06ch20","0","19","1","1","3","1","einfache Zeichen = angenehme Zeichen","0","1","0","2646","","","","","neg","GS","abstract","4","category4/lin.png","targets/36.png","","direct","","18"
"","image-slider-response","246","548873","0.0-12.0-0.26","4ep2ondcw3","one_one","1","indirect_first","0","nz06ch20","0","19","1","1","3","1","einfache Zeichen = angenehme Zeichen","0","1","0","1989","","","","","neg","GS","GSnew","2","category2/GS3.png","targets/7.png","","direct","","-41"
"","image-slider-response","247","551362","0.0-12.0-0.27","4ep2ondcw3","one_one","1","indirect_first","0","nz06ch20","0","19","1","1","3","1","einfache Zeichen = angenehme Zeichen","0","1","0","2485","","","","","pos","GS","GSold","1","category1/CS6.png","targets/27.png","","direct","","-47"
"","image-slider-response","248","553499","0.0-12.0-0.28","4ep2ondcw3","one_one","1","indirect_first","0","nz06ch20","0","19","1","1","3","1","einfache Zeichen = angenehme Zeichen","0","1","0","2134","","","","","neg","GS","abstract","2","category2/men.png","targets/14.png","","direct","","-38"
"","image-slider-response","249","556354","0.0-12.0-0.29","4ep2ondcw3","one_one","1","indirect_first","0","nz06ch20","0","19","1","1","3","1","einfache Zeichen = angenehme Zeichen","0","1","0","2853","","","","","pos","CS","CS","1","category1/CS3.png","targets/6.png","","direct","","22"
"","image-slider-response","250","558506","0.0-12.0-0.30","4ep2ondcw3","one_one","1","indirect_first","0","nz06ch20","0","19","1","1","3","1","einfache Zeichen = angenehme Zeichen","0","1","0","2150","","","","","pos","GS","GSold","3","category3/CS5.png","targets/35.png","","direct","","23"
"","image-slider-response","251","561777","0.0-12.0-0.31","4ep2ondcw3","one_one","1","indirect_first","0","nz06ch20","0","19","1","1","3","1","einfache Zeichen = angenehme Zeichen","0","1","0","3269","","","","","neg","GS","GSold","2","category2/CS4.png","targets/45.png","","direct","","-30"
"","survey-html-form","252","564155","0.0-13.0","4ep2ondcw3","one_one","1","indirect_first","0","nz06ch20","0","19","1","1","3","1","einfache Zeichen = angenehme Zeichen","0","1","0","2376","","{}","","","","","","","","","","","",""
"","image-slider-response","253","569417","0.0-14.0-0.0","4ep2ondcw3","one_one","1","indirect_first","0","nz06ch20","0","19","1","1","3","1","einfache Zeichen = angenehme Zeichen","0","1","0","4249","","","","","neg","All","all","2","category2/men_all.png","","","all","","-22"
"","image-slider-response","254","572010","0.0-14.0-0.1","4ep2ondcw3","one_one","1","indirect_first","0","nz06ch20","0","19","1","1","3","1","einfache Zeichen = angenehme Zeichen","0","1","0","2590","","","","","pos","All","all","1","category1/ma_all.png","","","all","","-23"
"","image-slider-response","255","575050","0.0-14.0-0.2","4ep2ondcw3","one_one","1","indirect_first","0","nz06ch20","0","19","1","1","3","1","einfache Zeichen = angenehme Zeichen","0","1","0","3036","","","","","neg","All","all","4","category4/lin_all.png","","","all","","20"
"","image-slider-response","256","578577","0.0-14.0-0.3","4ep2ondcw3","one_one","1","indirect_first","0","nz06ch20","0","19","1","1","3","1","einfache Zeichen = angenehme Zeichen","0","1","0","3526","","","","","pos","All","all","3","category3/wang_all.png","","","all","","72"
"","survey-text","257","625051","0.0-15.0","4ep2ondcw3","one_one","1","indirect_first","0","nz06ch20","0","19","1","1","3","1","einfache Zeichen = angenehme Zeichen","0","1","0","46468","","{""comment"":""einfache Zeichen = angenehme Zeichen""}","","","","","","","","","","","",""
"","survey-html-form","258","637051","0.0-16.0","4ep2ondcw3","one_one","1","indirect_first","0","nz06ch20","0","19","1","1","3","1","einfache Zeichen = angenehme Zeichen","0","1","0","11998","","{""hinschauen"":""0"",""ablenkung"":""1"",""gewissenhaft"":""0""}","","","","","","","","","","","",""
