"success","trial_type","trial_index","time_elapsed","internal_node_id","subject","condition","condition_code","measure","measure_code","codeword","gender","age","education","chinese","fach","handedness","comment","hinschauen","ablenkung","gewissenhaft","rt","url","responses","stimulus","key_press","val","type","type_specific","category","cs_selected","response","target","task","indirect","nr_pres"
"true","fullscreen","0","4740","0.0-0.0","9oyt0u1h1a","one_one","1","direct_first","1","ll09af28","0","21","1","1","3","1","","0","1","0","","","","","","","","","","","","","","",""
"","external-html","1","9994","0.0-1.0","9oyt0u1h1a","one_one","1","direct_first","1","ll09af28","0","21","1","1","3","1","","0","1","0","5201.020000036806","text/information.html","","","","","","","","","","","","",""
"","external-html","2","21537","0.0-2.0","9oyt0u1h1a","one_one","1","direct_first","1","ll09af28","0","21","1","1","3","1","","0","1","0","11490.0899999775","text/consent.html","","","","","","","","","","","","",""
"","survey-html-form","3","63833","0.0-3.0","9oyt0u1h1a","one_one","1","direct_first","1","ll09af28","0","21","1","1","3","1","","0","1","0","42290.92499986291","","{""codeword_enter"":""ll09af28""}","","","","","","","","","","","",""
"","survey-html-form","4","84349","0.0-4.0","9oyt0u1h1a","one_one","1","direct_first","1","ll09af28","0","21","1","1","3","1","","0","1","0","20508.72000027448","","{""age"":""21"",""education"":""1"",""subject"":""3"",""gender"":""0"",""handedness"":""1"",""chinese"":""1""}","","","","","","","","","","","",""
"","survey-html-form","5","87012","0.0-5.0","9oyt0u1h1a","one_one","1","direct_first","1","ll09af28","0","21","1","1","3","1","","0","1","0","2659.264999907464","","{}","","","","","","","","","","","",""
"","html-keyboard-response","6","91024","0.0-6.0-0.0-0.0","9oyt0u1h1a","one_one","1","direct_first","1","ll09af28","0","21","1","1","3","1","","0","1","0","null","","","<div class = 'row'><div class = 'column'><img src = 'category1/CS5.png' width = '70%;'></div><div class = 'column'><img src = 'usneg/9561.bmp' width = '100%;'></div></div>","null","neg","CS","CS","1","category1/CS5.png","","","","",""
"","html-keyboard-response","7","93543","0.0-6.0-0.0-0.1","9oyt0u1h1a","one_one","1","direct_first","1","ll09af28","0","21","1","1","3","1","","0","1","0","null","","","<div class = 'row'><div class = 'column'><img src = 'uspos/2550.bmp' width = '100%;'></div><div class = 'column'><img src = 'category3/CS4.png' width = '70%;'></div></div>","null","pos","CS","CS","3","category3/CS4.png","","","","",""
"","html-keyboard-response","8","96063","0.0-6.0-0.0-0.2","9oyt0u1h1a","one_one","1","direct_first","1","ll09af28","0","21","1","1","3","1","","0","1","0","null","","","<div class = 'row'><div class = 'column'><img src = 'category1/CS5.png' width = '70%;'></div><div class = 'column'><img src = 'usneg/9561.bmp' width = '100%;'></div></div>","null","neg","CS","CS","1","category1/CS5.png","","","","",""
"","html-keyboard-response","9","98589","0.0-6.0-0.0-0.3","9oyt0u1h1a","one_one","1","direct_first","1","ll09af28","0","21","1","1","3","1","","0","1","0","null","","","<div class = 'row'><div class = 'column'><img src = 'usneg/9181.bmp' width = '100%;'></div><div class = 'column'><img src = 'category2/CS10.png' width = '70%;'></div></div>","null","neg","CS","CS","2","category2/CS10.png","","","","",""
"","html-keyboard-response","10","101109","0.0-6.0-0.0-0.4","9oyt0u1h1a","one_one","1","direct_first","1","ll09af28","0","21","1","1","3","1","","0","1","0","null","","","<div class = 'row'><div class = 'column'><img src = 'uspos/2550.bmp' width = '100%;'></div><div class = 'column'><img src = 'category3/CS4.png' width = '70%;'></div></div>","null","pos","CS","CS","3","category3/CS4.png","","","","",""
"","html-keyboard-response","11","103640","0.0-6.0-0.0-0.5","9oyt0u1h1a","one_one","1","direct_first","1","ll09af28","0","21","1","1","3","1","","0","1","0","null","","","<div class = 'row'><div class = 'column'><img src = 'usneg/9181.bmp' width = '100%;'></div><div class = 'column'><img src = 'category2/CS10.png' width = '70%;'></div></div>","null","neg","CS","CS","2","category2/CS10.png","","","","",""
"","html-keyboard-response","12","106166","0.0-6.0-0.0-0.6","9oyt0u1h1a","one_one","1","direct_first","1","ll09af28","0","21","1","1","3","1","","0","1","0","null","","","<div class = 'row'><div class = 'column'><img src = 'category3/CS4.png' width = '70%;'></div><div class = 'column'><img src = 'uspos/2550.bmp' width = '100%;'></div></div>","null","pos","CS","CS","3","category3/CS4.png","","","","",""
"","html-keyboard-response","13","108689","0.0-6.0-0.0-0.7","9oyt0u1h1a","one_one","1","direct_first","1","ll09af28","0","21","1","1","3","1","","0","1","0","null","","","<div class = 'row'><div class = 'column'><img src = 'usneg/9561.bmp' width = '100%;'></div><div class = 'column'><img src = 'category1/CS5.png' width = '70%;'></div></div>","null","neg","CS","CS","1","category1/CS5.png","","","","",""
"","html-keyboard-response","14","111210","0.0-6.0-0.0-0.8","9oyt0u1h1a","one_one","1","direct_first","1","ll09af28","0","21","1","1","3","1","","0","1","0","null","","","<div class = 'row'><div class = 'column'><img src = 'uspos/2360.bmp' width = '100%;'></div><div class = 'column'><img src = 'category4/CS10.png' width = '70%;'></div></div>","null","pos","CS","CS","4","category4/CS10.png","","","","",""
"","html-keyboard-response","15","113721","0.0-6.0-0.0-0.9","9oyt0u1h1a","one_one","1","direct_first","1","ll09af28","0","21","1","1","3","1","","0","1","0","null","","","<div class = 'row'><div class = 'column'><img src = 'usneg/9181.bmp' width = '100%;'></div><div class = 'column'><img src = 'category2/CS10.png' width = '70%;'></div></div>","null","neg","CS","CS","2","category2/CS10.png","","","","",""
"","html-keyboard-response","16","116242","0.0-6.0-0.0-0.10","9oyt0u1h1a","one_one","1","direct_first","1","ll09af28","0","21","1","1","3","1","","0","1","0","null","","","<div class = 'row'><div class = 'column'><img src = 'uspos/2360.bmp' width = '100%;'></div><div class = 'column'><img src = 'category4/CS10.png' width = '70%;'></div></div>","null","pos","CS","CS","4","category4/CS10.png","","","","",""
"","html-keyboard-response","17","118748","0.0-6.0-0.0-0.11","9oyt0u1h1a","one_one","1","direct_first","1","ll09af28","0","21","1","1","3","1","","0","1","0","null","","","<div class = 'row'><div class = 'column'><img src = 'usneg/9181.bmp' width = '100%;'></div><div class = 'column'><img src = 'category2/CS10.png' width = '70%;'></div></div>","null","neg","CS","CS","2","category2/CS10.png","","","","",""
"","html-keyboard-response","18","121265","0.0-6.0-0.0-0.12","9oyt0u1h1a","one_one","1","direct_first","1","ll09af28","0","21","1","1","3","1","","0","1","0","null","","","<div class = 'row'><div class = 'column'><img src = 'category4/CS10.png' width = '70%;'></div><div class = 'column'><img src = 'uspos/2360.bmp' width = '100%;'></div></div>","null","pos","CS","CS","4","category4/CS10.png","","","","",""
"","html-keyboard-response","19","123784","0.0-6.0-0.0-0.13","9oyt0u1h1a","one_one","1","direct_first","1","ll09af28","0","21","1","1","3","1","","0","1","0","null","","","<div class = 'row'><div class = 'column'><img src = 'category1/CS5.png' width = '70%;'></div><div class = 'column'><img src = 'usneg/9561.bmp' width = '100%;'></div></div>","null","neg","CS","CS","1","category1/CS5.png","","","","",""
"","html-keyboard-response","20","126302","0.0-6.0-0.0-0.14","9oyt0u1h1a","one_one","1","direct_first","1","ll09af28","0","21","1","1","3","1","","0","1","0","null","","","<div class = 'row'><div class = 'column'><img src = 'category3/CS4.png' width = '70%;'></div><div class = 'column'><img src = 'uspos/2550.bmp' width = '100%;'></div></div>","null","pos","CS","CS","3","category3/CS4.png","","","","",""
"","html-keyboard-response","21","128819","0.0-6.0-0.0-0.15","9oyt0u1h1a","one_one","1","direct_first","1","ll09af28","0","21","1","1","3","1","","0","1","0","null","","","<div class = 'row'><div class = 'column'><img src = 'usneg/9561.bmp' width = '100%;'></div><div class = 'column'><img src = 'category1/CS5.png' width = '70%;'></div></div>","null","neg","CS","CS","1","category1/CS5.png","","","","",""
"","html-keyboard-response","22","131326","0.0-6.0-0.0-0.16","9oyt0u1h1a","one_one","1","direct_first","1","ll09af28","0","21","1","1","3","1","","0","1","0","null","","","<div class = 'row'><div class = 'column'><img src = 'category4/CS10.png' width = '70%;'></div><div class = 'column'><img src = 'uspos/2360.bmp' width = '100%;'></div></div>","null","pos","CS","CS","4","category4/CS10.png","","","","",""
"","html-keyboard-response","23","133840","0.0-6.0-0.0-0.17","9oyt0u1h1a","one_one","1","direct_first","1","ll09af28","0","21","1","1","3","1","","0","1","0","null","","","<div class = 'row'><div class = 'column'><img src = 'uspos/2550.bmp' width = '100%;'></div><div class = 'column'><img src = 'category3/CS4.png' width = '70%;'></div></div>","null","pos","CS","CS","3","category3/CS4.png","","","","",""
"","html-keyboard-response","24","136356","0.0-6.0-0.0-0.18","9oyt0u1h1a","one_one","1","direct_first","1","ll09af28","0","21","1","1","3","1","","0","1","0","null","","","<div class = 'row'><div class = 'column'><img src = 'category2/CS10.png' width = '70%;'></div><div class = 'column'><img src = 'usneg/9181.bmp' width = '100%;'></div></div>","null","neg","CS","CS","2","category2/CS10.png","","","","",""
"","html-keyboard-response","25","138861","0.0-6.0-0.0-0.19","9oyt0u1h1a","one_one","1","direct_first","1","ll09af28","0","21","1","1","3","1","","0","1","0","null","","","<div class = 'row'><div class = 'column'><img src = 'category4/CS10.png' width = '70%;'></div><div class = 'column'><img src = 'uspos/2360.bmp' width = '100%;'></div></div>","null","pos","CS","CS","4","category4/CS10.png","","","","",""
"","survey-html-form","26","141689","0.0-6.0-1.0","9oyt0u1h1a","one_one","1","direct_first","1","ll09af28","0","21","1","1","3","1","","0","1","0","2319.1450000740588","","{}","","","","","","","","","","","",""
"","html-keyboard-response","27","145705","0.0-6.0-2.0-0.0","9oyt0u1h1a","one_one","1","direct_first","1","ll09af28","0","21","1","1","3","1","","0","1","0","null","","","<div class = 'row'><div class = 'column'><img src = 'usneg/9181.bmp' width = '100%;'></div><div class = 'column'><img src = 'category2/CS10.png' width = '70%;'></div></div>","null","neg","CS","CS","2","category2/CS10.png","","","","",""
"","html-keyboard-response","28","148232","0.0-6.0-2.0-0.1","9oyt0u1h1a","one_one","1","direct_first","1","ll09af28","0","21","1","1","3","1","","0","1","0","null","","","<div class = 'row'><div class = 'column'><img src = 'category4/CS10.png' width = '70%;'></div><div class = 'column'><img src = 'uspos/2360.bmp' width = '100%;'></div></div>","null","pos","CS","CS","4","category4/CS10.png","","","","",""
"","html-keyboard-response","29","150750","0.0-6.0-2.0-0.2","9oyt0u1h1a","one_one","1","direct_first","1","ll09af28","0","21","1","1","3","1","","0","1","0","null","","","<div class = 'row'><div class = 'column'><img src = 'usneg/9561.bmp' width = '100%;'></div><div class = 'column'><img src = 'category1/CS5.png' width = '70%;'></div></div>","null","neg","CS","CS","1","category1/CS5.png","","","","",""
"","html-keyboard-response","30","153281","0.0-6.0-2.0-0.3","9oyt0u1h1a","one_one","1","direct_first","1","ll09af28","0","21","1","1","3","1","","0","1","0","null","","","<div class = 'row'><div class = 'column'><img src = 'uspos/2360.bmp' width = '100%;'></div><div class = 'column'><img src = 'category4/CS10.png' width = '70%;'></div></div>","null","pos","CS","CS","4","category4/CS10.png","","","","",""
"","html-keyboard-response","31","155799","0.0-6.0-2.0-0.4","9oyt0u1h1a","one_one","1","direct_first","1","ll09af28","0","21","1","1","3","1","","0","1","0","null","","","<div class = 'row'><div class = 'column'><img src = 'usneg/9561.bmp' width = '100%;'></div><div class = 'column'><img src = 'category1/CS5.png' width = '70%;'></div></div>","null","neg","CS","CS","1","category1/CS5.png","","","","",""
"","html-keyboard-response","32","158316","0.0-6.0-2.0-0.5","9oyt0u1h1a","one_one","1","direct_first","1","ll09af28","0","21","1","1","3","1","","0","1","0","null","","","<div class = 'row'><div class = 'column'><img src = 'uspos/2360.bmp' width = '100%;'></div><div class = 'column'><img src = 'category4/CS10.png' width = '70%;'></div></div>","null","pos","CS","CS","4","category4/CS10.png","","","","",""
"","html-keyboard-response","33","160834","0.0-6.0-2.0-0.6","9oyt0u1h1a","one_one","1","direct_first","1","ll09af28","0","21","1","1","3","1","","0","1","0","null","","","<div class = 'row'><div class = 'column'><img src = 'category3/CS4.png' width = '70%;'></div><div class = 'column'><img src = 'uspos/2550.bmp' width = '100%;'></div></div>","null","pos","CS","CS","3","category3/CS4.png","","","","",""
"","html-keyboard-response","34","163359","0.0-6.0-2.0-0.7","9oyt0u1h1a","one_one","1","direct_first","1","ll09af28","0","21","1","1","3","1","","0","1","0","null","","","<div class = 'row'><div class = 'column'><img src = 'usneg/9181.bmp' width = '100%;'></div><div class = 'column'><img src = 'category2/CS10.png' width = '70%;'></div></div>","null","neg","CS","CS","2","category2/CS10.png","","","","",""
"","html-keyboard-response","35","165878","0.0-6.0-2.0-0.8","9oyt0u1h1a","one_one","1","direct_first","1","ll09af28","0","21","1","1","3","1","","0","1","0","null","","","<div class = 'row'><div class = 'column'><img src = 'category3/CS4.png' width = '70%;'></div><div class = 'column'><img src = 'uspos/2550.bmp' width = '100%;'></div></div>","null","pos","CS","CS","3","category3/CS4.png","","","","",""
"","html-keyboard-response","36","168403","0.0-6.0-2.0-0.9","9oyt0u1h1a","one_one","1","direct_first","1","ll09af28","0","21","1","1","3","1","","0","1","0","null","","","<div class = 'row'><div class = 'column'><img src = 'category2/CS10.png' width = '70%;'></div><div class = 'column'><img src = 'usneg/9181.bmp' width = '100%;'></div></div>","null","neg","CS","CS","2","category2/CS10.png","","","","",""
"","html-keyboard-response","37","170929","0.0-6.0-2.0-0.10","9oyt0u1h1a","one_one","1","direct_first","1","ll09af28","0","21","1","1","3","1","","0","1","0","null","","","<div class = 'row'><div class = 'column'><img src = 'category1/CS5.png' width = '70%;'></div><div class = 'column'><img src = 'usneg/9561.bmp' width = '100%;'></div></div>","null","neg","CS","CS","1","category1/CS5.png","","","","",""
"","html-keyboard-response","38","173448","0.0-6.0-2.0-0.11","9oyt0u1h1a","one_one","1","direct_first","1","ll09af28","0","21","1","1","3","1","","0","1","0","null","","","<div class = 'row'><div class = 'column'><img src = 'category2/CS10.png' width = '70%;'></div><div class = 'column'><img src = 'usneg/9181.bmp' width = '100%;'></div></div>","null","neg","CS","CS","2","category2/CS10.png","","","","",""
"","html-keyboard-response","39","175964","0.0-6.0-2.0-0.12","9oyt0u1h1a","one_one","1","direct_first","1","ll09af28","0","21","1","1","3","1","","0","1","0","null","","","<div class = 'row'><div class = 'column'><img src = 'uspos/2360.bmp' width = '100%;'></div><div class = 'column'><img src = 'category4/CS10.png' width = '70%;'></div></div>","null","pos","CS","CS","4","category4/CS10.png","","","","",""
"","html-keyboard-response","40","178481","0.0-6.0-2.0-0.13","9oyt0u1h1a","one_one","1","direct_first","1","ll09af28","0","21","1","1","3","1","","0","1","0","null","","","<div class = 'row'><div class = 'column'><img src = 'category2/CS10.png' width = '70%;'></div><div class = 'column'><img src = 'usneg/9181.bmp' width = '100%;'></div></div>","null","neg","CS","CS","2","category2/CS10.png","","","","",""
"","html-keyboard-response","41","181004","0.0-6.0-2.0-0.14","9oyt0u1h1a","one_one","1","direct_first","1","ll09af28","0","21","1","1","3","1","","0","1","0","null","","","<div class = 'row'><div class = 'column'><img src = 'usneg/9561.bmp' width = '100%;'></div><div class = 'column'><img src = 'category1/CS5.png' width = '70%;'></div></div>","null","neg","CS","CS","1","category1/CS5.png","","","","",""
"","html-keyboard-response","42","183527","0.0-6.0-2.0-0.15","9oyt0u1h1a","one_one","1","direct_first","1","ll09af28","0","21","1","1","3","1","","0","1","0","null","","","<div class = 'row'><div class = 'column'><img src = 'category3/CS4.png' width = '70%;'></div><div class = 'column'><img src = 'uspos/2550.bmp' width = '100%;'></div></div>","null","pos","CS","CS","3","category3/CS4.png","","","","",""
"","html-keyboard-response","43","186045","0.0-6.0-2.0-0.16","9oyt0u1h1a","one_one","1","direct_first","1","ll09af28","0","21","1","1","3","1","","0","1","0","null","","","<div class = 'row'><div class = 'column'><img src = 'uspos/2360.bmp' width = '100%;'></div><div class = 'column'><img src = 'category4/CS10.png' width = '70%;'></div></div>","null","pos","CS","CS","4","category4/CS10.png","","","","",""
"","html-keyboard-response","44","188577","0.0-6.0-2.0-0.17","9oyt0u1h1a","one_one","1","direct_first","1","ll09af28","0","21","1","1","3","1","","0","1","0","null","","","<div class = 'row'><div class = 'column'><img src = 'uspos/2550.bmp' width = '100%;'></div><div class = 'column'><img src = 'category3/CS4.png' width = '70%;'></div></div>","null","pos","CS","CS","3","category3/CS4.png","","","","",""
"","html-keyboard-response","45","191110","0.0-6.0-2.0-0.18","9oyt0u1h1a","one_one","1","direct_first","1","ll09af28","0","21","1","1","3","1","","0","1","0","null","","","<div class = 'row'><div class = 'column'><img src = 'category1/CS5.png' width = '70%;'></div><div class = 'column'><img src = 'usneg/9561.bmp' width = '100%;'></div></div>","null","neg","CS","CS","1","category1/CS5.png","","","","",""
"","html-keyboard-response","46","193642","0.0-6.0-2.0-0.19","9oyt0u1h1a","one_one","1","direct_first","1","ll09af28","0","21","1","1","3","1","","0","1","0","null","","","<div class = 'row'><div class = 'column'><img src = 'category3/CS4.png' width = '70%;'></div><div class = 'column'><img src = 'uspos/2550.bmp' width = '100%;'></div></div>","null","pos","CS","CS","3","category3/CS4.png","","","","",""
"","survey-html-form","47","196247","0.0-6.0-3.0","9oyt0u1h1a","one_one","1","direct_first","1","ll09af28","0","21","1","1","3","1","","0","1","0","2102.400000207126","","{}","","","","","","","","","","","",""
"","html-keyboard-response","48","200255","0.0-6.0-4.0-0.0","9oyt0u1h1a","one_one","1","direct_first","1","ll09af28","0","21","1","1","3","1","","0","1","0","null","","","<div class = 'row'><div class = 'column'><img src = 'usneg/9181.bmp' width = '100%;'></div><div class = 'column'><img src = 'category2/CS10.png' width = '70%;'></div></div>","null","neg","CS","CS","2","category2/CS10.png","","","","",""
"","html-keyboard-response","49","202762","0.0-6.0-4.0-0.1","9oyt0u1h1a","one_one","1","direct_first","1","ll09af28","0","21","1","1","3","1","","0","1","0","null","","","<div class = 'row'><div class = 'column'><img src = 'uspos/2550.bmp' width = '100%;'></div><div class = 'column'><img src = 'category3/CS4.png' width = '70%;'></div></div>","null","pos","CS","CS","3","category3/CS4.png","","","","",""
"","html-keyboard-response","50","205267","0.0-6.0-4.0-0.2","9oyt0u1h1a","one_one","1","direct_first","1","ll09af28","0","21","1","1","3","1","","0","1","0","null","","","<div class = 'row'><div class = 'column'><img src = 'category2/CS10.png' width = '70%;'></div><div class = 'column'><img src = 'usneg/9181.bmp' width = '100%;'></div></div>","null","neg","CS","CS","2","category2/CS10.png","","","","",""
"","html-keyboard-response","51","207784","0.0-6.0-4.0-0.3","9oyt0u1h1a","one_one","1","direct_first","1","ll09af28","0","21","1","1","3","1","","0","1","0","null","","","<div class = 'row'><div class = 'column'><img src = 'uspos/2550.bmp' width = '100%;'></div><div class = 'column'><img src = 'category3/CS4.png' width = '70%;'></div></div>","null","pos","CS","CS","3","category3/CS4.png","","","","",""
"","html-keyboard-response","52","210304","0.0-6.0-4.0-0.4","9oyt0u1h1a","one_one","1","direct_first","1","ll09af28","0","21","1","1","3","1","","0","1","0","null","","","<div class = 'row'><div class = 'column'><img src = 'category1/CS5.png' width = '70%;'></div><div class = 'column'><img src = 'usneg/9561.bmp' width = '100%;'></div></div>","null","neg","CS","CS","1","category1/CS5.png","","","","",""
"","html-keyboard-response","53","212827","0.0-6.0-4.0-0.5","9oyt0u1h1a","one_one","1","direct_first","1","ll09af28","0","21","1","1","3","1","","0","1","0","null","","","<div class = 'row'><div class = 'column'><img src = 'category4/CS10.png' width = '70%;'></div><div class = 'column'><img src = 'uspos/2360.bmp' width = '100%;'></div></div>","null","pos","CS","CS","4","category4/CS10.png","","","","",""
"","html-keyboard-response","54","215355","0.0-6.0-4.0-0.6","9oyt0u1h1a","one_one","1","direct_first","1","ll09af28","0","21","1","1","3","1","","0","1","0","null","","","<div class = 'row'><div class = 'column'><img src = 'usneg/9561.bmp' width = '100%;'></div><div class = 'column'><img src = 'category1/CS5.png' width = '70%;'></div></div>","null","neg","CS","CS","1","category1/CS5.png","","","","",""
"","html-keyboard-response","55","217873","0.0-6.0-4.0-0.7","9oyt0u1h1a","one_one","1","direct_first","1","ll09af28","0","21","1","1","3","1","","0","1","0","null","","","<div class = 'row'><div class = 'column'><img src = 'category2/CS10.png' width = '70%;'></div><div class = 'column'><img src = 'usneg/9181.bmp' width = '100%;'></div></div>","null","neg","CS","CS","2","category2/CS10.png","","","","",""
"","html-keyboard-response","56","220394","0.0-6.0-4.0-0.8","9oyt0u1h1a","one_one","1","direct_first","1","ll09af28","0","21","1","1","3","1","","0","1","0","null","","","<div class = 'row'><div class = 'column'><img src = 'uspos/2550.bmp' width = '100%;'></div><div class = 'column'><img src = 'category3/CS4.png' width = '70%;'></div></div>","null","pos","CS","CS","3","category3/CS4.png","","","","",""
"","html-keyboard-response","57","222917","0.0-6.0-4.0-0.9","9oyt0u1h1a","one_one","1","direct_first","1","ll09af28","0","21","1","1","3","1","","0","1","0","null","","","<div class = 'row'><div class = 'column'><img src = 'usneg/9181.bmp' width = '100%;'></div><div class = 'column'><img src = 'category2/CS10.png' width = '70%;'></div></div>","null","neg","CS","CS","2","category2/CS10.png","","","","",""
"","html-keyboard-response","58","225424","0.0-6.0-4.0-0.10","9oyt0u1h1a","one_one","1","direct_first","1","ll09af28","0","21","1","1","3","1","","0","1","0","null","","","<div class = 'row'><div class = 'column'><img src = 'category1/CS5.png' width = '70%;'></div><div class = 'column'><img src = 'usneg/9561.bmp' width = '100%;'></div></div>","null","neg","CS","CS","1","category1/CS5.png","","","","",""
"","html-keyboard-response","59","227949","0.0-6.0-4.0-0.11","9oyt0u1h1a","one_one","1","direct_first","1","ll09af28","0","21","1","1","3","1","","0","1","0","null","","","<div class = 'row'><div class = 'column'><img src = 'category4/CS10.png' width = '70%;'></div><div class = 'column'><img src = 'uspos/2360.bmp' width = '100%;'></div></div>","null","pos","CS","CS","4","category4/CS10.png","","","","",""
"","html-keyboard-response","60","230472","0.0-6.0-4.0-0.12","9oyt0u1h1a","one_one","1","direct_first","1","ll09af28","0","21","1","1","3","1","","0","1","0","null","","","<div class = 'row'><div class = 'column'><img src = 'category2/CS10.png' width = '70%;'></div><div class = 'column'><img src = 'usneg/9181.bmp' width = '100%;'></div></div>","null","neg","CS","CS","2","category2/CS10.png","","","","",""
"","html-keyboard-response","61","232990","0.0-6.0-4.0-0.13","9oyt0u1h1a","one_one","1","direct_first","1","ll09af28","0","21","1","1","3","1","","0","1","0","null","","","<div class = 'row'><div class = 'column'><img src = 'uspos/2360.bmp' width = '100%;'></div><div class = 'column'><img src = 'category4/CS10.png' width = '70%;'></div></div>","null","pos","CS","CS","4","category4/CS10.png","","","","",""
"","html-keyboard-response","62","235520","0.0-6.0-4.0-0.14","9oyt0u1h1a","one_one","1","direct_first","1","ll09af28","0","21","1","1","3","1","","0","1","0","null","","","<div class = 'row'><div class = 'column'><img src = 'uspos/2550.bmp' width = '100%;'></div><div class = 'column'><img src = 'category3/CS4.png' width = '70%;'></div></div>","null","pos","CS","CS","3","category3/CS4.png","","","","",""
"","html-keyboard-response","63","238027","0.0-6.0-4.0-0.15","9oyt0u1h1a","one_one","1","direct_first","1","ll09af28","0","21","1","1","3","1","","0","1","0","null","","","<div class = 'row'><div class = 'column'><img src = 'usneg/9561.bmp' width = '100%;'></div><div class = 'column'><img src = 'category1/CS5.png' width = '70%;'></div></div>","null","neg","CS","CS","1","category1/CS5.png","","","","",""
"","html-keyboard-response","64","240543","0.0-6.0-4.0-0.16","9oyt0u1h1a","one_one","1","direct_first","1","ll09af28","0","21","1","1","3","1","","0","1","0","null","","","<div class = 'row'><div class = 'column'><img src = 'uspos/2360.bmp' width = '100%;'></div><div class = 'column'><img src = 'category4/CS10.png' width = '70%;'></div></div>","null","pos","CS","CS","4","category4/CS10.png","","","","",""
"","html-keyboard-response","65","243070","0.0-6.0-4.0-0.17","9oyt0u1h1a","one_one","1","direct_first","1","ll09af28","0","21","1","1","3","1","","0","1","0","null","","","<div class = 'row'><div class = 'column'><img src = 'usneg/9561.bmp' width = '100%;'></div><div class = 'column'><img src = 'category1/CS5.png' width = '70%;'></div></div>","null","neg","CS","CS","1","category1/CS5.png","","","","",""
"","html-keyboard-response","66","245604","0.0-6.0-4.0-0.18","9oyt0u1h1a","one_one","1","direct_first","1","ll09af28","0","21","1","1","3","1","","0","1","0","null","","","<div class = 'row'><div class = 'column'><img src = 'category4/CS10.png' width = '70%;'></div><div class = 'column'><img src = 'uspos/2360.bmp' width = '100%;'></div></div>","null","pos","CS","CS","4","category4/CS10.png","","","","",""
"","html-keyboard-response","67","248121","0.0-6.0-4.0-0.19","9oyt0u1h1a","one_one","1","direct_first","1","ll09af28","0","21","1","1","3","1","","0","1","0","null","","","<div class = 'row'><div class = 'column'><img src = 'category3/CS4.png' width = '70%;'></div><div class = 'column'><img src = 'uspos/2550.bmp' width = '100%;'></div></div>","null","pos","CS","CS","3","category3/CS4.png","","","","",""
"","survey-html-form","68","286282","0.0-6.0-5.0","9oyt0u1h1a","one_one","1","direct_first","1","ll09af28","0","21","1","1","3","1","","0","1","0","37653.09000015259","","{}","","","","","","","","","","","",""
"","html-keyboard-response","69","290299","0.0-6.0-6.0-0.0","9oyt0u1h1a","one_one","1","direct_first","1","ll09af28","0","21","1","1","3","1","","0","1","0","null","","","<div class = 'row'><div class = 'column'><img src = 'usneg/9561.bmp' width = '100%;'></div><div class = 'column'><img src = 'category1/CS5.png' width = '70%;'></div></div>","null","neg","CS","CS","1","category1/CS5.png","","","","",""
"","html-keyboard-response","70","292824","0.0-6.0-6.0-0.1","9oyt0u1h1a","one_one","1","direct_first","1","ll09af28","0","21","1","1","3","1","","0","1","0","null","","","<div class = 'row'><div class = 'column'><img src = 'usneg/9181.bmp' width = '100%;'></div><div class = 'column'><img src = 'category2/CS10.png' width = '70%;'></div></div>","null","neg","CS","CS","2","category2/CS10.png","","","","",""
"","html-keyboard-response","71","295335","0.0-6.0-6.0-0.2","9oyt0u1h1a","one_one","1","direct_first","1","ll09af28","0","21","1","1","3","1","","0","1","0","null","","","<div class = 'row'><div class = 'column'><img src = 'uspos/2550.bmp' width = '100%;'></div><div class = 'column'><img src = 'category3/CS4.png' width = '70%;'></div></div>","null","pos","CS","CS","3","category3/CS4.png","","","","",""
"","html-keyboard-response","72","297855","0.0-6.0-6.0-0.3","9oyt0u1h1a","one_one","1","direct_first","1","ll09af28","0","21","1","1","3","1","","0","1","0","null","","","<div class = 'row'><div class = 'column'><img src = 'uspos/2360.bmp' width = '100%;'></div><div class = 'column'><img src = 'category4/CS10.png' width = '70%;'></div></div>","null","pos","CS","CS","4","category4/CS10.png","","","","",""
"","html-keyboard-response","73","300381","0.0-6.0-6.0-0.4","9oyt0u1h1a","one_one","1","direct_first","1","ll09af28","0","21","1","1","3","1","","0","1","0","null","","","<div class = 'row'><div class = 'column'><img src = 'category1/CS5.png' width = '70%;'></div><div class = 'column'><img src = 'usneg/9561.bmp' width = '100%;'></div></div>","null","neg","CS","CS","1","category1/CS5.png","","","","",""
"","html-keyboard-response","74","302903","0.0-6.0-6.0-0.5","9oyt0u1h1a","one_one","1","direct_first","1","ll09af28","0","21","1","1","3","1","","0","1","0","null","","","<div class = 'row'><div class = 'column'><img src = 'category2/CS10.png' width = '70%;'></div><div class = 'column'><img src = 'usneg/9181.bmp' width = '100%;'></div></div>","null","neg","CS","CS","2","category2/CS10.png","","","","",""
"","html-keyboard-response","75","305415","0.0-6.0-6.0-0.6","9oyt0u1h1a","one_one","1","direct_first","1","ll09af28","0","21","1","1","3","1","","0","1","0","null","","","<div class = 'row'><div class = 'column'><img src = 'category4/CS10.png' width = '70%;'></div><div class = 'column'><img src = 'uspos/2360.bmp' width = '100%;'></div></div>","null","pos","CS","CS","4","category4/CS10.png","","","","",""
"","html-keyboard-response","76","307925","0.0-6.0-6.0-0.7","9oyt0u1h1a","one_one","1","direct_first","1","ll09af28","0","21","1","1","3","1","","0","1","0","null","","","<div class = 'row'><div class = 'column'><img src = 'category1/CS5.png' width = '70%;'></div><div class = 'column'><img src = 'usneg/9561.bmp' width = '100%;'></div></div>","null","neg","CS","CS","1","category1/CS5.png","","","","",""
"","html-keyboard-response","77","310444","0.0-6.0-6.0-0.8","9oyt0u1h1a","one_one","1","direct_first","1","ll09af28","0","21","1","1","3","1","","0","1","0","null","","","<div class = 'row'><div class = 'column'><img src = 'uspos/2360.bmp' width = '100%;'></div><div class = 'column'><img src = 'category4/CS10.png' width = '70%;'></div></div>","null","pos","CS","CS","4","category4/CS10.png","","","","",""
"","html-keyboard-response","78","312967","0.0-6.0-6.0-0.9","9oyt0u1h1a","one_one","1","direct_first","1","ll09af28","0","21","1","1","3","1","","0","1","0","null","","","<div class = 'row'><div class = 'column'><img src = 'category2/CS10.png' width = '70%;'></div><div class = 'column'><img src = 'usneg/9181.bmp' width = '100%;'></div></div>","null","neg","CS","CS","2","category2/CS10.png","","","","",""
"","html-keyboard-response","79","315493","0.0-6.0-6.0-0.10","9oyt0u1h1a","one_one","1","direct_first","1","ll09af28","0","21","1","1","3","1","","0","1","0","null","","","<div class = 'row'><div class = 'column'><img src = 'category3/CS4.png' width = '70%;'></div><div class = 'column'><img src = 'uspos/2550.bmp' width = '100%;'></div></div>","null","pos","CS","CS","3","category3/CS4.png","","","","",""
"","html-keyboard-response","80","318008","0.0-6.0-6.0-0.11","9oyt0u1h1a","one_one","1","direct_first","1","ll09af28","0","21","1","1","3","1","","0","1","0","null","","","<div class = 'row'><div class = 'column'><img src = 'usneg/9181.bmp' width = '100%;'></div><div class = 'column'><img src = 'category2/CS10.png' width = '70%;'></div></div>","null","neg","CS","CS","2","category2/CS10.png","","","","",""
"","html-keyboard-response","81","320529","0.0-6.0-6.0-0.12","9oyt0u1h1a","one_one","1","direct_first","1","ll09af28","0","21","1","1","3","1","","0","1","0","null","","","<div class = 'row'><div class = 'column'><img src = 'category3/CS4.png' width = '70%;'></div><div class = 'column'><img src = 'uspos/2550.bmp' width = '100%;'></div></div>","null","pos","CS","CS","3","category3/CS4.png","","","","",""
"","html-keyboard-response","82","323046","0.0-6.0-6.0-0.13","9oyt0u1h1a","one_one","1","direct_first","1","ll09af28","0","21","1","1","3","1","","0","1","0","null","","","<div class = 'row'><div class = 'column'><img src = 'uspos/2360.bmp' width = '100%;'></div><div class = 'column'><img src = 'category4/CS10.png' width = '70%;'></div></div>","null","pos","CS","CS","4","category4/CS10.png","","","","",""
"","html-keyboard-response","83","325564","0.0-6.0-6.0-0.14","9oyt0u1h1a","one_one","1","direct_first","1","ll09af28","0","21","1","1","3","1","","0","1","0","null","","","<div class = 'row'><div class = 'column'><img src = 'usneg/9181.bmp' width = '100%;'></div><div class = 'column'><img src = 'category2/CS10.png' width = '70%;'></div></div>","null","neg","CS","CS","2","category2/CS10.png","","","","",""
"","html-keyboard-response","84","328079","0.0-6.0-6.0-0.15","9oyt0u1h1a","one_one","1","direct_first","1","ll09af28","0","21","1","1","3","1","","0","1","0","null","","","<div class = 'row'><div class = 'column'><img src = 'uspos/2550.bmp' width = '100%;'></div><div class = 'column'><img src = 'category3/CS4.png' width = '70%;'></div></div>","null","pos","CS","CS","3","category3/CS4.png","","","","",""
"","html-keyboard-response","85","330596","0.0-6.0-6.0-0.16","9oyt0u1h1a","one_one","1","direct_first","1","ll09af28","0","21","1","1","3","1","","0","1","0","null","","","<div class = 'row'><div class = 'column'><img src = 'category4/CS10.png' width = '70%;'></div><div class = 'column'><img src = 'uspos/2360.bmp' width = '100%;'></div></div>","null","pos","CS","CS","4","category4/CS10.png","","","","",""
"","html-keyboard-response","86","333108","0.0-6.0-6.0-0.17","9oyt0u1h1a","one_one","1","direct_first","1","ll09af28","0","21","1","1","3","1","","0","1","0","null","","","<div class = 'row'><div class = 'column'><img src = 'category1/CS5.png' width = '70%;'></div><div class = 'column'><img src = 'usneg/9561.bmp' width = '100%;'></div></div>","null","neg","CS","CS","1","category1/CS5.png","","","","",""
"","html-keyboard-response","87","335630","0.0-6.0-6.0-0.18","9oyt0u1h1a","one_one","1","direct_first","1","ll09af28","0","21","1","1","3","1","","0","1","0","null","","","<div class = 'row'><div class = 'column'><img src = 'uspos/2550.bmp' width = '100%;'></div><div class = 'column'><img src = 'category3/CS4.png' width = '70%;'></div></div>","null","pos","CS","CS","3","category3/CS4.png","","","","",""
"","html-keyboard-response","88","338146","0.0-6.0-6.0-0.19","9oyt0u1h1a","one_one","1","direct_first","1","ll09af28","0","21","1","1","3","1","","0","1","0","null","","","<div class = 'row'><div class = 'column'><img src = 'usneg/9561.bmp' width = '100%;'></div><div class = 'column'><img src = 'category1/CS5.png' width = '70%;'></div></div>","null","neg","CS","CS","1","category1/CS5.png","","","","",""
"","survey-html-form","89","348769","0.0-7.0","9oyt0u1h1a","one_one","1","direct_first","1","ll09af28","0","21","1","1","3","1","","0","1","0","10110.964999999851","","{}","","","","","","","","","","","",""
"","image-slider-response","90","359626","0.0-8.0-0.0","9oyt0u1h1a","one_one","1","direct_first","1","ll09af28","0","21","1","1","3","1","","0","1","0","8845.350000075996","","","","","pos","GS","GSnew","3","category3/GS3.png","7","targets/10.png","direct","",""
"","image-slider-response","91","365526","0.0-8.0-0.1","9oyt0u1h1a","one_one","1","direct_first","1","ll09af28","0","21","1","1","3","1","","0","1","0","5897.0149997621775","","","","","neg","GS","abstract","1","category1/ma.png","-61","targets/7.png","direct","",""
"","image-slider-response","92","368893","0.0-8.0-0.2","9oyt0u1h1a","one_one","1","direct_first","1","ll09af28","0","21","1","1","3","1","","0","1","0","3361.7150001227856","","","","","neg","GS","abstract","2","category2/men.png","-21","targets/20.png","direct","",""
"","image-slider-response","93","373018","0.0-8.0-0.3","9oyt0u1h1a","one_one","1","direct_first","1","ll09af28","0","21","1","1","3","1","","0","1","0","4120.325000025332","","","","","pos","GS","GSold","4","category4/CS7.png","14","targets/3.png","direct","",""
"","image-slider-response","94","377814","0.0-8.0-0.4","9oyt0u1h1a","one_one","1","direct_first","1","ll09af28","0","21","1","1","3","1","","0","1","0","4792.244999669492","","","","","neg","GS","GSnew","1","category1/GS3.png","-17","targets/46.png","direct","",""
"","image-slider-response","95","381388","0.0-8.0-0.5","9oyt0u1h1a","one_one","1","direct_first","1","ll09af28","0","21","1","1","3","1","","0","1","0","3571.4750001206994","","","","","pos","CS","CS","3","category3/CS4.png","42","targets/16.png","direct","",""
"","image-slider-response","96","384959","0.0-8.0-0.6","9oyt0u1h1a","one_one","1","direct_first","1","ll09af28","0","21","1","1","3","1","","0","1","0","3569.104999769479","","","","","pos","GS","GSold","3","category3/CS9.png","40","targets/23.png","direct","",""
"","image-slider-response","97","387984","0.0-8.0-0.7","9oyt0u1h1a","one_one","1","direct_first","1","ll09af28","0","21","1","1","3","1","","0","1","0","3020.3700000420213","","","","","pos","GS","GSnew","4","category4/GS3.png","-52","targets/15.png","direct","",""
"","image-slider-response","98","390891","0.0-8.0-0.8","9oyt0u1h1a","one_one","1","direct_first","1","ll09af28","0","21","1","1","3","1","","0","1","0","2903.5499999299645","","","","","neg","CS","CS","1","category1/CS5.png","28","targets/2.png","direct","",""
"","image-slider-response","99","394007","0.0-8.0-0.9","9oyt0u1h1a","one_one","1","direct_first","1","ll09af28","0","21","1","1","3","1","","0","1","0","3112.195000052452","","","","","pos","GS","abstract","3","category3/wang.png","88","targets/28.png","direct","",""
"","image-slider-response","100","397590","0.0-8.0-0.10","9oyt0u1h1a","one_one","1","direct_first","1","ll09af28","0","21","1","1","3","1","","0","1","0","3578.7100000306964","","","","","neg","CS","CS","2","category2/CS10.png","47","targets/19.png","direct","",""
"","image-slider-response","101","401489","0.0-8.0-0.11","9oyt0u1h1a","one_one","1","direct_first","1","ll09af28","0","21","1","1","3","1","","0","1","0","3895.449999719858","","","","","neg","GS","GSnew","2","category2/GS3.png","-34","targets/18.png","direct","",""
"","image-slider-response","102","405823","0.0-8.0-0.12","9oyt0u1h1a","one_one","1","direct_first","1","ll09af28","0","21","1","1","3","1","","0","1","0","4330.395000055432","","","","","pos","GS","GSnew","3","category3/GS1.png","-48","targets/45.png","direct","",""
"","image-slider-response","103","410094","0.0-8.0-0.13","9oyt0u1h1a","one_one","1","direct_first","1","ll09af28","0","21","1","1","3","1","","0","1","0","4267.250000033528","","","","","neg","GS","GSnew","1","category1/GS1.png","28","targets/38.png","direct","",""
"","image-slider-response","104","413824","0.0-8.0-0.14","9oyt0u1h1a","one_one","1","direct_first","1","ll09af28","0","21","1","1","3","1","","0","1","0","3724.655000027269","","","","","neg","GS","GSnew","2","category2/GS2.png","-25","targets/11.png","direct","",""
"","image-slider-response","105","416905","0.0-8.0-0.15","9oyt0u1h1a","one_one","1","direct_first","1","ll09af28","0","21","1","1","3","1","","0","1","0","3075.5300000309944","","","","","neg","GS","GSnew","2","category2/GS1.png","-35","targets/34.png","direct","",""
"","image-slider-response","106","419721","0.0-8.0-0.16","9oyt0u1h1a","one_one","1","direct_first","1","ll09af28","0","21","1","1","3","1","","0","1","0","2812.9150001332164","","","","","pos","CS","CS","4","category4/CS10.png","39","targets/47.png","direct","",""
"","image-slider-response","107","423670","0.0-8.0-0.17","9oyt0u1h1a","one_one","1","direct_first","1","ll09af28","0","21","1","1","3","1","","0","1","0","3941.974999848753","","","","","neg","GS","GSold","2","category2/CS6.png","-7","targets/35.png","direct","",""
"","image-slider-response","108","426569","0.0-8.0-0.18","9oyt0u1h1a","one_one","1","direct_first","1","ll09af28","0","21","1","1","3","1","","0","1","0","2893.894999753684","","","","","neg","GS","GSnew","1","category1/GS2.png","-35","targets/48.png","direct","",""
"","image-slider-response","109","429541","0.0-8.0-0.19","9oyt0u1h1a","one_one","1","direct_first","1","ll09af28","0","21","1","1","3","1","","0","1","0","2968.7000000849366","","","","","pos","GS","GSnew","4","category4/GS2.png","-41","targets/27.png","direct","",""
"","image-slider-response","110","432419","0.0-8.0-0.20","9oyt0u1h1a","one_one","1","direct_first","1","ll09af28","0","21","1","1","3","1","","0","1","0","2873.3850000426173","","","","","pos","GS","GSold","3","category3/CS1.png","59","targets/4.png","direct","",""
"","image-slider-response","111","435418","0.0-8.0-0.21","9oyt0u1h1a","one_one","1","direct_first","1","ll09af28","0","21","1","1","3","1","","0","1","0","2997.010000050068","","","","","pos","GS","GSold","4","category4/CS8.png","-44","targets/43.png","direct","",""
"","image-slider-response","112","439685","0.0-8.0-0.22","9oyt0u1h1a","one_one","1","direct_first","1","ll09af28","0","21","1","1","3","1","","0","1","0","4263.6400000192225","","","","","neg","GS","GSold","1","category1/CS4.png","26","targets/33.png","direct","",""
"","image-slider-response","113","442351","0.0-8.0-0.23","9oyt0u1h1a","one_one","1","direct_first","1","ll09af28","0","21","1","1","3","1","","0","1","0","2662.604999728501","","","","","pos","GS","GSnew","4","category4/GS1.png","-35","targets/39.png","direct","",""
"","image-slider-response","114","445668","0.0-8.0-0.24","9oyt0u1h1a","one_one","1","direct_first","1","ll09af28","0","21","1","1","3","1","","0","1","0","3313.4449999779463","","","","","pos","GS","abstract","4","category4/lin.png","35","targets/12.png","direct","",""
"","image-slider-response","115","448565","0.0-8.0-0.25","9oyt0u1h1a","one_one","1","direct_first","1","ll09af28","0","21","1","1","3","1","","0","1","0","2892.845000140369","","","","","neg","GS","GSold","2","category2/CS5.png","-41","targets/21.png","direct","",""
"","image-slider-response","116","451283","0.0-8.0-0.26","9oyt0u1h1a","one_one","1","direct_first","1","ll09af28","0","21","1","1","3","1","","0","1","0","2715.4350001364946","","","","","neg","GS","GSold","1","category1/CS3.png","28","targets/14.png","direct","",""
"","image-slider-response","117","453707","0.0-8.0-0.27","9oyt0u1h1a","one_one","1","direct_first","1","ll09af28","0","21","1","1","3","1","","0","1","0","2419.5199999958277","","","","","pos","GS","GSold","4","category4/CS2.png","35","targets/31.png","direct","",""
"","image-slider-response","118","456313","0.0-8.0-0.28","9oyt0u1h1a","one_one","1","direct_first","1","ll09af28","0","21","1","1","3","1","","0","1","0","2605.3599999286234","","","","","neg","GS","GSold","1","category1/CS10.png","-42","targets/9.png","direct","",""
"","image-slider-response","119","459237","0.0-8.0-0.29","9oyt0u1h1a","one_one","1","direct_first","1","ll09af28","0","21","1","1","3","1","","0","1","0","2921.8949996866286","","","","","pos","GS","GSold","3","category3/CS8.png","-33","targets/24.png","direct","",""
"","image-slider-response","120","462281","0.0-8.0-0.30","9oyt0u1h1a","one_one","1","direct_first","1","ll09af28","0","21","1","1","3","1","","0","1","0","3038.2750001735985","","","","","neg","GS","GSold","2","category2/CS4.png","-15","targets/40.png","direct","",""
"","image-slider-response","121","465263","0.0-8.0-0.31","9oyt0u1h1a","one_one","1","direct_first","1","ll09af28","0","21","1","1","3","1","","0","1","0","2979.9299999140203","","","","","pos","GS","GSnew","3","category3/GS2.png","45","targets/32.png","direct","",""
"","html-keyboard-response","122","495796","0.0-9.0","9oyt0u1h1a","one_one","1","direct_first","1","ll09af28","0","21","1","1","3","1","","0","1","0","30529.565000440925","","","<p>Sie sehen nun die chinesischen Zeichen nur ganz kurz. Danach sehen Sie die jeweilige Aussprache der Zeichen als Silbe auf dem Bildschrim. Ihre Aufgabe ist es, für jede Silbe anzugeben, ob diese etwas angenehmes, oder unangenehmes bedeuten könnte. Verlassen Sie sich hier vor allem auf Ihre Intuition.<br><br>Die Zeichen werden nur zur Orientierung dargestellt, beachten Sie sie deshalb nicht. Konzentrieren Sie sich vor allem auf die Silben. <br>Reagieren Sie mit folgenden zwei Tasten: <br><br><b>'D' </b> wenn die Silbe etwas <b>unangenehmes</b> bedeuten könnte. <br><b>'K'</b> wenn die Silbe etwas <b>angenehmes</b> bedeuten könnte. <br><br>Bitte legen Sie nun den Zeigefinger der linken Hand auf die Taste 'D' und den Zeigefinger der rechten Hand auf die Taste 'K'. <br>Reagieren Sie auf jede Silbe so schnell wie möglich. Uns interessiert Ihre spontane Reaktion. <br> <br> <br>Drücken Sie 'D' oder 'K', um die nächste Aufgabe zu starten. </p>","75","","","","","","","","","",""
"","html-keyboard-response","123","498797","0.0-10.0-0.0","9oyt0u1h1a","one_one","1","direct_first","1","ll09af28","0","21","1","1","3","1","","0","1","0","null","","","<div style=""font-size:60px;"">+</div>","null","","","","","","","","","",""
"","html-keyboard-response","124","498890","0.0-10.0-1.0","9oyt0u1h1a","one_one","1","direct_first","1","ll09af28","0","21","1","1","3","1","","0","1","0","null","","","<img src = 'category4/CS10.png' width = '100%;'>","null","","","","","","","","","",""
"","html-keyboard-response","125","499151","0.0-10.0-2.0","9oyt0u1h1a","one_one","1","direct_first","1","ll09af28","0","21","1","1","3","1","","0","1","0","null","","","<img src = 'targets/47.png' width = '100%;'>","null","","","","","","","","","",""
"","html-keyboard-response","126","503867","0.0-10.0-3.0","9oyt0u1h1a","one_one","1","direct_first","1","ll09af28","0","21","1","1","3","1","","0","1","0","4714.004999957979","","","<img src = 'targets/mask.png' width = '100%;'>","75","pos","CS","CS","4","category4/CS10.png","","targets/47.png","indirect","1","0"
"","html-keyboard-response","127","505373","0.0-10.0-0.1","9oyt0u1h1a","one_one","1","direct_first","1","ll09af28","0","21","1","1","3","1","","0","1","0","null","","","<div style=""font-size:60px;"">+</div>","null","","","","","","","","","",""
"","html-keyboard-response","128","505473","0.0-10.0-1.1","9oyt0u1h1a","one_one","1","direct_first","1","ll09af28","0","21","1","1","3","1","","0","1","0","null","","","<img src = 'category3/CS8.png' width = '100%;'>","null","","","","","","","","","",""
"","html-keyboard-response","129","505738","0.0-10.0-2.1","9oyt0u1h1a","one_one","1","direct_first","1","ll09af28","0","21","1","1","3","1","","0","1","0","null","","","<img src = 'targets/24.png' width = '100%;'>","null","","","","","","","","","",""
"","html-keyboard-response","130","507104","0.0-10.0-3.1","9oyt0u1h1a","one_one","1","direct_first","1","ll09af28","0","21","1","1","3","1","","0","1","0","1364.144999999553","","","<img src = 'targets/mask.png' width = '100%;'>","68","pos","GS","GSold","3","category3/CS8.png","","targets/24.png","indirect","0","1"
"","html-keyboard-response","131","508624","0.0-10.0-0.2","9oyt0u1h1a","one_one","1","direct_first","1","ll09af28","0","21","1","1","3","1","","0","1","0","null","","","<div style=""font-size:60px;"">+</div>","null","","","","","","","","","",""
"","html-keyboard-response","132","508732","0.0-10.0-1.2","9oyt0u1h1a","one_one","1","direct_first","1","ll09af28","0","21","1","1","3","1","","0","1","0","null","","","<img src = 'category3/CS9.png' width = '100%;'>","null","","","","","","","","","",""
"","html-keyboard-response","133","508994","0.0-10.0-2.2","9oyt0u1h1a","one_one","1","direct_first","1","ll09af28","0","21","1","1","3","1","","0","1","0","null","","","<img src = 'targets/23.png' width = '100%;'>","null","","","","","","","","","",""
"","html-keyboard-response","134","509884","0.0-10.0-3.2","9oyt0u1h1a","one_one","1","direct_first","1","ll09af28","0","21","1","1","3","1","","0","1","0","887.3049998655915","","","<img src = 'targets/mask.png' width = '100%;'>","75","pos","GS","GSold","3","category3/CS9.png","","targets/23.png","indirect","1","2"
"","html-keyboard-response","135","511399","0.0-10.0-0.3","9oyt0u1h1a","one_one","1","direct_first","1","ll09af28","0","21","1","1","3","1","","0","1","0","null","","","<div style=""font-size:60px;"">+</div>","null","","","","","","","","","",""
"","html-keyboard-response","136","511495","0.0-10.0-1.3","9oyt0u1h1a","one_one","1","direct_first","1","ll09af28","0","21","1","1","3","1","","0","1","0","null","","","<img src = 'category4/CS8.png' width = '100%;'>","null","","","","","","","","","",""
"","html-keyboard-response","137","511762","0.0-10.0-2.3","9oyt0u1h1a","one_one","1","direct_first","1","ll09af28","0","21","1","1","3","1","","0","1","0","null","","","<img src = 'targets/43.png' width = '100%;'>","null","","","","","","","","","",""
"","html-keyboard-response","138","514015","0.0-10.0-3.3","9oyt0u1h1a","one_one","1","direct_first","1","ll09af28","0","21","1","1","3","1","","0","1","0","2251.664999872446","","","<img src = 'targets/mask.png' width = '100%;'>","68","pos","GS","GSold","4","category4/CS8.png","","targets/43.png","indirect","0","3"
"","html-keyboard-response","139","515522","0.0-10.0-0.4","9oyt0u1h1a","one_one","1","direct_first","1","ll09af28","0","21","1","1","3","1","","0","1","0","null","","","<div style=""font-size:60px;"">+</div>","null","","","","","","","","","",""
"","html-keyboard-response","140","515623","0.0-10.0-1.4","9oyt0u1h1a","one_one","1","direct_first","1","ll09af28","0","21","1","1","3","1","","0","1","0","null","","","<img src = 'category2/CS6.png' width = '100%;'>","null","","","","","","","","","",""
"","html-keyboard-response","141","515891","0.0-10.0-2.4","9oyt0u1h1a","one_one","1","direct_first","1","ll09af28","0","21","1","1","3","1","","0","1","0","null","","","<img src = 'targets/35.png' width = '100%;'>","null","","","","","","","","","",""
"","html-keyboard-response","142","516539","0.0-10.0-3.4","9oyt0u1h1a","one_one","1","direct_first","1","ll09af28","0","21","1","1","3","1","","0","1","0","645.4099998809397","","","<img src = 'targets/mask.png' width = '100%;'>","75","neg","GS","GSold","2","category2/CS6.png","","targets/35.png","indirect","1","4"
"","html-keyboard-response","143","518068","0.0-10.0-0.5","9oyt0u1h1a","one_one","1","direct_first","1","ll09af28","0","21","1","1","3","1","","0","1","0","null","","","<div style=""font-size:60px;"">+</div>","null","","","","","","","","","",""
"","html-keyboard-response","144","518162","0.0-10.0-1.5","9oyt0u1h1a","one_one","1","direct_first","1","ll09af28","0","21","1","1","3","1","","0","1","0","null","","","<img src = 'category2/CS4.png' width = '100%;'>","null","","","","","","","","","",""
"","html-keyboard-response","145","518427","0.0-10.0-2.5","9oyt0u1h1a","one_one","1","direct_first","1","ll09af28","0","21","1","1","3","1","","0","1","0","null","","","<img src = 'targets/40.png' width = '100%;'>","null","","","","","","","","","",""
"","html-keyboard-response","146","519201","0.0-10.0-3.5","9oyt0u1h1a","one_one","1","direct_first","1","ll09af28","0","21","1","1","3","1","","0","1","0","772.2800001502037","","","<img src = 'targets/mask.png' width = '100%;'>","75","neg","GS","GSold","2","category2/CS4.png","","targets/40.png","indirect","1","5"
"","html-keyboard-response","147","520719","0.0-10.0-0.6","9oyt0u1h1a","one_one","1","direct_first","1","ll09af28","0","21","1","1","3","1","","0","1","0","null","","","<div style=""font-size:60px;"">+</div>","null","","","","","","","","","",""
"","html-keyboard-response","148","520810","0.0-10.0-1.6","9oyt0u1h1a","one_one","1","direct_first","1","ll09af28","0","21","1","1","3","1","","0","1","0","null","","","<img src = 'category4/CS2.png' width = '100%;'>","null","","","","","","","","","",""
"","html-keyboard-response","149","521072","0.0-10.0-2.6","9oyt0u1h1a","one_one","1","direct_first","1","ll09af28","0","21","1","1","3","1","","0","1","0","null","","","<img src = 'targets/31.png' width = '100%;'>","null","","","","","","","","","",""
"","html-keyboard-response","150","521746","0.0-10.0-3.6","9oyt0u1h1a","one_one","1","direct_first","1","ll09af28","0","21","1","1","3","1","","0","1","0","671.4600003324449","","","<img src = 'targets/mask.png' width = '100%;'>","75","pos","GS","GSold","4","category4/CS2.png","","targets/31.png","indirect","1","6"
"","html-keyboard-response","151","523265","0.0-10.0-0.7","9oyt0u1h1a","one_one","1","direct_first","1","ll09af28","0","21","1","1","3","1","","0","1","0","null","","","<div style=""font-size:60px;"">+</div>","null","","","","","","","","","",""
"","html-keyboard-response","152","523361","0.0-10.0-1.7","9oyt0u1h1a","one_one","1","direct_first","1","ll09af28","0","21","1","1","3","1","","0","1","0","null","","","<img src = 'category1/CS4.png' width = '100%;'>","null","","","","","","","","","",""
"","html-keyboard-response","153","523626","0.0-10.0-2.7","9oyt0u1h1a","one_one","1","direct_first","1","ll09af28","0","21","1","1","3","1","","0","1","0","null","","","<img src = 'targets/33.png' width = '100%;'>","null","","","","","","","","","",""
"","html-keyboard-response","154","526944","0.0-10.0-3.7","9oyt0u1h1a","one_one","1","direct_first","1","ll09af28","0","21","1","1","3","1","","0","1","0","3315.744999796152","","","<img src = 'targets/mask.png' width = '100%;'>","68","neg","GS","GSold","1","category1/CS4.png","","targets/33.png","indirect","0","7"
"","html-keyboard-response","155","528454","0.0-10.0-0.8","9oyt0u1h1a","one_one","1","direct_first","1","ll09af28","0","21","1","1","3","1","","0","1","0","null","","","<div style=""font-size:60px;"">+</div>","null","","","","","","","","","",""
"","html-keyboard-response","156","528560","0.0-10.0-1.8","9oyt0u1h1a","one_one","1","direct_first","1","ll09af28","0","21","1","1","3","1","","0","1","0","null","","","<img src = 'category4/CS7.png' width = '100%;'>","null","","","","","","","","","",""
"","html-keyboard-response","157","528834","0.0-10.0-2.8","9oyt0u1h1a","one_one","1","direct_first","1","ll09af28","0","21","1","1","3","1","","0","1","0","null","","","<img src = 'targets/3.png' width = '100%;'>","null","","","","","","","","","",""
"","html-keyboard-response","158","529957","0.0-10.0-3.8","9oyt0u1h1a","one_one","1","direct_first","1","ll09af28","0","21","1","1","3","1","","0","1","0","1120.4050001688302","","","<img src = 'targets/mask.png' width = '100%;'>","75","pos","GS","GSold","4","category4/CS7.png","","targets/3.png","indirect","1","8"
"","html-keyboard-response","159","531467","0.0-10.0-0.9","9oyt0u1h1a","one_one","1","direct_first","1","ll09af28","0","21","1","1","3","1","","0","1","0","null","","","<div style=""font-size:60px;"">+</div>","null","","","","","","","","","",""
"","html-keyboard-response","160","531560","0.0-10.0-1.9","9oyt0u1h1a","one_one","1","direct_first","1","ll09af28","0","21","1","1","3","1","","0","1","0","null","","","<img src = 'category3/CS4.png' width = '100%;'>","null","","","","","","","","","",""
"","html-keyboard-response","161","531824","0.0-10.0-2.9","9oyt0u1h1a","one_one","1","direct_first","1","ll09af28","0","21","1","1","3","1","","0","1","0","null","","","<img src = 'targets/16.png' width = '100%;'>","null","","","","","","","","","",""
"","html-keyboard-response","162","532531","0.0-10.0-3.9","9oyt0u1h1a","one_one","1","direct_first","1","ll09af28","0","21","1","1","3","1","","0","1","0","704.7250000759959","","","<img src = 'targets/mask.png' width = '100%;'>","68","pos","CS","CS","3","category3/CS4.png","","targets/16.png","indirect","0","9"
"","html-keyboard-response","163","534043","0.0-10.0-0.10","9oyt0u1h1a","one_one","1","direct_first","1","ll09af28","0","21","1","1","3","1","","0","1","0","null","","","<div style=""font-size:60px;"">+</div>","null","","","","","","","","","",""
"","html-keyboard-response","164","534135","0.0-10.0-1.10","9oyt0u1h1a","one_one","1","direct_first","1","ll09af28","0","21","1","1","3","1","","0","1","0","null","","","<img src = 'category2/CS10.png' width = '100%;'>","null","","","","","","","","","",""
"","html-keyboard-response","165","534388","0.0-10.0-2.10","9oyt0u1h1a","one_one","1","direct_first","1","ll09af28","0","21","1","1","3","1","","0","1","0","null","","","<img src = 'targets/19.png' width = '100%;'>","null","","","","","","","","","",""
"","html-keyboard-response","166","535570","0.0-10.0-3.10","9oyt0u1h1a","one_one","1","direct_first","1","ll09af28","0","21","1","1","3","1","","0","1","0","1179.4249997474253","","","<img src = 'targets/mask.png' width = '100%;'>","68","neg","CS","CS","2","category2/CS10.png","","targets/19.png","indirect","0","10"
"","html-keyboard-response","167","537098","0.0-10.0-0.11","9oyt0u1h1a","one_one","1","direct_first","1","ll09af28","0","21","1","1","3","1","","0","1","0","null","","","<div style=""font-size:60px;"">+</div>","null","","","","","","","","","",""
"","html-keyboard-response","168","537191","0.0-10.0-1.11","9oyt0u1h1a","one_one","1","direct_first","1","ll09af28","0","21","1","1","3","1","","0","1","0","null","","","<img src = 'category2/CS5.png' width = '100%;'>","null","","","","","","","","","",""
"","html-keyboard-response","169","537461","0.0-10.0-2.11","9oyt0u1h1a","one_one","1","direct_first","1","ll09af28","0","21","1","1","3","1","","0","1","0","null","","","<img src = 'targets/21.png' width = '100%;'>","null","","","","","","","","","",""
"","html-keyboard-response","170","538485","0.0-10.0-3.11","9oyt0u1h1a","one_one","1","direct_first","1","ll09af28","0","21","1","1","3","1","","0","1","0","1021.6149999760091","","","<img src = 'targets/mask.png' width = '100%;'>","75","neg","GS","GSold","2","category2/CS5.png","","targets/21.png","indirect","1","11"
"","html-keyboard-response","171","539998","0.0-10.0-0.12","9oyt0u1h1a","one_one","1","direct_first","1","ll09af28","0","21","1","1","3","1","","0","1","0","null","","","<div style=""font-size:60px;"">+</div>","null","","","","","","","","","",""
"","html-keyboard-response","172","540094","0.0-10.0-1.12","9oyt0u1h1a","one_one","1","direct_first","1","ll09af28","0","21","1","1","3","1","","0","1","0","null","","","<img src = 'category1/CS5.png' width = '100%;'>","null","","","","","","","","","",""
"","html-keyboard-response","173","540357","0.0-10.0-2.12","9oyt0u1h1a","one_one","1","direct_first","1","ll09af28","0","21","1","1","3","1","","0","1","0","null","","","<img src = 'targets/2.png' width = '100%;'>","null","","","","","","","","","",""
"","html-keyboard-response","174","542032","0.0-10.0-3.12","9oyt0u1h1a","one_one","1","direct_first","1","ll09af28","0","21","1","1","3","1","","0","1","0","1672.4249999970198","","","<img src = 'targets/mask.png' width = '100%;'>","68","neg","CS","CS","1","category1/CS5.png","","targets/2.png","indirect","0","12"
"","html-keyboard-response","175","543556","0.0-10.0-0.13","9oyt0u1h1a","one_one","1","direct_first","1","ll09af28","0","21","1","1","3","1","","0","1","0","null","","","<div style=""font-size:60px;"">+</div>","null","","","","","","","","","",""
"","html-keyboard-response","176","543652","0.0-10.0-1.13","9oyt0u1h1a","one_one","1","direct_first","1","ll09af28","0","21","1","1","3","1","","0","1","0","null","","","<img src = 'category1/CS10.png' width = '100%;'>","null","","","","","","","","","",""
"","html-keyboard-response","177","543921","0.0-10.0-2.13","9oyt0u1h1a","one_one","1","direct_first","1","ll09af28","0","21","1","1","3","1","","0","1","0","null","","","<img src = 'targets/9.png' width = '100%;'>","null","","","","","","","","","",""
"","html-keyboard-response","178","544500","0.0-10.0-3.13","9oyt0u1h1a","one_one","1","direct_first","1","ll09af28","0","21","1","1","3","1","","0","1","0","577.2000001743436","","","<img src = 'targets/mask.png' width = '100%;'>","75","neg","GS","GSold","1","category1/CS10.png","","targets/9.png","indirect","1","13"
"","html-keyboard-response","179","546014","0.0-10.0-0.14","9oyt0u1h1a","one_one","1","direct_first","1","ll09af28","0","21","1","1","3","1","","0","1","0","null","","","<div style=""font-size:60px;"">+</div>","null","","","","","","","","","",""
"","html-keyboard-response","180","546109","0.0-10.0-1.14","9oyt0u1h1a","one_one","1","direct_first","1","ll09af28","0","21","1","1","3","1","","0","1","0","null","","","<img src = 'category3/CS1.png' width = '100%;'>","null","","","","","","","","","",""
"","html-keyboard-response","181","546374","0.0-10.0-2.14","9oyt0u1h1a","one_one","1","direct_first","1","ll09af28","0","21","1","1","3","1","","0","1","0","null","","","<img src = 'targets/4.png' width = '100%;'>","null","","","","","","","","","",""
"","html-keyboard-response","182","547123","0.0-10.0-3.14","9oyt0u1h1a","one_one","1","direct_first","1","ll09af28","0","21","1","1","3","1","","0","1","0","747.0049997791648","","","<img src = 'targets/mask.png' width = '100%;'>","75","pos","GS","GSold","3","category3/CS1.png","","targets/4.png","indirect","1","14"
"","html-keyboard-response","183","548646","0.0-10.0-0.15","9oyt0u1h1a","one_one","1","direct_first","1","ll09af28","0","21","1","1","3","1","","0","1","0","null","","","<div style=""font-size:60px;"">+</div>","null","","","","","","","","","",""
"","html-keyboard-response","184","548744","0.0-10.0-1.15","9oyt0u1h1a","one_one","1","direct_first","1","ll09af28","0","21","1","1","3","1","","0","1","0","null","","","<img src = 'category1/CS3.png' width = '100%;'>","null","","","","","","","","","",""
"","html-keyboard-response","185","549005","0.0-10.0-2.15","9oyt0u1h1a","one_one","1","direct_first","1","ll09af28","0","21","1","1","3","1","","0","1","0","null","","","<img src = 'targets/14.png' width = '100%;'>","null","","","","","","","","","",""
"","html-keyboard-response","186","550751","0.0-10.0-3.15","9oyt0u1h1a","one_one","1","direct_first","1","ll09af28","0","21","1","1","3","1","","0","1","0","1744.3300001323223","","","<img src = 'targets/mask.png' width = '100%;'>","75","neg","GS","GSold","1","category1/CS3.png","","targets/14.png","indirect","1","15"
"","survey-html-form","187","555119","0.0-11.0","9oyt0u1h1a","one_one","1","direct_first","1","ll09af28","0","21","1","1","3","1","","0","1","0","3850.9900001809","","{}","","","","","","","","","","","",""
"","html-keyboard-response","188","558130","0.0-12.0-0.0","9oyt0u1h1a","one_one","1","direct_first","1","ll09af28","0","21","1","1","3","1","","0","1","0","null","","","<div style=""font-size:60px;"">+</div>","null","","","","","","","","","",""
"","html-keyboard-response","189","558224","0.0-12.0-1.0","9oyt0u1h1a","one_one","1","direct_first","1","ll09af28","0","21","1","1","3","1","","0","1","0","null","","","<img src = 'category4/GS2.png' width = '100%;'>","null","","","","","","","","","",""
"","html-keyboard-response","190","558488","0.0-12.0-2.0","9oyt0u1h1a","one_one","1","direct_first","1","ll09af28","0","21","1","1","3","1","","0","1","0","null","","","<img src = 'targets/27.png' width = '100%;'>","null","","","","","","","","","",""
"","html-keyboard-response","191","559902","0.0-12.0-3.0","9oyt0u1h1a","one_one","1","direct_first","1","ll09af28","0","21","1","1","3","1","","0","1","0","1411.1949997022748","","","<img src = 'targets/mask.png' width = '100%;'>","75","pos","GS","GSnew","4","category4/GS2.png","","targets/27.png","indirect","1","16"
"","html-keyboard-response","192","561423","0.0-12.0-0.1","9oyt0u1h1a","one_one","1","direct_first","1","ll09af28","0","21","1","1","3","1","","0","1","0","null","","","<div style=""font-size:60px;"">+</div>","null","","","","","","","","","",""
"","html-keyboard-response","193","561526","0.0-12.0-1.1","9oyt0u1h1a","one_one","1","direct_first","1","ll09af28","0","21","1","1","3","1","","0","1","0","null","","","<img src = 'category3/wang.png' width = '100%;'>","null","","","","","","","","","",""
"","html-keyboard-response","194","561788","0.0-12.0-2.1","9oyt0u1h1a","one_one","1","direct_first","1","ll09af28","0","21","1","1","3","1","","0","1","0","null","","","<img src = 'targets/28.png' width = '100%;'>","null","","","","","","","","","",""
"","html-keyboard-response","195","562392","0.0-12.0-3.1","9oyt0u1h1a","one_one","1","direct_first","1","ll09af28","0","21","1","1","3","1","","0","1","0","601.2099999934435","","","<img src = 'targets/mask.png' width = '100%;'>","68","pos","GS","abstract","3","category3/wang.png","","targets/28.png","indirect","0","17"
"","html-keyboard-response","196","563912","0.0-12.0-0.2","9oyt0u1h1a","one_one","1","direct_first","1","ll09af28","0","21","1","1","3","1","","0","1","0","null","","","<div style=""font-size:60px;"">+</div>","null","","","","","","","","","",""
"","html-keyboard-response","197","564007","0.0-12.0-1.2","9oyt0u1h1a","one_one","1","direct_first","1","ll09af28","0","21","1","1","3","1","","0","1","0","null","","","<img src = 'category1/GS3.png' width = '100%;'>","null","","","","","","","","","",""
"","html-keyboard-response","198","564271","0.0-12.0-2.2","9oyt0u1h1a","one_one","1","direct_first","1","ll09af28","0","21","1","1","3","1","","0","1","0","null","","","<img src = 'targets/46.png' width = '100%;'>","null","","","","","","","","","",""
"","html-keyboard-response","199","565031","0.0-12.0-3.2","9oyt0u1h1a","one_one","1","direct_first","1","ll09af28","0","21","1","1","3","1","","0","1","0","757.8949998132885","","","<img src = 'targets/mask.png' width = '100%;'>","75","neg","GS","GSnew","1","category1/GS3.png","","targets/46.png","indirect","1","18"
"","html-keyboard-response","200","566544","0.0-12.0-0.3","9oyt0u1h1a","one_one","1","direct_first","1","ll09af28","0","21","1","1","3","1","","0","1","0","null","","","<div style=""font-size:60px;"">+</div>","null","","","","","","","","","",""
"","html-keyboard-response","201","566640","0.0-12.0-1.3","9oyt0u1h1a","one_one","1","direct_first","1","ll09af28","0","21","1","1","3","1","","0","1","0","null","","","<img src = 'category4/GS1.png' width = '100%;'>","null","","","","","","","","","",""
"","html-keyboard-response","202","566905","0.0-12.0-2.3","9oyt0u1h1a","one_one","1","direct_first","1","ll09af28","0","21","1","1","3","1","","0","1","0","null","","","<img src = 'targets/39.png' width = '100%;'>","null","","","","","","","","","",""
"","html-keyboard-response","203","567588","0.0-12.0-3.3","9oyt0u1h1a","one_one","1","direct_first","1","ll09af28","0","21","1","1","3","1","","0","1","0","680.8500001206994","","","<img src = 'targets/mask.png' width = '100%;'>","68","pos","GS","GSnew","4","category4/GS1.png","","targets/39.png","indirect","0","19"
"","html-keyboard-response","204","569104","0.0-12.0-0.4","9oyt0u1h1a","one_one","1","direct_first","1","ll09af28","0","21","1","1","3","1","","0","1","0","null","","","<div style=""font-size:60px;"">+</div>","null","","","","","","","","","",""
"","html-keyboard-response","205","569208","0.0-12.0-1.4","9oyt0u1h1a","one_one","1","direct_first","1","ll09af28","0","21","1","1","3","1","","0","1","0","null","","","<img src = 'category4/lin.png' width = '100%;'>","null","","","","","","","","","",""
"","html-keyboard-response","206","569471","0.0-12.0-2.4","9oyt0u1h1a","one_one","1","direct_first","1","ll09af28","0","21","1","1","3","1","","0","1","0","null","","","<img src = 'targets/12.png' width = '100%;'>","null","","","","","","","","","",""
"","html-keyboard-response","207","570154","0.0-12.0-3.4","9oyt0u1h1a","one_one","1","direct_first","1","ll09af28","0","21","1","1","3","1","","0","1","0","681.7999999038875","","","<img src = 'targets/mask.png' width = '100%;'>","75","pos","GS","abstract","4","category4/lin.png","","targets/12.png","indirect","1","20"
"","html-keyboard-response","208","571677","0.0-12.0-0.5","9oyt0u1h1a","one_one","1","direct_first","1","ll09af28","0","21","1","1","3","1","","0","1","0","null","","","<div style=""font-size:60px;"">+</div>","null","","","","","","","","","",""
"","html-keyboard-response","209","571773","0.0-12.0-1.5","9oyt0u1h1a","one_one","1","direct_first","1","ll09af28","0","21","1","1","3","1","","0","1","0","null","","","<img src = 'category1/ma.png' width = '100%;'>","null","","","","","","","","","",""
"","html-keyboard-response","210","572036","0.0-12.0-2.5","9oyt0u1h1a","one_one","1","direct_first","1","ll09af28","0","21","1","1","3","1","","0","1","0","null","","","<img src = 'targets/7.png' width = '100%;'>","null","","","","","","","","","",""
"","html-keyboard-response","211","573093","0.0-12.0-3.5","9oyt0u1h1a","one_one","1","direct_first","1","ll09af28","0","21","1","1","3","1","","0","1","0","1054.889999795705","","","<img src = 'targets/mask.png' width = '100%;'>","68","neg","GS","abstract","1","category1/ma.png","","targets/7.png","indirect","0","21"
"","html-keyboard-response","212","574621","0.0-12.0-0.6","9oyt0u1h1a","one_one","1","direct_first","1","ll09af28","0","21","1","1","3","1","","0","1","0","null","","","<div style=""font-size:60px;"">+</div>","null","","","","","","","","","",""
"","html-keyboard-response","213","574722","0.0-12.0-1.6","9oyt0u1h1a","one_one","1","direct_first","1","ll09af28","0","21","1","1","3","1","","0","1","0","null","","","<img src = 'category3/GS3.png' width = '100%;'>","null","","","","","","","","","",""
"","html-keyboard-response","214","574986","0.0-12.0-2.6","9oyt0u1h1a","one_one","1","direct_first","1","ll09af28","0","21","1","1","3","1","","0","1","0","null","","","<img src = 'targets/10.png' width = '100%;'>","null","","","","","","","","","",""
"","html-keyboard-response","215","575785","0.0-12.0-3.6","9oyt0u1h1a","one_one","1","direct_first","1","ll09af28","0","21","1","1","3","1","","0","1","0","795.5599999986589","","","<img src = 'targets/mask.png' width = '100%;'>","68","pos","GS","GSnew","3","category3/GS3.png","","targets/10.png","indirect","0","22"
"","html-keyboard-response","216","577303","0.0-12.0-0.7","9oyt0u1h1a","one_one","1","direct_first","1","ll09af28","0","21","1","1","3","1","","0","1","0","null","","","<div style=""font-size:60px;"">+</div>","null","","","","","","","","","",""
"","html-keyboard-response","217","577396","0.0-12.0-1.7","9oyt0u1h1a","one_one","1","direct_first","1","ll09af28","0","21","1","1","3","1","","0","1","0","null","","","<img src = 'category2/GS3.png' width = '100%;'>","null","","","","","","","","","",""
"","html-keyboard-response","218","577655","0.0-12.0-2.7","9oyt0u1h1a","one_one","1","direct_first","1","ll09af28","0","21","1","1","3","1","","0","1","0","null","","","<img src = 'targets/18.png' width = '100%;'>","null","","","","","","","","","",""
"","html-keyboard-response","219","578818","0.0-12.0-3.7","9oyt0u1h1a","one_one","1","direct_first","1","ll09af28","0","21","1","1","3","1","","0","1","0","1161.4249995909631","","","<img src = 'targets/mask.png' width = '100%;'>","75","neg","GS","GSnew","2","category2/GS3.png","","targets/18.png","indirect","1","23"
"","html-keyboard-response","220","580333","0.0-12.0-0.8","9oyt0u1h1a","one_one","1","direct_first","1","ll09af28","0","21","1","1","3","1","","0","1","0","null","","","<div style=""font-size:60px;"">+</div>","null","","","","","","","","","",""
"","html-keyboard-response","221","580436","0.0-12.0-1.8","9oyt0u1h1a","one_one","1","direct_first","1","ll09af28","0","21","1","1","3","1","","0","1","0","null","","","<img src = 'category1/GS2.png' width = '100%;'>","null","","","","","","","","","",""
"","html-keyboard-response","222","580694","0.0-12.0-2.8","9oyt0u1h1a","one_one","1","direct_first","1","ll09af28","0","21","1","1","3","1","","0","1","0","null","","","<img src = 'targets/48.png' width = '100%;'>","null","","","","","","","","","",""
"","html-keyboard-response","223","581545","0.0-12.0-3.8","9oyt0u1h1a","one_one","1","direct_first","1","ll09af28","0","21","1","1","3","1","","0","1","0","848.9900003187358","","","<img src = 'targets/mask.png' width = '100%;'>","75","neg","GS","GSnew","1","category1/GS2.png","","targets/48.png","indirect","1","24"
"","html-keyboard-response","224","583069","0.0-12.0-0.9","9oyt0u1h1a","one_one","1","direct_first","1","ll09af28","0","21","1","1","3","1","","0","1","0","null","","","<div style=""font-size:60px;"">+</div>","null","","","","","","","","","",""
"","html-keyboard-response","225","583161","0.0-12.0-1.9","9oyt0u1h1a","one_one","1","direct_first","1","ll09af28","0","21","1","1","3","1","","0","1","0","null","","","<img src = 'category2/men.png' width = '100%;'>","null","","","","","","","","","",""
"","html-keyboard-response","226","583417","0.0-12.0-2.9","9oyt0u1h1a","one_one","1","direct_first","1","ll09af28","0","21","1","1","3","1","","0","1","0","null","","","<img src = 'targets/20.png' width = '100%;'>","null","","","","","","","","","",""
"","html-keyboard-response","227","584036","0.0-12.0-3.9","9oyt0u1h1a","one_one","1","direct_first","1","ll09af28","0","21","1","1","3","1","","0","1","0","616.5399998426437","","","<img src = 'targets/mask.png' width = '100%;'>","68","neg","GS","abstract","2","category2/men.png","","targets/20.png","indirect","0","25"
"","html-keyboard-response","228","585539","0.0-12.0-0.10","9oyt0u1h1a","one_one","1","direct_first","1","ll09af28","0","21","1","1","3","1","","0","1","0","null","","","<div style=""font-size:60px;"">+</div>","null","","","","","","","","","",""
"","html-keyboard-response","229","585640","0.0-12.0-1.10","9oyt0u1h1a","one_one","1","direct_first","1","ll09af28","0","21","1","1","3","1","","0","1","0","null","","","<img src = 'category3/GS2.png' width = '100%;'>","null","","","","","","","","","",""
"","html-keyboard-response","230","585906","0.0-12.0-2.10","9oyt0u1h1a","one_one","1","direct_first","1","ll09af28","0","21","1","1","3","1","","0","1","0","null","","","<img src = 'targets/32.png' width = '100%;'>","null","","","","","","","","","",""
"","html-keyboard-response","231","586617","0.0-12.0-3.10","9oyt0u1h1a","one_one","1","direct_first","1","ll09af28","0","21","1","1","3","1","","0","1","0","709.5149997621775","","","<img src = 'targets/mask.png' width = '100%;'>","75","pos","GS","GSnew","3","category3/GS2.png","","targets/32.png","indirect","1","26"
"","html-keyboard-response","232","588134","0.0-12.0-0.11","9oyt0u1h1a","one_one","1","direct_first","1","ll09af28","0","21","1","1","3","1","","0","1","0","null","","","<div style=""font-size:60px;"">+</div>","null","","","","","","","","","",""
"","html-keyboard-response","233","588237","0.0-12.0-1.11","9oyt0u1h1a","one_one","1","direct_first","1","ll09af28","0","21","1","1","3","1","","0","1","0","null","","","<img src = 'category1/GS1.png' width = '100%;'>","null","","","","","","","","","",""
"","html-keyboard-response","234","588501","0.0-12.0-2.11","9oyt0u1h1a","one_one","1","direct_first","1","ll09af28","0","21","1","1","3","1","","0","1","0","null","","","<img src = 'targets/38.png' width = '100%;'>","null","","","","","","","","","",""
"","html-keyboard-response","235","589064","0.0-12.0-3.11","9oyt0u1h1a","one_one","1","direct_first","1","ll09af28","0","21","1","1","3","1","","0","1","0","561.1049998551607","","","<img src = 'targets/mask.png' width = '100%;'>","75","neg","GS","GSnew","1","category1/GS1.png","","targets/38.png","indirect","1","27"
"","html-keyboard-response","236","590580","0.0-12.0-0.12","9oyt0u1h1a","one_one","1","direct_first","1","ll09af28","0","21","1","1","3","1","","0","1","0","null","","","<div style=""font-size:60px;"">+</div>","null","","","","","","","","","",""
"","html-keyboard-response","237","590685","0.0-12.0-1.12","9oyt0u1h1a","one_one","1","direct_first","1","ll09af28","0","21","1","1","3","1","","0","1","0","null","","","<img src = 'category4/GS3.png' width = '100%;'>","null","","","","","","","","","",""
"","html-keyboard-response","238","590950","0.0-12.0-2.12","9oyt0u1h1a","one_one","1","direct_first","1","ll09af28","0","21","1","1","3","1","","0","1","0","null","","","<img src = 'targets/15.png' width = '100%;'>","null","","","","","","","","","",""
"","html-keyboard-response","239","591812","0.0-12.0-3.12","9oyt0u1h1a","one_one","1","direct_first","1","ll09af28","0","21","1","1","3","1","","0","1","0","859.2449999414384","","","<img src = 'targets/mask.png' width = '100%;'>","68","pos","GS","GSnew","4","category4/GS3.png","","targets/15.png","indirect","0","28"
"","html-keyboard-response","240","593316","0.0-12.0-0.13","9oyt0u1h1a","one_one","1","direct_first","1","ll09af28","0","21","1","1","3","1","","0","1","0","null","","","<div style=""font-size:60px;"">+</div>","null","","","","","","","","","",""
"","html-keyboard-response","241","593414","0.0-12.0-1.13","9oyt0u1h1a","one_one","1","direct_first","1","ll09af28","0","21","1","1","3","1","","0","1","0","null","","","<img src = 'category2/GS1.png' width = '100%;'>","null","","","","","","","","","",""
"","html-keyboard-response","242","593668","0.0-12.0-2.13","9oyt0u1h1a","one_one","1","direct_first","1","ll09af28","0","21","1","1","3","1","","0","1","0","null","","","<img src = 'targets/34.png' width = '100%;'>","null","","","","","","","","","",""
"","html-keyboard-response","243","594394","0.0-12.0-3.13","9oyt0u1h1a","one_one","1","direct_first","1","ll09af28","0","21","1","1","3","1","","0","1","0","724.3399997241795","","","<img src = 'targets/mask.png' width = '100%;'>","75","neg","GS","GSnew","2","category2/GS1.png","","targets/34.png","indirect","1","29"
"","html-keyboard-response","244","595911","0.0-12.0-0.14","9oyt0u1h1a","one_one","1","direct_first","1","ll09af28","0","21","1","1","3","1","","0","1","0","null","","","<div style=""font-size:60px;"">+</div>","null","","","","","","","","","",""
"","html-keyboard-response","245","596018","0.0-12.0-1.14","9oyt0u1h1a","one_one","1","direct_first","1","ll09af28","0","21","1","1","3","1","","0","1","0","null","","","<img src = 'category3/GS1.png' width = '100%;'>","null","","","","","","","","","",""
"","html-keyboard-response","246","596300","0.0-12.0-2.14","9oyt0u1h1a","one_one","1","direct_first","1","ll09af28","0","21","1","1","3","1","","0","1","0","null","","","<img src = 'targets/45.png' width = '100%;'>","null","","","","","","","","","",""
"","html-keyboard-response","247","596857","0.0-12.0-3.14","9oyt0u1h1a","one_one","1","direct_first","1","ll09af28","0","21","1","1","3","1","","0","1","0","555.970000103116","","","<img src = 'targets/mask.png' width = '100%;'>","75","pos","GS","GSnew","3","category3/GS1.png","","targets/45.png","indirect","1","30"
"","html-keyboard-response","248","598364","0.0-12.0-0.15","9oyt0u1h1a","one_one","1","direct_first","1","ll09af28","0","21","1","1","3","1","","0","1","0","null","","","<div style=""font-size:60px;"">+</div>","null","","","","","","","","","",""
"","html-keyboard-response","249","598466","0.0-12.0-1.15","9oyt0u1h1a","one_one","1","direct_first","1","ll09af28","0","21","1","1","3","1","","0","1","0","null","","","<img src = 'category2/GS2.png' width = '100%;'>","null","","","","","","","","","",""
"","html-keyboard-response","250","598741","0.0-12.0-2.15","9oyt0u1h1a","one_one","1","direct_first","1","ll09af28","0","21","1","1","3","1","","0","1","0","null","","","<img src = 'targets/11.png' width = '100%;'>","null","","","","","","","","","",""
"","html-keyboard-response","251","601860","0.0-12.0-3.15","9oyt0u1h1a","one_one","1","direct_first","1","ll09af28","0","21","1","1","3","1","","0","1","0","3115.989999845624","","","<img src = 'targets/mask.png' width = '100%;'>","68","neg","GS","GSnew","2","category2/GS2.png","","targets/11.png","indirect","0","31"
"","survey-html-form","252","607613","0.0-13.0","9oyt0u1h1a","one_one","1","direct_first","1","ll09af28","0","21","1","1","3","1","","0","1","0","5249.214999843389","","{}","","","","","","","","","","","",""
"","image-slider-response","253","612513","0.0-14.0-0.0","9oyt0u1h1a","one_one","1","direct_first","1","ll09af28","0","21","1","1","3","1","","0","1","0","3895.9399997256696","","","","","pos","All","all","4","category4/lin_all.png","-20","","all","",""
"","image-slider-response","254","616546","0.0-14.0-0.1","9oyt0u1h1a","one_one","1","direct_first","1","ll09af28","0","21","1","1","3","1","","0","1","0","4030.0400000996888","","","","","pos","All","all","3","category3/wang_all.png","74","","all","",""
"","image-slider-response","255","619444","0.0-14.0-0.2","9oyt0u1h1a","one_one","1","direct_first","1","ll09af28","0","21","1","1","3","1","","0","1","0","2894.489999860525","","","","","neg","All","all","1","category1/ma_all.png","-60","","all","",""
"","image-slider-response","256","622261","0.0-14.0-0.3","9oyt0u1h1a","one_one","1","direct_first","1","ll09af28","0","21","1","1","3","1","","0","1","0","2813.0600000731647","","","","","neg","All","all","2","category2/men_all.png","-15","","all","",""
"","survey-text","257","625444","0.0-15.0","9oyt0u1h1a","one_one","1","direct_first","1","ll09af28","0","21","1","1","3","1","","0","1","0","3173.655000049621","","{""comment"":""""}","","","","","","","","","","","",""
"","survey-html-form","258","642243","0.0-16.0","9oyt0u1h1a","one_one","1","direct_first","1","ll09af28","0","21","1","1","3","1","","0","1","0","16792.460000142455","","{""hinschauen"":""0"",""ablenkung"":""1"",""gewissenhaft"":""0""}","","","","","","","","","","","",""
