"success","trial_type","trial_index","time_elapsed","internal_node_id","subject","condition","condition_code","measure","measure_code","codeword","gender","age","education","chinese","fach","handedness","comment","hinschauen","ablenkung","gewissenhaft","rt","url","responses","stimulus","key_press","val","type","type_specific","category","cs_selected","target","indirect","task","nr_pres","response"
"true","fullscreen","0","7207","0.0-0.0","02a80kdxm7","many_one","0","indirect_first","0","de06im12","1","30","1","1","3","1","","0","1","0","","","","","","","","","","","","","","",""
"","external-html","1","26259","0.0-1.0","02a80kdxm7","many_one","0","indirect_first","0","de06im12","1","30","1","1","3","1","","0","1","0","18989","text/information.html","","","","","","","","","","","","",""
"","external-html","2","34196","0.0-2.0","02a80kdxm7","many_one","0","indirect_first","0","de06im12","1","30","1","1","3","1","","0","1","0","7855","text/consent.html","","","","","","","","","","","","",""
"","survey-html-form","3","89478","0.0-3.0","02a80kdxm7","many_one","0","indirect_first","0","de06im12","1","30","1","1","3","1","","0","1","0","55277","","{""codeword_enter"":""de06im12""}","","","","","","","","","","","",""
"","survey-html-form","4","106296","0.0-4.0","02a80kdxm7","many_one","0","indirect_first","0","de06im12","1","30","1","1","3","1","","0","1","0","16813","","{""age"":""30"",""education"":""1"",""subject"":""3"",""gender"":""1"",""handedness"":""1"",""chinese"":""1""}","","","","","","","","","","","",""
"","survey-html-form","5","112953","0.0-5.0","02a80kdxm7","many_one","0","indirect_first","0","de06im12","1","30","1","1","3","1","","0","1","0","6653","","{}","","","","","","","","","","","",""
"","html-keyboard-response","6","116959","0.0-6.0-0.0-0.0","02a80kdxm7","many_one","0","indirect_first","0","de06im12","1","30","1","1","3","1","","0","1","0","null","","","<div class = 'row'><div class = 'column'><img src = 'usneg/6838.bmp' width = '100%;'></div><div class = 'column'><img src = 'category1/CS10.png' width = '70%;'></div></div>","null","neg","CS","CS","1","category1/CS10.png","","","","",""
"","html-keyboard-response","7","119464","0.0-6.0-0.0-0.1","02a80kdxm7","many_one","0","indirect_first","0","de06im12","1","30","1","1","3","1","","0","1","0","null","","","<div class = 'row'><div class = 'column'><img src = 'usneg/9561.bmp' width = '100%;'></div><div class = 'column'><img src = 'category2/CS3.png' width = '70%;'></div></div>","null","neg","CS","CS","2","category2/CS3.png","","","","",""
"","html-keyboard-response","8","121966","0.0-6.0-0.0-0.2","02a80kdxm7","many_one","0","indirect_first","0","de06im12","1","30","1","1","3","1","","0","1","0","null","","","<div class = 'row'><div class = 'column'><img src = 'category2/CS4.png' width = '70%;'></div><div class = 'column'><img src = 'usneg/9280.bmp' width = '100%;'></div></div>","null","neg","CS","CS","2","category2/CS4.png","","","","",""
"","html-keyboard-response","9","124469","0.0-6.0-0.0-0.3","02a80kdxm7","many_one","0","indirect_first","0","de06im12","1","30","1","1","3","1","","0","1","0","null","","","<div class = 'row'><div class = 'column'><img src = 'uspos/5760.bmp' width = '100%;'></div><div class = 'column'><img src = 'category3/CS1.png' width = '70%;'></div></div>","null","pos","CS","CS","3","category3/CS1.png","","","","",""
"","html-keyboard-response","10","126972","0.0-6.0-0.0-0.4","02a80kdxm7","many_one","0","indirect_first","0","de06im12","1","30","1","1","3","1","","0","1","0","null","","","<div class = 'row'><div class = 'column'><img src = 'category1/CS8.png' width = '70%;'></div><div class = 'column'><img src = 'usneg/2141.bmp' width = '100%;'></div></div>","null","neg","CS","CS","1","category1/CS8.png","","","","",""
"","html-keyboard-response","11","129474","0.0-6.0-0.0-0.5","02a80kdxm7","many_one","0","indirect_first","0","de06im12","1","30","1","1","3","1","","0","1","0","null","","","<div class = 'row'><div class = 'column'><img src = 'usneg/2750.bmp' width = '100%;'></div><div class = 'column'><img src = 'category1/CS5.png' width = '70%;'></div></div>","null","neg","CS","CS","1","category1/CS5.png","","","","",""
"","html-keyboard-response","12","131976","0.0-6.0-0.0-0.6","02a80kdxm7","many_one","0","indirect_first","0","de06im12","1","30","1","1","3","1","","0","1","0","null","","","<div class = 'row'><div class = 'column'><img src = 'category4/CS1.png' width = '70%;'></div><div class = 'column'><img src = 'uspos/2900.2.bmp' width = '100%;'></div></div>","null","pos","CS","CS","4","category4/CS1.png","","","","",""
"","html-keyboard-response","13","134477","0.0-6.0-0.0-0.7","02a80kdxm7","many_one","0","indirect_first","0","de06im12","1","30","1","1","3","1","","0","1","0","null","","","<div class = 'row'><div class = 'column'><img src = 'uspos/1440.bmp' width = '100%;'></div><div class = 'column'><img src = 'category4/CS5.png' width = '70%;'></div></div>","null","pos","CS","CS","4","category4/CS5.png","","","","",""
"","html-keyboard-response","14","136979","0.0-6.0-0.0-0.8","02a80kdxm7","many_one","0","indirect_first","0","de06im12","1","30","1","1","3","1","","0","1","0","null","","","<div class = 'row'><div class = 'column'><img src = 'usneg/6570.1.bmp' width = '100%;'></div><div class = 'column'><img src = 'category2/CS5.png' width = '70%;'></div></div>","null","neg","CS","CS","2","category2/CS5.png","","","","",""
"","html-keyboard-response","15","139482","0.0-6.0-0.0-0.9","02a80kdxm7","many_one","0","indirect_first","0","de06im12","1","30","1","1","3","1","","0","1","0","null","","","<div class = 'row'><div class = 'column'><img src = 'category4/CS9.png' width = '70%;'></div><div class = 'column'><img src = 'uspos/1340.bmp' width = '100%;'></div></div>","null","pos","CS","CS","4","category4/CS9.png","","","","",""
"","html-keyboard-response","16","141983","0.0-6.0-0.0-0.10","02a80kdxm7","many_one","0","indirect_first","0","de06im12","1","30","1","1","3","1","","0","1","0","null","","","<div class = 'row'><div class = 'column'><img src = 'category3/CS5.png' width = '70%;'></div><div class = 'column'><img src = 'uspos/5621.bmp' width = '100%;'></div></div>","null","pos","CS","CS","3","category3/CS5.png","","","","",""
"","html-keyboard-response","17","144486","0.0-6.0-0.0-0.11","02a80kdxm7","many_one","0","indirect_first","0","de06im12","1","30","1","1","3","1","","0","1","0","null","","","<div class = 'row'><div class = 'column'><img src = 'uspos/8461.bmp' width = '100%;'></div><div class = 'column'><img src = 'category4/CS6.png' width = '70%;'></div></div>","null","pos","CS","CS","4","category4/CS6.png","","","","",""
"","html-keyboard-response","18","146989","0.0-6.0-0.0-0.12","02a80kdxm7","many_one","0","indirect_first","0","de06im12","1","30","1","1","3","1","","0","1","0","null","","","<div class = 'row'><div class = 'column'><img src = 'usneg/9584.bmp' width = '100%;'></div><div class = 'column'><img src = 'category1/CS6.png' width = '70%;'></div></div>","null","neg","CS","CS","1","category1/CS6.png","","","","",""
"","html-keyboard-response","19","149489","0.0-6.0-0.0-0.13","02a80kdxm7","many_one","0","indirect_first","0","de06im12","1","30","1","1","3","1","","0","1","0","null","","","<div class = 'row'><div class = 'column'><img src = 'usneg/9290.bmp' width = '100%;'></div><div class = 'column'><img src = 'category2/CS10.png' width = '70%;'></div></div>","null","neg","CS","CS","2","category2/CS10.png","","","","",""
"","html-keyboard-response","20","151991","0.0-6.0-0.0-0.14","02a80kdxm7","many_one","0","indirect_first","0","de06im12","1","30","1","1","3","1","","0","1","0","null","","","<div class = 'row'><div class = 'column'><img src = 'usneg/9050.bmp' width = '100%;'></div><div class = 'column'><img src = 'category1/CS7.png' width = '70%;'></div></div>","null","neg","CS","CS","1","category1/CS7.png","","","","",""
"","html-keyboard-response","21","154493","0.0-6.0-0.0-0.15","02a80kdxm7","many_one","0","indirect_first","0","de06im12","1","30","1","1","3","1","","0","1","0","null","","","<div class = 'row'><div class = 'column'><img src = 'category2/CS1.png' width = '70%;'></div><div class = 'column'><img src = 'usneg/3300.bmp' width = '100%;'></div></div>","null","neg","CS","CS","2","category2/CS1.png","","","","",""
"","html-keyboard-response","22","156995","0.0-6.0-0.0-0.16","02a80kdxm7","many_one","0","indirect_first","0","de06im12","1","30","1","1","3","1","","0","1","0","null","","","<div class = 'row'><div class = 'column'><img src = 'category3/CS9.png' width = '70%;'></div><div class = 'column'><img src = 'uspos/2165.bmp' width = '100%;'></div></div>","null","pos","CS","CS","3","category3/CS9.png","","","","",""
"","html-keyboard-response","23","159496","0.0-6.0-0.0-0.17","02a80kdxm7","many_one","0","indirect_first","0","de06im12","1","30","1","1","3","1","","0","1","0","null","","","<div class = 'row'><div class = 'column'><img src = 'category4/CS4.png' width = '70%;'></div><div class = 'column'><img src = 'uspos/2311.bmp' width = '100%;'></div></div>","null","pos","CS","CS","4","category4/CS4.png","","","","",""
"","html-keyboard-response","24","161997","0.0-6.0-0.0-0.18","02a80kdxm7","many_one","0","indirect_first","0","de06im12","1","30","1","1","3","1","","0","1","0","null","","","<div class = 'row'><div class = 'column'><img src = 'uspos/2040.bmp' width = '100%;'></div><div class = 'column'><img src = 'category3/CS3.png' width = '70%;'></div></div>","null","pos","CS","CS","3","category3/CS3.png","","","","",""
"","html-keyboard-response","25","164500","0.0-6.0-0.0-0.19","02a80kdxm7","many_one","0","indirect_first","0","de06im12","1","30","1","1","3","1","","0","1","0","null","","","<div class = 'row'><div class = 'column'><img src = 'uspos/5831.bmp' width = '100%;'></div><div class = 'column'><img src = 'category3/CS8.png' width = '70%;'></div></div>","null","pos","CS","CS","3","category3/CS8.png","","","","",""
"","survey-html-form","26","174518","0.0-6.0-1.0","02a80kdxm7","many_one","0","indirect_first","0","de06im12","1","30","1","1","3","1","","0","1","0","9519","","{}","","","","","","","","","","","",""
"","html-keyboard-response","27","178522","0.0-6.0-2.0-0.0","02a80kdxm7","many_one","0","indirect_first","0","de06im12","1","30","1","1","3","1","","0","1","0","null","","","<div class = 'row'><div class = 'column'><img src = 'usneg/6570.1.bmp' width = '100%;'></div><div class = 'column'><img src = 'category2/CS5.png' width = '70%;'></div></div>","null","neg","CS","CS","2","category2/CS5.png","","","","",""
"","html-keyboard-response","28","181024","0.0-6.0-2.0-0.1","02a80kdxm7","many_one","0","indirect_first","0","de06im12","1","30","1","1","3","1","","0","1","0","null","","","<div class = 'row'><div class = 'column'><img src = 'category4/CS4.png' width = '70%;'></div><div class = 'column'><img src = 'uspos/2311.bmp' width = '100%;'></div></div>","null","pos","CS","CS","4","category4/CS4.png","","","","",""
"","html-keyboard-response","29","183526","0.0-6.0-2.0-0.2","02a80kdxm7","many_one","0","indirect_first","0","de06im12","1","30","1","1","3","1","","0","1","0","null","","","<div class = 'row'><div class = 'column'><img src = 'usneg/9561.bmp' width = '100%;'></div><div class = 'column'><img src = 'category2/CS3.png' width = '70%;'></div></div>","null","neg","CS","CS","2","category2/CS3.png","","","","",""
"","html-keyboard-response","30","186028","0.0-6.0-2.0-0.3","02a80kdxm7","many_one","0","indirect_first","0","de06im12","1","30","1","1","3","1","","0","1","0","null","","","<div class = 'row'><div class = 'column'><img src = 'category2/CS4.png' width = '70%;'></div><div class = 'column'><img src = 'usneg/9280.bmp' width = '100%;'></div></div>","null","neg","CS","CS","2","category2/CS4.png","","","","",""
"","html-keyboard-response","31","188530","0.0-6.0-2.0-0.4","02a80kdxm7","many_one","0","indirect_first","0","de06im12","1","30","1","1","3","1","","0","1","0","null","","","<div class = 'row'><div class = 'column'><img src = 'category4/CS1.png' width = '70%;'></div><div class = 'column'><img src = 'uspos/2900.2.bmp' width = '100%;'></div></div>","null","pos","CS","CS","4","category4/CS1.png","","","","",""
"","html-keyboard-response","32","191032","0.0-6.0-2.0-0.5","02a80kdxm7","many_one","0","indirect_first","0","de06im12","1","30","1","1","3","1","","0","1","0","null","","","<div class = 'row'><div class = 'column'><img src = 'category3/CS1.png' width = '70%;'></div><div class = 'column'><img src = 'uspos/5760.bmp' width = '100%;'></div></div>","null","pos","CS","CS","3","category3/CS1.png","","","","",""
"","html-keyboard-response","33","193533","0.0-6.0-2.0-0.6","02a80kdxm7","many_one","0","indirect_first","0","de06im12","1","30","1","1","3","1","","0","1","0","null","","","<div class = 'row'><div class = 'column'><img src = 'usneg/9290.bmp' width = '100%;'></div><div class = 'column'><img src = 'category2/CS10.png' width = '70%;'></div></div>","null","neg","CS","CS","2","category2/CS10.png","","","","",""
"","html-keyboard-response","34","196035","0.0-6.0-2.0-0.7","02a80kdxm7","many_one","0","indirect_first","0","de06im12","1","30","1","1","3","1","","0","1","0","null","","","<div class = 'row'><div class = 'column'><img src = 'uspos/1440.bmp' width = '100%;'></div><div class = 'column'><img src = 'category4/CS5.png' width = '70%;'></div></div>","null","pos","CS","CS","4","category4/CS5.png","","","","",""
"","html-keyboard-response","35","198537","0.0-6.0-2.0-0.8","02a80kdxm7","many_one","0","indirect_first","0","de06im12","1","30","1","1","3","1","","0","1","0","null","","","<div class = 'row'><div class = 'column'><img src = 'category1/CS5.png' width = '70%;'></div><div class = 'column'><img src = 'usneg/2750.bmp' width = '100%;'></div></div>","null","neg","CS","CS","1","category1/CS5.png","","","","",""
"","html-keyboard-response","36","201039","0.0-6.0-2.0-0.9","02a80kdxm7","many_one","0","indirect_first","0","de06im12","1","30","1","1","3","1","","0","1","0","null","","","<div class = 'row'><div class = 'column'><img src = 'usneg/9584.bmp' width = '100%;'></div><div class = 'column'><img src = 'category1/CS6.png' width = '70%;'></div></div>","null","neg","CS","CS","1","category1/CS6.png","","","","",""
"","html-keyboard-response","37","203541","0.0-6.0-2.0-0.10","02a80kdxm7","many_one","0","indirect_first","0","de06im12","1","30","1","1","3","1","","0","1","0","null","","","<div class = 'row'><div class = 'column'><img src = 'category3/CS5.png' width = '70%;'></div><div class = 'column'><img src = 'uspos/5621.bmp' width = '100%;'></div></div>","null","pos","CS","CS","3","category3/CS5.png","","","","",""
"","html-keyboard-response","38","206042","0.0-6.0-2.0-0.11","02a80kdxm7","many_one","0","indirect_first","0","de06im12","1","30","1","1","3","1","","0","1","0","null","","","<div class = 'row'><div class = 'column'><img src = 'usneg/3300.bmp' width = '100%;'></div><div class = 'column'><img src = 'category2/CS1.png' width = '70%;'></div></div>","null","neg","CS","CS","2","category2/CS1.png","","","","",""
"","html-keyboard-response","39","208544","0.0-6.0-2.0-0.12","02a80kdxm7","many_one","0","indirect_first","0","de06im12","1","30","1","1","3","1","","0","1","0","null","","","<div class = 'row'><div class = 'column'><img src = 'category3/CS8.png' width = '70%;'></div><div class = 'column'><img src = 'uspos/5831.bmp' width = '100%;'></div></div>","null","pos","CS","CS","3","category3/CS8.png","","","","",""
"","html-keyboard-response","40","211046","0.0-6.0-2.0-0.13","02a80kdxm7","many_one","0","indirect_first","0","de06im12","1","30","1","1","3","1","","0","1","0","null","","","<div class = 'row'><div class = 'column'><img src = 'category1/CS7.png' width = '70%;'></div><div class = 'column'><img src = 'usneg/9050.bmp' width = '100%;'></div></div>","null","neg","CS","CS","1","category1/CS7.png","","","","",""
"","html-keyboard-response","41","213548","0.0-6.0-2.0-0.14","02a80kdxm7","many_one","0","indirect_first","0","de06im12","1","30","1","1","3","1","","0","1","0","null","","","<div class = 'row'><div class = 'column'><img src = 'uspos/1340.bmp' width = '100%;'></div><div class = 'column'><img src = 'category4/CS9.png' width = '70%;'></div></div>","null","pos","CS","CS","4","category4/CS9.png","","","","",""
"","html-keyboard-response","42","216050","0.0-6.0-2.0-0.15","02a80kdxm7","many_one","0","indirect_first","0","de06im12","1","30","1","1","3","1","","0","1","0","null","","","<div class = 'row'><div class = 'column'><img src = 'category1/CS10.png' width = '70%;'></div><div class = 'column'><img src = 'usneg/6838.bmp' width = '100%;'></div></div>","null","neg","CS","CS","1","category1/CS10.png","","","","",""
"","html-keyboard-response","43","218552","0.0-6.0-2.0-0.16","02a80kdxm7","many_one","0","indirect_first","0","de06im12","1","30","1","1","3","1","","0","1","0","null","","","<div class = 'row'><div class = 'column'><img src = 'category3/CS3.png' width = '70%;'></div><div class = 'column'><img src = 'uspos/2040.bmp' width = '100%;'></div></div>","null","pos","CS","CS","3","category3/CS3.png","","","","",""
"","html-keyboard-response","44","221054","0.0-6.0-2.0-0.17","02a80kdxm7","many_one","0","indirect_first","0","de06im12","1","30","1","1","3","1","","0","1","0","null","","","<div class = 'row'><div class = 'column'><img src = 'category1/CS8.png' width = '70%;'></div><div class = 'column'><img src = 'usneg/2141.bmp' width = '100%;'></div></div>","null","neg","CS","CS","1","category1/CS8.png","","","","",""
"","html-keyboard-response","45","223556","0.0-6.0-2.0-0.18","02a80kdxm7","many_one","0","indirect_first","0","de06im12","1","30","1","1","3","1","","0","1","0","null","","","<div class = 'row'><div class = 'column'><img src = 'uspos/2165.bmp' width = '100%;'></div><div class = 'column'><img src = 'category3/CS9.png' width = '70%;'></div></div>","null","pos","CS","CS","3","category3/CS9.png","","","","",""
"","html-keyboard-response","46","226058","0.0-6.0-2.0-0.19","02a80kdxm7","many_one","0","indirect_first","0","de06im12","1","30","1","1","3","1","","0","1","0","null","","","<div class = 'row'><div class = 'column'><img src = 'uspos/8461.bmp' width = '100%;'></div><div class = 'column'><img src = 'category4/CS6.png' width = '70%;'></div></div>","null","pos","CS","CS","4","category4/CS6.png","","","","",""
"","survey-html-form","47","232541","0.0-6.0-3.0","02a80kdxm7","many_one","0","indirect_first","0","de06im12","1","30","1","1","3","1","","0","1","0","5983","","{}","","","","","","","","","","","",""
"","html-keyboard-response","48","236543","0.0-6.0-4.0-0.0","02a80kdxm7","many_one","0","indirect_first","0","de06im12","1","30","1","1","3","1","","0","1","0","null","","","<div class = 'row'><div class = 'column'><img src = 'category3/CS5.png' width = '70%;'></div><div class = 'column'><img src = 'uspos/5621.bmp' width = '100%;'></div></div>","null","pos","CS","CS","3","category3/CS5.png","","","","",""
"","html-keyboard-response","49","239045","0.0-6.0-4.0-0.1","02a80kdxm7","many_one","0","indirect_first","0","de06im12","1","30","1","1","3","1","","0","1","0","null","","","<div class = 'row'><div class = 'column'><img src = 'category1/CS6.png' width = '70%;'></div><div class = 'column'><img src = 'usneg/9584.bmp' width = '100%;'></div></div>","null","neg","CS","CS","1","category1/CS6.png","","","","",""
"","html-keyboard-response","50","241546","0.0-6.0-4.0-0.2","02a80kdxm7","many_one","0","indirect_first","0","de06im12","1","30","1","1","3","1","","0","1","0","null","","","<div class = 'row'><div class = 'column'><img src = 'category2/CS1.png' width = '70%;'></div><div class = 'column'><img src = 'usneg/3300.bmp' width = '100%;'></div></div>","null","neg","CS","CS","2","category2/CS1.png","","","","",""
"","html-keyboard-response","51","244049","0.0-6.0-4.0-0.3","02a80kdxm7","many_one","0","indirect_first","0","de06im12","1","30","1","1","3","1","","0","1","0","null","","","<div class = 'row'><div class = 'column'><img src = 'uspos/2040.bmp' width = '100%;'></div><div class = 'column'><img src = 'category3/CS3.png' width = '70%;'></div></div>","null","pos","CS","CS","3","category3/CS3.png","","","","",""
"","html-keyboard-response","52","246551","0.0-6.0-4.0-0.4","02a80kdxm7","many_one","0","indirect_first","0","de06im12","1","30","1","1","3","1","","0","1","0","null","","","<div class = 'row'><div class = 'column'><img src = 'category1/CS8.png' width = '70%;'></div><div class = 'column'><img src = 'usneg/2141.bmp' width = '100%;'></div></div>","null","neg","CS","CS","1","category1/CS8.png","","","","",""
"","html-keyboard-response","53","249052","0.0-6.0-4.0-0.5","02a80kdxm7","many_one","0","indirect_first","0","de06im12","1","30","1","1","3","1","","0","1","0","null","","","<div class = 'row'><div class = 'column'><img src = 'usneg/9561.bmp' width = '100%;'></div><div class = 'column'><img src = 'category2/CS3.png' width = '70%;'></div></div>","null","neg","CS","CS","2","category2/CS3.png","","","","",""
"","html-keyboard-response","54","251554","0.0-6.0-4.0-0.6","02a80kdxm7","many_one","0","indirect_first","0","de06im12","1","30","1","1","3","1","","0","1","0","null","","","<div class = 'row'><div class = 'column'><img src = 'uspos/2165.bmp' width = '100%;'></div><div class = 'column'><img src = 'category3/CS9.png' width = '70%;'></div></div>","null","pos","CS","CS","3","category3/CS9.png","","","","",""
"","html-keyboard-response","55","254056","0.0-6.0-4.0-0.7","02a80kdxm7","many_one","0","indirect_first","0","de06im12","1","30","1","1","3","1","","0","1","0","null","","","<div class = 'row'><div class = 'column'><img src = 'category2/CS5.png' width = '70%;'></div><div class = 'column'><img src = 'usneg/6570.1.bmp' width = '100%;'></div></div>","null","neg","CS","CS","2","category2/CS5.png","","","","",""
"","html-keyboard-response","56","256558","0.0-6.0-4.0-0.8","02a80kdxm7","many_one","0","indirect_first","0","de06im12","1","30","1","1","3","1","","0","1","0","null","","","<div class = 'row'><div class = 'column'><img src = 'uspos/2900.2.bmp' width = '100%;'></div><div class = 'column'><img src = 'category4/CS1.png' width = '70%;'></div></div>","null","pos","CS","CS","4","category4/CS1.png","","","","",""
"","html-keyboard-response","57","259059","0.0-6.0-4.0-0.9","02a80kdxm7","many_one","0","indirect_first","0","de06im12","1","30","1","1","3","1","","0","1","0","null","","","<div class = 'row'><div class = 'column'><img src = 'usneg/6838.bmp' width = '100%;'></div><div class = 'column'><img src = 'category1/CS10.png' width = '70%;'></div></div>","null","neg","CS","CS","1","category1/CS10.png","","","","",""
"","html-keyboard-response","58","261561","0.0-6.0-4.0-0.10","02a80kdxm7","many_one","0","indirect_first","0","de06im12","1","30","1","1","3","1","","0","1","0","null","","","<div class = 'row'><div class = 'column'><img src = 'usneg/9290.bmp' width = '100%;'></div><div class = 'column'><img src = 'category2/CS10.png' width = '70%;'></div></div>","null","neg","CS","CS","2","category2/CS10.png","","","","",""
"","html-keyboard-response","59","264064","0.0-6.0-4.0-0.11","02a80kdxm7","many_one","0","indirect_first","0","de06im12","1","30","1","1","3","1","","0","1","0","null","","","<div class = 'row'><div class = 'column'><img src = 'usneg/9050.bmp' width = '100%;'></div><div class = 'column'><img src = 'category1/CS7.png' width = '70%;'></div></div>","null","neg","CS","CS","1","category1/CS7.png","","","","",""
"","html-keyboard-response","60","266565","0.0-6.0-4.0-0.12","02a80kdxm7","many_one","0","indirect_first","0","de06im12","1","30","1","1","3","1","","0","1","0","null","","","<div class = 'row'><div class = 'column'><img src = 'category4/CS6.png' width = '70%;'></div><div class = 'column'><img src = 'uspos/8461.bmp' width = '100%;'></div></div>","null","pos","CS","CS","4","category4/CS6.png","","","","",""
"","html-keyboard-response","61","269067","0.0-6.0-4.0-0.13","02a80kdxm7","many_one","0","indirect_first","0","de06im12","1","30","1","1","3","1","","0","1","0","null","","","<div class = 'row'><div class = 'column'><img src = 'category3/CS1.png' width = '70%;'></div><div class = 'column'><img src = 'uspos/5760.bmp' width = '100%;'></div></div>","null","pos","CS","CS","3","category3/CS1.png","","","","",""
"","html-keyboard-response","62","271568","0.0-6.0-4.0-0.14","02a80kdxm7","many_one","0","indirect_first","0","de06im12","1","30","1","1","3","1","","0","1","0","null","","","<div class = 'row'><div class = 'column'><img src = 'usneg/2750.bmp' width = '100%;'></div><div class = 'column'><img src = 'category1/CS5.png' width = '70%;'></div></div>","null","neg","CS","CS","1","category1/CS5.png","","","","",""
"","html-keyboard-response","63","274070","0.0-6.0-4.0-0.15","02a80kdxm7","many_one","0","indirect_first","0","de06im12","1","30","1","1","3","1","","0","1","0","null","","","<div class = 'row'><div class = 'column'><img src = 'uspos/1340.bmp' width = '100%;'></div><div class = 'column'><img src = 'category4/CS9.png' width = '70%;'></div></div>","null","pos","CS","CS","4","category4/CS9.png","","","","",""
"","html-keyboard-response","64","276572","0.0-6.0-4.0-0.16","02a80kdxm7","many_one","0","indirect_first","0","de06im12","1","30","1","1","3","1","","0","1","0","null","","","<div class = 'row'><div class = 'column'><img src = 'category4/CS5.png' width = '70%;'></div><div class = 'column'><img src = 'uspos/1440.bmp' width = '100%;'></div></div>","null","pos","CS","CS","4","category4/CS5.png","","","","",""
"","html-keyboard-response","65","279074","0.0-6.0-4.0-0.17","02a80kdxm7","many_one","0","indirect_first","0","de06im12","1","30","1","1","3","1","","0","1","0","null","","","<div class = 'row'><div class = 'column'><img src = 'usneg/9280.bmp' width = '100%;'></div><div class = 'column'><img src = 'category2/CS4.png' width = '70%;'></div></div>","null","neg","CS","CS","2","category2/CS4.png","","","","",""
"","html-keyboard-response","66","281576","0.0-6.0-4.0-0.18","02a80kdxm7","many_one","0","indirect_first","0","de06im12","1","30","1","1","3","1","","0","1","0","null","","","<div class = 'row'><div class = 'column'><img src = 'category3/CS8.png' width = '70%;'></div><div class = 'column'><img src = 'uspos/5831.bmp' width = '100%;'></div></div>","null","pos","CS","CS","3","category3/CS8.png","","","","",""
"","html-keyboard-response","67","284078","0.0-6.0-4.0-0.19","02a80kdxm7","many_one","0","indirect_first","0","de06im12","1","30","1","1","3","1","","0","1","0","null","","","<div class = 'row'><div class = 'column'><img src = 'uspos/2311.bmp' width = '100%;'></div><div class = 'column'><img src = 'category4/CS4.png' width = '70%;'></div></div>","null","pos","CS","CS","4","category4/CS4.png","","","","",""
"","survey-html-form","68","289629","0.0-6.0-5.0","02a80kdxm7","many_one","0","indirect_first","0","de06im12","1","30","1","1","3","1","","0","1","0","5050","","{}","","","","","","","","","","","",""
"","html-keyboard-response","69","293632","0.0-6.0-6.0-0.0","02a80kdxm7","many_one","0","indirect_first","0","de06im12","1","30","1","1","3","1","","0","1","0","null","","","<div class = 'row'><div class = 'column'><img src = 'category3/CS3.png' width = '70%;'></div><div class = 'column'><img src = 'uspos/2040.bmp' width = '100%;'></div></div>","null","pos","CS","CS","3","category3/CS3.png","","","","",""
"","html-keyboard-response","70","296135","0.0-6.0-6.0-0.1","02a80kdxm7","many_one","0","indirect_first","0","de06im12","1","30","1","1","3","1","","0","1","0","null","","","<div class = 'row'><div class = 'column'><img src = 'category1/CS10.png' width = '70%;'></div><div class = 'column'><img src = 'usneg/6838.bmp' width = '100%;'></div></div>","null","neg","CS","CS","1","category1/CS10.png","","","","",""
"","html-keyboard-response","71","298636","0.0-6.0-6.0-0.2","02a80kdxm7","many_one","0","indirect_first","0","de06im12","1","30","1","1","3","1","","0","1","0","null","","","<div class = 'row'><div class = 'column'><img src = 'uspos/2311.bmp' width = '100%;'></div><div class = 'column'><img src = 'category4/CS4.png' width = '70%;'></div></div>","null","pos","CS","CS","4","category4/CS4.png","","","","",""
"","html-keyboard-response","72","301138","0.0-6.0-6.0-0.3","02a80kdxm7","many_one","0","indirect_first","0","de06im12","1","30","1","1","3","1","","0","1","0","null","","","<div class = 'row'><div class = 'column'><img src = 'usneg/9280.bmp' width = '100%;'></div><div class = 'column'><img src = 'category2/CS4.png' width = '70%;'></div></div>","null","neg","CS","CS","2","category2/CS4.png","","","","",""
"","html-keyboard-response","73","303640","0.0-6.0-6.0-0.4","02a80kdxm7","many_one","0","indirect_first","0","de06im12","1","30","1","1","3","1","","0","1","0","null","","","<div class = 'row'><div class = 'column'><img src = 'category1/CS7.png' width = '70%;'></div><div class = 'column'><img src = 'usneg/9050.bmp' width = '100%;'></div></div>","null","neg","CS","CS","1","category1/CS7.png","","","","",""
"","html-keyboard-response","74","306142","0.0-6.0-6.0-0.5","02a80kdxm7","many_one","0","indirect_first","0","de06im12","1","30","1","1","3","1","","0","1","0","null","","","<div class = 'row'><div class = 'column'><img src = 'usneg/9290.bmp' width = '100%;'></div><div class = 'column'><img src = 'category2/CS10.png' width = '70%;'></div></div>","null","neg","CS","CS","2","category2/CS10.png","","","","",""
"","html-keyboard-response","75","308644","0.0-6.0-6.0-0.6","02a80kdxm7","many_one","0","indirect_first","0","de06im12","1","30","1","1","3","1","","0","1","0","null","","","<div class = 'row'><div class = 'column'><img src = 'category3/CS1.png' width = '70%;'></div><div class = 'column'><img src = 'uspos/5760.bmp' width = '100%;'></div></div>","null","pos","CS","CS","3","category3/CS1.png","","","","",""
"","html-keyboard-response","76","311145","0.0-6.0-6.0-0.7","02a80kdxm7","many_one","0","indirect_first","0","de06im12","1","30","1","1","3","1","","0","1","0","null","","","<div class = 'row'><div class = 'column'><img src = 'category4/CS5.png' width = '70%;'></div><div class = 'column'><img src = 'uspos/1440.bmp' width = '100%;'></div></div>","null","pos","CS","CS","4","category4/CS5.png","","","","",""
"","html-keyboard-response","77","313647","0.0-6.0-6.0-0.8","02a80kdxm7","many_one","0","indirect_first","0","de06im12","1","30","1","1","3","1","","0","1","0","null","","","<div class = 'row'><div class = 'column'><img src = 'uspos/1340.bmp' width = '100%;'></div><div class = 'column'><img src = 'category4/CS9.png' width = '70%;'></div></div>","null","pos","CS","CS","4","category4/CS9.png","","","","",""
"","html-keyboard-response","78","316149","0.0-6.0-6.0-0.9","02a80kdxm7","many_one","0","indirect_first","0","de06im12","1","30","1","1","3","1","","0","1","0","null","","","<div class = 'row'><div class = 'column'><img src = 'category2/CS1.png' width = '70%;'></div><div class = 'column'><img src = 'usneg/3300.bmp' width = '100%;'></div></div>","null","neg","CS","CS","2","category2/CS1.png","","","","",""
"","html-keyboard-response","79","318650","0.0-6.0-6.0-0.10","02a80kdxm7","many_one","0","indirect_first","0","de06im12","1","30","1","1","3","1","","0","1","0","null","","","<div class = 'row'><div class = 'column'><img src = 'usneg/2750.bmp' width = '100%;'></div><div class = 'column'><img src = 'category1/CS5.png' width = '70%;'></div></div>","null","neg","CS","CS","1","category1/CS5.png","","","","",""
"","html-keyboard-response","80","321152","0.0-6.0-6.0-0.11","02a80kdxm7","many_one","0","indirect_first","0","de06im12","1","30","1","1","3","1","","0","1","0","null","","","<div class = 'row'><div class = 'column'><img src = 'category2/CS3.png' width = '70%;'></div><div class = 'column'><img src = 'usneg/9561.bmp' width = '100%;'></div></div>","null","neg","CS","CS","2","category2/CS3.png","","","","",""
"","html-keyboard-response","81","323655","0.0-6.0-6.0-0.12","02a80kdxm7","many_one","0","indirect_first","0","de06im12","1","30","1","1","3","1","","0","1","0","null","","","<div class = 'row'><div class = 'column'><img src = 'uspos/8461.bmp' width = '100%;'></div><div class = 'column'><img src = 'category4/CS6.png' width = '70%;'></div></div>","null","pos","CS","CS","4","category4/CS6.png","","","","",""
"","html-keyboard-response","82","326156","0.0-6.0-6.0-0.13","02a80kdxm7","many_one","0","indirect_first","0","de06im12","1","30","1","1","3","1","","0","1","0","null","","","<div class = 'row'><div class = 'column'><img src = 'usneg/6570.1.bmp' width = '100%;'></div><div class = 'column'><img src = 'category2/CS5.png' width = '70%;'></div></div>","null","neg","CS","CS","2","category2/CS5.png","","","","",""
"","html-keyboard-response","83","328658","0.0-6.0-6.0-0.14","02a80kdxm7","many_one","0","indirect_first","0","de06im12","1","30","1","1","3","1","","0","1","0","null","","","<div class = 'row'><div class = 'column'><img src = 'category4/CS1.png' width = '70%;'></div><div class = 'column'><img src = 'uspos/2900.2.bmp' width = '100%;'></div></div>","null","pos","CS","CS","4","category4/CS1.png","","","","",""
"","html-keyboard-response","84","331161","0.0-6.0-6.0-0.15","02a80kdxm7","many_one","0","indirect_first","0","de06im12","1","30","1","1","3","1","","0","1","0","null","","","<div class = 'row'><div class = 'column'><img src = 'uspos/5621.bmp' width = '100%;'></div><div class = 'column'><img src = 'category3/CS5.png' width = '70%;'></div></div>","null","pos","CS","CS","3","category3/CS5.png","","","","",""
"","html-keyboard-response","85","333662","0.0-6.0-6.0-0.16","02a80kdxm7","many_one","0","indirect_first","0","de06im12","1","30","1","1","3","1","","0","1","0","null","","","<div class = 'row'><div class = 'column'><img src = 'category1/CS6.png' width = '70%;'></div><div class = 'column'><img src = 'usneg/9584.bmp' width = '100%;'></div></div>","null","neg","CS","CS","1","category1/CS6.png","","","","",""
"","html-keyboard-response","86","336164","0.0-6.0-6.0-0.17","02a80kdxm7","many_one","0","indirect_first","0","de06im12","1","30","1","1","3","1","","0","1","0","null","","","<div class = 'row'><div class = 'column'><img src = 'category3/CS8.png' width = '70%;'></div><div class = 'column'><img src = 'uspos/5831.bmp' width = '100%;'></div></div>","null","pos","CS","CS","3","category3/CS8.png","","","","",""
"","html-keyboard-response","87","338666","0.0-6.0-6.0-0.18","02a80kdxm7","many_one","0","indirect_first","0","de06im12","1","30","1","1","3","1","","0","1","0","null","","","<div class = 'row'><div class = 'column'><img src = 'category3/CS9.png' width = '70%;'></div><div class = 'column'><img src = 'uspos/2165.bmp' width = '100%;'></div></div>","null","pos","CS","CS","3","category3/CS9.png","","","","",""
"","html-keyboard-response","88","341167","0.0-6.0-6.0-0.19","02a80kdxm7","many_one","0","indirect_first","0","de06im12","1","30","1","1","3","1","","0","1","0","null","","","<div class = 'row'><div class = 'column'><img src = 'usneg/2141.bmp' width = '100%;'></div><div class = 'column'><img src = 'category1/CS8.png' width = '70%;'></div></div>","null","neg","CS","CS","1","category1/CS8.png","","","","",""
"","html-keyboard-response","89","362485","0.0-7.0","02a80kdxm7","many_one","0","indirect_first","0","de06im12","1","30","1","1","3","1","","0","1","0","20815","","","<p>Sie sehen nun die chinesischen Zeichen nur ganz kurz. Danach sehen Sie die jeweilige Aussprache der Zeichen als Silbe auf dem Bildschrim. Ihre Aufgabe ist es, für jede Silbe anzugeben, ob diese etwas angenehmes, oder unangenehmes bedeuten könnte. Verlassen Sie sich hier vor allem auf Ihre Intuition.<br><br>Die Zeichen werden nur zur Orientierung dargestellt, beachten Sie sie deshalb nicht. Konzentrieren Sie sich vor allem auf die Silben. <br>Reagieren Sie mit folgenden zwei Tasten: <br><br><b>'D' </b> wenn die Silbe etwas <b>unangenehmes</b> bedeuten könnte. <br><b>'K'</b> wenn die Silbe etwas <b>angenehmes</b> bedeuten könnte. <br><br>Bitte legen Sie nun den Zeigefinger der linken Hand auf die Taste 'D' und den Zeigefinger der rechten Hand auf die Taste 'K'. <br>Reagieren Sie auf jede Silbe so schnell wie möglich. Uns interessiert Ihre spontane Reaktion. <br> <br> <br>Drücken Sie 'D' oder 'K', um die nächste Aufgabe zu starten. </p>","68","","","","","","","","","",""
"","html-keyboard-response","90","365486","0.0-8.0-0.0","02a80kdxm7","many_one","0","indirect_first","0","de06im12","1","30","1","1","3","1","","0","1","0","null","","","<div style=""font-size:60px;"">+</div>","null","","","","","","","","","",""
"","html-keyboard-response","91","365577","0.0-8.0-1.0","02a80kdxm7","many_one","0","indirect_first","0","de06im12","1","30","1","1","3","1","","0","1","0","null","","","<img src = 'category3/CS3.png' width = '100%;'>","null","","","","","","","","","",""
"","html-keyboard-response","92","365829","0.0-8.0-2.0","02a80kdxm7","many_one","0","indirect_first","0","de06im12","1","30","1","1","3","1","","0","1","0","null","","","<img src = 'targets/45.png' width = '100%;'>","null","","","","","","","","","",""
"","html-keyboard-response","93","370172","0.0-8.0-3.0","02a80kdxm7","many_one","0","indirect_first","0","de06im12","1","30","1","1","3","1","","0","1","0","4341","","","<img src = 'targets/mask.png' width = '100%;'>","68","pos","CS","CS","3","category3/CS3.png","targets/45.png","0","indirect","0",""
"","html-keyboard-response","94","371674","0.0-8.0-0.1","02a80kdxm7","many_one","0","indirect_first","0","de06im12","1","30","1","1","3","1","","0","1","0","null","","","<div style=""font-size:60px;"">+</div>","null","","","","","","","","","",""
"","html-keyboard-response","95","371765","0.0-8.0-1.1","02a80kdxm7","many_one","0","indirect_first","0","de06im12","1","30","1","1","3","1","","0","1","0","null","","","<img src = 'category4/CS1.png' width = '100%;'>","null","","","","","","","","","",""
"","html-keyboard-response","96","372017","0.0-8.0-2.1","02a80kdxm7","many_one","0","indirect_first","0","de06im12","1","30","1","1","3","1","","0","1","0","null","","","<img src = 'targets/37.png' width = '100%;'>","null","","","","","","","","","",""
"","html-keyboard-response","97","377032","0.0-8.0-3.1","02a80kdxm7","many_one","0","indirect_first","0","de06im12","1","30","1","1","3","1","","0","1","0","5014","","","<img src = 'targets/mask.png' width = '100%;'>","75","pos","CS","CS","4","category4/CS1.png","targets/37.png","1","indirect","1",""
"","html-keyboard-response","98","378533","0.0-8.0-0.2","02a80kdxm7","many_one","0","indirect_first","0","de06im12","1","30","1","1","3","1","","0","1","0","null","","","<div style=""font-size:60px;"">+</div>","null","","","","","","","","","",""
"","html-keyboard-response","99","378624","0.0-8.0-1.2","02a80kdxm7","many_one","0","indirect_first","0","de06im12","1","30","1","1","3","1","","0","1","0","null","","","<img src = 'category4/CS4.png' width = '100%;'>","null","","","","","","","","","",""
"","html-keyboard-response","100","378876","0.0-8.0-2.2","02a80kdxm7","many_one","0","indirect_first","0","de06im12","1","30","1","1","3","1","","0","1","0","null","","","<img src = 'targets/23.png' width = '100%;'>","null","","","","","","","","","",""
"","html-keyboard-response","101","380775","0.0-8.0-3.2","02a80kdxm7","many_one","0","indirect_first","0","de06im12","1","30","1","1","3","1","","0","1","0","1898","","","<img src = 'targets/mask.png' width = '100%;'>","68","pos","CS","CS","4","category4/CS4.png","targets/23.png","0","indirect","2",""
"","html-keyboard-response","102","382277","0.0-8.0-0.3","02a80kdxm7","many_one","0","indirect_first","0","de06im12","1","30","1","1","3","1","","0","1","0","null","","","<div style=""font-size:60px;"">+</div>","null","","","","","","","","","",""
"","html-keyboard-response","103","382368","0.0-8.0-1.3","02a80kdxm7","many_one","0","indirect_first","0","de06im12","1","30","1","1","3","1","","0","1","0","null","","","<img src = 'category3/CS9.png' width = '100%;'>","null","","","","","","","","","",""
"","html-keyboard-response","104","382619","0.0-8.0-2.3","02a80kdxm7","many_one","0","indirect_first","0","de06im12","1","30","1","1","3","1","","0","1","0","null","","","<img src = 'targets/29.png' width = '100%;'>","null","","","","","","","","","",""
"","html-keyboard-response","105","383879","0.0-8.0-3.3","02a80kdxm7","many_one","0","indirect_first","0","de06im12","1","30","1","1","3","1","","0","1","0","1259","","","<img src = 'targets/mask.png' width = '100%;'>","75","pos","CS","CS","3","category3/CS9.png","targets/29.png","1","indirect","3",""
"","html-keyboard-response","106","385381","0.0-8.0-0.4","02a80kdxm7","many_one","0","indirect_first","0","de06im12","1","30","1","1","3","1","","0","1","0","null","","","<div style=""font-size:60px;"">+</div>","null","","","","","","","","","",""
"","html-keyboard-response","107","385471","0.0-8.0-1.4","02a80kdxm7","many_one","0","indirect_first","0","de06im12","1","30","1","1","3","1","","0","1","0","null","","","<img src = 'category3/CS2.png' width = '100%;'>","null","","","","","","","","","",""
"","html-keyboard-response","108","385723","0.0-8.0-2.4","02a80kdxm7","many_one","0","indirect_first","0","de06im12","1","30","1","1","3","1","","0","1","0","null","","","<img src = 'targets/22.png' width = '100%;'>","null","","","","","","","","","",""
"","html-keyboard-response","109","387063","0.0-8.0-3.4","02a80kdxm7","many_one","0","indirect_first","0","de06im12","1","30","1","1","3","1","","0","1","0","1339","","","<img src = 'targets/mask.png' width = '100%;'>","75","pos","GS","GSold","3","category3/CS2.png","targets/22.png","1","indirect","4",""
"","html-keyboard-response","110","388564","0.0-8.0-0.5","02a80kdxm7","many_one","0","indirect_first","0","de06im12","1","30","1","1","3","1","","0","1","0","null","","","<div style=""font-size:60px;"">+</div>","null","","","","","","","","","",""
"","html-keyboard-response","111","388655","0.0-8.0-1.5","02a80kdxm7","many_one","0","indirect_first","0","de06im12","1","30","1","1","3","1","","0","1","0","null","","","<img src = 'category2/CS1.png' width = '100%;'>","null","","","","","","","","","",""
"","html-keyboard-response","112","388907","0.0-8.0-2.5","02a80kdxm7","many_one","0","indirect_first","0","de06im12","1","30","1","1","3","1","","0","1","0","null","","","<img src = 'targets/17.png' width = '100%;'>","null","","","","","","","","","",""
"","html-keyboard-response","113","391054","0.0-8.0-3.5","02a80kdxm7","many_one","0","indirect_first","0","de06im12","1","30","1","1","3","1","","0","1","0","2147","","","<img src = 'targets/mask.png' width = '100%;'>","68","neg","CS","CS","2","category2/CS1.png","targets/17.png","0","indirect","5",""
"","html-keyboard-response","114","392556","0.0-8.0-0.6","02a80kdxm7","many_one","0","indirect_first","0","de06im12","1","30","1","1","3","1","","0","1","0","null","","","<div style=""font-size:60px;"">+</div>","null","","","","","","","","","",""
"","html-keyboard-response","115","392647","0.0-8.0-1.6","02a80kdxm7","many_one","0","indirect_first","0","de06im12","1","30","1","1","3","1","","0","1","0","null","","","<img src = 'category1/CS6.png' width = '100%;'>","null","","","","","","","","","",""
"","html-keyboard-response","116","392899","0.0-8.0-2.6","02a80kdxm7","many_one","0","indirect_first","0","de06im12","1","30","1","1","3","1","","0","1","0","null","","","<img src = 'targets/42.png' width = '100%;'>","null","","","","","","","","","",""
"","html-keyboard-response","117","394358","0.0-8.0-3.6","02a80kdxm7","many_one","0","indirect_first","0","de06im12","1","30","1","1","3","1","","0","1","0","1459","","","<img src = 'targets/mask.png' width = '100%;'>","75","neg","CS","CS","1","category1/CS6.png","targets/42.png","1","indirect","6",""
"","html-keyboard-response","118","395860","0.0-8.0-0.7","02a80kdxm7","many_one","0","indirect_first","0","de06im12","1","30","1","1","3","1","","0","1","0","null","","","<div style=""font-size:60px;"">+</div>","null","","","","","","","","","",""
"","html-keyboard-response","119","395951","0.0-8.0-1.7","02a80kdxm7","many_one","0","indirect_first","0","de06im12","1","30","1","1","3","1","","0","1","0","null","","","<img src = 'category4/CS9.png' width = '100%;'>","null","","","","","","","","","",""
"","html-keyboard-response","120","396203","0.0-8.0-2.7","02a80kdxm7","many_one","0","indirect_first","0","de06im12","1","30","1","1","3","1","","0","1","0","null","","","<img src = 'targets/47.png' width = '100%;'>","null","","","","","","","","","",""
"","html-keyboard-response","121","397107","0.0-8.0-3.7","02a80kdxm7","many_one","0","indirect_first","0","de06im12","1","30","1","1","3","1","","0","1","0","902","","","<img src = 'targets/mask.png' width = '100%;'>","75","pos","CS","CS","4","category4/CS9.png","targets/47.png","1","indirect","7",""
"","html-keyboard-response","122","398608","0.0-8.0-0.8","02a80kdxm7","many_one","0","indirect_first","0","de06im12","1","30","1","1","3","1","","0","1","0","null","","","<div style=""font-size:60px;"">+</div>","null","","","","","","","","","",""
"","html-keyboard-response","123","398700","0.0-8.0-1.8","02a80kdxm7","many_one","0","indirect_first","0","de06im12","1","30","1","1","3","1","","0","1","0","null","","","<img src = 'category4/CS6.png' width = '100%;'>","null","","","","","","","","","",""
"","html-keyboard-response","124","398951","0.0-8.0-2.8","02a80kdxm7","many_one","0","indirect_first","0","de06im12","1","30","1","1","3","1","","0","1","0","null","","","<img src = 'targets/36.png' width = '100%;'>","null","","","","","","","","","",""
"","html-keyboard-response","125","402011","0.0-8.0-3.8","02a80kdxm7","many_one","0","indirect_first","0","de06im12","1","30","1","1","3","1","","0","1","0","3060","","","<img src = 'targets/mask.png' width = '100%;'>","75","pos","CS","CS","4","category4/CS6.png","targets/36.png","1","indirect","8",""
"","html-keyboard-response","126","403512","0.0-8.0-0.9","02a80kdxm7","many_one","0","indirect_first","0","de06im12","1","30","1","1","3","1","","0","1","0","null","","","<div style=""font-size:60px;"">+</div>","null","","","","","","","","","",""
"","html-keyboard-response","127","403602","0.0-8.0-1.9","02a80kdxm7","many_one","0","indirect_first","0","de06im12","1","30","1","1","3","1","","0","1","0","null","","","<img src = 'category2/CS7.png' width = '100%;'>","null","","","","","","","","","",""
"","html-keyboard-response","128","403854","0.0-8.0-2.9","02a80kdxm7","many_one","0","indirect_first","0","de06im12","1","30","1","1","3","1","","0","1","0","null","","","<img src = 'targets/11.png' width = '100%;'>","null","","","","","","","","","",""
"","html-keyboard-response","129","407306","0.0-8.0-3.9","02a80kdxm7","many_one","0","indirect_first","0","de06im12","1","30","1","1","3","1","","0","1","0","3453","","","<img src = 'targets/mask.png' width = '100%;'>","75","neg","GS","GSold","2","category2/CS7.png","targets/11.png","1","indirect","9",""
"","html-keyboard-response","130","408808","0.0-8.0-0.10","02a80kdxm7","many_one","0","indirect_first","0","de06im12","1","30","1","1","3","1","","0","1","0","null","","","<div style=""font-size:60px;"">+</div>","null","","","","","","","","","",""
"","html-keyboard-response","131","408899","0.0-8.0-1.10","02a80kdxm7","many_one","0","indirect_first","0","de06im12","1","30","1","1","3","1","","0","1","0","null","","","<img src = 'category1/CS8.png' width = '100%;'>","null","","","","","","","","","",""
"","html-keyboard-response","132","409150","0.0-8.0-2.10","02a80kdxm7","many_one","0","indirect_first","0","de06im12","1","30","1","1","3","1","","0","1","0","null","","","<img src = 'targets/3.png' width = '100%;'>","null","","","","","","","","","",""
"","html-keyboard-response","133","409851","0.0-8.0-3.10","02a80kdxm7","many_one","0","indirect_first","0","de06im12","1","30","1","1","3","1","","0","1","0","699","","","<img src = 'targets/mask.png' width = '100%;'>","68","neg","CS","CS","1","category1/CS8.png","targets/3.png","0","indirect","10",""
"","html-keyboard-response","134","411352","0.0-8.0-0.11","02a80kdxm7","many_one","0","indirect_first","0","de06im12","1","30","1","1","3","1","","0","1","0","null","","","<div style=""font-size:60px;"">+</div>","null","","","","","","","","","",""
"","html-keyboard-response","135","411442","0.0-8.0-1.11","02a80kdxm7","many_one","0","indirect_first","0","de06im12","1","30","1","1","3","1","","0","1","0","null","","","<img src = 'category1/CS5.png' width = '100%;'>","null","","","","","","","","","",""
"","html-keyboard-response","136","411694","0.0-8.0-2.11","02a80kdxm7","many_one","0","indirect_first","0","de06im12","1","30","1","1","3","1","","0","1","0","null","","","<img src = 'targets/1.png' width = '100%;'>","null","","","","","","","","","",""
"","html-keyboard-response","137","413018","0.0-8.0-3.11","02a80kdxm7","many_one","0","indirect_first","0","de06im12","1","30","1","1","3","1","","0","1","0","1322","","","<img src = 'targets/mask.png' width = '100%;'>","68","neg","CS","CS","1","category1/CS5.png","targets/1.png","0","indirect","11",""
"","html-keyboard-response","138","414519","0.0-8.0-0.12","02a80kdxm7","many_one","0","indirect_first","0","de06im12","1","30","1","1","3","1","","0","1","0","null","","","<div style=""font-size:60px;"">+</div>","null","","","","","","","","","",""
"","html-keyboard-response","139","414610","0.0-8.0-1.12","02a80kdxm7","many_one","0","indirect_first","0","de06im12","1","30","1","1","3","1","","0","1","0","null","","","<img src = 'category2/CS4.png' width = '100%;'>","null","","","","","","","","","",""
"","html-keyboard-response","140","414862","0.0-8.0-2.12","02a80kdxm7","many_one","0","indirect_first","0","de06im12","1","30","1","1","3","1","","0","1","0","null","","","<img src = 'targets/41.png' width = '100%;'>","null","","","","","","","","","",""
"","html-keyboard-response","141","417482","0.0-8.0-3.12","02a80kdxm7","many_one","0","indirect_first","0","de06im12","1","30","1","1","3","1","","0","1","0","2618","","","<img src = 'targets/mask.png' width = '100%;'>","75","neg","CS","CS","2","category2/CS4.png","targets/41.png","1","indirect","12",""
"","html-keyboard-response","142","418984","0.0-8.0-0.13","02a80kdxm7","many_one","0","indirect_first","0","de06im12","1","30","1","1","3","1","","0","1","0","null","","","<div style=""font-size:60px;"">+</div>","null","","","","","","","","","",""
"","html-keyboard-response","143","419075","0.0-8.0-1.13","02a80kdxm7","many_one","0","indirect_first","0","de06im12","1","30","1","1","3","1","","0","1","0","null","","","<img src = 'category2/CS10.png' width = '100%;'>","null","","","","","","","","","",""
"","html-keyboard-response","144","419326","0.0-8.0-2.13","02a80kdxm7","many_one","0","indirect_first","0","de06im12","1","30","1","1","3","1","","0","1","0","null","","","<img src = 'targets/18.png' width = '100%;'>","null","","","","","","","","","",""
"","html-keyboard-response","145","420054","0.0-8.0-3.13","02a80kdxm7","many_one","0","indirect_first","0","de06im12","1","30","1","1","3","1","","0","1","0","727","","","<img src = 'targets/mask.png' width = '100%;'>","75","neg","CS","CS","2","category2/CS10.png","targets/18.png","1","indirect","13",""
"","html-keyboard-response","146","421555","0.0-8.0-0.14","02a80kdxm7","many_one","0","indirect_first","0","de06im12","1","30","1","1","3","1","","0","1","0","null","","","<div style=""font-size:60px;"">+</div>","null","","","","","","","","","",""
"","html-keyboard-response","147","421646","0.0-8.0-1.14","02a80kdxm7","many_one","0","indirect_first","0","de06im12","1","30","1","1","3","1","","0","1","0","null","","","<img src = 'category2/CS3.png' width = '100%;'>","null","","","","","","","","","",""
"","html-keyboard-response","148","421897","0.0-8.0-2.14","02a80kdxm7","many_one","0","indirect_first","0","de06im12","1","30","1","1","3","1","","0","1","0","null","","","<img src = 'targets/31.png' width = '100%;'>","null","","","","","","","","","",""
"","html-keyboard-response","149","422694","0.0-8.0-3.14","02a80kdxm7","many_one","0","indirect_first","0","de06im12","1","30","1","1","3","1","","0","1","0","796","","","<img src = 'targets/mask.png' width = '100%;'>","75","neg","CS","CS","2","category2/CS3.png","targets/31.png","1","indirect","14",""
"","html-keyboard-response","150","424195","0.0-8.0-0.15","02a80kdxm7","many_one","0","indirect_first","0","de06im12","1","30","1","1","3","1","","0","1","0","null","","","<div style=""font-size:60px;"">+</div>","null","","","","","","","","","",""
"","html-keyboard-response","151","424286","0.0-8.0-1.15","02a80kdxm7","many_one","0","indirect_first","0","de06im12","1","30","1","1","3","1","","0","1","0","null","","","<img src = 'category2/CS2.png' width = '100%;'>","null","","","","","","","","","",""
"","html-keyboard-response","152","424538","0.0-8.0-2.15","02a80kdxm7","many_one","0","indirect_first","0","de06im12","1","30","1","1","3","1","","0","1","0","null","","","<img src = 'targets/44.png' width = '100%;'>","null","","","","","","","","","",""
"","html-keyboard-response","153","425286","0.0-8.0-3.15","02a80kdxm7","many_one","0","indirect_first","0","de06im12","1","30","1","1","3","1","","0","1","0","746","","","<img src = 'targets/mask.png' width = '100%;'>","68","neg","GS","GSold","2","category2/CS2.png","targets/44.png","0","indirect","15",""
"","html-keyboard-response","154","426787","0.0-8.0-0.16","02a80kdxm7","many_one","0","indirect_first","0","de06im12","1","30","1","1","3","1","","0","1","0","null","","","<div style=""font-size:60px;"">+</div>","null","","","","","","","","","",""
"","html-keyboard-response","155","426878","0.0-8.0-1.16","02a80kdxm7","many_one","0","indirect_first","0","de06im12","1","30","1","1","3","1","","0","1","0","null","","","<img src = 'category4/CS5.png' width = '100%;'>","null","","","","","","","","","",""
"","html-keyboard-response","156","427130","0.0-8.0-2.16","02a80kdxm7","many_one","0","indirect_first","0","de06im12","1","30","1","1","3","1","","0","1","0","null","","","<img src = 'targets/13.png' width = '100%;'>","null","","","","","","","","","",""
"","html-keyboard-response","157","427638","0.0-8.0-3.16","02a80kdxm7","many_one","0","indirect_first","0","de06im12","1","30","1","1","3","1","","0","1","0","507","","","<img src = 'targets/mask.png' width = '100%;'>","75","pos","CS","CS","4","category4/CS5.png","targets/13.png","1","indirect","16",""
"","html-keyboard-response","158","429139","0.0-8.0-0.17","02a80kdxm7","many_one","0","indirect_first","0","de06im12","1","30","1","1","3","1","","0","1","0","null","","","<div style=""font-size:60px;"">+</div>","null","","","","","","","","","",""
"","html-keyboard-response","159","429231","0.0-8.0-1.17","02a80kdxm7","many_one","0","indirect_first","0","de06im12","1","30","1","1","3","1","","0","1","0","null","","","<img src = 'category2/CS6.png' width = '100%;'>","null","","","","","","","","","",""
"","html-keyboard-response","160","429482","0.0-8.0-2.17","02a80kdxm7","many_one","0","indirect_first","0","de06im12","1","30","1","1","3","1","","0","1","0","null","","","<img src = 'targets/28.png' width = '100%;'>","null","","","","","","","","","",""
"","html-keyboard-response","161","430030","0.0-8.0-3.17","02a80kdxm7","many_one","0","indirect_first","0","de06im12","1","30","1","1","3","1","","0","1","0","547","","","<img src = 'targets/mask.png' width = '100%;'>","75","neg","GS","GSold","2","category2/CS6.png","targets/28.png","1","indirect","17",""
"","html-keyboard-response","162","431531","0.0-8.0-0.18","02a80kdxm7","many_one","0","indirect_first","0","de06im12","1","30","1","1","3","1","","0","1","0","null","","","<div style=""font-size:60px;"">+</div>","null","","","","","","","","","",""
"","html-keyboard-response","163","431622","0.0-8.0-1.18","02a80kdxm7","many_one","0","indirect_first","0","de06im12","1","30","1","1","3","1","","0","1","0","null","","","<img src = 'category3/CS5.png' width = '100%;'>","null","","","","","","","","","",""
"","html-keyboard-response","164","431873","0.0-8.0-2.18","02a80kdxm7","many_one","0","indirect_first","0","de06im12","1","30","1","1","3","1","","0","1","0","null","","","<img src = 'targets/33.png' width = '100%;'>","null","","","","","","","","","",""
"","html-keyboard-response","165","432917","0.0-8.0-3.18","02a80kdxm7","many_one","0","indirect_first","0","de06im12","1","30","1","1","3","1","","0","1","0","1042","","","<img src = 'targets/mask.png' width = '100%;'>","75","pos","CS","CS","3","category3/CS5.png","targets/33.png","1","indirect","18",""
"","html-keyboard-response","166","434418","0.0-8.0-0.19","02a80kdxm7","many_one","0","indirect_first","0","de06im12","1","30","1","1","3","1","","0","1","0","null","","","<div style=""font-size:60px;"">+</div>","null","","","","","","","","","",""
"","html-keyboard-response","167","434510","0.0-8.0-1.19","02a80kdxm7","many_one","0","indirect_first","0","de06im12","1","30","1","1","3","1","","0","1","0","null","","","<img src = 'category2/CS5.png' width = '100%;'>","null","","","","","","","","","",""
"","html-keyboard-response","168","434760","0.0-8.0-2.19","02a80kdxm7","many_one","0","indirect_first","0","de06im12","1","30","1","1","3","1","","0","1","0","null","","","<img src = 'targets/15.png' width = '100%;'>","null","","","","","","","","","",""
"","html-keyboard-response","169","436270","0.0-8.0-3.19","02a80kdxm7","many_one","0","indirect_first","0","de06im12","1","30","1","1","3","1","","0","1","0","1507","","","<img src = 'targets/mask.png' width = '100%;'>","75","neg","CS","CS","2","category2/CS5.png","targets/15.png","1","indirect","19",""
"","html-keyboard-response","170","437771","0.0-8.0-0.20","02a80kdxm7","many_one","0","indirect_first","0","de06im12","1","30","1","1","3","1","","0","1","0","null","","","<div style=""font-size:60px;"">+</div>","null","","","","","","","","","",""
"","html-keyboard-response","171","437862","0.0-8.0-1.20","02a80kdxm7","many_one","0","indirect_first","0","de06im12","1","30","1","1","3","1","","0","1","0","null","","","<img src = 'category3/CS8.png' width = '100%;'>","null","","","","","","","","","",""
"","html-keyboard-response","172","438114","0.0-8.0-2.20","02a80kdxm7","many_one","0","indirect_first","0","de06im12","1","30","1","1","3","1","","0","1","0","null","","","<img src = 'targets/21.png' width = '100%;'>","null","","","","","","","","","",""
"","html-keyboard-response","173","444100","0.0-8.0-3.20","02a80kdxm7","many_one","0","indirect_first","0","de06im12","1","30","1","1","3","1","","0","1","0","5986","","","<img src = 'targets/mask.png' width = '100%;'>","68","pos","CS","CS","3","category3/CS8.png","targets/21.png","0","indirect","20",""
"","html-keyboard-response","174","445602","0.0-8.0-0.21","02a80kdxm7","many_one","0","indirect_first","0","de06im12","1","30","1","1","3","1","","0","1","0","null","","","<div style=""font-size:60px;"">+</div>","null","","","","","","","","","",""
"","html-keyboard-response","175","445693","0.0-8.0-1.21","02a80kdxm7","many_one","0","indirect_first","0","de06im12","1","30","1","1","3","1","","0","1","0","null","","","<img src = 'category1/CS10.png' width = '100%;'>","null","","","","","","","","","",""
"","html-keyboard-response","176","445944","0.0-8.0-2.21","02a80kdxm7","many_one","0","indirect_first","0","de06im12","1","30","1","1","3","1","","0","1","0","null","","","<img src = 'targets/16.png' width = '100%;'>","null","","","","","","","","","",""
"","html-keyboard-response","177","447890","0.0-8.0-3.21","02a80kdxm7","many_one","0","indirect_first","0","de06im12","1","30","1","1","3","1","","0","1","0","1943","","","<img src = 'targets/mask.png' width = '100%;'>","75","neg","CS","CS","1","category1/CS10.png","targets/16.png","1","indirect","21",""
"","html-keyboard-response","178","449390","0.0-8.0-0.22","02a80kdxm7","many_one","0","indirect_first","0","de06im12","1","30","1","1","3","1","","0","1","0","null","","","<div style=""font-size:60px;"">+</div>","null","","","","","","","","","",""
"","html-keyboard-response","179","449482","0.0-8.0-1.22","02a80kdxm7","many_one","0","indirect_first","0","de06im12","1","30","1","1","3","1","","0","1","0","null","","","<img src = 'category1/CS7.png' width = '100%;'>","null","","","","","","","","","",""
"","html-keyboard-response","180","449732","0.0-8.0-2.22","02a80kdxm7","many_one","0","indirect_first","0","de06im12","1","30","1","1","3","1","","0","1","0","null","","","<img src = 'targets/5.png' width = '100%;'>","null","","","","","","","","","",""
"","html-keyboard-response","181","450585","0.0-8.0-3.22","02a80kdxm7","many_one","0","indirect_first","0","de06im12","1","30","1","1","3","1","","0","1","0","851","","","<img src = 'targets/mask.png' width = '100%;'>","75","neg","CS","CS","1","category1/CS7.png","targets/5.png","1","indirect","22",""
"","html-keyboard-response","182","452086","0.0-8.0-0.23","02a80kdxm7","many_one","0","indirect_first","0","de06im12","1","30","1","1","3","1","","0","1","0","null","","","<div style=""font-size:60px;"">+</div>","null","","","","","","","","","",""
"","html-keyboard-response","183","452177","0.0-8.0-1.23","02a80kdxm7","many_one","0","indirect_first","0","de06im12","1","30","1","1","3","1","","0","1","0","null","","","<img src = 'category3/CS1.png' width = '100%;'>","null","","","","","","","","","",""
"","html-keyboard-response","184","452428","0.0-8.0-2.23","02a80kdxm7","many_one","0","indirect_first","0","de06im12","1","30","1","1","3","1","","0","1","0","null","","","<img src = 'targets/27.png' width = '100%;'>","null","","","","","","","","","",""
"","html-keyboard-response","185","454488","0.0-8.0-3.23","02a80kdxm7","many_one","0","indirect_first","0","de06im12","1","30","1","1","3","1","","0","1","0","2059","","","<img src = 'targets/mask.png' width = '100%;'>","75","pos","CS","CS","3","category3/CS1.png","targets/27.png","1","indirect","23",""
"","survey-html-form","186","458497","0.0-9.0","02a80kdxm7","many_one","0","indirect_first","0","de06im12","1","30","1","1","3","1","","0","1","0","3507","","{}","","","","","","","","","","","",""
"","html-keyboard-response","187","461499","0.0-10.0-0.0","02a80kdxm7","many_one","0","indirect_first","0","de06im12","1","30","1","1","3","1","","0","1","0","null","","","<div style=""font-size:60px;"">+</div>","null","","","","","","","","","",""
"","html-keyboard-response","188","461590","0.0-10.0-1.0","02a80kdxm7","many_one","0","indirect_first","0","de06im12","1","30","1","1","3","1","","0","1","0","null","","","<img src = 'category3/CS10.png' width = '100%;'>","null","","","","","","","","","",""
"","html-keyboard-response","189","461841","0.0-10.0-2.0","02a80kdxm7","many_one","0","indirect_first","0","de06im12","1","30","1","1","3","1","","0","1","0","null","","","<img src = 'targets/34.png' width = '100%;'>","null","","","","","","","","","",""
"","html-keyboard-response","190","462816","0.0-10.0-3.0","02a80kdxm7","many_one","0","indirect_first","0","de06im12","1","30","1","1","3","1","","0","1","0","975","","","<img src = 'targets/mask.png' width = '100%;'>","75","pos","GS","GSold","3","category3/CS10.png","targets/34.png","1","indirect","24",""
"","html-keyboard-response","191","464318","0.0-10.0-0.1","02a80kdxm7","many_one","0","indirect_first","0","de06im12","1","30","1","1","3","1","","0","1","0","null","","","<div style=""font-size:60px;"">+</div>","null","","","","","","","","","",""
"","html-keyboard-response","192","464409","0.0-10.0-1.1","02a80kdxm7","many_one","0","indirect_first","0","de06im12","1","30","1","1","3","1","","0","1","0","null","","","<img src = 'category1/CS4.png' width = '100%;'>","null","","","","","","","","","",""
"","html-keyboard-response","193","464661","0.0-10.0-2.1","02a80kdxm7","many_one","0","indirect_first","0","de06im12","1","30","1","1","3","1","","0","1","0","null","","","<img src = 'targets/6.png' width = '100%;'>","null","","","","","","","","","",""
"","html-keyboard-response","194","466137","0.0-10.0-3.1","02a80kdxm7","many_one","0","indirect_first","0","de06im12","1","30","1","1","3","1","","0","1","0","1473","","","<img src = 'targets/mask.png' width = '100%;'>","68","neg","GS","GSold","1","category1/CS4.png","targets/6.png","0","indirect","25",""
"","html-keyboard-response","195","467638","0.0-10.0-0.2","02a80kdxm7","many_one","0","indirect_first","0","de06im12","1","30","1","1","3","1","","0","1","0","null","","","<div style=""font-size:60px;"">+</div>","null","","","","","","","","","",""
"","html-keyboard-response","196","467728","0.0-10.0-1.2","02a80kdxm7","many_one","0","indirect_first","0","de06im12","1","30","1","1","3","1","","0","1","0","null","","","<img src = 'category1/GS2.png' width = '100%;'>","null","","","","","","","","","",""
"","html-keyboard-response","197","467981","0.0-10.0-2.2","02a80kdxm7","many_one","0","indirect_first","0","de06im12","1","30","1","1","3","1","","0","1","0","null","","","<img src = 'targets/12.png' width = '100%;'>","null","","","","","","","","","",""
"","html-keyboard-response","198","470608","0.0-10.0-3.2","02a80kdxm7","many_one","0","indirect_first","0","de06im12","1","30","1","1","3","1","","0","1","0","2627","","","<img src = 'targets/mask.png' width = '100%;'>","68","neg","GS","GSnew","1","category1/GS2.png","targets/12.png","0","indirect","26",""
"","html-keyboard-response","199","472109","0.0-10.0-0.3","02a80kdxm7","many_one","0","indirect_first","0","de06im12","1","30","1","1","3","1","","0","1","0","null","","","<div style=""font-size:60px;"">+</div>","null","","","","","","","","","",""
"","html-keyboard-response","200","472200","0.0-10.0-1.3","02a80kdxm7","many_one","0","indirect_first","0","de06im12","1","30","1","1","3","1","","0","1","0","null","","","<img src = 'category4/CS7.png' width = '100%;'>","null","","","","","","","","","",""
"","html-keyboard-response","201","472452","0.0-10.0-2.3","02a80kdxm7","many_one","0","indirect_first","0","de06im12","1","30","1","1","3","1","","0","1","0","null","","","<img src = 'targets/8.png' width = '100%;'>","null","","","","","","","","","",""
"","html-keyboard-response","202","473309","0.0-10.0-3.3","02a80kdxm7","many_one","0","indirect_first","0","de06im12","1","30","1","1","3","1","","0","1","0","856","","","<img src = 'targets/mask.png' width = '100%;'>","75","pos","GS","GSold","4","category4/CS7.png","targets/8.png","1","indirect","27",""
"","html-keyboard-response","203","474810","0.0-10.0-0.4","02a80kdxm7","many_one","0","indirect_first","0","de06im12","1","30","1","1","3","1","","0","1","0","null","","","<div style=""font-size:60px;"">+</div>","null","","","","","","","","","",""
"","html-keyboard-response","204","474901","0.0-10.0-1.4","02a80kdxm7","many_one","0","indirect_first","0","de06im12","1","30","1","1","3","1","","0","1","0","null","","","<img src = 'category2/men.png' width = '100%;'>","null","","","","","","","","","",""
"","html-keyboard-response","205","475152","0.0-10.0-2.4","02a80kdxm7","many_one","0","indirect_first","0","de06im12","1","30","1","1","3","1","","0","1","0","null","","","<img src = 'targets/19.png' width = '100%;'>","null","","","","","","","","","",""
"","html-keyboard-response","206","476596","0.0-10.0-3.4","02a80kdxm7","many_one","0","indirect_first","0","de06im12","1","30","1","1","3","1","","0","1","0","1443","","","<img src = 'targets/mask.png' width = '100%;'>","75","neg","GS","abstract","2","category2/men.png","targets/19.png","1","indirect","28",""
"","html-keyboard-response","207","478097","0.0-10.0-0.5","02a80kdxm7","many_one","0","indirect_first","0","de06im12","1","30","1","1","3","1","","0","1","0","null","","","<div style=""font-size:60px;"">+</div>","null","","","","","","","","","",""
"","html-keyboard-response","208","478188","0.0-10.0-1.5","02a80kdxm7","many_one","0","indirect_first","0","de06im12","1","30","1","1","3","1","","0","1","0","null","","","<img src = 'category4/CS3.png' width = '100%;'>","null","","","","","","","","","",""
"","html-keyboard-response","209","478440","0.0-10.0-2.5","02a80kdxm7","many_one","0","indirect_first","0","de06im12","1","30","1","1","3","1","","0","1","0","null","","","<img src = 'targets/9.png' width = '100%;'>","null","","","","","","","","","",""
"","html-keyboard-response","210","479380","0.0-10.0-3.5","02a80kdxm7","many_one","0","indirect_first","0","de06im12","1","30","1","1","3","1","","0","1","0","940","","","<img src = 'targets/mask.png' width = '100%;'>","75","pos","GS","GSold","4","category4/CS3.png","targets/9.png","1","indirect","29",""
"","html-keyboard-response","211","480881","0.0-10.0-0.6","02a80kdxm7","many_one","0","indirect_first","0","de06im12","1","30","1","1","3","1","","0","1","0","null","","","<div style=""font-size:60px;"">+</div>","null","","","","","","","","","",""
"","html-keyboard-response","212","480972","0.0-10.0-1.6","02a80kdxm7","many_one","0","indirect_first","0","de06im12","1","30","1","1","3","1","","0","1","0","null","","","<img src = 'category3/GS3.png' width = '100%;'>","null","","","","","","","","","",""
"","html-keyboard-response","213","481224","0.0-10.0-2.6","02a80kdxm7","many_one","0","indirect_first","0","de06im12","1","30","1","1","3","1","","0","1","0","null","","","<img src = 'targets/32.png' width = '100%;'>","null","","","","","","","","","",""
"","html-keyboard-response","214","482124","0.0-10.0-3.6","02a80kdxm7","many_one","0","indirect_first","0","de06im12","1","30","1","1","3","1","","0","1","0","898","","","<img src = 'targets/mask.png' width = '100%;'>","68","pos","GS","GSnew","3","category3/GS3.png","targets/32.png","0","indirect","30",""
"","html-keyboard-response","215","483625","0.0-10.0-0.7","02a80kdxm7","many_one","0","indirect_first","0","de06im12","1","30","1","1","3","1","","0","1","0","null","","","<div style=""font-size:60px;"">+</div>","null","","","","","","","","","",""
"","html-keyboard-response","216","483717","0.0-10.0-1.7","02a80kdxm7","many_one","0","indirect_first","0","de06im12","1","30","1","1","3","1","","0","1","0","null","","","<img src = 'category3/wang.png' width = '100%;'>","null","","","","","","","","","",""
"","html-keyboard-response","217","483968","0.0-10.0-2.7","02a80kdxm7","many_one","0","indirect_first","0","de06im12","1","30","1","1","3","1","","0","1","0","null","","","<img src = 'targets/20.png' width = '100%;'>","null","","","","","","","","","",""
"","html-keyboard-response","218","484908","0.0-10.0-3.7","02a80kdxm7","many_one","0","indirect_first","0","de06im12","1","30","1","1","3","1","","0","1","0","939","","","<img src = 'targets/mask.png' width = '100%;'>","75","pos","GS","abstract","3","category3/wang.png","targets/20.png","1","indirect","31",""
"","html-keyboard-response","219","486409","0.0-10.0-0.8","02a80kdxm7","many_one","0","indirect_first","0","de06im12","1","30","1","1","3","1","","0","1","0","null","","","<div style=""font-size:60px;"">+</div>","null","","","","","","","","","",""
"","html-keyboard-response","220","486500","0.0-10.0-1.8","02a80kdxm7","many_one","0","indirect_first","0","de06im12","1","30","1","1","3","1","","0","1","0","null","","","<img src = 'category1/GS1.png' width = '100%;'>","null","","","","","","","","","",""
"","html-keyboard-response","221","486752","0.0-10.0-2.8","02a80kdxm7","many_one","0","indirect_first","0","de06im12","1","30","1","1","3","1","","0","1","0","null","","","<img src = 'targets/40.png' width = '100%;'>","null","","","","","","","","","",""
"","html-keyboard-response","222","488243","0.0-10.0-3.8","02a80kdxm7","many_one","0","indirect_first","0","de06im12","1","30","1","1","3","1","","0","1","0","1491","","","<img src = 'targets/mask.png' width = '100%;'>","75","neg","GS","GSnew","1","category1/GS1.png","targets/40.png","1","indirect","32",""
"","html-keyboard-response","223","489744","0.0-10.0-0.9","02a80kdxm7","many_one","0","indirect_first","0","de06im12","1","30","1","1","3","1","","0","1","0","null","","","<div style=""font-size:60px;"">+</div>","null","","","","","","","","","",""
"","html-keyboard-response","224","489835","0.0-10.0-1.9","02a80kdxm7","many_one","0","indirect_first","0","de06im12","1","30","1","1","3","1","","0","1","0","null","","","<img src = 'category3/CS7.png' width = '100%;'>","null","","","","","","","","","",""
"","html-keyboard-response","225","490086","0.0-10.0-2.9","02a80kdxm7","many_one","0","indirect_first","0","de06im12","1","30","1","1","3","1","","0","1","0","null","","","<img src = 'targets/39.png' width = '100%;'>","null","","","","","","","","","",""
"","html-keyboard-response","226","491124","0.0-10.0-3.9","02a80kdxm7","many_one","0","indirect_first","0","de06im12","1","30","1","1","3","1","","0","1","0","1037","","","<img src = 'targets/mask.png' width = '100%;'>","75","pos","GS","GSold","3","category3/CS7.png","targets/39.png","1","indirect","33",""
"","html-keyboard-response","227","492625","0.0-10.0-0.10","02a80kdxm7","many_one","0","indirect_first","0","de06im12","1","30","1","1","3","1","","0","1","0","null","","","<div style=""font-size:60px;"">+</div>","null","","","","","","","","","",""
"","html-keyboard-response","228","492717","0.0-10.0-1.10","02a80kdxm7","many_one","0","indirect_first","0","de06im12","1","30","1","1","3","1","","0","1","0","null","","","<img src = 'category2/GS2.png' width = '100%;'>","null","","","","","","","","","",""
"","html-keyboard-response","229","492968","0.0-10.0-2.10","02a80kdxm7","many_one","0","indirect_first","0","de06im12","1","30","1","1","3","1","","0","1","0","null","","","<img src = 'targets/46.png' width = '100%;'>","null","","","","","","","","","",""
"","html-keyboard-response","230","493719","0.0-10.0-3.10","02a80kdxm7","many_one","0","indirect_first","0","de06im12","1","30","1","1","3","1","","0","1","0","750","","","<img src = 'targets/mask.png' width = '100%;'>","75","neg","GS","GSnew","2","category2/GS2.png","targets/46.png","1","indirect","34",""
"","html-keyboard-response","231","495220","0.0-10.0-0.11","02a80kdxm7","many_one","0","indirect_first","0","de06im12","1","30","1","1","3","1","","0","1","0","null","","","<div style=""font-size:60px;"">+</div>","null","","","","","","","","","",""
"","html-keyboard-response","232","495311","0.0-10.0-1.11","02a80kdxm7","many_one","0","indirect_first","0","de06im12","1","30","1","1","3","1","","0","1","0","null","","","<img src = 'category2/GS3.png' width = '100%;'>","null","","","","","","","","","",""
"","html-keyboard-response","233","495562","0.0-10.0-2.11","02a80kdxm7","many_one","0","indirect_first","0","de06im12","1","30","1","1","3","1","","0","1","0","null","","","<img src = 'targets/7.png' width = '100%;'>","null","","","","","","","","","",""
"","html-keyboard-response","234","496255","0.0-10.0-3.11","02a80kdxm7","many_one","0","indirect_first","0","de06im12","1","30","1","1","3","1","","0","1","0","692","","","<img src = 'targets/mask.png' width = '100%;'>","75","neg","GS","GSnew","2","category2/GS3.png","targets/7.png","1","indirect","35",""
"","html-keyboard-response","235","497756","0.0-10.0-0.12","02a80kdxm7","many_one","0","indirect_first","0","de06im12","1","30","1","1","3","1","","0","1","0","null","","","<div style=""font-size:60px;"">+</div>","null","","","","","","","","","",""
"","html-keyboard-response","236","497846","0.0-10.0-1.12","02a80kdxm7","many_one","0","indirect_first","0","de06im12","1","30","1","1","3","1","","0","1","0","null","","","<img src = 'category1/GS3.png' width = '100%;'>","null","","","","","","","","","",""
"","html-keyboard-response","237","498098","0.0-10.0-2.12","02a80kdxm7","many_one","0","indirect_first","0","de06im12","1","30","1","1","3","1","","0","1","0","null","","","<img src = 'targets/24.png' width = '100%;'>","null","","","","","","","","","",""
"","html-keyboard-response","238","499367","0.0-10.0-3.12","02a80kdxm7","many_one","0","indirect_first","0","de06im12","1","30","1","1","3","1","","0","1","0","1269","","","<img src = 'targets/mask.png' width = '100%;'>","75","neg","GS","GSnew","1","category1/GS3.png","targets/24.png","1","indirect","36",""
"","html-keyboard-response","239","500869","0.0-10.0-0.13","02a80kdxm7","many_one","0","indirect_first","0","de06im12","1","30","1","1","3","1","","0","1","0","null","","","<div style=""font-size:60px;"">+</div>","null","","","","","","","","","",""
"","html-keyboard-response","240","500960","0.0-10.0-1.13","02a80kdxm7","many_one","0","indirect_first","0","de06im12","1","30","1","1","3","1","","0","1","0","null","","","<img src = 'category3/GS1.png' width = '100%;'>","null","","","","","","","","","",""
"","html-keyboard-response","241","501212","0.0-10.0-2.13","02a80kdxm7","many_one","0","indirect_first","0","de06im12","1","30","1","1","3","1","","0","1","0","null","","","<img src = 'targets/4.png' width = '100%;'>","null","","","","","","","","","",""
"","html-keyboard-response","242","502608","0.0-10.0-3.13","02a80kdxm7","many_one","0","indirect_first","0","de06im12","1","30","1","1","3","1","","0","1","0","1395","","","<img src = 'targets/mask.png' width = '100%;'>","68","pos","GS","GSnew","3","category3/GS1.png","targets/4.png","0","indirect","37",""
"","html-keyboard-response","243","504109","0.0-10.0-0.14","02a80kdxm7","many_one","0","indirect_first","0","de06im12","1","30","1","1","3","1","","0","1","0","null","","","<div style=""font-size:60px;"">+</div>","null","","","","","","","","","",""
"","html-keyboard-response","244","504200","0.0-10.0-1.14","02a80kdxm7","many_one","0","indirect_first","0","de06im12","1","30","1","1","3","1","","0","1","0","null","","","<img src = 'category4/lin.png' width = '100%;'>","null","","","","","","","","","",""
"","html-keyboard-response","245","504451","0.0-10.0-2.14","02a80kdxm7","many_one","0","indirect_first","0","de06im12","1","30","1","1","3","1","","0","1","0","null","","","<img src = 'targets/48.png' width = '100%;'>","null","","","","","","","","","",""
"","html-keyboard-response","246","505335","0.0-10.0-3.14","02a80kdxm7","many_one","0","indirect_first","0","de06im12","1","30","1","1","3","1","","0","1","0","883","","","<img src = 'targets/mask.png' width = '100%;'>","75","pos","GS","abstract","4","category4/lin.png","targets/48.png","1","indirect","38",""
"","html-keyboard-response","247","506837","0.0-10.0-0.15","02a80kdxm7","many_one","0","indirect_first","0","de06im12","1","30","1","1","3","1","","0","1","0","null","","","<div style=""font-size:60px;"">+</div>","null","","","","","","","","","",""
"","html-keyboard-response","248","506928","0.0-10.0-1.15","02a80kdxm7","many_one","0","indirect_first","0","de06im12","1","30","1","1","3","1","","0","1","0","null","","","<img src = 'category1/ma.png' width = '100%;'>","null","","","","","","","","","",""
"","html-keyboard-response","249","507179","0.0-10.0-2.15","02a80kdxm7","many_one","0","indirect_first","0","de06im12","1","30","1","1","3","1","","0","1","0","null","","","<img src = 'targets/26.png' width = '100%;'>","null","","","","","","","","","",""
"","html-keyboard-response","250","508239","0.0-10.0-3.15","02a80kdxm7","many_one","0","indirect_first","0","de06im12","1","30","1","1","3","1","","0","1","0","1060","","","<img src = 'targets/mask.png' width = '100%;'>","68","neg","GS","abstract","1","category1/ma.png","targets/26.png","0","indirect","39",""
"","html-keyboard-response","251","509740","0.0-10.0-0.16","02a80kdxm7","many_one","0","indirect_first","0","de06im12","1","30","1","1","3","1","","0","1","0","null","","","<div style=""font-size:60px;"">+</div>","null","","","","","","","","","",""
"","html-keyboard-response","252","509831","0.0-10.0-1.16","02a80kdxm7","many_one","0","indirect_first","0","de06im12","1","30","1","1","3","1","","0","1","0","null","","","<img src = 'category2/GS1.png' width = '100%;'>","null","","","","","","","","","",""
"","html-keyboard-response","253","510082","0.0-10.0-2.16","02a80kdxm7","many_one","0","indirect_first","0","de06im12","1","30","1","1","3","1","","0","1","0","null","","","<img src = 'targets/25.png' width = '100%;'>","null","","","","","","","","","",""
"","html-keyboard-response","254","512079","0.0-10.0-3.16","02a80kdxm7","many_one","0","indirect_first","0","de06im12","1","30","1","1","3","1","","0","1","0","1994","","","<img src = 'targets/mask.png' width = '100%;'>","68","neg","GS","GSnew","2","category2/GS1.png","targets/25.png","0","indirect","40",""
"","html-keyboard-response","255","513580","0.0-10.0-0.17","02a80kdxm7","many_one","0","indirect_first","0","de06im12","1","30","1","1","3","1","","0","1","0","null","","","<div style=""font-size:60px;"">+</div>","null","","","","","","","","","",""
"","html-keyboard-response","256","513671","0.0-10.0-1.17","02a80kdxm7","many_one","0","indirect_first","0","de06im12","1","30","1","1","3","1","","0","1","0","null","","","<img src = 'category4/GS1.png' width = '100%;'>","null","","","","","","","","","",""
"","html-keyboard-response","257","513922","0.0-10.0-2.17","02a80kdxm7","many_one","0","indirect_first","0","de06im12","1","30","1","1","3","1","","0","1","0","null","","","<img src = 'targets/14.png' width = '100%;'>","null","","","","","","","","","",""
"","html-keyboard-response","258","514662","0.0-10.0-3.17","02a80kdxm7","many_one","0","indirect_first","0","de06im12","1","30","1","1","3","1","","0","1","0","740","","","<img src = 'targets/mask.png' width = '100%;'>","75","pos","GS","GSnew","4","category4/GS1.png","targets/14.png","1","indirect","41",""
"","html-keyboard-response","259","516164","0.0-10.0-0.18","02a80kdxm7","many_one","0","indirect_first","0","de06im12","1","30","1","1","3","1","","0","1","0","null","","","<div style=""font-size:60px;"">+</div>","null","","","","","","","","","",""
"","html-keyboard-response","260","516255","0.0-10.0-1.18","02a80kdxm7","many_one","0","indirect_first","0","de06im12","1","30","1","1","3","1","","0","1","0","null","","","<img src = 'category4/GS3.png' width = '100%;'>","null","","","","","","","","","",""
"","html-keyboard-response","261","516506","0.0-10.0-2.18","02a80kdxm7","many_one","0","indirect_first","0","de06im12","1","30","1","1","3","1","","0","1","0","null","","","<img src = 'targets/2.png' width = '100%;'>","null","","","","","","","","","",""
"","html-keyboard-response","262","517831","0.0-10.0-3.18","02a80kdxm7","many_one","0","indirect_first","0","de06im12","1","30","1","1","3","1","","0","1","0","1324","","","<img src = 'targets/mask.png' width = '100%;'>","75","pos","GS","GSnew","4","category4/GS3.png","targets/2.png","1","indirect","42",""
"","html-keyboard-response","263","519333","0.0-10.0-0.19","02a80kdxm7","many_one","0","indirect_first","0","de06im12","1","30","1","1","3","1","","0","1","0","null","","","<div style=""font-size:60px;"">+</div>","null","","","","","","","","","",""
"","html-keyboard-response","264","519423","0.0-10.0-1.19","02a80kdxm7","many_one","0","indirect_first","0","de06im12","1","30","1","1","3","1","","0","1","0","null","","","<img src = 'category1/CS1.png' width = '100%;'>","null","","","","","","","","","",""
"","html-keyboard-response","265","519674","0.0-10.0-2.19","02a80kdxm7","many_one","0","indirect_first","0","de06im12","1","30","1","1","3","1","","0","1","0","null","","","<img src = 'targets/30.png' width = '100%;'>","null","","","","","","","","","",""
"","html-keyboard-response","266","520399","0.0-10.0-3.19","02a80kdxm7","many_one","0","indirect_first","0","de06im12","1","30","1","1","3","1","","0","1","0","723","","","<img src = 'targets/mask.png' width = '100%;'>","75","neg","GS","GSold","1","category1/CS1.png","targets/30.png","1","indirect","43",""
"","html-keyboard-response","267","521900","0.0-10.0-0.20","02a80kdxm7","many_one","0","indirect_first","0","de06im12","1","30","1","1","3","1","","0","1","0","null","","","<div style=""font-size:60px;"">+</div>","null","","","","","","","","","",""
"","html-keyboard-response","268","521991","0.0-10.0-1.20","02a80kdxm7","many_one","0","indirect_first","0","de06im12","1","30","1","1","3","1","","0","1","0","null","","","<img src = 'category4/CS8.png' width = '100%;'>","null","","","","","","","","","",""
"","html-keyboard-response","269","522242","0.0-10.0-2.20","02a80kdxm7","many_one","0","indirect_first","0","de06im12","1","30","1","1","3","1","","0","1","0","null","","","<img src = 'targets/10.png' width = '100%;'>","null","","","","","","","","","",""
"","html-keyboard-response","270","522766","0.0-10.0-3.20","02a80kdxm7","many_one","0","indirect_first","0","de06im12","1","30","1","1","3","1","","0","1","0","523","","","<img src = 'targets/mask.png' width = '100%;'>","68","pos","GS","GSold","4","category4/CS8.png","targets/10.png","0","indirect","44",""
"","html-keyboard-response","271","524268","0.0-10.0-0.21","02a80kdxm7","many_one","0","indirect_first","0","de06im12","1","30","1","1","3","1","","0","1","0","null","","","<div style=""font-size:60px;"">+</div>","null","","","","","","","","","",""
"","html-keyboard-response","272","524359","0.0-10.0-1.21","02a80kdxm7","many_one","0","indirect_first","0","de06im12","1","30","1","1","3","1","","0","1","0","null","","","<img src = 'category3/GS2.png' width = '100%;'>","null","","","","","","","","","",""
"","html-keyboard-response","273","524610","0.0-10.0-2.21","02a80kdxm7","many_one","0","indirect_first","0","de06im12","1","30","1","1","3","1","","0","1","0","null","","","<img src = 'targets/38.png' width = '100%;'>","null","","","","","","","","","",""
"","html-keyboard-response","274","525498","0.0-10.0-3.21","02a80kdxm7","many_one","0","indirect_first","0","de06im12","1","30","1","1","3","1","","0","1","0","887","","","<img src = 'targets/mask.png' width = '100%;'>","75","pos","GS","GSnew","3","category3/GS2.png","targets/38.png","1","indirect","45",""
"","html-keyboard-response","275","526999","0.0-10.0-0.22","02a80kdxm7","many_one","0","indirect_first","0","de06im12","1","30","1","1","3","1","","0","1","0","null","","","<div style=""font-size:60px;"">+</div>","null","","","","","","","","","",""
"","html-keyboard-response","276","527091","0.0-10.0-1.22","02a80kdxm7","many_one","0","indirect_first","0","de06im12","1","30","1","1","3","1","","0","1","0","null","","","<img src = 'category1/CS2.png' width = '100%;'>","null","","","","","","","","","",""
"","html-keyboard-response","277","527342","0.0-10.0-2.22","02a80kdxm7","many_one","0","indirect_first","0","de06im12","1","30","1","1","3","1","","0","1","0","null","","","<img src = 'targets/35.png' width = '100%;'>","null","","","","","","","","","",""
"","html-keyboard-response","278","527794","0.0-10.0-3.22","02a80kdxm7","many_one","0","indirect_first","0","de06im12","1","30","1","1","3","1","","0","1","0","452","","","<img src = 'targets/mask.png' width = '100%;'>","75","neg","GS","GSold","1","category1/CS2.png","targets/35.png","1","indirect","46",""
"","html-keyboard-response","279","529295","0.0-10.0-0.23","02a80kdxm7","many_one","0","indirect_first","0","de06im12","1","30","1","1","3","1","","0","1","0","null","","","<div style=""font-size:60px;"">+</div>","null","","","","","","","","","",""
"","html-keyboard-response","280","529387","0.0-10.0-1.23","02a80kdxm7","many_one","0","indirect_first","0","de06im12","1","30","1","1","3","1","","0","1","0","null","","","<img src = 'category4/GS2.png' width = '100%;'>","null","","","","","","","","","",""
"","html-keyboard-response","281","529638","0.0-10.0-2.23","02a80kdxm7","many_one","0","indirect_first","0","de06im12","1","30","1","1","3","1","","0","1","0","null","","","<img src = 'targets/43.png' width = '100%;'>","null","","","","","","","","","",""
"","html-keyboard-response","282","529930","0.0-10.0-3.23","02a80kdxm7","many_one","0","indirect_first","0","de06im12","1","30","1","1","3","1","","0","1","0","289","","","<img src = 'targets/mask.png' width = '100%;'>","75","pos","GS","GSnew","4","category4/GS2.png","targets/43.png","1","indirect","47",""
"","survey-html-form","283","540269","0.0-11.0","02a80kdxm7","many_one","0","indirect_first","0","de06im12","1","30","1","1","3","1","","0","1","0","9836","","{}","","","","","","","","","","","",""
"","image-slider-response","284","566007","0.0-12.0-0.0","02a80kdxm7","many_one","0","indirect_first","0","de06im12","1","30","1","1","3","1","","0","1","0","23730","","","","","pos","GS","GSold","4","category4/CS7.png","targets/8.png","","direct","","21"
"","image-slider-response","285","572984","0.0-12.0-0.1","02a80kdxm7","many_one","0","indirect_first","0","de06im12","1","30","1","1","3","1","","0","1","0","6974","","","","","pos","GS","GSold","3","category3/CS2.png","targets/22.png","","direct","","-51"
"","image-slider-response","286","578656","0.0-12.0-0.2","02a80kdxm7","many_one","0","indirect_first","0","de06im12","1","30","1","1","3","1","","0","1","0","5670","","","","","neg","CS","CS","1","category1/CS10.png","targets/16.png","","direct","","40"
"","image-slider-response","287","584505","0.0-12.0-0.3","02a80kdxm7","many_one","0","indirect_first","0","de06im12","1","30","1","1","3","1","","0","1","0","5845","","","","","pos","GS","GSold","3","category3/CS10.png","targets/34.png","","direct","","-79"
"","image-slider-response","288","588296","0.0-12.0-0.4","02a80kdxm7","many_one","0","indirect_first","0","de06im12","1","30","1","1","3","1","","0","1","0","3788","","","","","neg","CS","CS","1","category1/CS6.png","targets/42.png","","direct","","-86"
"","image-slider-response","289","592834","0.0-12.0-0.5","02a80kdxm7","many_one","0","indirect_first","0","de06im12","1","30","1","1","3","1","","0","1","0","4537","","","","","neg","GS","abstract","2","category2/men.png","targets/19.png","","direct","","-70"
"","image-slider-response","290","596722","0.0-12.0-0.6","02a80kdxm7","many_one","0","indirect_first","0","de06im12","1","30","1","1","3","1","","0","1","0","3885","","","","","neg","CS","CS","2","category2/CS5.png","targets/15.png","","direct","","-100"
"","image-slider-response","291","601906","0.0-12.0-0.7","02a80kdxm7","many_one","0","indirect_first","0","de06im12","1","30","1","1","3","1","","0","1","0","5180","","","","","pos","CS","CS","4","category4/CS9.png","targets/47.png","","direct","","25"
"","image-slider-response","292","606435","0.0-12.0-0.8","02a80kdxm7","many_one","0","indirect_first","0","de06im12","1","30","1","1","3","1","","0","1","0","4527","","","","","neg","GS","GSnew","2","category2/GS1.png","targets/25.png","","direct","","-37"
"","image-slider-response","293","609731","0.0-12.0-0.9","02a80kdxm7","many_one","0","indirect_first","0","de06im12","1","30","1","1","3","1","","0","1","0","3292","","","","","neg","GS","GSold","2","category2/CS6.png","targets/28.png","","direct","","-58"
"","image-slider-response","294","613940","0.0-12.0-0.10","02a80kdxm7","many_one","0","indirect_first","0","de06im12","1","30","1","1","3","1","","0","1","0","4206","","","","","pos","GS","GSold","4","category4/CS3.png","targets/9.png","","direct","","47"
"","image-slider-response","295","617501","0.0-12.0-0.11","02a80kdxm7","many_one","0","indirect_first","0","de06im12","1","30","1","1","3","1","","0","1","0","3558","","","","","pos","GS","GSold","3","category3/CS7.png","targets/39.png","","direct","","-44"
"","image-slider-response","296","623519","0.0-12.0-0.12","02a80kdxm7","many_one","0","indirect_first","0","de06im12","1","30","1","1","3","1","","0","1","0","6014","","","","","neg","GS","GSold","2","category2/CS7.png","targets/11.png","","direct","","36"
"","image-slider-response","297","627269","0.0-12.0-0.13","02a80kdxm7","many_one","0","indirect_first","0","de06im12","1","30","1","1","3","1","","0","1","0","3749","","","","","neg","CS","CS","1","category1/CS7.png","targets/5.png","","direct","","-100"
"","image-slider-response","298","631166","0.0-12.0-0.14","02a80kdxm7","many_one","0","indirect_first","0","de06im12","1","30","1","1","3","1","","0","1","0","3895","","","","","pos","CS","CS","3","category3/CS1.png","targets/27.png","","direct","","-100"
"","image-slider-response","299","634495","0.0-12.0-0.15","02a80kdxm7","many_one","0","indirect_first","0","de06im12","1","30","1","1","3","1","","0","1","0","3327","","","","","pos","GS","GSnew","4","category4/GS3.png","targets/2.png","","direct","","-14"
"","image-slider-response","300","638672","0.0-12.0-0.16","02a80kdxm7","many_one","0","indirect_first","0","de06im12","1","30","1","1","3","1","","0","1","0","4174","","","","","pos","CS","CS","3","category3/CS5.png","targets/33.png","","direct","","-61"
"","image-slider-response","301","642655","0.0-12.0-0.17","02a80kdxm7","many_one","0","indirect_first","0","de06im12","1","30","1","1","3","1","","0","1","0","3980","","","","","pos","GS","GSold","4","category4/CS8.png","targets/10.png","","direct","","-59"
"","image-slider-response","302","655320","0.0-12.0-0.18","02a80kdxm7","many_one","0","indirect_first","0","de06im12","1","30","1","1","3","1","","0","1","0","12662","","","","","neg","CS","CS","2","category2/CS10.png","targets/18.png","","direct","","19"
"","image-slider-response","303","658762","0.0-12.0-0.19","02a80kdxm7","many_one","0","indirect_first","0","de06im12","1","30","1","1","3","1","","0","1","0","3440","","","","","pos","CS","CS","4","category4/CS5.png","targets/13.png","","direct","","-45"
"","image-slider-response","304","664076","0.0-12.0-0.20","02a80kdxm7","many_one","0","indirect_first","0","de06im12","1","30","1","1","3","1","","0","1","0","5309","","","","","neg","GS","abstract","1","category1/ma.png","targets/26.png","","direct","","31"
"","image-slider-response","305","667340","0.0-12.0-0.21","02a80kdxm7","many_one","0","indirect_first","0","de06im12","1","30","1","1","3","1","","0","1","0","3261","","","","","neg","GS","GSnew","2","category2/GS2.png","targets/46.png","","direct","","-39"
"","image-slider-response","306","671693","0.0-12.0-0.22","02a80kdxm7","many_one","0","indirect_first","0","de06im12","1","30","1","1","3","1","","0","1","0","4349","","","","","neg","CS","CS","1","category1/CS5.png","targets/1.png","","direct","","-35"
"","image-slider-response","307","676846","0.0-12.0-0.23","02a80kdxm7","many_one","0","indirect_first","0","de06im12","1","30","1","1","3","1","","0","1","0","5150","","","","","pos","CS","CS","3","category3/CS9.png","targets/29.png","","direct","","1"
"","image-slider-response","308","680669","0.0-12.0-0.24","02a80kdxm7","many_one","0","indirect_first","0","de06im12","1","30","1","1","3","1","","0","1","0","3817","","","","","neg","CS","CS","2","category2/CS4.png","targets/41.png","","direct","","17"
"","image-slider-response","309","683135","0.0-12.0-0.25","02a80kdxm7","many_one","0","indirect_first","0","de06im12","1","30","1","1","3","1","","0","1","0","2461","","","","","neg","CS","CS","2","category2/CS3.png","targets/31.png","","direct","","-41"
"","image-slider-response","310","685966","0.0-12.0-0.26","02a80kdxm7","many_one","0","indirect_first","0","de06im12","1","30","1","1","3","1","","0","1","0","2829","","","","","neg","GS","GSold","1","category1/CS2.png","targets/35.png","","direct","","-47"
"","image-slider-response","311","690390","0.0-12.0-0.27","02a80kdxm7","many_one","0","indirect_first","0","de06im12","1","30","1","1","3","1","","0","1","0","4421","","","","","neg","CS","CS","1","category1/CS8.png","targets/3.png","","direct","","18"
"","image-slider-response","312","693335","0.0-12.0-0.28","02a80kdxm7","many_one","0","indirect_first","0","de06im12","1","30","1","1","3","1","","0","1","0","2942","","","","","neg","GS","GSnew","1","category1/GS1.png","targets/40.png","","direct","","-28"
"","image-slider-response","313","698375","0.0-12.0-0.29","02a80kdxm7","many_one","0","indirect_first","0","de06im12","1","30","1","1","3","1","","0","1","0","5038","","","","","neg","CS","CS","2","category2/CS1.png","targets/17.png","","direct","","-49"
"","image-slider-response","314","706032","0.0-12.0-0.30","02a80kdxm7","many_one","0","indirect_first","0","de06im12","1","30","1","1","3","1","","0","1","0","7653","","","","","neg","GS","GSold","2","category2/CS2.png","targets/44.png","","direct","","-37"
"","image-slider-response","315","708809","0.0-12.0-0.31","02a80kdxm7","many_one","0","indirect_first","0","de06im12","1","30","1","1","3","1","","0","1","0","2774","","","","","neg","GS","GSnew","1","category1/GS3.png","targets/24.png","","direct","","-100"
"","image-slider-response","316","711792","0.0-12.0-0.32","02a80kdxm7","many_one","0","indirect_first","0","de06im12","1","30","1","1","3","1","","0","1","0","2978","","","","","neg","GS","GSold","1","category1/CS4.png","targets/6.png","","direct","","-100"
"","image-slider-response","317","714448","0.0-12.0-0.33","02a80kdxm7","many_one","0","indirect_first","0","de06im12","1","30","1","1","3","1","","0","1","0","2653","","","","","pos","CS","CS","4","category4/CS1.png","targets/37.png","","direct","","43"
"","image-slider-response","318","717883","0.0-12.0-0.34","02a80kdxm7","many_one","0","indirect_first","0","de06im12","1","30","1","1","3","1","","0","1","0","3433","","","","","pos","GS","abstract","4","category4/lin.png","targets/48.png","","direct","","35"
"","image-slider-response","319","720746","0.0-12.0-0.35","02a80kdxm7","many_one","0","indirect_first","0","de06im12","1","30","1","1","3","1","","0","1","0","2859","","","","","pos","GS","abstract","3","category3/wang.png","targets/20.png","","direct","","100"
"","image-slider-response","320","723634","0.0-12.0-0.36","02a80kdxm7","many_one","0","indirect_first","0","de06im12","1","30","1","1","3","1","","0","1","0","2885","","","","","pos","GS","GSnew","3","category3/GS3.png","targets/32.png","","direct","","-28"
"","image-slider-response","321","727155","0.0-12.0-0.37","02a80kdxm7","many_one","0","indirect_first","0","de06im12","1","30","1","1","3","1","","0","1","0","3518","","","","","pos","GS","GSnew","3","category3/GS1.png","targets/4.png","","direct","","-29"
"","image-slider-response","322","730052","0.0-12.0-0.38","02a80kdxm7","many_one","0","indirect_first","0","de06im12","1","30","1","1","3","1","","0","1","0","2895","","","","","pos","GS","GSnew","4","category4/GS1.png","targets/14.png","","direct","","-42"
"","image-slider-response","323","733163","0.0-12.0-0.39","02a80kdxm7","many_one","0","indirect_first","0","de06im12","1","30","1","1","3","1","","0","1","0","3107","","","","","pos","GS","GSnew","4","category4/GS2.png","targets/43.png","","direct","","-60"
"","image-slider-response","324","736563","0.0-12.0-0.40","02a80kdxm7","many_one","0","indirect_first","0","de06im12","1","30","1","1","3","1","","0","1","0","3396","","","","","neg","GS","GSnew","2","category2/GS3.png","targets/7.png","","direct","","-55"
"","image-slider-response","325","741445","0.0-12.0-0.41","02a80kdxm7","many_one","0","indirect_first","0","de06im12","1","30","1","1","3","1","","0","1","0","4879","","","","","neg","GS","GSnew","1","category1/GS2.png","targets/12.png","","direct","","11"
"","image-slider-response","326","744572","0.0-12.0-0.42","02a80kdxm7","many_one","0","indirect_first","0","de06im12","1","30","1","1","3","1","","0","1","0","3124","","","","","pos","CS","CS","4","category4/CS4.png","targets/23.png","","direct","","-27"
"","image-slider-response","327","748141","0.0-12.0-0.43","02a80kdxm7","many_one","0","indirect_first","0","de06im12","1","30","1","1","3","1","","0","1","0","3566","","","","","pos","CS","CS","3","category3/CS8.png","targets/21.png","","direct","","-28"
"","image-slider-response","328","751198","0.0-12.0-0.44","02a80kdxm7","many_one","0","indirect_first","0","de06im12","1","30","1","1","3","1","","0","1","0","3054","","","","","pos","CS","CS","3","category3/CS3.png","targets/45.png","","direct","","36"
"","image-slider-response","329","753660","0.0-12.0-0.45","02a80kdxm7","many_one","0","indirect_first","0","de06im12","1","30","1","1","3","1","","0","1","0","2460","","","","","pos","CS","CS","4","category4/CS6.png","targets/36.png","","direct","","-27"
