"success","trial_type","trial_index","time_elapsed","internal_node_id","subject","condition","condition_code","measure","measure_code","codeword","gender","age","education","chinese","fach","handedness","comment","hinschauen","ablenkung","gewissenhaft","rt","url","responses","stimulus","key_press","val","type","type_specific","category","cs_selected","response","target","task","indirect","nr_pres"
"true","fullscreen","0","62363","0.0-0.0","3uzo9du3nx","many_one","0","direct_first","1","ER06EN23","0","25","1","1","3","1","","0","1","0","","","","","","","","","","","","","","",""
"","external-html","1","655491","0.0-1.0","3uzo9du3nx","many_one","0","direct_first","1","ER06EN23","0","25","1","1","3","1","","0","1","0","592957.5650000479","text/information.html","","","","","","","","","","","","",""
"","external-html","2","707689","0.0-2.0","3uzo9du3nx","many_one","0","direct_first","1","ER06EN23","0","25","1","1","3","1","","0","1","0","52012.27999990806","text/consent.html","","","","","","","","","","","","",""
"","survey-html-form","3","763545","0.0-3.0","3uzo9du3nx","many_one","0","direct_first","1","ER06EN23","0","25","1","1","3","1","","0","1","0","55827.04999996349","","{""codeword_enter"":""ER06EN23""}","","","","","","","","","","","",""
"","survey-html-form","4","776442","0.0-4.0","3uzo9du3nx","many_one","0","direct_first","1","ER06EN23","0","25","1","1","3","1","","0","1","0","12861.294999951497","","{""age"":""25"",""education"":""1"",""subject"":""3"",""gender"":""0"",""handedness"":""1"",""chinese"":""1""}","","","","","","","","","","","",""
"","survey-html-form","5","790858","0.0-5.0","3uzo9du3nx","many_one","0","direct_first","1","ER06EN23","0","25","1","1","3","1","","0","1","0","14390.209999866784","","{}","","","","","","","","","","","",""
"","html-keyboard-response","6","794897","0.0-6.0-0.0-0.0","3uzo9du3nx","many_one","0","direct_first","1","ER06EN23","0","25","1","1","3","1","","0","1","0","null","","","<div class = 'row'><div class = 'column'><img src = 'uspos/2150.bmp' width = '100%;'></div><div class = 'column'><img src = 'category2/CS1.png' width = '70%;'></div></div>","null","pos","CS","CS","2","category2/CS1.png","","","","",""
"","html-keyboard-response","7","797423","0.0-6.0-0.0-0.1","3uzo9du3nx","many_one","0","direct_first","1","ER06EN23","0","25","1","1","3","1","","0","1","0","null","","","<div class = 'row'><div class = 'column'><img src = 'usneg/6020.bmp' width = '100%;'></div><div class = 'column'><img src = 'category1/CS6.png' width = '70%;'></div></div>","null","neg","CS","CS","1","category1/CS6.png","","","","",""
"","html-keyboard-response","8","799942","0.0-6.0-0.0-0.2","3uzo9du3nx","many_one","0","direct_first","1","ER06EN23","0","25","1","1","3","1","","0","1","0","null","","","<div class = 'row'><div class = 'column'><img src = 'uspos/5760.bmp' width = '100%;'></div><div class = 'column'><img src = 'category2/CS4.png' width = '70%;'></div></div>","null","pos","CS","CS","2","category2/CS4.png","","","","",""
"","html-keyboard-response","9","802477","0.0-6.0-0.0-0.3","3uzo9du3nx","many_one","0","direct_first","1","ER06EN23","0","25","1","1","3","1","","0","1","0","null","","","<div class = 'row'><div class = 'column'><img src = 'category4/CS4.png' width = '70%;'></div><div class = 'column'><img src = 'uspos/8540.bmp' width = '100%;'></div></div>","null","pos","CS","CS","4","category4/CS4.png","","","","",""
"","html-keyboard-response","10","805003","0.0-6.0-0.0-0.4","3uzo9du3nx","many_one","0","direct_first","1","ER06EN23","0","25","1","1","3","1","","0","1","0","null","","","<div class = 'row'><div class = 'column'><img src = 'uspos/2030.bmp' width = '100%;'></div><div class = 'column'><img src = 'category2/CS5.png' width = '70%;'></div></div>","null","pos","CS","CS","2","category2/CS5.png","","","","",""
"","html-keyboard-response","11","807533","0.0-6.0-0.0-0.5","3uzo9du3nx","many_one","0","direct_first","1","ER06EN23","0","25","1","1","3","1","","0","1","0","null","","","<div class = 'row'><div class = 'column'><img src = 'category4/CS3.png' width = '70%;'></div><div class = 'column'><img src = 'uspos/1460.bmp' width = '100%;'></div></div>","null","pos","CS","CS","4","category4/CS3.png","","","","",""
"","html-keyboard-response","12","810057","0.0-6.0-0.0-0.6","3uzo9du3nx","many_one","0","direct_first","1","ER06EN23","0","25","1","1","3","1","","0","1","0","null","","","<div class = 'row'><div class = 'column'><img src = 'usneg/9520.bmp' width = '100%;'></div><div class = 'column'><img src = 'category1/CS8.png' width = '70%;'></div></div>","null","neg","CS","CS","1","category1/CS8.png","","","","",""
"","html-keyboard-response","13","812585","0.0-6.0-0.0-0.7","3uzo9du3nx","many_one","0","direct_first","1","ER06EN23","0","25","1","1","3","1","","0","1","0","null","","","<div class = 'row'><div class = 'column'><img src = 'category1/CS5.png' width = '70%;'></div><div class = 'column'><img src = 'usneg/3160.bmp' width = '100%;'></div></div>","null","neg","CS","CS","1","category1/CS5.png","","","","",""
"","html-keyboard-response","14","815111","0.0-6.0-0.0-0.8","3uzo9du3nx","many_one","0","direct_first","1","ER06EN23","0","25","1","1","3","1","","0","1","0","null","","","<div class = 'row'><div class = 'column'><img src = 'category3/CS2.png' width = '70%;'></div><div class = 'column'><img src = 'usneg/2141.bmp' width = '100%;'></div></div>","null","neg","CS","CS","3","category3/CS2.png","","","","",""
"","html-keyboard-response","15","817640","0.0-6.0-0.0-0.9","3uzo9du3nx","many_one","0","direct_first","1","ER06EN23","0","25","1","1","3","1","","0","1","0","null","","","<div class = 'row'><div class = 'column'><img src = 'category4/CS6.png' width = '70%;'></div><div class = 'column'><img src = 'uspos/4599.bmp' width = '100%;'></div></div>","null","pos","CS","CS","4","category4/CS6.png","","","","",""
"","html-keyboard-response","16","820163","0.0-6.0-0.0-0.10","3uzo9du3nx","many_one","0","direct_first","1","ER06EN23","0","25","1","1","3","1","","0","1","0","null","","","<div class = 'row'><div class = 'column'><img src = 'category3/CS5.png' width = '70%;'></div><div class = 'column'><img src = 'usneg/9404.bmp' width = '100%;'></div></div>","null","neg","CS","CS","3","category3/CS5.png","","","","",""
"","html-keyboard-response","17","822693","0.0-6.0-0.0-0.11","3uzo9du3nx","many_one","0","direct_first","1","ER06EN23","0","25","1","1","3","1","","0","1","0","null","","","<div class = 'row'><div class = 'column'><img src = 'category3/CS10.png' width = '70%;'></div><div class = 'column'><img src = 'usneg/7380.bmp' width = '100%;'></div></div>","null","neg","CS","CS","3","category3/CS10.png","","","","",""
"","html-keyboard-response","18","825219","0.0-6.0-0.0-0.12","3uzo9du3nx","many_one","0","direct_first","1","ER06EN23","0","25","1","1","3","1","","0","1","0","null","","","<div class = 'row'><div class = 'column'><img src = 'usneg/9180.bmp' width = '100%;'></div><div class = 'column'><img src = 'category1/CS4.png' width = '70%;'></div></div>","null","neg","CS","CS","1","category1/CS4.png","","","","",""
"","html-keyboard-response","19","827746","0.0-6.0-0.0-0.13","3uzo9du3nx","many_one","0","direct_first","1","ER06EN23","0","25","1","1","3","1","","0","1","0","null","","","<div class = 'row'><div class = 'column'><img src = 'category4/CS9.png' width = '70%;'></div><div class = 'column'><img src = 'uspos/2900.2.bmp' width = '100%;'></div></div>","null","pos","CS","CS","4","category4/CS9.png","","","","",""
"","html-keyboard-response","20","830272","0.0-6.0-0.0-0.14","3uzo9du3nx","many_one","0","direct_first","1","ER06EN23","0","25","1","1","3","1","","0","1","0","null","","","<div class = 'row'><div class = 'column'><img src = 'category1/CS1.png' width = '70%;'></div><div class = 'column'><img src = 'usneg/9220.bmp' width = '100%;'></div></div>","null","neg","CS","CS","1","category1/CS1.png","","","","",""
"","html-keyboard-response","21","832786","0.0-6.0-0.0-0.15","3uzo9du3nx","many_one","0","direct_first","1","ER06EN23","0","25","1","1","3","1","","0","1","0","null","","","<div class = 'row'><div class = 'column'><img src = 'category2/CS9.png' width = '70%;'></div><div class = 'column'><img src = 'uspos/2040.bmp' width = '100%;'></div></div>","null","pos","CS","CS","2","category2/CS9.png","","","","",""
"","html-keyboard-response","22","835306","0.0-6.0-0.0-0.16","3uzo9du3nx","many_one","0","direct_first","1","ER06EN23","0","25","1","1","3","1","","0","1","0","null","","","<div class = 'row'><div class = 'column'><img src = 'category4/CS5.png' width = '70%;'></div><div class = 'column'><img src = 'uspos/8461.bmp' width = '100%;'></div></div>","null","pos","CS","CS","4","category4/CS5.png","","","","",""
"","html-keyboard-response","23","837827","0.0-6.0-0.0-0.17","3uzo9du3nx","many_one","0","direct_first","1","ER06EN23","0","25","1","1","3","1","","0","1","0","null","","","<div class = 'row'><div class = 'column'><img src = 'usneg/9435.bmp' width = '100%;'></div><div class = 'column'><img src = 'category3/CS6.png' width = '70%;'></div></div>","null","neg","CS","CS","3","category3/CS6.png","","","","",""
"","html-keyboard-response","24","840341","0.0-6.0-0.0-0.18","3uzo9du3nx","many_one","0","direct_first","1","ER06EN23","0","25","1","1","3","1","","0","1","0","null","","","<div class = 'row'><div class = 'column'><img src = 'category2/CS10.png' width = '70%;'></div><div class = 'column'><img src = 'uspos/1340.bmp' width = '100%;'></div></div>","null","pos","CS","CS","2","category2/CS10.png","","","","",""
"","html-keyboard-response","25","842871","0.0-6.0-0.0-0.19","3uzo9du3nx","many_one","0","direct_first","1","ER06EN23","0","25","1","1","3","1","","0","1","0","null","","","<div class = 'row'><div class = 'column'><img src = 'category3/CS3.png' width = '70%;'></div><div class = 'column'><img src = 'usneg/3300.bmp' width = '100%;'></div></div>","null","neg","CS","CS","3","category3/CS3.png","","","","",""
"","survey-html-form","26","845008","0.0-6.0-1.0","3uzo9du3nx","many_one","0","direct_first","1","ER06EN23","0","25","1","1","3","1","","0","1","0","1624.2150000762194","","{}","","","","","","","","","","","",""
"","html-keyboard-response","27","849049","0.0-6.0-2.0-0.0","3uzo9du3nx","many_one","0","direct_first","1","ER06EN23","0","25","1","1","3","1","","0","1","0","null","","","<div class = 'row'><div class = 'column'><img src = 'uspos/5760.bmp' width = '100%;'></div><div class = 'column'><img src = 'category2/CS4.png' width = '70%;'></div></div>","null","pos","CS","CS","2","category2/CS4.png","","","","",""
"","html-keyboard-response","28","851577","0.0-6.0-2.0-0.1","3uzo9du3nx","many_one","0","direct_first","1","ER06EN23","0","25","1","1","3","1","","0","1","0","null","","","<div class = 'row'><div class = 'column'><img src = 'category3/CS5.png' width = '70%;'></div><div class = 'column'><img src = 'usneg/9404.bmp' width = '100%;'></div></div>","null","neg","CS","CS","3","category3/CS5.png","","","","",""
"","html-keyboard-response","29","854103","0.0-6.0-2.0-0.2","3uzo9du3nx","many_one","0","direct_first","1","ER06EN23","0","25","1","1","3","1","","0","1","0","null","","","<div class = 'row'><div class = 'column'><img src = 'category3/CS10.png' width = '70%;'></div><div class = 'column'><img src = 'usneg/7380.bmp' width = '100%;'></div></div>","null","neg","CS","CS","3","category3/CS10.png","","","","",""
"","html-keyboard-response","30","856628","0.0-6.0-2.0-0.3","3uzo9du3nx","many_one","0","direct_first","1","ER06EN23","0","25","1","1","3","1","","0","1","0","null","","","<div class = 'row'><div class = 'column'><img src = 'uspos/1460.bmp' width = '100%;'></div><div class = 'column'><img src = 'category4/CS3.png' width = '70%;'></div></div>","null","pos","CS","CS","4","category4/CS3.png","","","","",""
"","html-keyboard-response","31","859150","0.0-6.0-2.0-0.4","3uzo9du3nx","many_one","0","direct_first","1","ER06EN23","0","25","1","1","3","1","","0","1","0","null","","","<div class = 'row'><div class = 'column'><img src = 'category4/CS6.png' width = '70%;'></div><div class = 'column'><img src = 'uspos/4599.bmp' width = '100%;'></div></div>","null","pos","CS","CS","4","category4/CS6.png","","","","",""
"","html-keyboard-response","32","861685","0.0-6.0-2.0-0.5","3uzo9du3nx","many_one","0","direct_first","1","ER06EN23","0","25","1","1","3","1","","0","1","0","null","","","<div class = 'row'><div class = 'column'><img src = 'category1/CS4.png' width = '70%;'></div><div class = 'column'><img src = 'usneg/9180.bmp' width = '100%;'></div></div>","null","neg","CS","CS","1","category1/CS4.png","","","","",""
"","html-keyboard-response","33","864211","0.0-6.0-2.0-0.6","3uzo9du3nx","many_one","0","direct_first","1","ER06EN23","0","25","1","1","3","1","","0","1","0","null","","","<div class = 'row'><div class = 'column'><img src = 'usneg/3160.bmp' width = '100%;'></div><div class = 'column'><img src = 'category1/CS5.png' width = '70%;'></div></div>","null","neg","CS","CS","1","category1/CS5.png","","","","",""
"","html-keyboard-response","34","866740","0.0-6.0-2.0-0.7","3uzo9du3nx","many_one","0","direct_first","1","ER06EN23","0","25","1","1","3","1","","0","1","0","null","","","<div class = 'row'><div class = 'column'><img src = 'uspos/2900.2.bmp' width = '100%;'></div><div class = 'column'><img src = 'category4/CS9.png' width = '70%;'></div></div>","null","pos","CS","CS","4","category4/CS9.png","","","","",""
"","html-keyboard-response","35","869265","0.0-6.0-2.0-0.8","3uzo9du3nx","many_one","0","direct_first","1","ER06EN23","0","25","1","1","3","1","","0","1","0","null","","","<div class = 'row'><div class = 'column'><img src = 'category2/CS1.png' width = '70%;'></div><div class = 'column'><img src = 'uspos/2150.bmp' width = '100%;'></div></div>","null","pos","CS","CS","2","category2/CS1.png","","","","",""
"","html-keyboard-response","36","871793","0.0-6.0-2.0-0.9","3uzo9du3nx","many_one","0","direct_first","1","ER06EN23","0","25","1","1","3","1","","0","1","0","null","","","<div class = 'row'><div class = 'column'><img src = 'category4/CS5.png' width = '70%;'></div><div class = 'column'><img src = 'uspos/8461.bmp' width = '100%;'></div></div>","null","pos","CS","CS","4","category4/CS5.png","","","","",""
"","html-keyboard-response","37","874320","0.0-6.0-2.0-0.10","3uzo9du3nx","many_one","0","direct_first","1","ER06EN23","0","25","1","1","3","1","","0","1","0","null","","","<div class = 'row'><div class = 'column'><img src = 'category1/CS8.png' width = '70%;'></div><div class = 'column'><img src = 'usneg/9520.bmp' width = '100%;'></div></div>","null","neg","CS","CS","1","category1/CS8.png","","","","",""
"","html-keyboard-response","38","876838","0.0-6.0-2.0-0.11","3uzo9du3nx","many_one","0","direct_first","1","ER06EN23","0","25","1","1","3","1","","0","1","0","null","","","<div class = 'row'><div class = 'column'><img src = 'category1/CS1.png' width = '70%;'></div><div class = 'column'><img src = 'usneg/9220.bmp' width = '100%;'></div></div>","null","neg","CS","CS","1","category1/CS1.png","","","","",""
"","html-keyboard-response","39","879374","0.0-6.0-2.0-0.12","3uzo9du3nx","many_one","0","direct_first","1","ER06EN23","0","25","1","1","3","1","","0","1","0","null","","","<div class = 'row'><div class = 'column'><img src = 'category1/CS6.png' width = '70%;'></div><div class = 'column'><img src = 'usneg/6020.bmp' width = '100%;'></div></div>","null","neg","CS","CS","1","category1/CS6.png","","","","",""
"","html-keyboard-response","40","881900","0.0-6.0-2.0-0.13","3uzo9du3nx","many_one","0","direct_first","1","ER06EN23","0","25","1","1","3","1","","0","1","0","null","","","<div class = 'row'><div class = 'column'><img src = 'uspos/2040.bmp' width = '100%;'></div><div class = 'column'><img src = 'category2/CS9.png' width = '70%;'></div></div>","null","pos","CS","CS","2","category2/CS9.png","","","","",""
"","html-keyboard-response","41","884429","0.0-6.0-2.0-0.14","3uzo9du3nx","many_one","0","direct_first","1","ER06EN23","0","25","1","1","3","1","","0","1","0","null","","","<div class = 'row'><div class = 'column'><img src = 'category3/CS6.png' width = '70%;'></div><div class = 'column'><img src = 'usneg/9435.bmp' width = '100%;'></div></div>","null","neg","CS","CS","3","category3/CS6.png","","","","",""
"","html-keyboard-response","42","886954","0.0-6.0-2.0-0.15","3uzo9du3nx","many_one","0","direct_first","1","ER06EN23","0","25","1","1","3","1","","0","1","0","null","","","<div class = 'row'><div class = 'column'><img src = 'uspos/8540.bmp' width = '100%;'></div><div class = 'column'><img src = 'category4/CS4.png' width = '70%;'></div></div>","null","pos","CS","CS","4","category4/CS4.png","","","","",""
"","html-keyboard-response","43","889481","0.0-6.0-2.0-0.16","3uzo9du3nx","many_one","0","direct_first","1","ER06EN23","0","25","1","1","3","1","","0","1","0","null","","","<div class = 'row'><div class = 'column'><img src = 'usneg/3300.bmp' width = '100%;'></div><div class = 'column'><img src = 'category3/CS3.png' width = '70%;'></div></div>","null","neg","CS","CS","3","category3/CS3.png","","","","",""
"","html-keyboard-response","44","892009","0.0-6.0-2.0-0.17","3uzo9du3nx","many_one","0","direct_first","1","ER06EN23","0","25","1","1","3","1","","0","1","0","null","","","<div class = 'row'><div class = 'column'><img src = 'usneg/2141.bmp' width = '100%;'></div><div class = 'column'><img src = 'category3/CS2.png' width = '70%;'></div></div>","null","neg","CS","CS","3","category3/CS2.png","","","","",""
"","html-keyboard-response","45","894534","0.0-6.0-2.0-0.18","3uzo9du3nx","many_one","0","direct_first","1","ER06EN23","0","25","1","1","3","1","","0","1","0","null","","","<div class = 'row'><div class = 'column'><img src = 'uspos/1340.bmp' width = '100%;'></div><div class = 'column'><img src = 'category2/CS10.png' width = '70%;'></div></div>","null","pos","CS","CS","2","category2/CS10.png","","","","",""
"","html-keyboard-response","46","897061","0.0-6.0-2.0-0.19","3uzo9du3nx","many_one","0","direct_first","1","ER06EN23","0","25","1","1","3","1","","0","1","0","null","","","<div class = 'row'><div class = 'column'><img src = 'category2/CS5.png' width = '70%;'></div><div class = 'column'><img src = 'uspos/2030.bmp' width = '100%;'></div></div>","null","pos","CS","CS","2","category2/CS5.png","","","","",""
"","survey-html-form","47","899476","0.0-6.0-3.0","3uzo9du3nx","many_one","0","direct_first","1","ER06EN23","0","25","1","1","3","1","","0","1","0","1901.8500000238419","","{}","","","","","","","","","","","",""
"","html-keyboard-response","48","903505","0.0-6.0-4.0-0.0","3uzo9du3nx","many_one","0","direct_first","1","ER06EN23","0","25","1","1","3","1","","0","1","0","null","","","<div class = 'row'><div class = 'column'><img src = 'category4/CS9.png' width = '70%;'></div><div class = 'column'><img src = 'uspos/2900.2.bmp' width = '100%;'></div></div>","null","pos","CS","CS","4","category4/CS9.png","","","","",""
"","html-keyboard-response","49","906024","0.0-6.0-4.0-0.1","3uzo9du3nx","many_one","0","direct_first","1","ER06EN23","0","25","1","1","3","1","","0","1","0","null","","","<div class = 'row'><div class = 'column'><img src = 'category3/CS6.png' width = '70%;'></div><div class = 'column'><img src = 'usneg/9435.bmp' width = '100%;'></div></div>","null","neg","CS","CS","3","category3/CS6.png","","","","",""
"","html-keyboard-response","50","908560","0.0-6.0-4.0-0.2","3uzo9du3nx","many_one","0","direct_first","1","ER06EN23","0","25","1","1","3","1","","0","1","0","null","","","<div class = 'row'><div class = 'column'><img src = 'usneg/3300.bmp' width = '100%;'></div><div class = 'column'><img src = 'category3/CS3.png' width = '70%;'></div></div>","null","neg","CS","CS","3","category3/CS3.png","","","","",""
"","html-keyboard-response","51","911088","0.0-6.0-4.0-0.3","3uzo9du3nx","many_one","0","direct_first","1","ER06EN23","0","25","1","1","3","1","","0","1","0","null","","","<div class = 'row'><div class = 'column'><img src = 'usneg/3160.bmp' width = '100%;'></div><div class = 'column'><img src = 'category1/CS5.png' width = '70%;'></div></div>","null","neg","CS","CS","1","category1/CS5.png","","","","",""
"","html-keyboard-response","52","913610","0.0-6.0-4.0-0.4","3uzo9du3nx","many_one","0","direct_first","1","ER06EN23","0","25","1","1","3","1","","0","1","0","null","","","<div class = 'row'><div class = 'column'><img src = 'category1/CS4.png' width = '70%;'></div><div class = 'column'><img src = 'usneg/9180.bmp' width = '100%;'></div></div>","null","neg","CS","CS","1","category1/CS4.png","","","","",""
"","html-keyboard-response","53","916142","0.0-6.0-4.0-0.5","3uzo9du3nx","many_one","0","direct_first","1","ER06EN23","0","25","1","1","3","1","","0","1","0","null","","","<div class = 'row'><div class = 'column'><img src = 'uspos/8461.bmp' width = '100%;'></div><div class = 'column'><img src = 'category4/CS5.png' width = '70%;'></div></div>","null","pos","CS","CS","4","category4/CS5.png","","","","",""
"","html-keyboard-response","54","918652","0.0-6.0-4.0-0.6","3uzo9du3nx","many_one","0","direct_first","1","ER06EN23","0","25","1","1","3","1","","0","1","0","null","","","<div class = 'row'><div class = 'column'><img src = 'category3/CS10.png' width = '70%;'></div><div class = 'column'><img src = 'usneg/7380.bmp' width = '100%;'></div></div>","null","neg","CS","CS","3","category3/CS10.png","","","","",""
"","html-keyboard-response","55","921180","0.0-6.0-4.0-0.7","3uzo9du3nx","many_one","0","direct_first","1","ER06EN23","0","25","1","1","3","1","","0","1","0","null","","","<div class = 'row'><div class = 'column'><img src = 'uspos/1460.bmp' width = '100%;'></div><div class = 'column'><img src = 'category4/CS3.png' width = '70%;'></div></div>","null","pos","CS","CS","4","category4/CS3.png","","","","",""
"","html-keyboard-response","56","923721","0.0-6.0-4.0-0.8","3uzo9du3nx","many_one","0","direct_first","1","ER06EN23","0","25","1","1","3","1","","0","1","0","null","","","<div class = 'row'><div class = 'column'><img src = 'uspos/1340.bmp' width = '100%;'></div><div class = 'column'><img src = 'category2/CS10.png' width = '70%;'></div></div>","null","pos","CS","CS","2","category2/CS10.png","","","","",""
"","html-keyboard-response","57","926250","0.0-6.0-4.0-0.9","3uzo9du3nx","many_one","0","direct_first","1","ER06EN23","0","25","1","1","3","1","","0","1","0","null","","","<div class = 'row'><div class = 'column'><img src = 'uspos/2040.bmp' width = '100%;'></div><div class = 'column'><img src = 'category2/CS9.png' width = '70%;'></div></div>","null","pos","CS","CS","2","category2/CS9.png","","","","",""
"","html-keyboard-response","58","928794","0.0-6.0-4.0-0.10","3uzo9du3nx","many_one","0","direct_first","1","ER06EN23","0","25","1","1","3","1","","0","1","0","null","","","<div class = 'row'><div class = 'column'><img src = 'category4/CS6.png' width = '70%;'></div><div class = 'column'><img src = 'uspos/4599.bmp' width = '100%;'></div></div>","null","pos","CS","CS","4","category4/CS6.png","","","","",""
"","html-keyboard-response","59","931321","0.0-6.0-4.0-0.11","3uzo9du3nx","many_one","0","direct_first","1","ER06EN23","0","25","1","1","3","1","","0","1","0","null","","","<div class = 'row'><div class = 'column'><img src = 'usneg/9520.bmp' width = '100%;'></div><div class = 'column'><img src = 'category1/CS8.png' width = '70%;'></div></div>","null","neg","CS","CS","1","category1/CS8.png","","","","",""
"","html-keyboard-response","60","933865","0.0-6.0-4.0-0.12","3uzo9du3nx","many_one","0","direct_first","1","ER06EN23","0","25","1","1","3","1","","0","1","0","null","","","<div class = 'row'><div class = 'column'><img src = 'category3/CS5.png' width = '70%;'></div><div class = 'column'><img src = 'usneg/9404.bmp' width = '100%;'></div></div>","null","neg","CS","CS","3","category3/CS5.png","","","","",""
"","html-keyboard-response","61","936392","0.0-6.0-4.0-0.13","3uzo9du3nx","many_one","0","direct_first","1","ER06EN23","0","25","1","1","3","1","","0","1","0","null","","","<div class = 'row'><div class = 'column'><img src = 'category2/CS5.png' width = '70%;'></div><div class = 'column'><img src = 'uspos/2030.bmp' width = '100%;'></div></div>","null","pos","CS","CS","2","category2/CS5.png","","","","",""
"","html-keyboard-response","62","938925","0.0-6.0-4.0-0.14","3uzo9du3nx","many_one","0","direct_first","1","ER06EN23","0","25","1","1","3","1","","0","1","0","null","","","<div class = 'row'><div class = 'column'><img src = 'category4/CS4.png' width = '70%;'></div><div class = 'column'><img src = 'uspos/8540.bmp' width = '100%;'></div></div>","null","pos","CS","CS","4","category4/CS4.png","","","","",""
"","html-keyboard-response","63","941460","0.0-6.0-4.0-0.15","3uzo9du3nx","many_one","0","direct_first","1","ER06EN23","0","25","1","1","3","1","","0","1","0","null","","","<div class = 'row'><div class = 'column'><img src = 'usneg/2141.bmp' width = '100%;'></div><div class = 'column'><img src = 'category3/CS2.png' width = '70%;'></div></div>","null","neg","CS","CS","3","category3/CS2.png","","","","",""
"","html-keyboard-response","64","943989","0.0-6.0-4.0-0.16","3uzo9du3nx","many_one","0","direct_first","1","ER06EN23","0","25","1","1","3","1","","0","1","0","null","","","<div class = 'row'><div class = 'column'><img src = 'uspos/2150.bmp' width = '100%;'></div><div class = 'column'><img src = 'category2/CS1.png' width = '70%;'></div></div>","null","pos","CS","CS","2","category2/CS1.png","","","","",""
"","html-keyboard-response","65","946517","0.0-6.0-4.0-0.17","3uzo9du3nx","many_one","0","direct_first","1","ER06EN23","0","25","1","1","3","1","","0","1","0","null","","","<div class = 'row'><div class = 'column'><img src = 'uspos/5760.bmp' width = '100%;'></div><div class = 'column'><img src = 'category2/CS4.png' width = '70%;'></div></div>","null","pos","CS","CS","2","category2/CS4.png","","","","",""
"","html-keyboard-response","66","949044","0.0-6.0-4.0-0.18","3uzo9du3nx","many_one","0","direct_first","1","ER06EN23","0","25","1","1","3","1","","0","1","0","null","","","<div class = 'row'><div class = 'column'><img src = 'category1/CS1.png' width = '70%;'></div><div class = 'column'><img src = 'usneg/9220.bmp' width = '100%;'></div></div>","null","neg","CS","CS","1","category1/CS1.png","","","","",""
"","html-keyboard-response","67","951564","0.0-6.0-4.0-0.19","3uzo9du3nx","many_one","0","direct_first","1","ER06EN23","0","25","1","1","3","1","","0","1","0","null","","","<div class = 'row'><div class = 'column'><img src = 'category1/CS6.png' width = '70%;'></div><div class = 'column'><img src = 'usneg/6020.bmp' width = '100%;'></div></div>","null","neg","CS","CS","1","category1/CS6.png","","","","",""
"","survey-html-form","68","953870","0.0-6.0-5.0","3uzo9du3nx","many_one","0","direct_first","1","ER06EN23","0","25","1","1","3","1","","0","1","0","1790.210000006482","","{}","","","","","","","","","","","",""
"","html-keyboard-response","69","957895","0.0-6.0-6.0-0.0","3uzo9du3nx","many_one","0","direct_first","1","ER06EN23","0","25","1","1","3","1","","0","1","0","null","","","<div class = 'row'><div class = 'column'><img src = 'category4/CS4.png' width = '70%;'></div><div class = 'column'><img src = 'uspos/8540.bmp' width = '100%;'></div></div>","null","pos","CS","CS","4","category4/CS4.png","","","","",""
"","html-keyboard-response","70","960423","0.0-6.0-6.0-0.1","3uzo9du3nx","many_one","0","direct_first","1","ER06EN23","0","25","1","1","3","1","","0","1","0","null","","","<div class = 'row'><div class = 'column'><img src = 'usneg/2141.bmp' width = '100%;'></div><div class = 'column'><img src = 'category3/CS2.png' width = '70%;'></div></div>","null","neg","CS","CS","3","category3/CS2.png","","","","",""
"","html-keyboard-response","71","962948","0.0-6.0-6.0-0.2","3uzo9du3nx","many_one","0","direct_first","1","ER06EN23","0","25","1","1","3","1","","0","1","0","null","","","<div class = 'row'><div class = 'column'><img src = 'category4/CS6.png' width = '70%;'></div><div class = 'column'><img src = 'uspos/4599.bmp' width = '100%;'></div></div>","null","pos","CS","CS","4","category4/CS6.png","","","","",""
"","html-keyboard-response","72","965468","0.0-6.0-6.0-0.3","3uzo9du3nx","many_one","0","direct_first","1","ER06EN23","0","25","1","1","3","1","","0","1","0","null","","","<div class = 'row'><div class = 'column'><img src = 'category1/CS1.png' width = '70%;'></div><div class = 'column'><img src = 'usneg/9220.bmp' width = '100%;'></div></div>","null","neg","CS","CS","1","category1/CS1.png","","","","",""
"","html-keyboard-response","73","968002","0.0-6.0-6.0-0.4","3uzo9du3nx","many_one","0","direct_first","1","ER06EN23","0","25","1","1","3","1","","0","1","0","null","","","<div class = 'row'><div class = 'column'><img src = 'usneg/6020.bmp' width = '100%;'></div><div class = 'column'><img src = 'category1/CS6.png' width = '70%;'></div></div>","null","neg","CS","CS","1","category1/CS6.png","","","","",""
"","html-keyboard-response","74","970525","0.0-6.0-6.0-0.5","3uzo9du3nx","many_one","0","direct_first","1","ER06EN23","0","25","1","1","3","1","","0","1","0","null","","","<div class = 'row'><div class = 'column'><img src = 'category2/CS4.png' width = '70%;'></div><div class = 'column'><img src = 'uspos/5760.bmp' width = '100%;'></div></div>","null","pos","CS","CS","2","category2/CS4.png","","","","",""
"","html-keyboard-response","75","973076","0.0-6.0-6.0-0.6","3uzo9du3nx","many_one","0","direct_first","1","ER06EN23","0","25","1","1","3","1","","0","1","0","null","","","<div class = 'row'><div class = 'column'><img src = 'category2/CS5.png' width = '70%;'></div><div class = 'column'><img src = 'uspos/2030.bmp' width = '100%;'></div></div>","null","pos","CS","CS","2","category2/CS5.png","","","","",""
"","html-keyboard-response","76","975601","0.0-6.0-6.0-0.7","3uzo9du3nx","many_one","0","direct_first","1","ER06EN23","0","25","1","1","3","1","","0","1","0","null","","","<div class = 'row'><div class = 'column'><img src = 'usneg/9180.bmp' width = '100%;'></div><div class = 'column'><img src = 'category1/CS4.png' width = '70%;'></div></div>","null","neg","CS","CS","1","category1/CS4.png","","","","",""
"","html-keyboard-response","77","978127","0.0-6.0-6.0-0.8","3uzo9du3nx","many_one","0","direct_first","1","ER06EN23","0","25","1","1","3","1","","0","1","0","null","","","<div class = 'row'><div class = 'column'><img src = 'uspos/2150.bmp' width = '100%;'></div><div class = 'column'><img src = 'category2/CS1.png' width = '70%;'></div></div>","null","pos","CS","CS","2","category2/CS1.png","","","","",""
"","html-keyboard-response","78","980655","0.0-6.0-6.0-0.9","3uzo9du3nx","many_one","0","direct_first","1","ER06EN23","0","25","1","1","3","1","","0","1","0","null","","","<div class = 'row'><div class = 'column'><img src = 'category2/CS10.png' width = '70%;'></div><div class = 'column'><img src = 'uspos/1340.bmp' width = '100%;'></div></div>","null","pos","CS","CS","2","category2/CS10.png","","","","",""
"","html-keyboard-response","79","983201","0.0-6.0-6.0-0.10","3uzo9du3nx","many_one","0","direct_first","1","ER06EN23","0","25","1","1","3","1","","0","1","0","null","","","<div class = 'row'><div class = 'column'><img src = 'usneg/3160.bmp' width = '100%;'></div><div class = 'column'><img src = 'category1/CS5.png' width = '70%;'></div></div>","null","neg","CS","CS","1","category1/CS5.png","","","","",""
"","html-keyboard-response","80","985719","0.0-6.0-6.0-0.11","3uzo9du3nx","many_one","0","direct_first","1","ER06EN23","0","25","1","1","3","1","","0","1","0","null","","","<div class = 'row'><div class = 'column'><img src = 'category3/CS3.png' width = '70%;'></div><div class = 'column'><img src = 'usneg/3300.bmp' width = '100%;'></div></div>","null","neg","CS","CS","3","category3/CS3.png","","","","",""
"","html-keyboard-response","81","988270","0.0-6.0-6.0-0.12","3uzo9du3nx","many_one","0","direct_first","1","ER06EN23","0","25","1","1","3","1","","0","1","0","null","","","<div class = 'row'><div class = 'column'><img src = 'category3/CS10.png' width = '70%;'></div><div class = 'column'><img src = 'usneg/7380.bmp' width = '100%;'></div></div>","null","neg","CS","CS","3","category3/CS10.png","","","","",""
"","html-keyboard-response","82","990790","0.0-6.0-6.0-0.13","3uzo9du3nx","many_one","0","direct_first","1","ER06EN23","0","25","1","1","3","1","","0","1","0","null","","","<div class = 'row'><div class = 'column'><img src = 'usneg/9404.bmp' width = '100%;'></div><div class = 'column'><img src = 'category3/CS5.png' width = '70%;'></div></div>","null","neg","CS","CS","3","category3/CS5.png","","","","",""
"","html-keyboard-response","83","993323","0.0-6.0-6.0-0.14","3uzo9du3nx","many_one","0","direct_first","1","ER06EN23","0","25","1","1","3","1","","0","1","0","null","","","<div class = 'row'><div class = 'column'><img src = 'uspos/1460.bmp' width = '100%;'></div><div class = 'column'><img src = 'category4/CS3.png' width = '70%;'></div></div>","null","pos","CS","CS","4","category4/CS3.png","","","","",""
"","html-keyboard-response","84","995846","0.0-6.0-6.0-0.15","3uzo9du3nx","many_one","0","direct_first","1","ER06EN23","0","25","1","1","3","1","","0","1","0","null","","","<div class = 'row'><div class = 'column'><img src = 'uspos/8461.bmp' width = '100%;'></div><div class = 'column'><img src = 'category4/CS5.png' width = '70%;'></div></div>","null","pos","CS","CS","4","category4/CS5.png","","","","",""
"","html-keyboard-response","85","998393","0.0-6.0-6.0-0.16","3uzo9du3nx","many_one","0","direct_first","1","ER06EN23","0","25","1","1","3","1","","0","1","0","null","","","<div class = 'row'><div class = 'column'><img src = 'category1/CS8.png' width = '70%;'></div><div class = 'column'><img src = 'usneg/9520.bmp' width = '100%;'></div></div>","null","neg","CS","CS","1","category1/CS8.png","","","","",""
"","html-keyboard-response","86","1000920","0.0-6.0-6.0-0.17","3uzo9du3nx","many_one","0","direct_first","1","ER06EN23","0","25","1","1","3","1","","0","1","0","null","","","<div class = 'row'><div class = 'column'><img src = 'uspos/2040.bmp' width = '100%;'></div><div class = 'column'><img src = 'category2/CS9.png' width = '70%;'></div></div>","null","pos","CS","CS","2","category2/CS9.png","","","","",""
"","html-keyboard-response","87","1003464","0.0-6.0-6.0-0.18","3uzo9du3nx","many_one","0","direct_first","1","ER06EN23","0","25","1","1","3","1","","0","1","0","null","","","<div class = 'row'><div class = 'column'><img src = 'category4/CS9.png' width = '70%;'></div><div class = 'column'><img src = 'uspos/2900.2.bmp' width = '100%;'></div></div>","null","pos","CS","CS","4","category4/CS9.png","","","","",""
"","html-keyboard-response","88","1005992","0.0-6.0-6.0-0.19","3uzo9du3nx","many_one","0","direct_first","1","ER06EN23","0","25","1","1","3","1","","0","1","0","null","","","<div class = 'row'><div class = 'column'><img src = 'usneg/9435.bmp' width = '100%;'></div><div class = 'column'><img src = 'category3/CS6.png' width = '70%;'></div></div>","null","neg","CS","CS","3","category3/CS6.png","","","","",""
"","survey-html-form","89","1020518","0.0-7.0","3uzo9du3nx","many_one","0","direct_first","1","ER06EN23","0","25","1","1","3","1","","0","1","0","14000.04000007175","","{}","","","","","","","","","","","",""
"","image-slider-response","90","1029910","0.0-8.0-0.0","3uzo9du3nx","many_one","0","direct_first","1","ER06EN23","0","25","1","1","3","1","","0","1","0","7371.474999934435","","","","","pos","GS","GSold","2","category2/CS7.png","45","targets/15.png","direct","",""
"","image-slider-response","91","1034845","0.0-8.0-0.1","3uzo9du3nx","many_one","0","direct_first","1","ER06EN23","0","25","1","1","3","1","","0","1","0","4929.215000011027","","","","","neg","GS","GSnew","3","category3/GS2.png","-16","targets/32.png","direct","",""
"","image-slider-response","92","1038087","0.0-8.0-0.2","3uzo9du3nx","many_one","0","direct_first","1","ER06EN23","0","25","1","1","3","1","","0","1","0","3236.320000141859","","","","","neg","GS","GSold","1","category1/CS7.png","-23","targets/8.png","direct","",""
"","image-slider-response","93","1040385","0.0-8.0-0.3","3uzo9du3nx","many_one","0","direct_first","1","ER06EN23","0","25","1","1","3","1","","0","1","0","2293.9500000793487","","","","","neg","CS","CS","3","category3/CS5.png","45","targets/34.png","direct","",""
"","image-slider-response","94","1042940","0.0-8.0-0.4","3uzo9du3nx","many_one","0","direct_first","1","ER06EN23","0","25","1","1","3","1","","0","1","0","2549.610000103712","","","","","neg","CS","CS","1","category1/CS6.png","42","targets/2.png","direct","",""
"","image-slider-response","95","1045799","0.0-8.0-0.5","3uzo9du3nx","many_one","0","direct_first","1","ER06EN23","0","25","1","1","3","1","","0","1","0","2853.750000009313","","","","","neg","GS","GSold","3","category3/CS1.png","29","targets/40.png","direct","",""
"","image-slider-response","96","1048689","0.0-8.0-0.6","3uzo9du3nx","many_one","0","direct_first","1","ER06EN23","0","25","1","1","3","1","","0","1","0","2886.1650000326335","","","","","pos","CS","CS","2","category2/CS4.png","59","targets/11.png","direct","",""
"","image-slider-response","97","1051931","0.0-8.0-0.7","3uzo9du3nx","many_one","0","direct_first","1","ER06EN23","0","25","1","1","3","1","","0","1","0","3237.0649999938905","","","","","pos","CS","CS","4","category4/CS5.png","55","targets/37.png","direct","",""
"","image-slider-response","98","1054767","0.0-8.0-0.8","3uzo9du3nx","many_one","0","direct_first","1","ER06EN23","0","25","1","1","3","1","","0","1","0","2830.7649998459965","","","","","neg","GS","GSnew","1","category1/GS1.png","-47","targets/43.png","direct","",""
"","image-slider-response","99","1057407","0.0-8.0-0.9","3uzo9du3nx","many_one","0","direct_first","1","ER06EN23","0","25","1","1","3","1","","0","1","0","2635.5749999638647","","","","","pos","CS","CS","2","category2/CS10.png","72","targets/26.png","direct","",""
"","image-slider-response","100","1059955","0.0-8.0-0.10","3uzo9du3nx","many_one","0","direct_first","1","ER06EN23","0","25","1","1","3","1","","0","1","0","2542.939999839291","","","","","pos","GS","GSnew","2","category2/GS2.png","-35","targets/14.png","direct","",""
"","image-slider-response","101","1063972","0.0-8.0-0.11","3uzo9du3nx","many_one","0","direct_first","1","ER06EN23","0","25","1","1","3","1","","0","1","0","4012.5750000588596","","","","","neg","GS","GSold","3","category3/CS8.png","-32","targets/3.png","direct","",""
"","image-slider-response","102","1066907","0.0-8.0-0.12","3uzo9du3nx","many_one","0","direct_first","1","ER06EN23","0","25","1","1","3","1","","0","1","0","2930.5149998981506","","","","","pos","GS","abstract","2","category2/men.png","-11","targets/36.png","direct","",""
"","image-slider-response","103","1069423","0.0-8.0-0.13","3uzo9du3nx","many_one","0","direct_first","1","ER06EN23","0","25","1","1","3","1","","0","1","0","2510.2599998936057","","","","","pos","CS","CS","4","category4/CS6.png","35","targets/48.png","direct","",""
"","image-slider-response","104","1072111","0.0-8.0-0.14","3uzo9du3nx","many_one","0","direct_first","1","ER06EN23","0","25","1","1","3","1","","0","1","0","2684.2600000090897","","","","","pos","GS","GSold","4","category4/CS2.png","-7","targets/23.png","direct","",""
"","image-slider-response","105","1075799","0.0-8.0-0.15","3uzo9du3nx","many_one","0","direct_first","1","ER06EN23","0","25","1","1","3","1","","0","1","0","3683.889999985695","","","","","pos","GS","GSnew","2","category2/GS1.png","-26","targets/30.png","direct","",""
"","image-slider-response","106","1077993","0.0-8.0-0.16","3uzo9du3nx","many_one","0","direct_first","1","ER06EN23","0","25","1","1","3","1","","0","1","0","2188.0099999252707","","","","","pos","GS","abstract","4","category4/lin.png","49","targets/27.png","direct","",""
"","image-slider-response","107","1081112","0.0-8.0-0.17","3uzo9du3nx","many_one","0","direct_first","1","ER06EN23","0","25","1","1","3","1","","0","1","0","3113.569999812171","","","","","neg","GS","GSnew","1","category1/GS2.png","19","targets/19.png","direct","",""
"","image-slider-response","108","1083924","0.0-8.0-0.18","3uzo9du3nx","many_one","0","direct_first","1","ER06EN23","0","25","1","1","3","1","","0","1","0","2806.1799998395145","","","","","pos","GS","GSnew","4","category4/GS1.png","26","targets/41.png","direct","",""
"","image-slider-response","109","1085846","0.0-8.0-0.19","3uzo9du3nx","many_one","0","direct_first","1","ER06EN23","0","25","1","1","3","1","","0","1","0","1917.4450000282377","","","","","neg","GS","GSold","1","category1/CS10.png","-22","targets/18.png","direct","",""
"","image-slider-response","110","1087799","0.0-8.0-0.20","3uzo9du3nx","many_one","0","direct_first","1","ER06EN23","0","25","1","1","3","1","","0","1","0","1948.7499999813735","","","","","neg","CS","CS","1","category1/CS4.png","46","targets/31.png","direct","",""
"","image-slider-response","111","1089861","0.0-8.0-0.21","3uzo9du3nx","many_one","0","direct_first","1","ER06EN23","0","25","1","1","3","1","","0","1","0","2057.689999928698","","","","","neg","GS","GSnew","1","category1/GS3.png","24","targets/21.png","direct","",""
"","image-slider-response","112","1091743","0.0-8.0-0.22","3uzo9du3nx","many_one","0","direct_first","1","ER06EN23","0","25","1","1","3","1","","0","1","0","1878.0549999792129","","","","","neg","GS","GSold","3","category3/CS4.png","27","targets/13.png","direct","",""
"","image-slider-response","113","1094477","0.0-8.0-0.23","3uzo9du3nx","many_one","0","direct_first","1","ER06EN23","0","25","1","1","3","1","","0","1","0","2729.5599998906255","","","","","pos","CS","CS","4","category4/CS3.png","-34","targets/17.png","direct","",""
"","image-slider-response","114","1098415","0.0-8.0-0.24","3uzo9du3nx","many_one","0","direct_first","1","ER06EN23","0","25","1","1","3","1","","0","1","0","3933.71000001207","","","","","neg","GS","GSold","1","category1/CS9.png","-16","targets/38.png","direct","",""
"","image-slider-response","115","1100735","0.0-8.0-0.25","3uzo9du3nx","many_one","0","direct_first","1","ER06EN23","0","25","1","1","3","1","","0","1","0","2314.689999911934","","","","","pos","GS","GSnew","4","category4/GS3.png","-23","targets/12.png","direct","",""
"","image-slider-response","116","1103125","0.0-8.0-0.26","3uzo9du3nx","many_one","0","direct_first","1","ER06EN23","0","25","1","1","3","1","","0","1","0","2385.010000085458","","","","","neg","CS","CS","1","category1/CS5.png","66","targets/9.png","direct","",""
"","image-slider-response","117","1105211","0.0-8.0-0.27","3uzo9du3nx","many_one","0","direct_first","1","ER06EN23","0","25","1","1","3","1","","0","1","0","2081.1099999118596","","","","","pos","GS","GSold","4","category4/CS1.png","38","targets/7.png","direct","",""
"","image-slider-response","118","1106899","0.0-8.0-0.28","3uzo9du3nx","many_one","0","direct_first","1","ER06EN23","0","25","1","1","3","1","","0","1","0","1683.6649999022484","","","","","pos","GS","GSold","2","category2/CS8.png","-11","targets/39.png","direct","",""
"","image-slider-response","119","1109009","0.0-8.0-0.29","3uzo9du3nx","many_one","0","direct_first","1","ER06EN23","0","25","1","1","3","1","","0","1","0","2106.0750000178814","","","","","pos","CS","CS","4","category4/CS9.png","15","targets/35.png","direct","",""
"","image-slider-response","120","1110869","0.0-8.0-0.30","3uzo9du3nx","many_one","0","direct_first","1","ER06EN23","0","25","1","1","3","1","","0","1","0","1855.3500000853091","","","","","neg","GS","GSnew","3","category3/GS1.png","-23","targets/16.png","direct","",""
"","image-slider-response","121","1113203","0.0-8.0-0.31","3uzo9du3nx","many_one","0","direct_first","1","ER06EN23","0","25","1","1","3","1","","0","1","0","2330.104999942705","","","","","neg","CS","CS","3","category3/CS3.png","-19","targets/10.png","direct","",""
"","image-slider-response","122","1115620","0.0-8.0-0.32","3uzo9du3nx","many_one","0","direct_first","1","ER06EN23","0","25","1","1","3","1","","0","1","0","2412.195000099018","","","","","neg","GS","GSnew","3","category3/GS3.png","-5","targets/1.png","direct","",""
"","image-slider-response","123","1117445","0.0-8.0-0.33","3uzo9du3nx","many_one","0","direct_first","1","ER06EN23","0","25","1","1","3","1","","0","1","0","1820.6149998586625","","","","","neg","GS","abstract","1","category1/ma.png","23","targets/28.png","direct","",""
"","image-slider-response","124","1119703","0.0-8.0-0.34","3uzo9du3nx","many_one","0","direct_first","1","ER06EN23","0","25","1","1","3","1","","0","1","0","2253.9200000464916","","","","","pos","GS","GSnew","2","category2/GS3.png","-7","targets/46.png","direct","",""
"","image-slider-response","125","1122282","0.0-8.0-0.35","3uzo9du3nx","many_one","0","direct_first","1","ER06EN23","0","25","1","1","3","1","","0","1","0","2574.490000028163","","","","","pos","GS","GSnew","4","category4/GS2.png","26","targets/45.png","direct","",""
"","image-slider-response","126","1125063","0.0-8.0-0.36","3uzo9du3nx","many_one","0","direct_first","1","ER06EN23","0","25","1","1","3","1","","0","1","0","2777.225000085309","","","","","neg","GS","abstract","3","category3/wang.png","-32","targets/20.png","direct","",""
"","image-slider-response","127","1127399","0.0-8.0-0.37","3uzo9du3nx","many_one","0","direct_first","1","ER06EN23","0","25","1","1","3","1","","0","1","0","2330.3849999792874","","","","","pos","CS","CS","2","category2/CS9.png","38","targets/25.png","direct","",""
"","image-slider-response","128","1129167","0.0-8.0-0.38","3uzo9du3nx","many_one","0","direct_first","1","ER06EN23","0","25","1","1","3","1","","0","1","0","1762.7300000749528","","","","","neg","CS","CS","1","category1/CS1.png","22","targets/47.png","direct","",""
"","image-slider-response","129","1132469","0.0-8.0-0.39","3uzo9du3nx","many_one","0","direct_first","1","ER06EN23","0","25","1","1","3","1","","0","1","0","3297.224999871105","","","","","neg","CS","CS","1","category1/CS8.png","15","targets/29.png","direct","",""
"","image-slider-response","130","1134469","0.0-8.0-0.40","3uzo9du3nx","many_one","0","direct_first","1","ER06EN23","0","25","1","1","3","1","","0","1","0","1995.755000039935","","","","","neg","CS","CS","3","category3/CS6.png","-17","targets/44.png","direct","",""
"","image-slider-response","131","1136126","0.0-8.0-0.41","3uzo9du3nx","many_one","0","direct_first","1","ER06EN23","0","25","1","1","3","1","","0","1","0","1651.5299999155104","","","","","pos","CS","CS","4","category4/CS4.png","15","targets/42.png","direct","",""
"","image-slider-response","132","1137587","0.0-8.0-0.42","3uzo9du3nx","many_one","0","direct_first","1","ER06EN23","0","25","1","1","3","1","","0","1","0","1455.3600000217557","","","","","pos","CS","CS","2","category2/CS5.png","19","targets/6.png","direct","",""
"","image-slider-response","133","1139437","0.0-8.0-0.43","3uzo9du3nx","many_one","0","direct_first","1","ER06EN23","0","25","1","1","3","1","","0","1","0","1845.7349999807775","","","","","neg","CS","CS","3","category3/CS2.png","-17","targets/5.png","direct","",""
"","image-slider-response","134","1141182","0.0-8.0-0.44","3uzo9du3nx","many_one","0","direct_first","1","ER06EN23","0","25","1","1","3","1","","0","1","0","1740.4000000096858","","","","","pos","GS","GSold","4","category4/CS10.png","26","targets/22.png","direct","",""
"","image-slider-response","135","1143337","0.0-8.0-0.45","3uzo9du3nx","many_one","0","direct_first","1","ER06EN23","0","25","1","1","3","1","","0","1","0","2149.724999908358","","","","","pos","GS","GSold","2","category2/CS2.png","-9","targets/33.png","direct","",""
"","image-slider-response","136","1145211","0.0-8.0-0.46","3uzo9du3nx","many_one","0","direct_first","1","ER06EN23","0","25","1","1","3","1","","0","1","0","1868.7500001396984","","","","","pos","CS","CS","2","category2/CS1.png","-17","targets/4.png","direct","",""
"","image-slider-response","137","1146960","0.0-8.0-0.47","3uzo9du3nx","many_one","0","direct_first","1","ER06EN23","0","25","1","1","3","1","","0","1","0","1745.5599999520928","","","","","neg","CS","CS","3","category3/CS10.png","-20","targets/24.png","direct","",""
"","html-keyboard-response","138","1178997","0.0-9.0","3uzo9du3nx","many_one","0","direct_first","1","ER06EN23","0","25","1","1","3","1","","0","1","0","32032.970000058413","","","<p>Sie sehen nun die chinesischen Zeichen nur ganz kurz. Danach sehen Sie die jeweilige Aussprache der Zeichen als Silbe auf dem Bildschrim. Ihre Aufgabe ist es, für jede Silbe anzugeben, ob diese etwas angenehmes, oder unangenehmes bedeuten könnte. Verlassen Sie sich hier vor allem auf Ihre Intuition.<br><br>Die Zeichen werden nur zur Orientierung dargestellt, beachten Sie sie deshalb nicht. Konzentrieren Sie sich vor allem auf die Silben. <br>Reagieren Sie mit folgenden zwei Tasten: <br><br><b>'D' </b> wenn die Silbe etwas <b>unangenehmes</b> bedeuten könnte. <br><b>'K'</b> wenn die Silbe etwas <b>angenehmes</b> bedeuten könnte. <br><br>Bitte legen Sie nun den Zeigefinger der linken Hand auf die Taste 'D' und den Zeigefinger der rechten Hand auf die Taste 'K'. <br>Reagieren Sie auf jede Silbe so schnell wie möglich. Uns interessiert Ihre spontane Reaktion. <br> <br> <br>Drücken Sie 'D' oder 'K', um die nächste Aufgabe zu starten. </p>","68","","","","","","","","","",""
"","html-keyboard-response","139","1182018","0.0-10.0-0.0","3uzo9du3nx","many_one","0","direct_first","1","ER06EN23","0","25","1","1","3","1","","0","1","0","null","","","<div style=""font-size:60px;"">+</div>","null","","","","","","","","","",""
"","html-keyboard-response","140","1182114","0.0-10.0-1.0","3uzo9du3nx","many_one","0","direct_first","1","ER06EN23","0","25","1","1","3","1","","0","1","0","null","","","<img src = 'category1/CS5.png' width = '100%;'>","null","","","","","","","","","",""
"","html-keyboard-response","141","1182379","0.0-10.0-2.0","3uzo9du3nx","many_one","0","direct_first","1","ER06EN23","0","25","1","1","3","1","","0","1","0","null","","","<img src = 'targets/9.png' width = '100%;'>","null","","","","","","","","","",""
"","html-keyboard-response","142","1185293","0.0-10.0-3.0","3uzo9du3nx","many_one","0","direct_first","1","ER06EN23","0","25","1","1","3","1","","0","1","0","2907.884999876842","","","<img src = 'targets/mask.png' width = '100%;'>","75","neg","CS","CS","1","category1/CS5.png","","targets/9.png","indirect","1","0"
"","html-keyboard-response","143","1186805","0.0-10.0-0.1","3uzo9du3nx","many_one","0","direct_first","1","ER06EN23","0","25","1","1","3","1","","0","1","0","null","","","<div style=""font-size:60px;"">+</div>","null","","","","","","","","","",""
"","html-keyboard-response","144","1186902","0.0-10.0-1.1","3uzo9du3nx","many_one","0","direct_first","1","ER06EN23","0","25","1","1","3","1","","0","1","0","null","","","<img src = 'category1/CS1.png' width = '100%;'>","null","","","","","","","","","",""
"","html-keyboard-response","145","1187166","0.0-10.0-2.1","3uzo9du3nx","many_one","0","direct_first","1","ER06EN23","0","25","1","1","3","1","","0","1","0","null","","","<img src = 'targets/47.png' width = '100%;'>","null","","","","","","","","","",""
"","html-keyboard-response","146","1189175","0.0-10.0-3.1","3uzo9du3nx","many_one","0","direct_first","1","ER06EN23","0","25","1","1","3","1","","0","1","0","2004.010000033304","","","<img src = 'targets/mask.png' width = '100%;'>","68","neg","CS","CS","1","category1/CS1.png","","targets/47.png","indirect","0","1"
"","html-keyboard-response","147","1190695","0.0-10.0-0.2","3uzo9du3nx","many_one","0","direct_first","1","ER06EN23","0","25","1","1","3","1","","0","1","0","null","","","<div style=""font-size:60px;"">+</div>","null","","","","","","","","","",""
"","html-keyboard-response","148","1190799","0.0-10.0-1.2","3uzo9du3nx","many_one","0","direct_first","1","ER06EN23","0","25","1","1","3","1","","0","1","0","null","","","<img src = 'category2/CS10.png' width = '100%;'>","null","","","","","","","","","",""
"","html-keyboard-response","149","1191065","0.0-10.0-2.2","3uzo9du3nx","many_one","0","direct_first","1","ER06EN23","0","25","1","1","3","1","","0","1","0","null","","","<img src = 'targets/26.png' width = '100%;'>","null","","","","","","","","","",""
"","html-keyboard-response","150","1192971","0.0-10.0-3.2","3uzo9du3nx","many_one","0","direct_first","1","ER06EN23","0","25","1","1","3","1","","0","1","0","1898.7600000109524","","","<img src = 'targets/mask.png' width = '100%;'>","68","pos","CS","CS","2","category2/CS10.png","","targets/26.png","indirect","0","2"
"","html-keyboard-response","151","1194486","0.0-10.0-0.3","3uzo9du3nx","many_one","0","direct_first","1","ER06EN23","0","25","1","1","3","1","","0","1","0","null","","","<div style=""font-size:60px;"">+</div>","null","","","","","","","","","",""
"","html-keyboard-response","152","1194581","0.0-10.0-1.3","3uzo9du3nx","many_one","0","direct_first","1","ER06EN23","0","25","1","1","3","1","","0","1","0","null","","","<img src = 'category2/CS9.png' width = '100%;'>","null","","","","","","","","","",""
"","html-keyboard-response","153","1194849","0.0-10.0-2.3","3uzo9du3nx","many_one","0","direct_first","1","ER06EN23","0","25","1","1","3","1","","0","1","0","null","","","<img src = 'targets/25.png' width = '100%;'>","null","","","","","","","","","",""
"","html-keyboard-response","154","1195585","0.0-10.0-3.3","3uzo9du3nx","many_one","0","direct_first","1","ER06EN23","0","25","1","1","3","1","","0","1","0","729.2549998965114","","","<img src = 'targets/mask.png' width = '100%;'>","75","pos","CS","CS","2","category2/CS9.png","","targets/25.png","indirect","1","3"
"","html-keyboard-response","155","1197112","0.0-10.0-0.4","3uzo9du3nx","many_one","0","direct_first","1","ER06EN23","0","25","1","1","3","1","","0","1","0","null","","","<div style=""font-size:60px;"">+</div>","null","","","","","","","","","",""
"","html-keyboard-response","156","1197210","0.0-10.0-1.4","3uzo9du3nx","many_one","0","direct_first","1","ER06EN23","0","25","1","1","3","1","","0","1","0","null","","","<img src = 'category2/CS4.png' width = '100%;'>","null","","","","","","","","","",""
"","html-keyboard-response","157","1197477","0.0-10.0-2.4","3uzo9du3nx","many_one","0","direct_first","1","ER06EN23","0","25","1","1","3","1","","0","1","0","null","","","<img src = 'targets/11.png' width = '100%;'>","null","","","","","","","","","",""
"","html-keyboard-response","158","1198872","0.0-10.0-3.4","3uzo9du3nx","many_one","0","direct_first","1","ER06EN23","0","25","1","1","3","1","","0","1","0","1388.0050000734627","","","<img src = 'targets/mask.png' width = '100%;'>","75","pos","CS","CS","2","category2/CS4.png","","targets/11.png","indirect","1","4"
"","html-keyboard-response","159","1200395","0.0-10.0-0.5","3uzo9du3nx","many_one","0","direct_first","1","ER06EN23","0","25","1","1","3","1","","0","1","0","null","","","<div style=""font-size:60px;"">+</div>","null","","","","","","","","","",""
"","html-keyboard-response","160","1200490","0.0-10.0-1.5","3uzo9du3nx","many_one","0","direct_first","1","ER06EN23","0","25","1","1","3","1","","0","1","0","null","","","<img src = 'category3/CS2.png' width = '100%;'>","null","","","","","","","","","",""
"","html-keyboard-response","161","1200754","0.0-10.0-2.5","3uzo9du3nx","many_one","0","direct_first","1","ER06EN23","0","25","1","1","3","1","","0","1","0","null","","","<img src = 'targets/5.png' width = '100%;'>","null","","","","","","","","","",""
"","html-keyboard-response","162","1201957","0.0-10.0-3.5","3uzo9du3nx","many_one","0","direct_first","1","ER06EN23","0","25","1","1","3","1","","0","1","0","1197.524999966845","","","<img src = 'targets/mask.png' width = '100%;'>","75","neg","CS","CS","3","category3/CS2.png","","targets/5.png","indirect","1","5"
"","html-keyboard-response","163","1203473","0.0-10.0-0.6","3uzo9du3nx","many_one","0","direct_first","1","ER06EN23","0","25","1","1","3","1","","0","1","0","null","","","<div style=""font-size:60px;"">+</div>","null","","","","","","","","","",""
"","html-keyboard-response","164","1203570","0.0-10.0-1.6","3uzo9du3nx","many_one","0","direct_first","1","ER06EN23","0","25","1","1","3","1","","0","1","0","null","","","<img src = 'category4/CS3.png' width = '100%;'>","null","","","","","","","","","",""
"","html-keyboard-response","165","1203833","0.0-10.0-2.6","3uzo9du3nx","many_one","0","direct_first","1","ER06EN23","0","25","1","1","3","1","","0","1","0","null","","","<img src = 'targets/17.png' width = '100%;'>","null","","","","","","","","","",""
"","html-keyboard-response","166","1205960","0.0-10.0-3.6","3uzo9du3nx","many_one","0","direct_first","1","ER06EN23","0","25","1","1","3","1","","0","1","0","2119.399999966845","","","<img src = 'targets/mask.png' width = '100%;'>","68","pos","CS","CS","4","category4/CS3.png","","targets/17.png","indirect","0","6"
"","html-keyboard-response","167","1207487","0.0-10.0-0.7","3uzo9du3nx","many_one","0","direct_first","1","ER06EN23","0","25","1","1","3","1","","0","1","0","null","","","<div style=""font-size:60px;"">+</div>","null","","","","","","","","","",""
"","html-keyboard-response","168","1207585","0.0-10.0-1.7","3uzo9du3nx","many_one","0","direct_first","1","ER06EN23","0","25","1","1","3","1","","0","1","0","null","","","<img src = 'category3/CS6.png' width = '100%;'>","null","","","","","","","","","",""
"","html-keyboard-response","169","1207850","0.0-10.0-2.7","3uzo9du3nx","many_one","0","direct_first","1","ER06EN23","0","25","1","1","3","1","","0","1","0","null","","","<img src = 'targets/44.png' width = '100%;'>","null","","","","","","","","","",""
"","html-keyboard-response","170","1210512","0.0-10.0-3.7","3uzo9du3nx","many_one","0","direct_first","1","ER06EN23","0","25","1","1","3","1","","0","1","0","2654.3900000397116","","","<img src = 'targets/mask.png' width = '100%;'>","68","neg","CS","CS","3","category3/CS6.png","","targets/44.png","indirect","0","7"
"","html-keyboard-response","171","1212040","0.0-10.0-0.8","3uzo9du3nx","many_one","0","direct_first","1","ER06EN23","0","25","1","1","3","1","","0","1","0","null","","","<div style=""font-size:60px;"">+</div>","null","","","","","","","","","",""
"","html-keyboard-response","172","1212138","0.0-10.0-1.8","3uzo9du3nx","many_one","0","direct_first","1","ER06EN23","0","25","1","1","3","1","","0","1","0","null","","","<img src = 'category2/CS1.png' width = '100%;'>","null","","","","","","","","","",""
"","html-keyboard-response","173","1212402","0.0-10.0-2.8","3uzo9du3nx","many_one","0","direct_first","1","ER06EN23","0","25","1","1","3","1","","0","1","0","null","","","<img src = 'targets/4.png' width = '100%;'>","null","","","","","","","","","",""
"","html-keyboard-response","174","1214013","0.0-10.0-3.8","3uzo9du3nx","many_one","0","direct_first","1","ER06EN23","0","25","1","1","3","1","","0","1","0","1603.8850001059473","","","<img src = 'targets/mask.png' width = '100%;'>","75","pos","CS","CS","2","category2/CS1.png","","targets/4.png","indirect","1","8"
"","html-keyboard-response","175","1215533","0.0-10.0-0.9","3uzo9du3nx","many_one","0","direct_first","1","ER06EN23","0","25","1","1","3","1","","0","1","0","null","","","<div style=""font-size:60px;"">+</div>","null","","","","","","","","","",""
"","html-keyboard-response","176","1215635","0.0-10.0-1.9","3uzo9du3nx","many_one","0","direct_first","1","ER06EN23","0","25","1","1","3","1","","0","1","0","null","","","<img src = 'category4/CS5.png' width = '100%;'>","null","","","","","","","","","",""
"","html-keyboard-response","177","1215901","0.0-10.0-2.9","3uzo9du3nx","many_one","0","direct_first","1","ER06EN23","0","25","1","1","3","1","","0","1","0","null","","","<img src = 'targets/37.png' width = '100%;'>","null","","","","","","","","","",""
"","html-keyboard-response","178","1217074","0.0-10.0-3.9","3uzo9du3nx","many_one","0","direct_first","1","ER06EN23","0","25","1","1","3","1","","0","1","0","1164.8649999406189","","","<img src = 'targets/mask.png' width = '100%;'>","75","pos","CS","CS","4","category4/CS5.png","","targets/37.png","indirect","1","9"
"","html-keyboard-response","179","1218582","0.0-10.0-0.10","3uzo9du3nx","many_one","0","direct_first","1","ER06EN23","0","25","1","1","3","1","","0","1","0","null","","","<div style=""font-size:60px;"">+</div>","null","","","","","","","","","",""
"","html-keyboard-response","180","1218680","0.0-10.0-1.10","3uzo9du3nx","many_one","0","direct_first","1","ER06EN23","0","25","1","1","3","1","","0","1","0","null","","","<img src = 'category1/CS9.png' width = '100%;'>","null","","","","","","","","","",""
"","html-keyboard-response","181","1218969","0.0-10.0-2.10","3uzo9du3nx","many_one","0","direct_first","1","ER06EN23","0","25","1","1","3","1","","0","1","0","null","","","<img src = 'targets/38.png' width = '100%;'>","null","","","","","","","","","",""
"","html-keyboard-response","182","1220142","0.0-10.0-3.10","3uzo9du3nx","many_one","0","direct_first","1","ER06EN23","0","25","1","1","3","1","","0","1","0","1169.5650001056492","","","<img src = 'targets/mask.png' width = '100%;'>","75","neg","GS","GSold","1","category1/CS9.png","","targets/38.png","indirect","1","10"
"","html-keyboard-response","183","1221663","0.0-10.0-0.11","3uzo9du3nx","many_one","0","direct_first","1","ER06EN23","0","25","1","1","3","1","","0","1","0","null","","","<div style=""font-size:60px;"">+</div>","null","","","","","","","","","",""
"","html-keyboard-response","184","1221759","0.0-10.0-1.11","3uzo9du3nx","many_one","0","direct_first","1","ER06EN23","0","25","1","1","3","1","","0","1","0","null","","","<img src = 'category3/CS10.png' width = '100%;'>","null","","","","","","","","","",""
"","html-keyboard-response","185","1222027","0.0-10.0-2.11","3uzo9du3nx","many_one","0","direct_first","1","ER06EN23","0","25","1","1","3","1","","0","1","0","null","","","<img src = 'targets/24.png' width = '100%;'>","null","","","","","","","","","",""
"","html-keyboard-response","186","1222844","0.0-10.0-3.11","3uzo9du3nx","many_one","0","direct_first","1","ER06EN23","0","25","1","1","3","1","","0","1","0","808.7400000076741","","","<img src = 'targets/mask.png' width = '100%;'>","68","neg","CS","CS","3","category3/CS10.png","","targets/24.png","indirect","0","11"
"","html-keyboard-response","187","1224373","0.0-10.0-0.12","3uzo9du3nx","many_one","0","direct_first","1","ER06EN23","0","25","1","1","3","1","","0","1","0","null","","","<div style=""font-size:60px;"">+</div>","null","","","","","","","","","",""
"","html-keyboard-response","188","1224470","0.0-10.0-1.12","3uzo9du3nx","many_one","0","direct_first","1","ER06EN23","0","25","1","1","3","1","","0","1","0","null","","","<img src = 'category1/CS10.png' width = '100%;'>","null","","","","","","","","","",""
"","html-keyboard-response","189","1224760","0.0-10.0-2.12","3uzo9du3nx","many_one","0","direct_first","1","ER06EN23","0","25","1","1","3","1","","0","1","0","null","","","<img src = 'targets/18.png' width = '100%;'>","null","","","","","","","","","",""
"","html-keyboard-response","190","1226039","0.0-10.0-3.12","3uzo9du3nx","many_one","0","direct_first","1","ER06EN23","0","25","1","1","3","1","","0","1","0","1274.7349999845028","","","<img src = 'targets/mask.png' width = '100%;'>","68","neg","GS","GSold","1","category1/CS10.png","","targets/18.png","indirect","0","12"
"","html-keyboard-response","191","1227570","0.0-10.0-0.13","3uzo9du3nx","many_one","0","direct_first","1","ER06EN23","0","25","1","1","3","1","","0","1","0","null","","","<div style=""font-size:60px;"">+</div>","null","","","","","","","","","",""
"","html-keyboard-response","192","1227669","0.0-10.0-1.13","3uzo9du3nx","many_one","0","direct_first","1","ER06EN23","0","25","1","1","3","1","","0","1","0","null","","","<img src = 'category4/CS1.png' width = '100%;'>","null","","","","","","","","","",""
"","html-keyboard-response","193","1227932","0.0-10.0-2.13","3uzo9du3nx","many_one","0","direct_first","1","ER06EN23","0","25","1","1","3","1","","0","1","0","null","","","<img src = 'targets/7.png' width = '100%;'>","null","","","","","","","","","",""
"","html-keyboard-response","194","1228844","0.0-10.0-3.13","3uzo9du3nx","many_one","0","direct_first","1","ER06EN23","0","25","1","1","3","1","","0","1","0","906.8149998784065","","","<img src = 'targets/mask.png' width = '100%;'>","75","pos","GS","GSold","4","category4/CS1.png","","targets/7.png","indirect","1","13"
"","html-keyboard-response","195","1230364","0.0-10.0-0.14","3uzo9du3nx","many_one","0","direct_first","1","ER06EN23","0","25","1","1","3","1","","0","1","0","null","","","<div style=""font-size:60px;"">+</div>","null","","","","","","","","","",""
"","html-keyboard-response","196","1230462","0.0-10.0-1.14","3uzo9du3nx","many_one","0","direct_first","1","ER06EN23","0","25","1","1","3","1","","0","1","0","null","","","<img src = 'category3/CS3.png' width = '100%;'>","null","","","","","","","","","",""
"","html-keyboard-response","197","1230727","0.0-10.0-2.14","3uzo9du3nx","many_one","0","direct_first","1","ER06EN23","0","25","1","1","3","1","","0","1","0","null","","","<img src = 'targets/10.png' width = '100%;'>","null","","","","","","","","","",""
"","html-keyboard-response","198","1231680","0.0-10.0-3.14","3uzo9du3nx","many_one","0","direct_first","1","ER06EN23","0","25","1","1","3","1","","0","1","0","947.3749999888241","","","<img src = 'targets/mask.png' width = '100%;'>","75","neg","CS","CS","3","category3/CS3.png","","targets/10.png","indirect","1","14"
"","html-keyboard-response","199","1233199","0.0-10.0-0.15","3uzo9du3nx","many_one","0","direct_first","1","ER06EN23","0","25","1","1","3","1","","0","1","0","null","","","<div style=""font-size:60px;"">+</div>","null","","","","","","","","","",""
"","html-keyboard-response","200","1233306","0.0-10.0-1.15","3uzo9du3nx","many_one","0","direct_first","1","ER06EN23","0","25","1","1","3","1","","0","1","0","null","","","<img src = 'category1/CS6.png' width = '100%;'>","null","","","","","","","","","",""
"","html-keyboard-response","201","1233574","0.0-10.0-2.15","3uzo9du3nx","many_one","0","direct_first","1","ER06EN23","0","25","1","1","3","1","","0","1","0","null","","","<img src = 'targets/2.png' width = '100%;'>","null","","","","","","","","","",""
"","html-keyboard-response","202","1234675","0.0-10.0-3.15","3uzo9du3nx","many_one","0","direct_first","1","ER06EN23","0","25","1","1","3","1","","0","1","0","1093.6800001654774","","","<img src = 'targets/mask.png' width = '100%;'>","75","neg","CS","CS","1","category1/CS6.png","","targets/2.png","indirect","1","15"
"","html-keyboard-response","203","1236190","0.0-10.0-0.16","3uzo9du3nx","many_one","0","direct_first","1","ER06EN23","0","25","1","1","3","1","","0","1","0","null","","","<div style=""font-size:60px;"">+</div>","null","","","","","","","","","",""
"","html-keyboard-response","204","1236287","0.0-10.0-1.16","3uzo9du3nx","many_one","0","direct_first","1","ER06EN23","0","25","1","1","3","1","","0","1","0","null","","","<img src = 'category4/CS9.png' width = '100%;'>","null","","","","","","","","","",""
"","html-keyboard-response","205","1236551","0.0-10.0-2.16","3uzo9du3nx","many_one","0","direct_first","1","ER06EN23","0","25","1","1","3","1","","0","1","0","null","","","<img src = 'targets/35.png' width = '100%;'>","null","","","","","","","","","",""
"","html-keyboard-response","206","1237619","0.0-10.0-3.16","3uzo9du3nx","many_one","0","direct_first","1","ER06EN23","0","25","1","1","3","1","","0","1","0","1063.4150002151728","","","<img src = 'targets/mask.png' width = '100%;'>","68","pos","CS","CS","4","category4/CS9.png","","targets/35.png","indirect","0","16"
"","html-keyboard-response","207","1239151","0.0-10.0-0.17","3uzo9du3nx","many_one","0","direct_first","1","ER06EN23","0","25","1","1","3","1","","0","1","0","null","","","<div style=""font-size:60px;"">+</div>","null","","","","","","","","","",""
"","html-keyboard-response","208","1239248","0.0-10.0-1.17","3uzo9du3nx","many_one","0","direct_first","1","ER06EN23","0","25","1","1","3","1","","0","1","0","null","","","<img src = 'category4/CS4.png' width = '100%;'>","null","","","","","","","","","",""
"","html-keyboard-response","209","1239513","0.0-10.0-2.17","3uzo9du3nx","many_one","0","direct_first","1","ER06EN23","0","25","1","1","3","1","","0","1","0","null","","","<img src = 'targets/42.png' width = '100%;'>","null","","","","","","","","","",""
"","html-keyboard-response","210","1240353","0.0-10.0-3.17","3uzo9du3nx","many_one","0","direct_first","1","ER06EN23","0","25","1","1","3","1","","0","1","0","832.6600000727922","","","<img src = 'targets/mask.png' width = '100%;'>","68","pos","CS","CS","4","category4/CS4.png","","targets/42.png","indirect","0","17"
"","html-keyboard-response","211","1241878","0.0-10.0-0.18","3uzo9du3nx","many_one","0","direct_first","1","ER06EN23","0","25","1","1","3","1","","0","1","0","null","","","<div style=""font-size:60px;"">+</div>","null","","","","","","","","","",""
"","html-keyboard-response","212","1241977","0.0-10.0-1.18","3uzo9du3nx","many_one","0","direct_first","1","ER06EN23","0","25","1","1","3","1","","0","1","0","null","","","<img src = 'category3/CS5.png' width = '100%;'>","null","","","","","","","","","",""
"","html-keyboard-response","213","1242240","0.0-10.0-2.18","3uzo9du3nx","many_one","0","direct_first","1","ER06EN23","0","25","1","1","3","1","","0","1","0","null","","","<img src = 'targets/34.png' width = '100%;'>","null","","","","","","","","","",""
"","html-keyboard-response","214","1242807","0.0-10.0-3.18","3uzo9du3nx","many_one","0","direct_first","1","ER06EN23","0","25","1","1","3","1","","0","1","0","560.7300000265241","","","<img src = 'targets/mask.png' width = '100%;'>","68","neg","CS","CS","3","category3/CS5.png","","targets/34.png","indirect","0","18"
"","html-keyboard-response","215","1244323","0.0-10.0-0.19","3uzo9du3nx","many_one","0","direct_first","1","ER06EN23","0","25","1","1","3","1","","0","1","0","null","","","<div style=""font-size:60px;"">+</div>","null","","","","","","","","","",""
"","html-keyboard-response","216","1244419","0.0-10.0-1.19","3uzo9du3nx","many_one","0","direct_first","1","ER06EN23","0","25","1","1","3","1","","0","1","0","null","","","<img src = 'category4/CS6.png' width = '100%;'>","null","","","","","","","","","",""
"","html-keyboard-response","217","1244684","0.0-10.0-2.19","3uzo9du3nx","many_one","0","direct_first","1","ER06EN23","0","25","1","1","3","1","","0","1","0","null","","","<img src = 'targets/48.png' width = '100%;'>","null","","","","","","","","","",""
"","html-keyboard-response","218","1245563","0.0-10.0-3.19","3uzo9du3nx","many_one","0","direct_first","1","ER06EN23","0","25","1","1","3","1","","0","1","0","873.2149999123067","","","<img src = 'targets/mask.png' width = '100%;'>","75","pos","CS","CS","4","category4/CS6.png","","targets/48.png","indirect","1","19"
"","html-keyboard-response","219","1247082","0.0-10.0-0.20","3uzo9du3nx","many_one","0","direct_first","1","ER06EN23","0","25","1","1","3","1","","0","1","0","null","","","<div style=""font-size:60px;"">+</div>","null","","","","","","","","","",""
"","html-keyboard-response","220","1247181","0.0-10.0-1.20","3uzo9du3nx","many_one","0","direct_first","1","ER06EN23","0","25","1","1","3","1","","0","1","0","null","","","<img src = 'category2/CS5.png' width = '100%;'>","null","","","","","","","","","",""
"","html-keyboard-response","221","1247448","0.0-10.0-2.20","3uzo9du3nx","many_one","0","direct_first","1","ER06EN23","0","25","1","1","3","1","","0","1","0","null","","","<img src = 'targets/6.png' width = '100%;'>","null","","","","","","","","","",""
"","html-keyboard-response","222","1248944","0.0-10.0-3.20","3uzo9du3nx","many_one","0","direct_first","1","ER06EN23","0","25","1","1","3","1","","0","1","0","1488.7350001372397","","","<img src = 'targets/mask.png' width = '100%;'>","68","pos","CS","CS","2","category2/CS5.png","","targets/6.png","indirect","0","20"
"","html-keyboard-response","223","1250465","0.0-10.0-0.21","3uzo9du3nx","many_one","0","direct_first","1","ER06EN23","0","25","1","1","3","1","","0","1","0","null","","","<div style=""font-size:60px;"">+</div>","null","","","","","","","","","",""
"","html-keyboard-response","224","1250560","0.0-10.0-1.21","3uzo9du3nx","many_one","0","direct_first","1","ER06EN23","0","25","1","1","3","1","","0","1","0","null","","","<img src = 'category1/CS7.png' width = '100%;'>","null","","","","","","","","","",""
"","html-keyboard-response","225","1250826","0.0-10.0-2.21","3uzo9du3nx","many_one","0","direct_first","1","ER06EN23","0","25","1","1","3","1","","0","1","0","null","","","<img src = 'targets/8.png' width = '100%;'>","null","","","","","","","","","",""
"","html-keyboard-response","226","1251581","0.0-10.0-3.21","3uzo9du3nx","many_one","0","direct_first","1","ER06EN23","0","25","1","1","3","1","","0","1","0","748.8599999342114","","","<img src = 'targets/mask.png' width = '100%;'>","75","neg","GS","GSold","1","category1/CS7.png","","targets/8.png","indirect","1","21"
"","html-keyboard-response","227","1253106","0.0-10.0-0.22","3uzo9du3nx","many_one","0","direct_first","1","ER06EN23","0","25","1","1","3","1","","0","1","0","null","","","<div style=""font-size:60px;"">+</div>","null","","","","","","","","","",""
"","html-keyboard-response","228","1253206","0.0-10.0-1.22","3uzo9du3nx","many_one","0","direct_first","1","ER06EN23","0","25","1","1","3","1","","0","1","0","null","","","<img src = 'category1/CS8.png' width = '100%;'>","null","","","","","","","","","",""
"","html-keyboard-response","229","1253476","0.0-10.0-2.22","3uzo9du3nx","many_one","0","direct_first","1","ER06EN23","0","25","1","1","3","1","","0","1","0","null","","","<img src = 'targets/29.png' width = '100%;'>","null","","","","","","","","","",""
"","html-keyboard-response","230","1253870","0.0-10.0-3.22","3uzo9du3nx","many_one","0","direct_first","1","ER06EN23","0","25","1","1","3","1","","0","1","0","387.1150000486523","","","<img src = 'targets/mask.png' width = '100%;'>","75","neg","CS","CS","1","category1/CS8.png","","targets/29.png","indirect","1","22"
"","html-keyboard-response","231","1255396","0.0-10.0-0.23","3uzo9du3nx","many_one","0","direct_first","1","ER06EN23","0","25","1","1","3","1","","0","1","0","null","","","<div style=""font-size:60px;"">+</div>","null","","","","","","","","","",""
"","html-keyboard-response","232","1255498","0.0-10.0-1.23","3uzo9du3nx","many_one","0","direct_first","1","ER06EN23","0","25","1","1","3","1","","0","1","0","null","","","<img src = 'category1/CS4.png' width = '100%;'>","null","","","","","","","","","",""
"","html-keyboard-response","233","1255762","0.0-10.0-2.23","3uzo9du3nx","many_one","0","direct_first","1","ER06EN23","0","25","1","1","3","1","","0","1","0","null","","","<img src = 'targets/31.png' width = '100%;'>","null","","","","","","","","","",""
"","html-keyboard-response","234","1256180","0.0-10.0-3.23","3uzo9du3nx","many_one","0","direct_first","1","ER06EN23","0","25","1","1","3","1","","0","1","0","412.14999998919666","","","<img src = 'targets/mask.png' width = '100%;'>","68","neg","CS","CS","1","category1/CS4.png","","targets/31.png","indirect","0","23"
"","survey-html-form","235","1259973","0.0-11.0","3uzo9du3nx","many_one","0","direct_first","1","ER06EN23","0","25","1","1","3","1","","0","1","0","3279.1050001978874","","{}","","","","","","","","","","","",""
"","html-keyboard-response","236","1263001","0.0-12.0-0.0","3uzo9du3nx","many_one","0","direct_first","1","ER06EN23","0","25","1","1","3","1","","0","1","0","null","","","<div style=""font-size:60px;"">+</div>","null","","","","","","","","","",""
"","html-keyboard-response","237","1263097","0.0-12.0-1.0","3uzo9du3nx","many_one","0","direct_first","1","ER06EN23","0","25","1","1","3","1","","0","1","0","null","","","<img src = 'category2/CS7.png' width = '100%;'>","null","","","","","","","","","",""
"","html-keyboard-response","238","1263376","0.0-12.0-2.0","3uzo9du3nx","many_one","0","direct_first","1","ER06EN23","0","25","1","1","3","1","","0","1","0","null","","","<img src = 'targets/15.png' width = '100%;'>","null","","","","","","","","","",""
"","html-keyboard-response","239","1264436","0.0-12.0-3.0","3uzo9du3nx","many_one","0","direct_first","1","ER06EN23","0","25","1","1","3","1","","0","1","0","1052.9549999628216","","","<img src = 'targets/mask.png' width = '100%;'>","75","pos","GS","GSold","2","category2/CS7.png","","targets/15.png","indirect","1","24"
"","html-keyboard-response","240","1265967","0.0-12.0-0.1","3uzo9du3nx","many_one","0","direct_first","1","ER06EN23","0","25","1","1","3","1","","0","1","0","null","","","<div style=""font-size:60px;"">+</div>","null","","","","","","","","","",""
"","html-keyboard-response","241","1266074","0.0-12.0-1.1","3uzo9du3nx","many_one","0","direct_first","1","ER06EN23","0","25","1","1","3","1","","0","1","0","null","","","<img src = 'category2/GS3.png' width = '100%;'>","null","","","","","","","","","",""
"","html-keyboard-response","242","1266342","0.0-12.0-2.1","3uzo9du3nx","many_one","0","direct_first","1","ER06EN23","0","25","1","1","3","1","","0","1","0","null","","","<img src = 'targets/46.png' width = '100%;'>","null","","","","","","","","","",""
"","html-keyboard-response","243","1267159","0.0-12.0-3.1","3uzo9du3nx","many_one","0","direct_first","1","ER06EN23","0","25","1","1","3","1","","0","1","0","809.2249999754131","","","<img src = 'targets/mask.png' width = '100%;'>","68","pos","GS","GSnew","2","category2/GS3.png","","targets/46.png","indirect","0","25"
"","html-keyboard-response","244","1268673","0.0-12.0-0.2","3uzo9du3nx","many_one","0","direct_first","1","ER06EN23","0","25","1","1","3","1","","0","1","0","null","","","<div style=""font-size:60px;"">+</div>","null","","","","","","","","","",""
"","html-keyboard-response","245","1268770","0.0-12.0-1.2","3uzo9du3nx","many_one","0","direct_first","1","ER06EN23","0","25","1","1","3","1","","0","1","0","null","","","<img src = 'category4/CS10.png' width = '100%;'>","null","","","","","","","","","",""
"","html-keyboard-response","246","1269036","0.0-12.0-2.2","3uzo9du3nx","many_one","0","direct_first","1","ER06EN23","0","25","1","1","3","1","","0","1","0","null","","","<img src = 'targets/22.png' width = '100%;'>","null","","","","","","","","","",""
"","html-keyboard-response","247","1269903","0.0-12.0-3.2","3uzo9du3nx","many_one","0","direct_first","1","ER06EN23","0","25","1","1","3","1","","0","1","0","860.7900000642985","","","<img src = 'targets/mask.png' width = '100%;'>","68","pos","GS","GSold","4","category4/CS10.png","","targets/22.png","indirect","0","26"
"","html-keyboard-response","248","1271417","0.0-12.0-0.3","3uzo9du3nx","many_one","0","direct_first","1","ER06EN23","0","25","1","1","3","1","","0","1","0","null","","","<div style=""font-size:60px;"">+</div>","null","","","","","","","","","",""
"","html-keyboard-response","249","1271515","0.0-12.0-1.3","3uzo9du3nx","many_one","0","direct_first","1","ER06EN23","0","25","1","1","3","1","","0","1","0","null","","","<img src = 'category1/GS3.png' width = '100%;'>","null","","","","","","","","","",""
"","html-keyboard-response","250","1271778","0.0-12.0-2.3","3uzo9du3nx","many_one","0","direct_first","1","ER06EN23","0","25","1","1","3","1","","0","1","0","null","","","<img src = 'targets/21.png' width = '100%;'>","null","","","","","","","","","",""
"","html-keyboard-response","251","1272632","0.0-12.0-3.3","3uzo9du3nx","many_one","0","direct_first","1","ER06EN23","0","25","1","1","3","1","","0","1","0","847.6249999366701","","","<img src = 'targets/mask.png' width = '100%;'>","75","neg","GS","GSnew","1","category1/GS3.png","","targets/21.png","indirect","1","27"
"","html-keyboard-response","252","1274175","0.0-12.0-0.4","3uzo9du3nx","many_one","0","direct_first","1","ER06EN23","0","25","1","1","3","1","","0","1","0","null","","","<div style=""font-size:60px;"">+</div>","null","","","","","","","","","",""
"","html-keyboard-response","253","1274275","0.0-12.0-1.4","3uzo9du3nx","many_one","0","direct_first","1","ER06EN23","0","25","1","1","3","1","","0","1","0","null","","","<img src = 'category2/CS8.png' width = '100%;'>","null","","","","","","","","","",""
"","html-keyboard-response","254","1274539","0.0-12.0-2.4","3uzo9du3nx","many_one","0","direct_first","1","ER06EN23","0","25","1","1","3","1","","0","1","0","null","","","<img src = 'targets/39.png' width = '100%;'>","null","","","","","","","","","",""
"","html-keyboard-response","255","1275596","0.0-12.0-3.4","3uzo9du3nx","many_one","0","direct_first","1","ER06EN23","0","25","1","1","3","1","","0","1","0","1051.2949998956174","","","<img src = 'targets/mask.png' width = '100%;'>","75","pos","GS","GSold","2","category2/CS8.png","","targets/39.png","indirect","1","28"
"","html-keyboard-response","256","1277123","0.0-12.0-0.5","3uzo9du3nx","many_one","0","direct_first","1","ER06EN23","0","25","1","1","3","1","","0","1","0","null","","","<div style=""font-size:60px;"">+</div>","null","","","","","","","","","",""
"","html-keyboard-response","257","1277223","0.0-12.0-1.5","3uzo9du3nx","many_one","0","direct_first","1","ER06EN23","0","25","1","1","3","1","","0","1","0","null","","","<img src = 'category3/wang.png' width = '100%;'>","null","","","","","","","","","",""
"","html-keyboard-response","258","1277484","0.0-12.0-2.5","3uzo9du3nx","many_one","0","direct_first","1","ER06EN23","0","25","1","1","3","1","","0","1","0","null","","","<img src = 'targets/20.png' width = '100%;'>","null","","","","","","","","","",""
"","html-keyboard-response","259","1278000","0.0-12.0-3.5","3uzo9du3nx","many_one","0","direct_first","1","ER06EN23","0","25","1","1","3","1","","0","1","0","510.83999988622963","","","<img src = 'targets/mask.png' width = '100%;'>","68","neg","GS","abstract","3","category3/wang.png","","targets/20.png","indirect","0","29"
"","html-keyboard-response","260","1279533","0.0-12.0-0.6","3uzo9du3nx","many_one","0","direct_first","1","ER06EN23","0","25","1","1","3","1","","0","1","0","null","","","<div style=""font-size:60px;"">+</div>","null","","","","","","","","","",""
"","html-keyboard-response","261","1279627","0.0-12.0-1.6","3uzo9du3nx","many_one","0","direct_first","1","ER06EN23","0","25","1","1","3","1","","0","1","0","null","","","<img src = 'category4/lin.png' width = '100%;'>","null","","","","","","","","","",""
"","html-keyboard-response","262","1279896","0.0-12.0-2.6","3uzo9du3nx","many_one","0","direct_first","1","ER06EN23","0","25","1","1","3","1","","0","1","0","null","","","<img src = 'targets/27.png' width = '100%;'>","null","","","","","","","","","",""
"","html-keyboard-response","263","1281236","0.0-12.0-3.6","3uzo9du3nx","many_one","0","direct_first","1","ER06EN23","0","25","1","1","3","1","","0","1","0","1333.5300001781434","","","<img src = 'targets/mask.png' width = '100%;'>","68","pos","GS","abstract","4","category4/lin.png","","targets/27.png","indirect","0","30"
"","html-keyboard-response","264","1282746","0.0-12.0-0.7","3uzo9du3nx","many_one","0","direct_first","1","ER06EN23","0","25","1","1","3","1","","0","1","0","null","","","<div style=""font-size:60px;"">+</div>","null","","","","","","","","","",""
"","html-keyboard-response","265","1282845","0.0-12.0-1.7","3uzo9du3nx","many_one","0","direct_first","1","ER06EN23","0","25","1","1","3","1","","0","1","0","null","","","<img src = 'category2/men.png' width = '100%;'>","null","","","","","","","","","",""
"","html-keyboard-response","266","1283110","0.0-12.0-2.7","3uzo9du3nx","many_one","0","direct_first","1","ER06EN23","0","25","1","1","3","1","","0","1","0","null","","","<img src = 'targets/36.png' width = '100%;'>","null","","","","","","","","","",""
"","html-keyboard-response","267","1283713","0.0-12.0-3.7","3uzo9du3nx","many_one","0","direct_first","1","ER06EN23","0","25","1","1","3","1","","0","1","0","596.0250000935048","","","<img src = 'targets/mask.png' width = '100%;'>","68","pos","GS","abstract","2","category2/men.png","","targets/36.png","indirect","0","31"
"","html-keyboard-response","268","1285225","0.0-12.0-0.8","3uzo9du3nx","many_one","0","direct_first","1","ER06EN23","0","25","1","1","3","1","","0","1","0","null","","","<div style=""font-size:60px;"">+</div>","null","","","","","","","","","",""
"","html-keyboard-response","269","1285320","0.0-12.0-1.8","3uzo9du3nx","many_one","0","direct_first","1","ER06EN23","0","25","1","1","3","1","","0","1","0","null","","","<img src = 'category1/GS2.png' width = '100%;'>","null","","","","","","","","","",""
"","html-keyboard-response","270","1285586","0.0-12.0-2.8","3uzo9du3nx","many_one","0","direct_first","1","ER06EN23","0","25","1","1","3","1","","0","1","0","null","","","<img src = 'targets/19.png' width = '100%;'>","null","","","","","","","","","",""
"","html-keyboard-response","271","1286231","0.0-12.0-3.8","3uzo9du3nx","many_one","0","direct_first","1","ER06EN23","0","25","1","1","3","1","","0","1","0","631.7700000945479","","","<img src = 'targets/mask.png' width = '100%;'>","75","neg","GS","GSnew","1","category1/GS2.png","","targets/19.png","indirect","1","32"
"","html-keyboard-response","272","1287766","0.0-12.0-0.9","3uzo9du3nx","many_one","0","direct_first","1","ER06EN23","0","25","1","1","3","1","","0","1","0","null","","","<div style=""font-size:60px;"">+</div>","null","","","","","","","","","",""
"","html-keyboard-response","273","1287865","0.0-12.0-1.9","3uzo9du3nx","many_one","0","direct_first","1","ER06EN23","0","25","1","1","3","1","","0","1","0","null","","","<img src = 'category3/CS8.png' width = '100%;'>","null","","","","","","","","","",""
"","html-keyboard-response","274","1288130","0.0-12.0-2.9","3uzo9du3nx","many_one","0","direct_first","1","ER06EN23","0","25","1","1","3","1","","0","1","0","null","","","<img src = 'targets/3.png' width = '100%;'>","null","","","","","","","","","",""
"","html-keyboard-response","275","1289714","0.0-12.0-3.9","3uzo9du3nx","many_one","0","direct_first","1","ER06EN23","0","25","1","1","3","1","","0","1","0","1578.345000045374","","","<img src = 'targets/mask.png' width = '100%;'>","68","neg","GS","GSold","3","category3/CS8.png","","targets/3.png","indirect","0","33"
"","html-keyboard-response","276","1291231","0.0-12.0-0.10","3uzo9du3nx","many_one","0","direct_first","1","ER06EN23","0","25","1","1","3","1","","0","1","0","null","","","<div style=""font-size:60px;"">+</div>","null","","","","","","","","","",""
"","html-keyboard-response","277","1291328","0.0-12.0-1.10","3uzo9du3nx","many_one","0","direct_first","1","ER06EN23","0","25","1","1","3","1","","0","1","0","null","","","<img src = 'category4/GS2.png' width = '100%;'>","null","","","","","","","","","",""
"","html-keyboard-response","278","1291595","0.0-12.0-2.10","3uzo9du3nx","many_one","0","direct_first","1","ER06EN23","0","25","1","1","3","1","","0","1","0","null","","","<img src = 'targets/45.png' width = '100%;'>","null","","","","","","","","","",""
"","html-keyboard-response","279","1292448","0.0-12.0-3.10","3uzo9du3nx","many_one","0","direct_first","1","ER06EN23","0","25","1","1","3","1","","0","1","0","844.7500001639128","","","<img src = 'targets/mask.png' width = '100%;'>","75","pos","GS","GSnew","4","category4/GS2.png","","targets/45.png","indirect","1","34"
"","html-keyboard-response","280","1293976","0.0-12.0-0.11","3uzo9du3nx","many_one","0","direct_first","1","ER06EN23","0","25","1","1","3","1","","0","1","0","null","","","<div style=""font-size:60px;"">+</div>","null","","","","","","","","","",""
"","html-keyboard-response","281","1294073","0.0-12.0-1.11","3uzo9du3nx","many_one","0","direct_first","1","ER06EN23","0","25","1","1","3","1","","0","1","0","null","","","<img src = 'category3/CS4.png' width = '100%;'>","null","","","","","","","","","",""
"","html-keyboard-response","282","1294337","0.0-12.0-2.11","3uzo9du3nx","many_one","0","direct_first","1","ER06EN23","0","25","1","1","3","1","","0","1","0","null","","","<img src = 'targets/13.png' width = '100%;'>","null","","","","","","","","","",""
"","html-keyboard-response","283","1295358","0.0-12.0-3.11","3uzo9du3nx","many_one","0","direct_first","1","ER06EN23","0","25","1","1","3","1","","0","1","0","1016.3999998476356","","","<img src = 'targets/mask.png' width = '100%;'>","75","neg","GS","GSold","3","category3/CS4.png","","targets/13.png","indirect","1","35"
"","html-keyboard-response","284","1296887","0.0-12.0-0.12","3uzo9du3nx","many_one","0","direct_first","1","ER06EN23","0","25","1","1","3","1","","0","1","0","null","","","<div style=""font-size:60px;"">+</div>","null","","","","","","","","","",""
"","html-keyboard-response","285","1296986","0.0-12.0-1.12","3uzo9du3nx","many_one","0","direct_first","1","ER06EN23","0","25","1","1","3","1","","0","1","0","null","","","<img src = 'category3/GS1.png' width = '100%;'>","null","","","","","","","","","",""
"","html-keyboard-response","286","1297249","0.0-12.0-2.12","3uzo9du3nx","many_one","0","direct_first","1","ER06EN23","0","25","1","1","3","1","","0","1","0","null","","","<img src = 'targets/16.png' width = '100%;'>","null","","","","","","","","","",""
"","html-keyboard-response","287","1299069","0.0-12.0-3.12","3uzo9du3nx","many_one","0","direct_first","1","ER06EN23","0","25","1","1","3","1","","0","1","0","1813.7150001712143","","","<img src = 'targets/mask.png' width = '100%;'>","68","neg","GS","GSnew","3","category3/GS1.png","","targets/16.png","indirect","0","36"
"","html-keyboard-response","288","1300597","0.0-12.0-0.13","3uzo9du3nx","many_one","0","direct_first","1","ER06EN23","0","25","1","1","3","1","","0","1","0","null","","","<div style=""font-size:60px;"">+</div>","null","","","","","","","","","",""
"","html-keyboard-response","289","1300699","0.0-12.0-1.13","3uzo9du3nx","many_one","0","direct_first","1","ER06EN23","0","25","1","1","3","1","","0","1","0","null","","","<img src = 'category1/GS1.png' width = '100%;'>","null","","","","","","","","","",""
"","html-keyboard-response","290","1300965","0.0-12.0-2.13","3uzo9du3nx","many_one","0","direct_first","1","ER06EN23","0","25","1","1","3","1","","0","1","0","null","","","<img src = 'targets/43.png' width = '100%;'>","null","","","","","","","","","",""
"","html-keyboard-response","291","1302301","0.0-12.0-3.13","3uzo9du3nx","many_one","0","direct_first","1","ER06EN23","0","25","1","1","3","1","","0","1","0","1328.1300000380725","","","<img src = 'targets/mask.png' width = '100%;'>","68","neg","GS","GSnew","1","category1/GS1.png","","targets/43.png","indirect","0","37"
"","html-keyboard-response","292","1303830","0.0-12.0-0.14","3uzo9du3nx","many_one","0","direct_first","1","ER06EN23","0","25","1","1","3","1","","0","1","0","null","","","<div style=""font-size:60px;"">+</div>","null","","","","","","","","","",""
"","html-keyboard-response","293","1303930","0.0-12.0-1.14","3uzo9du3nx","many_one","0","direct_first","1","ER06EN23","0","25","1","1","3","1","","0","1","0","null","","","<img src = 'category4/GS3.png' width = '100%;'>","null","","","","","","","","","",""
"","html-keyboard-response","294","1304194","0.0-12.0-2.14","3uzo9du3nx","many_one","0","direct_first","1","ER06EN23","0","25","1","1","3","1","","0","1","0","null","","","<img src = 'targets/12.png' width = '100%;'>","null","","","","","","","","","",""
"","html-keyboard-response","295","1305028","0.0-12.0-3.14","3uzo9du3nx","many_one","0","direct_first","1","ER06EN23","0","25","1","1","3","1","","0","1","0","825.5350000690669","","","<img src = 'targets/mask.png' width = '100%;'>","68","pos","GS","GSnew","4","category4/GS3.png","","targets/12.png","indirect","0","38"
"","html-keyboard-response","296","1306543","0.0-12.0-0.15","3uzo9du3nx","many_one","0","direct_first","1","ER06EN23","0","25","1","1","3","1","","0","1","0","null","","","<div style=""font-size:60px;"">+</div>","null","","","","","","","","","",""
"","html-keyboard-response","297","1306640","0.0-12.0-1.15","3uzo9du3nx","many_one","0","direct_first","1","ER06EN23","0","25","1","1","3","1","","0","1","0","null","","","<img src = 'category3/GS2.png' width = '100%;'>","null","","","","","","","","","",""
"","html-keyboard-response","298","1306907","0.0-12.0-2.15","3uzo9du3nx","many_one","0","direct_first","1","ER06EN23","0","25","1","1","3","1","","0","1","0","null","","","<img src = 'targets/32.png' width = '100%;'>","null","","","","","","","","","",""
"","html-keyboard-response","299","1307729","0.0-12.0-3.15","3uzo9du3nx","many_one","0","direct_first","1","ER06EN23","0","25","1","1","3","1","","0","1","0","815.7150000333786","","","<img src = 'targets/mask.png' width = '100%;'>","68","neg","GS","GSnew","3","category3/GS2.png","","targets/32.png","indirect","0","39"
"","html-keyboard-response","300","1309238","0.0-12.0-0.16","3uzo9du3nx","many_one","0","direct_first","1","ER06EN23","0","25","1","1","3","1","","0","1","0","null","","","<div style=""font-size:60px;"">+</div>","null","","","","","","","","","",""
"","html-keyboard-response","301","1309336","0.0-12.0-1.16","3uzo9du3nx","many_one","0","direct_first","1","ER06EN23","0","25","1","1","3","1","","0","1","0","null","","","<img src = 'category3/CS1.png' width = '100%;'>","null","","","","","","","","","",""
"","html-keyboard-response","302","1309600","0.0-12.0-2.16","3uzo9du3nx","many_one","0","direct_first","1","ER06EN23","0","25","1","1","3","1","","0","1","0","null","","","<img src = 'targets/40.png' width = '100%;'>","null","","","","","","","","","",""
"","html-keyboard-response","303","1310456","0.0-12.0-3.16","3uzo9du3nx","many_one","0","direct_first","1","ER06EN23","0","25","1","1","3","1","","0","1","0","850.669999839738","","","<img src = 'targets/mask.png' width = '100%;'>","75","neg","GS","GSold","3","category3/CS1.png","","targets/40.png","indirect","1","40"
"","html-keyboard-response","304","1311967","0.0-12.0-0.17","3uzo9du3nx","many_one","0","direct_first","1","ER06EN23","0","25","1","1","3","1","","0","1","0","null","","","<div style=""font-size:60px;"">+</div>","null","","","","","","","","","",""
"","html-keyboard-response","305","1312065","0.0-12.0-1.17","3uzo9du3nx","many_one","0","direct_first","1","ER06EN23","0","25","1","1","3","1","","0","1","0","null","","","<img src = 'category4/GS1.png' width = '100%;'>","null","","","","","","","","","",""
"","html-keyboard-response","306","1312328","0.0-12.0-2.17","3uzo9du3nx","many_one","0","direct_first","1","ER06EN23","0","25","1","1","3","1","","0","1","0","null","","","<img src = 'targets/41.png' width = '100%;'>","null","","","","","","","","","",""
"","html-keyboard-response","307","1313020","0.0-12.0-3.17","3uzo9du3nx","many_one","0","direct_first","1","ER06EN23","0","25","1","1","3","1","","0","1","0","684.7149999812245","","","<img src = 'targets/mask.png' width = '100%;'>","75","pos","GS","GSnew","4","category4/GS1.png","","targets/41.png","indirect","1","41"
"","html-keyboard-response","308","1314542","0.0-12.0-0.18","3uzo9du3nx","many_one","0","direct_first","1","ER06EN23","0","25","1","1","3","1","","0","1","0","null","","","<div style=""font-size:60px;"">+</div>","null","","","","","","","","","",""
"","html-keyboard-response","309","1314640","0.0-12.0-1.18","3uzo9du3nx","many_one","0","direct_first","1","ER06EN23","0","25","1","1","3","1","","0","1","0","null","","","<img src = 'category4/CS2.png' width = '100%;'>","null","","","","","","","","","",""
"","html-keyboard-response","310","1314907","0.0-12.0-2.18","3uzo9du3nx","many_one","0","direct_first","1","ER06EN23","0","25","1","1","3","1","","0","1","0","null","","","<img src = 'targets/23.png' width = '100%;'>","null","","","","","","","","","",""
"","html-keyboard-response","311","1315552","0.0-12.0-3.18","3uzo9du3nx","many_one","0","direct_first","1","ER06EN23","0","25","1","1","3","1","","0","1","0","638.4449999313802","","","<img src = 'targets/mask.png' width = '100%;'>","75","pos","GS","GSold","4","category4/CS2.png","","targets/23.png","indirect","1","42"
"","html-keyboard-response","312","1317072","0.0-12.0-0.19","3uzo9du3nx","many_one","0","direct_first","1","ER06EN23","0","25","1","1","3","1","","0","1","0","null","","","<div style=""font-size:60px;"">+</div>","null","","","","","","","","","",""
"","html-keyboard-response","313","1317165","0.0-12.0-1.19","3uzo9du3nx","many_one","0","direct_first","1","ER06EN23","0","25","1","1","3","1","","0","1","0","null","","","<img src = 'category1/ma.png' width = '100%;'>","null","","","","","","","","","",""
"","html-keyboard-response","314","1317432","0.0-12.0-2.19","3uzo9du3nx","many_one","0","direct_first","1","ER06EN23","0","25","1","1","3","1","","0","1","0","null","","","<img src = 'targets/28.png' width = '100%;'>","null","","","","","","","","","",""
"","html-keyboard-response","315","1317973","0.0-12.0-3.19","3uzo9du3nx","many_one","0","direct_first","1","ER06EN23","0","25","1","1","3","1","","0","1","0","536.240000044927","","","<img src = 'targets/mask.png' width = '100%;'>","68","neg","GS","abstract","1","category1/ma.png","","targets/28.png","indirect","0","43"
"","html-keyboard-response","316","1319484","0.0-12.0-0.20","3uzo9du3nx","many_one","0","direct_first","1","ER06EN23","0","25","1","1","3","1","","0","1","0","null","","","<div style=""font-size:60px;"">+</div>","null","","","","","","","","","",""
"","html-keyboard-response","317","1319593","0.0-12.0-1.20","3uzo9du3nx","many_one","0","direct_first","1","ER06EN23","0","25","1","1","3","1","","0","1","0","null","","","<img src = 'category3/GS3.png' width = '100%;'>","null","","","","","","","","","",""
"","html-keyboard-response","318","1319859","0.0-12.0-2.20","3uzo9du3nx","many_one","0","direct_first","1","ER06EN23","0","25","1","1","3","1","","0","1","0","null","","","<img src = 'targets/1.png' width = '100%;'>","null","","","","","","","","","",""
"","html-keyboard-response","319","1320747","0.0-12.0-3.20","3uzo9du3nx","many_one","0","direct_first","1","ER06EN23","0","25","1","1","3","1","","0","1","0","880.2000000141561","","","<img src = 'targets/mask.png' width = '100%;'>","68","neg","GS","GSnew","3","category3/GS3.png","","targets/1.png","indirect","0","44"
"","html-keyboard-response","320","1322261","0.0-12.0-0.21","3uzo9du3nx","many_one","0","direct_first","1","ER06EN23","0","25","1","1","3","1","","0","1","0","null","","","<div style=""font-size:60px;"">+</div>","null","","","","","","","","","",""
"","html-keyboard-response","321","1322356","0.0-12.0-1.21","3uzo9du3nx","many_one","0","direct_first","1","ER06EN23","0","25","1","1","3","1","","0","1","0","null","","","<img src = 'category2/CS2.png' width = '100%;'>","null","","","","","","","","","",""
"","html-keyboard-response","322","1322621","0.0-12.0-2.21","3uzo9du3nx","many_one","0","direct_first","1","ER06EN23","0","25","1","1","3","1","","0","1","0","null","","","<img src = 'targets/33.png' width = '100%;'>","null","","","","","","","","","",""
"","html-keyboard-response","323","1323632","0.0-12.0-3.21","3uzo9du3nx","many_one","0","direct_first","1","ER06EN23","0","25","1","1","3","1","","0","1","0","1006.1099999584258","","","<img src = 'targets/mask.png' width = '100%;'>","75","pos","GS","GSold","2","category2/CS2.png","","targets/33.png","indirect","1","45"
"","html-keyboard-response","324","1325161","0.0-12.0-0.22","3uzo9du3nx","many_one","0","direct_first","1","ER06EN23","0","25","1","1","3","1","","0","1","0","null","","","<div style=""font-size:60px;"">+</div>","null","","","","","","","","","",""
"","html-keyboard-response","325","1325267","0.0-12.0-1.22","3uzo9du3nx","many_one","0","direct_first","1","ER06EN23","0","25","1","1","3","1","","0","1","0","null","","","<img src = 'category2/GS1.png' width = '100%;'>","null","","","","","","","","","",""
"","html-keyboard-response","326","1325534","0.0-12.0-2.22","3uzo9du3nx","many_one","0","direct_first","1","ER06EN23","0","25","1","1","3","1","","0","1","0","null","","","<img src = 'targets/30.png' width = '100%;'>","null","","","","","","","","","",""
