"success","trial_type","trial_index","time_elapsed","internal_node_id","subject","condition","condition_code","measure","measure_code","codeword","gender","age","education","chinese","fach","handedness","comment","hinschauen","ablenkung","gewissenhaft","rt","url","responses","stimulus","key_press","val","type","type_specific","category","cs_selected","target","indirect","task","nr_pres","response"
"true","fullscreen","0","31666","0.0-0.0","50jv2vtstw","one_one","1","indirect_first","0","el06ch29","0","31","1","1","3","1","","0","1","0","","","","","","","","","","","","","","",""
"","external-html","1","54958","0.0-1.0","50jv2vtstw","one_one","1","indirect_first","0","el06ch29","0","31","1","1","3","1","","0","1","0","23233.814999926835","text/information.html","","","","","","","","","","","","",""
"","external-html","2","70542","0.0-2.0","50jv2vtstw","one_one","1","indirect_first","0","el06ch29","0","31","1","1","3","1","","0","1","0","15515.869999770075","text/consent.html","","","","","","","","","","","","",""
"","survey-html-form","3","118644","0.0-3.0","50jv2vtstw","one_one","1","indirect_first","0","el06ch29","0","31","1","1","3","1","","0","1","0","48096.29500005394","","{""codeword_enter"":""el06ch29""}","","","","","","","","","","","",""
"","survey-html-form","4","143079","0.0-4.0","50jv2vtstw","one_one","1","indirect_first","0","el06ch29","0","31","1","1","3","1","","0","1","0","24432.574999984354","","{""age"":""31"",""education"":""1"",""subject"":""3"",""gender"":""0"",""handedness"":""1"",""chinese"":""1""}","","","","","","","","","","","",""
"","survey-html-form","5","145734","0.0-5.0","50jv2vtstw","one_one","1","indirect_first","0","el06ch29","0","31","1","1","3","1","","0","1","0","2653.3699999563396","","{}","","","","","","","","","","","",""
"","html-keyboard-response","6","149740","0.0-6.0-0.0-0.0","50jv2vtstw","one_one","1","indirect_first","0","el06ch29","0","31","1","1","3","1","","0","1","0","null","","","<div class = 'row'><div class = 'column'><img src = 'category3/CS6.png' width = '70%;'></div><div class = 'column'><img src = 'usneg/3300.bmp' width = '100%;'></div></div>","null","neg","CS","CS","3","category3/CS6.png","","","","",""
"","html-keyboard-response","7","152247","0.0-6.0-0.0-0.1","50jv2vtstw","one_one","1","indirect_first","0","el06ch29","0","31","1","1","3","1","","0","1","0","null","","","<div class = 'row'><div class = 'column'><img src = 'uspos/5760.bmp' width = '100%;'></div><div class = 'column'><img src = 'category2/CS5.png' width = '70%;'></div></div>","null","pos","CS","CS","2","category2/CS5.png","","","","",""
"","html-keyboard-response","8","154752","0.0-6.0-0.0-0.2","50jv2vtstw","one_one","1","indirect_first","0","el06ch29","0","31","1","1","3","1","","0","1","0","null","","","<div class = 'row'><div class = 'column'><img src = 'category4/CS8.png' width = '70%;'></div><div class = 'column'><img src = 'uspos/8080.bmp' width = '100%;'></div></div>","null","pos","CS","CS","4","category4/CS8.png","","","","",""
"","html-keyboard-response","9","157256","0.0-6.0-0.0-0.3","50jv2vtstw","one_one","1","indirect_first","0","el06ch29","0","31","1","1","3","1","","0","1","0","null","","","<div class = 'row'><div class = 'column'><img src = 'usneg/9520.bmp' width = '100%;'></div><div class = 'column'><img src = 'category1/CS7.png' width = '70%;'></div></div>","null","neg","CS","CS","1","category1/CS7.png","","","","",""
"","html-keyboard-response","10","159762","0.0-6.0-0.0-0.4","50jv2vtstw","one_one","1","indirect_first","0","el06ch29","0","31","1","1","3","1","","0","1","0","null","","","<div class = 'row'><div class = 'column'><img src = 'category3/CS6.png' width = '70%;'></div><div class = 'column'><img src = 'usneg/3300.bmp' width = '100%;'></div></div>","null","neg","CS","CS","3","category3/CS6.png","","","","",""
"","html-keyboard-response","11","162268","0.0-6.0-0.0-0.5","50jv2vtstw","one_one","1","indirect_first","0","el06ch29","0","31","1","1","3","1","","0","1","0","null","","","<div class = 'row'><div class = 'column'><img src = 'category2/CS5.png' width = '70%;'></div><div class = 'column'><img src = 'uspos/5760.bmp' width = '100%;'></div></div>","null","pos","CS","CS","2","category2/CS5.png","","","","",""
"","html-keyboard-response","12","164774","0.0-6.0-0.0-0.6","50jv2vtstw","one_one","1","indirect_first","0","el06ch29","0","31","1","1","3","1","","0","1","0","null","","","<div class = 'row'><div class = 'column'><img src = 'uspos/8080.bmp' width = '100%;'></div><div class = 'column'><img src = 'category4/CS8.png' width = '70%;'></div></div>","null","pos","CS","CS","4","category4/CS8.png","","","","",""
"","html-keyboard-response","13","167280","0.0-6.0-0.0-0.7","50jv2vtstw","one_one","1","indirect_first","0","el06ch29","0","31","1","1","3","1","","0","1","0","null","","","<div class = 'row'><div class = 'column'><img src = 'category3/CS6.png' width = '70%;'></div><div class = 'column'><img src = 'usneg/3300.bmp' width = '100%;'></div></div>","null","neg","CS","CS","3","category3/CS6.png","","","","",""
"","html-keyboard-response","14","169784","0.0-6.0-0.0-0.8","50jv2vtstw","one_one","1","indirect_first","0","el06ch29","0","31","1","1","3","1","","0","1","0","null","","","<div class = 'row'><div class = 'column'><img src = 'uspos/8080.bmp' width = '100%;'></div><div class = 'column'><img src = 'category4/CS8.png' width = '70%;'></div></div>","null","pos","CS","CS","4","category4/CS8.png","","","","",""
"","html-keyboard-response","15","172291","0.0-6.0-0.0-0.9","50jv2vtstw","one_one","1","indirect_first","0","el06ch29","0","31","1","1","3","1","","0","1","0","null","","","<div class = 'row'><div class = 'column'><img src = 'category2/CS5.png' width = '70%;'></div><div class = 'column'><img src = 'uspos/5760.bmp' width = '100%;'></div></div>","null","pos","CS","CS","2","category2/CS5.png","","","","",""
"","html-keyboard-response","16","174797","0.0-6.0-0.0-0.10","50jv2vtstw","one_one","1","indirect_first","0","el06ch29","0","31","1","1","3","1","","0","1","0","null","","","<div class = 'row'><div class = 'column'><img src = 'category1/CS7.png' width = '70%;'></div><div class = 'column'><img src = 'usneg/9520.bmp' width = '100%;'></div></div>","null","neg","CS","CS","1","category1/CS7.png","","","","",""
"","html-keyboard-response","17","177302","0.0-6.0-0.0-0.11","50jv2vtstw","one_one","1","indirect_first","0","el06ch29","0","31","1","1","3","1","","0","1","0","null","","","<div class = 'row'><div class = 'column'><img src = 'category3/CS6.png' width = '70%;'></div><div class = 'column'><img src = 'usneg/3300.bmp' width = '100%;'></div></div>","null","neg","CS","CS","3","category3/CS6.png","","","","",""
"","html-keyboard-response","18","179807","0.0-6.0-0.0-0.12","50jv2vtstw","one_one","1","indirect_first","0","el06ch29","0","31","1","1","3","1","","0","1","0","null","","","<div class = 'row'><div class = 'column'><img src = 'usneg/9520.bmp' width = '100%;'></div><div class = 'column'><img src = 'category1/CS7.png' width = '70%;'></div></div>","null","neg","CS","CS","1","category1/CS7.png","","","","",""
"","html-keyboard-response","19","182314","0.0-6.0-0.0-0.13","50jv2vtstw","one_one","1","indirect_first","0","el06ch29","0","31","1","1","3","1","","0","1","0","null","","","<div class = 'row'><div class = 'column'><img src = 'category4/CS8.png' width = '70%;'></div><div class = 'column'><img src = 'uspos/8080.bmp' width = '100%;'></div></div>","null","pos","CS","CS","4","category4/CS8.png","","","","",""
"","html-keyboard-response","20","184819","0.0-6.0-0.0-0.14","50jv2vtstw","one_one","1","indirect_first","0","el06ch29","0","31","1","1","3","1","","0","1","0","null","","","<div class = 'row'><div class = 'column'><img src = 'uspos/5760.bmp' width = '100%;'></div><div class = 'column'><img src = 'category2/CS5.png' width = '70%;'></div></div>","null","pos","CS","CS","2","category2/CS5.png","","","","",""
"","html-keyboard-response","21","187325","0.0-6.0-0.0-0.15","50jv2vtstw","one_one","1","indirect_first","0","el06ch29","0","31","1","1","3","1","","0","1","0","null","","","<div class = 'row'><div class = 'column'><img src = 'category1/CS7.png' width = '70%;'></div><div class = 'column'><img src = 'usneg/9520.bmp' width = '100%;'></div></div>","null","neg","CS","CS","1","category1/CS7.png","","","","",""
"","html-keyboard-response","22","189831","0.0-6.0-0.0-0.16","50jv2vtstw","one_one","1","indirect_first","0","el06ch29","0","31","1","1","3","1","","0","1","0","null","","","<div class = 'row'><div class = 'column'><img src = 'uspos/8080.bmp' width = '100%;'></div><div class = 'column'><img src = 'category4/CS8.png' width = '70%;'></div></div>","null","pos","CS","CS","4","category4/CS8.png","","","","",""
"","html-keyboard-response","23","192336","0.0-6.0-0.0-0.17","50jv2vtstw","one_one","1","indirect_first","0","el06ch29","0","31","1","1","3","1","","0","1","0","null","","","<div class = 'row'><div class = 'column'><img src = 'uspos/5760.bmp' width = '100%;'></div><div class = 'column'><img src = 'category2/CS5.png' width = '70%;'></div></div>","null","pos","CS","CS","2","category2/CS5.png","","","","",""
"","html-keyboard-response","24","194840","0.0-6.0-0.0-0.18","50jv2vtstw","one_one","1","indirect_first","0","el06ch29","0","31","1","1","3","1","","0","1","0","null","","","<div class = 'row'><div class = 'column'><img src = 'category1/CS7.png' width = '70%;'></div><div class = 'column'><img src = 'usneg/9520.bmp' width = '100%;'></div></div>","null","neg","CS","CS","1","category1/CS7.png","","","","",""
"","html-keyboard-response","25","197346","0.0-6.0-0.0-0.19","50jv2vtstw","one_one","1","indirect_first","0","el06ch29","0","31","1","1","3","1","","0","1","0","null","","","<div class = 'row'><div class = 'column'><img src = 'category3/CS6.png' width = '70%;'></div><div class = 'column'><img src = 'usneg/3300.bmp' width = '100%;'></div></div>","null","neg","CS","CS","3","category3/CS6.png","","","","",""
"","survey-html-form","26","200595","0.0-6.0-1.0","50jv2vtstw","one_one","1","indirect_first","0","el06ch29","0","31","1","1","3","1","","0","1","0","2747.8049998171628","","{}","","","","","","","","","","","",""
"","html-keyboard-response","27","204602","0.0-6.0-2.0-0.0","50jv2vtstw","one_one","1","indirect_first","0","el06ch29","0","31","1","1","3","1","","0","1","0","null","","","<div class = 'row'><div class = 'column'><img src = 'uspos/8080.bmp' width = '100%;'></div><div class = 'column'><img src = 'category4/CS8.png' width = '70%;'></div></div>","null","pos","CS","CS","4","category4/CS8.png","","","","",""
"","html-keyboard-response","28","207107","0.0-6.0-2.0-0.1","50jv2vtstw","one_one","1","indirect_first","0","el06ch29","0","31","1","1","3","1","","0","1","0","null","","","<div class = 'row'><div class = 'column'><img src = 'usneg/3300.bmp' width = '100%;'></div><div class = 'column'><img src = 'category3/CS6.png' width = '70%;'></div></div>","null","neg","CS","CS","3","category3/CS6.png","","","","",""
"","html-keyboard-response","29","209614","0.0-6.0-2.0-0.2","50jv2vtstw","one_one","1","indirect_first","0","el06ch29","0","31","1","1","3","1","","0","1","0","null","","","<div class = 'row'><div class = 'column'><img src = 'usneg/9520.bmp' width = '100%;'></div><div class = 'column'><img src = 'category1/CS7.png' width = '70%;'></div></div>","null","neg","CS","CS","1","category1/CS7.png","","","","",""
"","html-keyboard-response","30","212120","0.0-6.0-2.0-0.3","50jv2vtstw","one_one","1","indirect_first","0","el06ch29","0","31","1","1","3","1","","0","1","0","null","","","<div class = 'row'><div class = 'column'><img src = 'uspos/8080.bmp' width = '100%;'></div><div class = 'column'><img src = 'category4/CS8.png' width = '70%;'></div></div>","null","pos","CS","CS","4","category4/CS8.png","","","","",""
"","html-keyboard-response","31","214625","0.0-6.0-2.0-0.4","50jv2vtstw","one_one","1","indirect_first","0","el06ch29","0","31","1","1","3","1","","0","1","0","null","","","<div class = 'row'><div class = 'column'><img src = 'category1/CS7.png' width = '70%;'></div><div class = 'column'><img src = 'usneg/9520.bmp' width = '100%;'></div></div>","null","neg","CS","CS","1","category1/CS7.png","","","","",""
"","html-keyboard-response","32","217130","0.0-6.0-2.0-0.5","50jv2vtstw","one_one","1","indirect_first","0","el06ch29","0","31","1","1","3","1","","0","1","0","null","","","<div class = 'row'><div class = 'column'><img src = 'category3/CS6.png' width = '70%;'></div><div class = 'column'><img src = 'usneg/3300.bmp' width = '100%;'></div></div>","null","neg","CS","CS","3","category3/CS6.png","","","","",""
"","html-keyboard-response","33","219635","0.0-6.0-2.0-0.6","50jv2vtstw","one_one","1","indirect_first","0","el06ch29","0","31","1","1","3","1","","0","1","0","null","","","<div class = 'row'><div class = 'column'><img src = 'uspos/5760.bmp' width = '100%;'></div><div class = 'column'><img src = 'category2/CS5.png' width = '70%;'></div></div>","null","pos","CS","CS","2","category2/CS5.png","","","","",""
"","html-keyboard-response","34","222142","0.0-6.0-2.0-0.7","50jv2vtstw","one_one","1","indirect_first","0","el06ch29","0","31","1","1","3","1","","0","1","0","null","","","<div class = 'row'><div class = 'column'><img src = 'uspos/8080.bmp' width = '100%;'></div><div class = 'column'><img src = 'category4/CS8.png' width = '70%;'></div></div>","null","pos","CS","CS","4","category4/CS8.png","","","","",""
"","html-keyboard-response","35","224647","0.0-6.0-2.0-0.8","50jv2vtstw","one_one","1","indirect_first","0","el06ch29","0","31","1","1","3","1","","0","1","0","null","","","<div class = 'row'><div class = 'column'><img src = 'uspos/5760.bmp' width = '100%;'></div><div class = 'column'><img src = 'category2/CS5.png' width = '70%;'></div></div>","null","pos","CS","CS","2","category2/CS5.png","","","","",""
"","html-keyboard-response","36","227152","0.0-6.0-2.0-0.9","50jv2vtstw","one_one","1","indirect_first","0","el06ch29","0","31","1","1","3","1","","0","1","0","null","","","<div class = 'row'><div class = 'column'><img src = 'category3/CS6.png' width = '70%;'></div><div class = 'column'><img src = 'usneg/3300.bmp' width = '100%;'></div></div>","null","neg","CS","CS","3","category3/CS6.png","","","","",""
"","html-keyboard-response","37","229658","0.0-6.0-2.0-0.10","50jv2vtstw","one_one","1","indirect_first","0","el06ch29","0","31","1","1","3","1","","0","1","0","null","","","<div class = 'row'><div class = 'column'><img src = 'usneg/9520.bmp' width = '100%;'></div><div class = 'column'><img src = 'category1/CS7.png' width = '70%;'></div></div>","null","neg","CS","CS","1","category1/CS7.png","","","","",""
"","html-keyboard-response","38","232163","0.0-6.0-2.0-0.11","50jv2vtstw","one_one","1","indirect_first","0","el06ch29","0","31","1","1","3","1","","0","1","0","null","","","<div class = 'row'><div class = 'column'><img src = 'usneg/3300.bmp' width = '100%;'></div><div class = 'column'><img src = 'category3/CS6.png' width = '70%;'></div></div>","null","neg","CS","CS","3","category3/CS6.png","","","","",""
"","html-keyboard-response","39","234669","0.0-6.0-2.0-0.12","50jv2vtstw","one_one","1","indirect_first","0","el06ch29","0","31","1","1","3","1","","0","1","0","null","","","<div class = 'row'><div class = 'column'><img src = 'category4/CS8.png' width = '70%;'></div><div class = 'column'><img src = 'uspos/8080.bmp' width = '100%;'></div></div>","null","pos","CS","CS","4","category4/CS8.png","","","","",""
"","html-keyboard-response","40","237175","0.0-6.0-2.0-0.13","50jv2vtstw","one_one","1","indirect_first","0","el06ch29","0","31","1","1","3","1","","0","1","0","null","","","<div class = 'row'><div class = 'column'><img src = 'uspos/5760.bmp' width = '100%;'></div><div class = 'column'><img src = 'category2/CS5.png' width = '70%;'></div></div>","null","pos","CS","CS","2","category2/CS5.png","","","","",""
"","html-keyboard-response","41","239678","0.0-6.0-2.0-0.14","50jv2vtstw","one_one","1","indirect_first","0","el06ch29","0","31","1","1","3","1","","0","1","0","null","","","<div class = 'row'><div class = 'column'><img src = 'usneg/3300.bmp' width = '100%;'></div><div class = 'column'><img src = 'category3/CS6.png' width = '70%;'></div></div>","null","neg","CS","CS","3","category3/CS6.png","","","","",""
"","html-keyboard-response","42","242184","0.0-6.0-2.0-0.15","50jv2vtstw","one_one","1","indirect_first","0","el06ch29","0","31","1","1","3","1","","0","1","0","null","","","<div class = 'row'><div class = 'column'><img src = 'category1/CS7.png' width = '70%;'></div><div class = 'column'><img src = 'usneg/9520.bmp' width = '100%;'></div></div>","null","neg","CS","CS","1","category1/CS7.png","","","","",""
"","html-keyboard-response","43","244688","0.0-6.0-2.0-0.16","50jv2vtstw","one_one","1","indirect_first","0","el06ch29","0","31","1","1","3","1","","0","1","0","null","","","<div class = 'row'><div class = 'column'><img src = 'category2/CS5.png' width = '70%;'></div><div class = 'column'><img src = 'uspos/5760.bmp' width = '100%;'></div></div>","null","pos","CS","CS","2","category2/CS5.png","","","","",""
"","html-keyboard-response","44","247194","0.0-6.0-2.0-0.17","50jv2vtstw","one_one","1","indirect_first","0","el06ch29","0","31","1","1","3","1","","0","1","0","null","","","<div class = 'row'><div class = 'column'><img src = 'category4/CS8.png' width = '70%;'></div><div class = 'column'><img src = 'uspos/8080.bmp' width = '100%;'></div></div>","null","pos","CS","CS","4","category4/CS8.png","","","","",""
"","html-keyboard-response","45","249700","0.0-6.0-2.0-0.18","50jv2vtstw","one_one","1","indirect_first","0","el06ch29","0","31","1","1","3","1","","0","1","0","null","","","<div class = 'row'><div class = 'column'><img src = 'category1/CS7.png' width = '70%;'></div><div class = 'column'><img src = 'usneg/9520.bmp' width = '100%;'></div></div>","null","neg","CS","CS","1","category1/CS7.png","","","","",""
"","html-keyboard-response","46","252205","0.0-6.0-2.0-0.19","50jv2vtstw","one_one","1","indirect_first","0","el06ch29","0","31","1","1","3","1","","0","1","0","null","","","<div class = 'row'><div class = 'column'><img src = 'category2/CS5.png' width = '70%;'></div><div class = 'column'><img src = 'uspos/5760.bmp' width = '100%;'></div></div>","null","pos","CS","CS","2","category2/CS5.png","","","","",""
"","survey-html-form","47","260776","0.0-6.0-3.0","50jv2vtstw","one_one","1","indirect_first","0","el06ch29","0","31","1","1","3","1","","0","1","0","8068.0200001224875","","{}","","","","","","","","","","","",""
"","html-keyboard-response","48","264783","0.0-6.0-4.0-0.0","50jv2vtstw","one_one","1","indirect_first","0","el06ch29","0","31","1","1","3","1","","0","1","0","null","","","<div class = 'row'><div class = 'column'><img src = 'uspos/8080.bmp' width = '100%;'></div><div class = 'column'><img src = 'category4/CS8.png' width = '70%;'></div></div>","null","pos","CS","CS","4","category4/CS8.png","","","","",""
"","html-keyboard-response","49","267288","0.0-6.0-4.0-0.1","50jv2vtstw","one_one","1","indirect_first","0","el06ch29","0","31","1","1","3","1","","0","1","0","null","","","<div class = 'row'><div class = 'column'><img src = 'category3/CS6.png' width = '70%;'></div><div class = 'column'><img src = 'usneg/3300.bmp' width = '100%;'></div></div>","null","neg","CS","CS","3","category3/CS6.png","","","","",""
"","html-keyboard-response","50","269794","0.0-6.0-4.0-0.2","50jv2vtstw","one_one","1","indirect_first","0","el06ch29","0","31","1","1","3","1","","0","1","0","null","","","<div class = 'row'><div class = 'column'><img src = 'category1/CS7.png' width = '70%;'></div><div class = 'column'><img src = 'usneg/9520.bmp' width = '100%;'></div></div>","null","neg","CS","CS","1","category1/CS7.png","","","","",""
"","html-keyboard-response","51","272300","0.0-6.0-4.0-0.3","50jv2vtstw","one_one","1","indirect_first","0","el06ch29","0","31","1","1","3","1","","0","1","0","null","","","<div class = 'row'><div class = 'column'><img src = 'usneg/3300.bmp' width = '100%;'></div><div class = 'column'><img src = 'category3/CS6.png' width = '70%;'></div></div>","null","neg","CS","CS","3","category3/CS6.png","","","","",""
"","html-keyboard-response","52","274806","0.0-6.0-4.0-0.4","50jv2vtstw","one_one","1","indirect_first","0","el06ch29","0","31","1","1","3","1","","0","1","0","null","","","<div class = 'row'><div class = 'column'><img src = 'category1/CS7.png' width = '70%;'></div><div class = 'column'><img src = 'usneg/9520.bmp' width = '100%;'></div></div>","null","neg","CS","CS","1","category1/CS7.png","","","","",""
"","html-keyboard-response","53","277312","0.0-6.0-4.0-0.5","50jv2vtstw","one_one","1","indirect_first","0","el06ch29","0","31","1","1","3","1","","0","1","0","null","","","<div class = 'row'><div class = 'column'><img src = 'category4/CS8.png' width = '70%;'></div><div class = 'column'><img src = 'uspos/8080.bmp' width = '100%;'></div></div>","null","pos","CS","CS","4","category4/CS8.png","","","","",""
"","html-keyboard-response","54","279816","0.0-6.0-4.0-0.6","50jv2vtstw","one_one","1","indirect_first","0","el06ch29","0","31","1","1","3","1","","0","1","0","null","","","<div class = 'row'><div class = 'column'><img src = 'usneg/9520.bmp' width = '100%;'></div><div class = 'column'><img src = 'category1/CS7.png' width = '70%;'></div></div>","null","neg","CS","CS","1","category1/CS7.png","","","","",""
"","html-keyboard-response","55","282322","0.0-6.0-4.0-0.7","50jv2vtstw","one_one","1","indirect_first","0","el06ch29","0","31","1","1","3","1","","0","1","0","null","","","<div class = 'row'><div class = 'column'><img src = 'usneg/3300.bmp' width = '100%;'></div><div class = 'column'><img src = 'category3/CS6.png' width = '70%;'></div></div>","null","neg","CS","CS","3","category3/CS6.png","","","","",""
"","html-keyboard-response","56","284827","0.0-6.0-4.0-0.8","50jv2vtstw","one_one","1","indirect_first","0","el06ch29","0","31","1","1","3","1","","0","1","0","null","","","<div class = 'row'><div class = 'column'><img src = 'category2/CS5.png' width = '70%;'></div><div class = 'column'><img src = 'uspos/5760.bmp' width = '100%;'></div></div>","null","pos","CS","CS","2","category2/CS5.png","","","","",""
"","html-keyboard-response","57","287333","0.0-6.0-4.0-0.9","50jv2vtstw","one_one","1","indirect_first","0","el06ch29","0","31","1","1","3","1","","0","1","0","null","","","<div class = 'row'><div class = 'column'><img src = 'category3/CS6.png' width = '70%;'></div><div class = 'column'><img src = 'usneg/3300.bmp' width = '100%;'></div></div>","null","neg","CS","CS","3","category3/CS6.png","","","","",""
"","html-keyboard-response","58","289838","0.0-6.0-4.0-0.10","50jv2vtstw","one_one","1","indirect_first","0","el06ch29","0","31","1","1","3","1","","0","1","0","null","","","<div class = 'row'><div class = 'column'><img src = 'category2/CS5.png' width = '70%;'></div><div class = 'column'><img src = 'uspos/5760.bmp' width = '100%;'></div></div>","null","pos","CS","CS","2","category2/CS5.png","","","","",""
"","html-keyboard-response","59","292343","0.0-6.0-4.0-0.11","50jv2vtstw","one_one","1","indirect_first","0","el06ch29","0","31","1","1","3","1","","0","1","0","null","","","<div class = 'row'><div class = 'column'><img src = 'uspos/8080.bmp' width = '100%;'></div><div class = 'column'><img src = 'category4/CS8.png' width = '70%;'></div></div>","null","pos","CS","CS","4","category4/CS8.png","","","","",""
"","html-keyboard-response","60","294851","0.0-6.0-4.0-0.12","50jv2vtstw","one_one","1","indirect_first","0","el06ch29","0","31","1","1","3","1","","0","1","0","null","","","<div class = 'row'><div class = 'column'><img src = 'category2/CS5.png' width = '70%;'></div><div class = 'column'><img src = 'uspos/5760.bmp' width = '100%;'></div></div>","null","pos","CS","CS","2","category2/CS5.png","","","","",""
"","html-keyboard-response","61","297355","0.0-6.0-4.0-0.13","50jv2vtstw","one_one","1","indirect_first","0","el06ch29","0","31","1","1","3","1","","0","1","0","null","","","<div class = 'row'><div class = 'column'><img src = 'uspos/8080.bmp' width = '100%;'></div><div class = 'column'><img src = 'category4/CS8.png' width = '70%;'></div></div>","null","pos","CS","CS","4","category4/CS8.png","","","","",""
"","html-keyboard-response","62","299859","0.0-6.0-4.0-0.14","50jv2vtstw","one_one","1","indirect_first","0","el06ch29","0","31","1","1","3","1","","0","1","0","null","","","<div class = 'row'><div class = 'column'><img src = 'category1/CS7.png' width = '70%;'></div><div class = 'column'><img src = 'usneg/9520.bmp' width = '100%;'></div></div>","null","neg","CS","CS","1","category1/CS7.png","","","","",""
"","html-keyboard-response","63","302363","0.0-6.0-4.0-0.15","50jv2vtstw","one_one","1","indirect_first","0","el06ch29","0","31","1","1","3","1","","0","1","0","null","","","<div class = 'row'><div class = 'column'><img src = 'category4/CS8.png' width = '70%;'></div><div class = 'column'><img src = 'uspos/8080.bmp' width = '100%;'></div></div>","null","pos","CS","CS","4","category4/CS8.png","","","","",""
"","html-keyboard-response","64","304871","0.0-6.0-4.0-0.16","50jv2vtstw","one_one","1","indirect_first","0","el06ch29","0","31","1","1","3","1","","0","1","0","null","","","<div class = 'row'><div class = 'column'><img src = 'category1/CS7.png' width = '70%;'></div><div class = 'column'><img src = 'usneg/9520.bmp' width = '100%;'></div></div>","null","neg","CS","CS","1","category1/CS7.png","","","","",""
"","html-keyboard-response","65","307377","0.0-6.0-4.0-0.17","50jv2vtstw","one_one","1","indirect_first","0","el06ch29","0","31","1","1","3","1","","0","1","0","null","","","<div class = 'row'><div class = 'column'><img src = 'category2/CS5.png' width = '70%;'></div><div class = 'column'><img src = 'uspos/5760.bmp' width = '100%;'></div></div>","null","pos","CS","CS","2","category2/CS5.png","","","","",""
"","html-keyboard-response","66","309882","0.0-6.0-4.0-0.18","50jv2vtstw","one_one","1","indirect_first","0","el06ch29","0","31","1","1","3","1","","0","1","0","null","","","<div class = 'row'><div class = 'column'><img src = 'usneg/3300.bmp' width = '100%;'></div><div class = 'column'><img src = 'category3/CS6.png' width = '70%;'></div></div>","null","neg","CS","CS","3","category3/CS6.png","","","","",""
"","html-keyboard-response","67","312386","0.0-6.0-4.0-0.19","50jv2vtstw","one_one","1","indirect_first","0","el06ch29","0","31","1","1","3","1","","0","1","0","null","","","<div class = 'row'><div class = 'column'><img src = 'category2/CS5.png' width = '70%;'></div><div class = 'column'><img src = 'uspos/5760.bmp' width = '100%;'></div></div>","null","pos","CS","CS","2","category2/CS5.png","","","","",""
"","survey-html-form","68","314519","0.0-6.0-5.0","50jv2vtstw","one_one","1","indirect_first","0","el06ch29","0","31","1","1","3","1","","0","1","0","1630.6350002996624","","{}","","","","","","","","","","","",""
"","html-keyboard-response","69","318528","0.0-6.0-6.0-0.0","50jv2vtstw","one_one","1","indirect_first","0","el06ch29","0","31","1","1","3","1","","0","1","0","null","","","<div class = 'row'><div class = 'column'><img src = 'usneg/9520.bmp' width = '100%;'></div><div class = 'column'><img src = 'category1/CS7.png' width = '70%;'></div></div>","null","neg","CS","CS","1","category1/CS7.png","","","","",""
"","html-keyboard-response","70","321035","0.0-6.0-6.0-0.1","50jv2vtstw","one_one","1","indirect_first","0","el06ch29","0","31","1","1","3","1","","0","1","0","null","","","<div class = 'row'><div class = 'column'><img src = 'category2/CS5.png' width = '70%;'></div><div class = 'column'><img src = 'uspos/5760.bmp' width = '100%;'></div></div>","null","pos","CS","CS","2","category2/CS5.png","","","","",""
"","html-keyboard-response","71","323541","0.0-6.0-6.0-0.2","50jv2vtstw","one_one","1","indirect_first","0","el06ch29","0","31","1","1","3","1","","0","1","0","null","","","<div class = 'row'><div class = 'column'><img src = 'usneg/3300.bmp' width = '100%;'></div><div class = 'column'><img src = 'category3/CS6.png' width = '70%;'></div></div>","null","neg","CS","CS","3","category3/CS6.png","","","","",""
"","html-keyboard-response","72","326046","0.0-6.0-6.0-0.3","50jv2vtstw","one_one","1","indirect_first","0","el06ch29","0","31","1","1","3","1","","0","1","0","null","","","<div class = 'row'><div class = 'column'><img src = 'category4/CS8.png' width = '70%;'></div><div class = 'column'><img src = 'uspos/8080.bmp' width = '100%;'></div></div>","null","pos","CS","CS","4","category4/CS8.png","","","","",""
"","html-keyboard-response","73","328550","0.0-6.0-6.0-0.4","50jv2vtstw","one_one","1","indirect_first","0","el06ch29","0","31","1","1","3","1","","0","1","0","null","","","<div class = 'row'><div class = 'column'><img src = 'category2/CS5.png' width = '70%;'></div><div class = 'column'><img src = 'uspos/5760.bmp' width = '100%;'></div></div>","null","pos","CS","CS","2","category2/CS5.png","","","","",""
"","html-keyboard-response","74","331056","0.0-6.0-6.0-0.5","50jv2vtstw","one_one","1","indirect_first","0","el06ch29","0","31","1","1","3","1","","0","1","0","null","","","<div class = 'row'><div class = 'column'><img src = 'category1/CS7.png' width = '70%;'></div><div class = 'column'><img src = 'usneg/9520.bmp' width = '100%;'></div></div>","null","neg","CS","CS","1","category1/CS7.png","","","","",""
"","html-keyboard-response","75","333562","0.0-6.0-6.0-0.6","50jv2vtstw","one_one","1","indirect_first","0","el06ch29","0","31","1","1","3","1","","0","1","0","null","","","<div class = 'row'><div class = 'column'><img src = 'usneg/3300.bmp' width = '100%;'></div><div class = 'column'><img src = 'category3/CS6.png' width = '70%;'></div></div>","null","neg","CS","CS","3","category3/CS6.png","","","","",""
"","html-keyboard-response","76","336067","0.0-6.0-6.0-0.7","50jv2vtstw","one_one","1","indirect_first","0","el06ch29","0","31","1","1","3","1","","0","1","0","null","","","<div class = 'row'><div class = 'column'><img src = 'uspos/5760.bmp' width = '100%;'></div><div class = 'column'><img src = 'category2/CS5.png' width = '70%;'></div></div>","null","pos","CS","CS","2","category2/CS5.png","","","","",""
"","html-keyboard-response","77","338573","0.0-6.0-6.0-0.8","50jv2vtstw","one_one","1","indirect_first","0","el06ch29","0","31","1","1","3","1","","0","1","0","null","","","<div class = 'row'><div class = 'column'><img src = 'category1/CS7.png' width = '70%;'></div><div class = 'column'><img src = 'usneg/9520.bmp' width = '100%;'></div></div>","null","neg","CS","CS","1","category1/CS7.png","","","","",""
"","html-keyboard-response","78","341079","0.0-6.0-6.0-0.9","50jv2vtstw","one_one","1","indirect_first","0","el06ch29","0","31","1","1","3","1","","0","1","0","null","","","<div class = 'row'><div class = 'column'><img src = 'uspos/8080.bmp' width = '100%;'></div><div class = 'column'><img src = 'category4/CS8.png' width = '70%;'></div></div>","null","pos","CS","CS","4","category4/CS8.png","","","","",""
"","html-keyboard-response","79","343583","0.0-6.0-6.0-0.10","50jv2vtstw","one_one","1","indirect_first","0","el06ch29","0","31","1","1","3","1","","0","1","0","null","","","<div class = 'row'><div class = 'column'><img src = 'usneg/3300.bmp' width = '100%;'></div><div class = 'column'><img src = 'category3/CS6.png' width = '70%;'></div></div>","null","neg","CS","CS","3","category3/CS6.png","","","","",""
"","html-keyboard-response","80","346087","0.0-6.0-6.0-0.11","50jv2vtstw","one_one","1","indirect_first","0","el06ch29","0","31","1","1","3","1","","0","1","0","null","","","<div class = 'row'><div class = 'column'><img src = 'category4/CS8.png' width = '70%;'></div><div class = 'column'><img src = 'uspos/8080.bmp' width = '100%;'></div></div>","null","pos","CS","CS","4","category4/CS8.png","","","","",""
"","html-keyboard-response","81","348593","0.0-6.0-6.0-0.12","50jv2vtstw","one_one","1","indirect_first","0","el06ch29","0","31","1","1","3","1","","0","1","0","null","","","<div class = 'row'><div class = 'column'><img src = 'uspos/5760.bmp' width = '100%;'></div><div class = 'column'><img src = 'category2/CS5.png' width = '70%;'></div></div>","null","pos","CS","CS","2","category2/CS5.png","","","","",""
"","html-keyboard-response","82","351098","0.0-6.0-6.0-0.13","50jv2vtstw","one_one","1","indirect_first","0","el06ch29","0","31","1","1","3","1","","0","1","0","null","","","<div class = 'row'><div class = 'column'><img src = 'usneg/3300.bmp' width = '100%;'></div><div class = 'column'><img src = 'category3/CS6.png' width = '70%;'></div></div>","null","neg","CS","CS","3","category3/CS6.png","","","","",""
"","html-keyboard-response","83","353602","0.0-6.0-6.0-0.14","50jv2vtstw","one_one","1","indirect_first","0","el06ch29","0","31","1","1","3","1","","0","1","0","null","","","<div class = 'row'><div class = 'column'><img src = 'uspos/8080.bmp' width = '100%;'></div><div class = 'column'><img src = 'category4/CS8.png' width = '70%;'></div></div>","null","pos","CS","CS","4","category4/CS8.png","","","","",""
"","html-keyboard-response","84","356108","0.0-6.0-6.0-0.15","50jv2vtstw","one_one","1","indirect_first","0","el06ch29","0","31","1","1","3","1","","0","1","0","null","","","<div class = 'row'><div class = 'column'><img src = 'category2/CS5.png' width = '70%;'></div><div class = 'column'><img src = 'uspos/5760.bmp' width = '100%;'></div></div>","null","pos","CS","CS","2","category2/CS5.png","","","","",""
"","html-keyboard-response","85","358614","0.0-6.0-6.0-0.16","50jv2vtstw","one_one","1","indirect_first","0","el06ch29","0","31","1","1","3","1","","0","1","0","null","","","<div class = 'row'><div class = 'column'><img src = 'usneg/3300.bmp' width = '100%;'></div><div class = 'column'><img src = 'category3/CS6.png' width = '70%;'></div></div>","null","neg","CS","CS","3","category3/CS6.png","","","","",""
"","html-keyboard-response","86","361121","0.0-6.0-6.0-0.17","50jv2vtstw","one_one","1","indirect_first","0","el06ch29","0","31","1","1","3","1","","0","1","0","null","","","<div class = 'row'><div class = 'column'><img src = 'usneg/9520.bmp' width = '100%;'></div><div class = 'column'><img src = 'category1/CS7.png' width = '70%;'></div></div>","null","neg","CS","CS","1","category1/CS7.png","","","","",""
"","html-keyboard-response","87","363626","0.0-6.0-6.0-0.18","50jv2vtstw","one_one","1","indirect_first","0","el06ch29","0","31","1","1","3","1","","0","1","0","null","","","<div class = 'row'><div class = 'column'><img src = 'category4/CS8.png' width = '70%;'></div><div class = 'column'><img src = 'uspos/8080.bmp' width = '100%;'></div></div>","null","pos","CS","CS","4","category4/CS8.png","","","","",""
"","html-keyboard-response","88","366131","0.0-6.0-6.0-0.19","50jv2vtstw","one_one","1","indirect_first","0","el06ch29","0","31","1","1","3","1","","0","1","0","null","","","<div class = 'row'><div class = 'column'><img src = 'usneg/9520.bmp' width = '100%;'></div><div class = 'column'><img src = 'category1/CS7.png' width = '70%;'></div></div>","null","neg","CS","CS","1","category1/CS7.png","","","","",""
"","html-keyboard-response","89","411779","0.0-7.0","50jv2vtstw","one_one","1","indirect_first","0","el06ch29","0","31","1","1","3","1","","0","1","0","45144.88000003621","","","<p>Sie sehen nun die chinesischen Zeichen nur ganz kurz. Danach sehen Sie die jeweilige Aussprache der Zeichen als Silbe auf dem Bildschrim. Ihre Aufgabe ist es, für jede Silbe anzugeben, ob diese etwas angenehmes, oder unangenehmes bedeuten könnte. Verlassen Sie sich hier vor allem auf Ihre Intuition.<br><br>Die Zeichen werden nur zur Orientierung dargestellt, beachten Sie sie deshalb nicht. Konzentrieren Sie sich vor allem auf die Silben. <br>Reagieren Sie mit folgenden zwei Tasten: <br><br><b>'D' </b> wenn die Silbe etwas <b>unangenehmes</b> bedeuten könnte. <br><b>'K'</b> wenn die Silbe etwas <b>angenehmes</b> bedeuten könnte. <br><br>Bitte legen Sie nun den Zeigefinger der linken Hand auf die Taste 'D' und den Zeigefinger der rechten Hand auf die Taste 'K'. <br>Reagieren Sie auf jede Silbe so schnell wie möglich. Uns interessiert Ihre spontane Reaktion. <br> <br> <br>Drücken Sie 'D' oder 'K', um die nächste Aufgabe zu starten. </p>","75","","","","","","","","","",""
"","html-keyboard-response","90","414783","0.0-8.0-0.0","50jv2vtstw","one_one","1","indirect_first","0","el06ch29","0","31","1","1","3","1","","0","1","0","null","","","<div style=""font-size:60px;"">+</div>","null","","","","","","","","","",""
"","html-keyboard-response","91","414875","0.0-8.0-1.0","50jv2vtstw","one_one","1","indirect_first","0","el06ch29","0","31","1","1","3","1","","0","1","0","null","","","<img src = 'category4/CS2.png' width = '100%;'>","null","","","","","","","","","",""
"","html-keyboard-response","92","415129","0.0-8.0-2.0","50jv2vtstw","one_one","1","indirect_first","0","el06ch29","0","31","1","1","3","1","","0","1","0","null","","","<img src = 'targets/43.png' width = '100%;'>","null","","","","","","","","","",""
"","html-keyboard-response","93","418185","0.0-8.0-3.0","50jv2vtstw","one_one","1","indirect_first","0","el06ch29","0","31","1","1","3","1","","0","1","0","3054.3499998748302","","","<img src = 'targets/mask.png' width = '100%;'>","75","pos","GS","GSold","4","category4/CS2.png","targets/43.png","1","indirect","0",""
"","html-keyboard-response","94","419689","0.0-8.0-0.1","50jv2vtstw","one_one","1","indirect_first","0","el06ch29","0","31","1","1","3","1","","0","1","0","null","","","<div style=""font-size:60px;"">+</div>","null","","","","","","","","","",""
"","html-keyboard-response","95","419782","0.0-8.0-1.1","50jv2vtstw","one_one","1","indirect_first","0","el06ch29","0","31","1","1","3","1","","0","1","0","null","","","<img src = 'category1/CS1.png' width = '100%;'>","null","","","","","","","","","",""
"","html-keyboard-response","96","420035","0.0-8.0-2.1","50jv2vtstw","one_one","1","indirect_first","0","el06ch29","0","31","1","1","3","1","","0","1","0","null","","","<img src = 'targets/8.png' width = '100%;'>","null","","","","","","","","","",""
"","html-keyboard-response","97","421587","0.0-8.0-3.1","50jv2vtstw","one_one","1","indirect_first","0","el06ch29","0","31","1","1","3","1","","0","1","0","1549.6000000275671","","","<img src = 'targets/mask.png' width = '100%;'>","75","neg","GS","GSold","1","category1/CS1.png","targets/8.png","1","indirect","1",""
"","html-keyboard-response","98","423089","0.0-8.0-0.2","50jv2vtstw","one_one","1","indirect_first","0","el06ch29","0","31","1","1","3","1","","0","1","0","null","","","<div style=""font-size:60px;"">+</div>","null","","","","","","","","","",""
"","html-keyboard-response","99","423181","0.0-8.0-1.2","50jv2vtstw","one_one","1","indirect_first","0","el06ch29","0","31","1","1","3","1","","0","1","0","null","","","<img src = 'category2/CS8.png' width = '100%;'>","null","","","","","","","","","",""
"","html-keyboard-response","100","423434","0.0-8.0-2.2","50jv2vtstw","one_one","1","indirect_first","0","el06ch29","0","31","1","1","3","1","","0","1","0","null","","","<img src = 'targets/39.png' width = '100%;'>","null","","","","","","","","","",""
"","html-keyboard-response","101","424235","0.0-8.0-3.2","50jv2vtstw","one_one","1","indirect_first","0","el06ch29","0","31","1","1","3","1","","0","1","0","799.5249996893108","","","<img src = 'targets/mask.png' width = '100%;'>","68","pos","GS","GSold","2","category2/CS8.png","targets/39.png","0","indirect","2",""
"","html-keyboard-response","102","425740","0.0-8.0-0.3","50jv2vtstw","one_one","1","indirect_first","0","el06ch29","0","31","1","1","3","1","","0","1","0","null","","","<div style=""font-size:60px;"">+</div>","null","","","","","","","","","",""
"","html-keyboard-response","103","425833","0.0-8.0-1.3","50jv2vtstw","one_one","1","indirect_first","0","el06ch29","0","31","1","1","3","1","","0","1","0","null","","","<img src = 'category3/CS4.png' width = '100%;'>","null","","","","","","","","","",""
"","html-keyboard-response","104","426087","0.0-8.0-2.3","50jv2vtstw","one_one","1","indirect_first","0","el06ch29","0","31","1","1","3","1","","0","1","0","null","","","<img src = 'targets/21.png' width = '100%;'>","null","","","","","","","","","",""
"","html-keyboard-response","105","427414","0.0-8.0-3.3","50jv2vtstw","one_one","1","indirect_first","0","el06ch29","0","31","1","1","3","1","","0","1","0","1324.7050000354648","","","<img src = 'targets/mask.png' width = '100%;'>","68","neg","GS","GSold","3","category3/CS4.png","targets/21.png","0","indirect","3",""
"","html-keyboard-response","106","428919","0.0-8.0-0.4","50jv2vtstw","one_one","1","indirect_first","0","el06ch29","0","31","1","1","3","1","","0","1","0","null","","","<div style=""font-size:60px;"">+</div>","null","","","","","","","","","",""
"","html-keyboard-response","107","429011","0.0-8.0-1.4","50jv2vtstw","one_one","1","indirect_first","0","el06ch29","0","31","1","1","3","1","","0","1","0","null","","","<img src = 'category1/CS3.png' width = '100%;'>","null","","","","","","","","","",""
"","html-keyboard-response","108","429264","0.0-8.0-2.4","50jv2vtstw","one_one","1","indirect_first","0","el06ch29","0","31","1","1","3","1","","0","1","0","null","","","<img src = 'targets/48.png' width = '100%;'>","null","","","","","","","","","",""
"","html-keyboard-response","109","430864","0.0-8.0-3.4","50jv2vtstw","one_one","1","indirect_first","0","el06ch29","0","31","1","1","3","1","","0","1","0","1597.889999859035","","","<img src = 'targets/mask.png' width = '100%;'>","68","neg","GS","GSold","1","category1/CS3.png","targets/48.png","0","indirect","4",""
"","html-keyboard-response","110","432367","0.0-8.0-0.5","50jv2vtstw","one_one","1","indirect_first","0","el06ch29","0","31","1","1","3","1","","0","1","0","null","","","<div style=""font-size:60px;"">+</div>","null","","","","","","","","","",""
"","html-keyboard-response","111","432460","0.0-8.0-1.5","50jv2vtstw","one_one","1","indirect_first","0","el06ch29","0","31","1","1","3","1","","0","1","0","null","","","<img src = 'category1/CS7.png' width = '100%;'>","null","","","","","","","","","",""
"","html-keyboard-response","112","432713","0.0-8.0-2.5","50jv2vtstw","one_one","1","indirect_first","0","el06ch29","0","31","1","1","3","1","","0","1","0","null","","","<img src = 'targets/30.png' width = '100%;'>","null","","","","","","","","","",""
"","html-keyboard-response","113","433308","0.0-8.0-3.5","50jv2vtstw","one_one","1","indirect_first","0","el06ch29","0","31","1","1","3","1","","0","1","0","590.7850000075996","","","<img src = 'targets/mask.png' width = '100%;'>","75","neg","CS","CS","1","category1/CS7.png","targets/30.png","1","indirect","5",""
"","html-keyboard-response","114","434810","0.0-8.0-0.6","50jv2vtstw","one_one","1","indirect_first","0","el06ch29","0","31","1","1","3","1","","0","1","0","null","","","<div style=""font-size:60px;"">+</div>","null","","","","","","","","","",""
"","html-keyboard-response","115","434903","0.0-8.0-1.6","50jv2vtstw","one_one","1","indirect_first","0","el06ch29","0","31","1","1","3","1","","0","1","0","null","","","<img src = 'category3/CS6.png' width = '100%;'>","null","","","","","","","","","",""
"","html-keyboard-response","116","435157","0.0-8.0-2.6","50jv2vtstw","one_one","1","indirect_first","0","el06ch29","0","31","1","1","3","1","","0","1","0","null","","","<img src = 'targets/10.png' width = '100%;'>","null","","","","","","","","","",""
"","html-keyboard-response","117","435799","0.0-8.0-3.6","50jv2vtstw","one_one","1","indirect_first","0","el06ch29","0","31","1","1","3","1","","0","1","0","640.7200000248849","","","<img src = 'targets/mask.png' width = '100%;'>","75","neg","CS","CS","3","category3/CS6.png","targets/10.png","1","indirect","6",""
"","html-keyboard-response","118","437304","0.0-8.0-0.7","50jv2vtstw","one_one","1","indirect_first","0","el06ch29","0","31","1","1","3","1","","0","1","0","null","","","<div style=""font-size:60px;"">+</div>","null","","","","","","","","","",""
"","html-keyboard-response","119","437397","0.0-8.0-1.7","50jv2vtstw","one_one","1","indirect_first","0","el06ch29","0","31","1","1","3","1","","0","1","0","null","","","<img src = 'category4/CS8.png' width = '100%;'>","null","","","","","","","","","",""
"","html-keyboard-response","120","437650","0.0-8.0-2.7","50jv2vtstw","one_one","1","indirect_first","0","el06ch29","0","31","1","1","3","1","","0","1","0","null","","","<img src = 'targets/29.png' width = '100%;'>","null","","","","","","","","","",""
"","html-keyboard-response","121","438416","0.0-8.0-3.7","50jv2vtstw","one_one","1","indirect_first","0","el06ch29","0","31","1","1","3","1","","0","1","0","763.5300001129508","","","<img src = 'targets/mask.png' width = '100%;'>","75","pos","CS","CS","4","category4/CS8.png","targets/29.png","1","indirect","7",""
"","html-keyboard-response","122","439918","0.0-8.0-0.8","50jv2vtstw","one_one","1","indirect_first","0","el06ch29","0","31","1","1","3","1","","0","1","0","null","","","<div style=""font-size:60px;"">+</div>","null","","","","","","","","","",""
"","html-keyboard-response","123","440011","0.0-8.0-1.8","50jv2vtstw","one_one","1","indirect_first","0","el06ch29","0","31","1","1","3","1","","0","1","0","null","","","<img src = 'category3/CS9.png' width = '100%;'>","null","","","","","","","","","",""
"","html-keyboard-response","124","440264","0.0-8.0-2.8","50jv2vtstw","one_one","1","indirect_first","0","el06ch29","0","31","1","1","3","1","","0","1","0","null","","","<img src = 'targets/1.png' width = '100%;'>","null","","","","","","","","","",""
"","html-keyboard-response","125","440777","0.0-8.0-3.8","50jv2vtstw","one_one","1","indirect_first","0","el06ch29","0","31","1","1","3","1","","0","1","0","509.6449996344745","","","<img src = 'targets/mask.png' width = '100%;'>","68","neg","GS","GSold","3","category3/CS9.png","targets/1.png","0","indirect","8",""
"","html-keyboard-response","126","442279","0.0-8.0-0.9","50jv2vtstw","one_one","1","indirect_first","0","el06ch29","0","31","1","1","3","1","","0","1","0","null","","","<div style=""font-size:60px;"">+</div>","null","","","","","","","","","",""
"","html-keyboard-response","127","442371","0.0-8.0-1.9","50jv2vtstw","one_one","1","indirect_first","0","el06ch29","0","31","1","1","3","1","","0","1","0","null","","","<img src = 'category2/CS2.png' width = '100%;'>","null","","","","","","","","","",""
"","html-keyboard-response","128","442625","0.0-8.0-2.9","50jv2vtstw","one_one","1","indirect_first","0","el06ch29","0","31","1","1","3","1","","0","1","0","null","","","<img src = 'targets/13.png' width = '100%;'>","null","","","","","","","","","",""
"","html-keyboard-response","129","443356","0.0-8.0-3.9","50jv2vtstw","one_one","1","indirect_first","0","el06ch29","0","31","1","1","3","1","","0","1","0","728.8199998438358","","","<img src = 'targets/mask.png' width = '100%;'>","75","pos","GS","GSold","2","category2/CS2.png","targets/13.png","1","indirect","9",""
"","html-keyboard-response","130","444858","0.0-8.0-0.10","50jv2vtstw","one_one","1","indirect_first","0","el06ch29","0","31","1","1","3","1","","0","1","0","null","","","<div style=""font-size:60px;"">+</div>","null","","","","","","","","","",""
"","html-keyboard-response","131","444951","0.0-8.0-1.10","50jv2vtstw","one_one","1","indirect_first","0","el06ch29","0","31","1","1","3","1","","0","1","0","null","","","<img src = 'category1/CS6.png' width = '100%;'>","null","","","","","","","","","",""
"","html-keyboard-response","132","445203","0.0-8.0-2.10","50jv2vtstw","one_one","1","indirect_first","0","el06ch29","0","31","1","1","3","1","","0","1","0","null","","","<img src = 'targets/18.png' width = '100%;'>","null","","","","","","","","","",""
"","html-keyboard-response","133","445701","0.0-8.0-3.10","50jv2vtstw","one_one","1","indirect_first","0","el06ch29","0","31","1","1","3","1","","0","1","0","496.1649999022484","","","<img src = 'targets/mask.png' width = '100%;'>","68","neg","GS","GSold","1","category1/CS6.png","targets/18.png","0","indirect","10",""
"","html-keyboard-response","134","447202","0.0-8.0-0.11","50jv2vtstw","one_one","1","indirect_first","0","el06ch29","0","31","1","1","3","1","","0","1","0","null","","","<div style=""font-size:60px;"">+</div>","null","","","","","","","","","",""
"","html-keyboard-response","135","447295","0.0-8.0-1.11","50jv2vtstw","one_one","1","indirect_first","0","el06ch29","0","31","1","1","3","1","","0","1","0","null","","","<img src = 'category2/CS10.png' width = '100%;'>","null","","","","","","","","","",""
"","html-keyboard-response","136","447547","0.0-8.0-2.11","50jv2vtstw","one_one","1","indirect_first","0","el06ch29","0","31","1","1","3","1","","0","1","0","null","","","<img src = 'targets/12.png' width = '100%;'>","null","","","","","","","","","",""
"","html-keyboard-response","137","448067","0.0-8.0-3.11","50jv2vtstw","one_one","1","indirect_first","0","el06ch29","0","31","1","1","3","1","","0","1","0","518.3149999938905","","","<img src = 'targets/mask.png' width = '100%;'>","75","pos","GS","GSold","2","category2/CS10.png","targets/12.png","1","indirect","11",""
"","html-keyboard-response","138","449570","0.0-8.0-0.12","50jv2vtstw","one_one","1","indirect_first","0","el06ch29","0","31","1","1","3","1","","0","1","0","null","","","<div style=""font-size:60px;"">+</div>","null","","","","","","","","","",""
"","html-keyboard-response","139","449663","0.0-8.0-1.12","50jv2vtstw","one_one","1","indirect_first","0","el06ch29","0","31","1","1","3","1","","0","1","0","null","","","<img src = 'category3/CS2.png' width = '100%;'>","null","","","","","","","","","",""
"","html-keyboard-response","140","449916","0.0-8.0-2.12","50jv2vtstw","one_one","1","indirect_first","0","el06ch29","0","31","1","1","3","1","","0","1","0","null","","","<img src = 'targets/2.png' width = '100%;'>","null","","","","","","","","","",""
"","html-keyboard-response","141","450643","0.0-8.0-3.12","50jv2vtstw","one_one","1","indirect_first","0","el06ch29","0","31","1","1","3","1","","0","1","0","723.6700002104044","","","<img src = 'targets/mask.png' width = '100%;'>","75","neg","GS","GSold","3","category3/CS2.png","targets/2.png","1","indirect","12",""
"","html-keyboard-response","142","452147","0.0-8.0-0.13","50jv2vtstw","one_one","1","indirect_first","0","el06ch29","0","31","1","1","3","1","","0","1","0","null","","","<div style=""font-size:60px;"">+</div>","null","","","","","","","","","",""
"","html-keyboard-response","143","452239","0.0-8.0-1.13","50jv2vtstw","one_one","1","indirect_first","0","el06ch29","0","31","1","1","3","1","","0","1","0","null","","","<img src = 'category4/CS5.png' width = '100%;'>","null","","","","","","","","","",""
"","html-keyboard-response","144","452492","0.0-8.0-2.13","50jv2vtstw","one_one","1","indirect_first","0","el06ch29","0","31","1","1","3","1","","0","1","0","null","","","<img src = 'targets/36.png' width = '100%;'>","null","","","","","","","","","",""
"","html-keyboard-response","145","452956","0.0-8.0-3.13","50jv2vtstw","one_one","1","indirect_first","0","el06ch29","0","31","1","1","3","1","","0","1","0","462.37000031396747","","","<img src = 'targets/mask.png' width = '100%;'>","68","pos","GS","GSold","4","category4/CS5.png","targets/36.png","0","indirect","13",""
"","html-keyboard-response","146","454459","0.0-8.0-0.14","50jv2vtstw","one_one","1","indirect_first","0","el06ch29","0","31","1","1","3","1","","0","1","0","null","","","<div style=""font-size:60px;"">+</div>","null","","","","","","","","","",""
"","html-keyboard-response","147","454552","0.0-8.0-1.14","50jv2vtstw","one_one","1","indirect_first","0","el06ch29","0","31","1","1","3","1","","0","1","0","null","","","<img src = 'category2/CS5.png' width = '100%;'>","null","","","","","","","","","",""
"","html-keyboard-response","148","454807","0.0-8.0-2.14","50jv2vtstw","one_one","1","indirect_first","0","el06ch29","0","31","1","1","3","1","","0","1","0","null","","","<img src = 'targets/3.png' width = '100%;'>","null","","","","","","","","","",""
"","html-keyboard-response","149","455980","0.0-8.0-3.14","50jv2vtstw","one_one","1","indirect_first","0","el06ch29","0","31","1","1","3","1","","0","1","0","1171.3100001215935","","","<img src = 'targets/mask.png' width = '100%;'>","75","pos","CS","CS","2","category2/CS5.png","targets/3.png","1","indirect","14",""
"","html-keyboard-response","150","457482","0.0-8.0-0.15","50jv2vtstw","one_one","1","indirect_first","0","el06ch29","0","31","1","1","3","1","","0","1","0","null","","","<div style=""font-size:60px;"">+</div>","null","","","","","","","","","",""
"","html-keyboard-response","151","457574","0.0-8.0-1.15","50jv2vtstw","one_one","1","indirect_first","0","el06ch29","0","31","1","1","3","1","","0","1","0","null","","","<img src = 'category4/CS3.png' width = '100%;'>","null","","","","","","","","","",""
"","html-keyboard-response","152","457826","0.0-8.0-2.15","50jv2vtstw","one_one","1","indirect_first","0","el06ch29","0","31","1","1","3","1","","0","1","0","null","","","<img src = 'targets/34.png' width = '100%;'>","null","","","","","","","","","",""
"","html-keyboard-response","153","458319","0.0-8.0-3.15","50jv2vtstw","one_one","1","indirect_first","0","el06ch29","0","31","1","1","3","1","","0","1","0","490.6150000169873","","","<img src = 'targets/mask.png' width = '100%;'>","68","pos","GS","GSold","4","category4/CS3.png","targets/34.png","0","indirect","15",""
"","survey-html-form","154","461072","0.0-9.0","50jv2vtstw","one_one","1","indirect_first","0","el06ch29","0","31","1","1","3","1","","0","1","0","2249.6799998916686","","{}","","","","","","","","","","","",""
"","html-keyboard-response","155","464074","0.0-10.0-0.0","50jv2vtstw","one_one","1","indirect_first","0","el06ch29","0","31","1","1","3","1","","0","1","0","null","","","<div style=""font-size:60px;"">+</div>","null","","","","","","","","","",""
"","html-keyboard-response","156","464166","0.0-10.0-1.0","50jv2vtstw","one_one","1","indirect_first","0","el06ch29","0","31","1","1","3","1","","0","1","0","null","","","<img src = 'category4/GS3.png' width = '100%;'>","null","","","","","","","","","",""
"","html-keyboard-response","157","464420","0.0-10.0-2.0","50jv2vtstw","one_one","1","indirect_first","0","el06ch29","0","31","1","1","3","1","","0","1","0","null","","","<img src = 'targets/31.png' width = '100%;'>","null","","","","","","","","","",""
"","html-keyboard-response","158","465206","0.0-10.0-3.0","50jv2vtstw","one_one","1","indirect_first","0","el06ch29","0","31","1","1","3","1","","0","1","0","783.6599997244775","","","<img src = 'targets/mask.png' width = '100%;'>","75","pos","GS","GSnew","4","category4/GS3.png","targets/31.png","1","indirect","16",""
"","html-keyboard-response","159","466709","0.0-10.0-0.1","50jv2vtstw","one_one","1","indirect_first","0","el06ch29","0","31","1","1","3","1","","0","1","0","null","","","<div style=""font-size:60px;"">+</div>","null","","","","","","","","","",""
"","html-keyboard-response","160","466801","0.0-10.0-1.1","50jv2vtstw","one_one","1","indirect_first","0","el06ch29","0","31","1","1","3","1","","0","1","0","null","","","<img src = 'category1/GS2.png' width = '100%;'>","null","","","","","","","","","",""
"","html-keyboard-response","161","467053","0.0-10.0-2.1","50jv2vtstw","one_one","1","indirect_first","0","el06ch29","0","31","1","1","3","1","","0","1","0","null","","","<img src = 'targets/42.png' width = '100%;'>","null","","","","","","","","","",""
"","html-keyboard-response","162","467934","0.0-10.0-3.1","50jv2vtstw","one_one","1","indirect_first","0","el06ch29","0","31","1","1","3","1","","0","1","0","878.6749998107553","","","<img src = 'targets/mask.png' width = '100%;'>","75","neg","GS","GSnew","1","category1/GS2.png","targets/42.png","1","indirect","17",""
"","html-keyboard-response","163","469437","0.0-10.0-0.2","50jv2vtstw","one_one","1","indirect_first","0","el06ch29","0","31","1","1","3","1","","0","1","0","null","","","<div style=""font-size:60px;"">+</div>","null","","","","","","","","","",""
"","html-keyboard-response","164","469529","0.0-10.0-1.2","50jv2vtstw","one_one","1","indirect_first","0","el06ch29","0","31","1","1","3","1","","0","1","0","null","","","<img src = 'category2/GS2.png' width = '100%;'>","null","","","","","","","","","",""
"","html-keyboard-response","165","469782","0.0-10.0-2.2","50jv2vtstw","one_one","1","indirect_first","0","el06ch29","0","31","1","1","3","1","","0","1","0","null","","","<img src = 'targets/4.png' width = '100%;'>","null","","","","","","","","","",""
"","html-keyboard-response","166","470933","0.0-10.0-3.2","50jv2vtstw","one_one","1","indirect_first","0","el06ch29","0","31","1","1","3","1","","0","1","0","1149.6500000357628","","","<img src = 'targets/mask.png' width = '100%;'>","68","pos","GS","GSnew","2","category2/GS2.png","targets/4.png","0","indirect","18",""
"","html-keyboard-response","167","472435","0.0-10.0-0.3","50jv2vtstw","one_one","1","indirect_first","0","el06ch29","0","31","1","1","3","1","","0","1","0","null","","","<div style=""font-size:60px;"">+</div>","null","","","","","","","","","",""
"","html-keyboard-response","168","472527","0.0-10.0-1.3","50jv2vtstw","one_one","1","indirect_first","0","el06ch29","0","31","1","1","3","1","","0","1","0","null","","","<img src = 'category4/GS2.png' width = '100%;'>","null","","","","","","","","","",""
"","html-keyboard-response","169","472781","0.0-10.0-2.3","50jv2vtstw","one_one","1","indirect_first","0","el06ch29","0","31","1","1","3","1","","0","1","0","null","","","<img src = 'targets/5.png' width = '100%;'>","null","","","","","","","","","",""
"","html-keyboard-response","170","473802","0.0-10.0-3.3","50jv2vtstw","one_one","1","indirect_first","0","el06ch29","0","31","1","1","3","1","","0","1","0","1018.2550000026822","","","<img src = 'targets/mask.png' width = '100%;'>","68","pos","GS","GSnew","4","category4/GS2.png","targets/5.png","0","indirect","19",""
"","html-keyboard-response","171","475304","0.0-10.0-0.4","50jv2vtstw","one_one","1","indirect_first","0","el06ch29","0","31","1","1","3","1","","0","1","0","null","","","<div style=""font-size:60px;"">+</div>","null","","","","","","","","","",""
"","html-keyboard-response","172","475398","0.0-10.0-1.4","50jv2vtstw","one_one","1","indirect_first","0","el06ch29","0","31","1","1","3","1","","0","1","0","null","","","<img src = 'category1/ma.png' width = '100%;'>","null","","","","","","","","","",""
"","html-keyboard-response","173","475651","0.0-10.0-2.4","50jv2vtstw","one_one","1","indirect_first","0","el06ch29","0","31","1","1","3","1","","0","1","0","null","","","<img src = 'targets/20.png' width = '100%;'>","null","","","","","","","","","",""
"","html-keyboard-response","174","476579","0.0-10.0-3.4","50jv2vtstw","one_one","1","indirect_first","0","el06ch29","0","31","1","1","3","1","","0","1","0","926.2649999000132","","","<img src = 'targets/mask.png' width = '100%;'>","75","neg","GS","abstract","1","category1/ma.png","targets/20.png","1","indirect","20",""
"","html-keyboard-response","175","478081","0.0-10.0-0.5","50jv2vtstw","one_one","1","indirect_first","0","el06ch29","0","31","1","1","3","1","","0","1","0","null","","","<div style=""font-size:60px;"">+</div>","null","","","","","","","","","",""
"","html-keyboard-response","176","478173","0.0-10.0-1.5","50jv2vtstw","one_one","1","indirect_first","0","el06ch29","0","31","1","1","3","1","","0","1","0","null","","","<img src = 'category3/wang.png' width = '100%;'>","null","","","","","","","","","",""
"","html-keyboard-response","177","478425","0.0-10.0-2.5","50jv2vtstw","one_one","1","indirect_first","0","el06ch29","0","31","1","1","3","1","","0","1","0","null","","","<img src = 'targets/41.png' width = '100%;'>","null","","","","","","","","","",""
"","html-keyboard-response","178","479322","0.0-10.0-3.5","50jv2vtstw","one_one","1","indirect_first","0","el06ch29","0","31","1","1","3","1","","0","1","0","894.5749998092651","","","<img src = 'targets/mask.png' width = '100%;'>","75","neg","GS","abstract","3","category3/wang.png","targets/41.png","1","indirect","21",""
"","html-keyboard-response","179","480824","0.0-10.0-0.6","50jv2vtstw","one_one","1","indirect_first","0","el06ch29","0","31","1","1","3","1","","0","1","0","null","","","<div style=""font-size:60px;"">+</div>","null","","","","","","","","","",""
"","html-keyboard-response","180","480918","0.0-10.0-1.6","50jv2vtstw","one_one","1","indirect_first","0","el06ch29","0","31","1","1","3","1","","0","1","0","null","","","<img src = 'category1/GS1.png' width = '100%;'>","null","","","","","","","","","",""
"","html-keyboard-response","181","481171","0.0-10.0-2.6","50jv2vtstw","one_one","1","indirect_first","0","el06ch29","0","31","1","1","3","1","","0","1","0","null","","","<img src = 'targets/19.png' width = '100%;'>","null","","","","","","","","","",""
"","html-keyboard-response","182","482289","0.0-10.0-3.6","50jv2vtstw","one_one","1","indirect_first","0","el06ch29","0","31","1","1","3","1","","0","1","0","1116.1199999041855","","","<img src = 'targets/mask.png' width = '100%;'>","68","neg","GS","GSnew","1","category1/GS1.png","targets/19.png","0","indirect","22",""
"","html-keyboard-response","183","483792","0.0-10.0-0.7","50jv2vtstw","one_one","1","indirect_first","0","el06ch29","0","31","1","1","3","1","","0","1","0","null","","","<div style=""font-size:60px;"">+</div>","null","","","","","","","","","",""
"","html-keyboard-response","184","483884","0.0-10.0-1.7","50jv2vtstw","one_one","1","indirect_first","0","el06ch29","0","31","1","1","3","1","","0","1","0","null","","","<img src = 'category2/men.png' width = '100%;'>","null","","","","","","","","","",""
"","html-keyboard-response","185","484137","0.0-10.0-2.7","50jv2vtstw","one_one","1","indirect_first","0","el06ch29","0","31","1","1","3","1","","0","1","0","null","","","<img src = 'targets/25.png' width = '100%;'>","null","","","","","","","","","",""
"","html-keyboard-response","186","484945","0.0-10.0-3.7","50jv2vtstw","one_one","1","indirect_first","0","el06ch29","0","31","1","1","3","1","","0","1","0","805.7699999772012","","","<img src = 'targets/mask.png' width = '100%;'>","75","pos","GS","abstract","2","category2/men.png","targets/25.png","1","indirect","23",""
"","html-keyboard-response","187","486447","0.0-10.0-0.8","50jv2vtstw","one_one","1","indirect_first","0","el06ch29","0","31","1","1","3","1","","0","1","0","null","","","<div style=""font-size:60px;"">+</div>","null","","","","","","","","","",""
"","html-keyboard-response","188","486540","0.0-10.0-1.8","50jv2vtstw","one_one","1","indirect_first","0","el06ch29","0","31","1","1","3","1","","0","1","0","null","","","<img src = 'category4/GS1.png' width = '100%;'>","null","","","","","","","","","",""
"","html-keyboard-response","189","486793","0.0-10.0-2.8","50jv2vtstw","one_one","1","indirect_first","0","el06ch29","0","31","1","1","3","1","","0","1","0","null","","","<img src = 'targets/45.png' width = '100%;'>","null","","","","","","","","","",""
"","html-keyboard-response","190","487498","0.0-10.0-3.8","50jv2vtstw","one_one","1","indirect_first","0","el06ch29","0","31","1","1","3","1","","0","1","0","703.2549995929003","","","<img src = 'targets/mask.png' width = '100%;'>","75","pos","GS","GSnew","4","category4/GS1.png","targets/45.png","1","indirect","24",""
"","html-keyboard-response","191","489000","0.0-10.0-0.9","50jv2vtstw","one_one","1","indirect_first","0","el06ch29","0","31","1","1","3","1","","0","1","0","null","","","<div style=""font-size:60px;"">+</div>","null","","","","","","","","","",""
"","html-keyboard-response","192","489094","0.0-10.0-1.9","50jv2vtstw","one_one","1","indirect_first","0","el06ch29","0","31","1","1","3","1","","0","1","0","null","","","<img src = 'category4/lin.png' width = '100%;'>","null","","","","","","","","","",""
"","html-keyboard-response","193","489348","0.0-10.0-2.9","50jv2vtstw","one_one","1","indirect_first","0","el06ch29","0","31","1","1","3","1","","0","1","0","null","","","<img src = 'targets/32.png' width = '100%;'>","null","","","","","","","","","",""
"","html-keyboard-response","194","490304","0.0-10.0-3.9","50jv2vtstw","one_one","1","indirect_first","0","el06ch29","0","31","1","1","3","1","","0","1","0","953.7599999457598","","","<img src = 'targets/mask.png' width = '100%;'>","68","pos","GS","abstract","4","category4/lin.png","targets/32.png","0","indirect","25",""
"","html-keyboard-response","195","491807","0.0-10.0-0.10","50jv2vtstw","one_one","1","indirect_first","0","el06ch29","0","31","1","1","3","1","","0","1","0","null","","","<div style=""font-size:60px;"">+</div>","null","","","","","","","","","",""
"","html-keyboard-response","196","491900","0.0-10.0-1.10","50jv2vtstw","one_one","1","indirect_first","0","el06ch29","0","31","1","1","3","1","","0","1","0","null","","","<img src = 'category3/GS2.png' width = '100%;'>","null","","","","","","","","","",""
"","html-keyboard-response","197","492153","0.0-10.0-2.10","50jv2vtstw","one_one","1","indirect_first","0","el06ch29","0","31","1","1","3","1","","0","1","0","null","","","<img src = 'targets/33.png' width = '100%;'>","null","","","","","","","","","",""
"","html-keyboard-response","198","492716","0.0-10.0-3.10","50jv2vtstw","one_one","1","indirect_first","0","el06ch29","0","31","1","1","3","1","","0","1","0","559.8749998025596","","","<img src = 'targets/mask.png' width = '100%;'>","75","neg","GS","GSnew","3","category3/GS2.png","targets/33.png","1","indirect","26",""
"","html-keyboard-response","199","494218","0.0-10.0-0.11","50jv2vtstw","one_one","1","indirect_first","0","el06ch29","0","31","1","1","3","1","","0","1","0","null","","","<div style=""font-size:60px;"">+</div>","null","","","","","","","","","",""
"","html-keyboard-response","200","494310","0.0-10.0-1.11","50jv2vtstw","one_one","1","indirect_first","0","el06ch29","0","31","1","1","3","1","","0","1","0","null","","","<img src = 'category3/GS1.png' width = '100%;'>","null","","","","","","","","","",""
"","html-keyboard-response","201","494562","0.0-10.0-2.11","50jv2vtstw","one_one","1","indirect_first","0","el06ch29","0","31","1","1","3","1","","0","1","0","null","","","<img src = 'targets/47.png' width = '100%;'>","null","","","","","","","","","",""
"","html-keyboard-response","202","495575","0.0-10.0-3.11","50jv2vtstw","one_one","1","indirect_first","0","el06ch29","0","31","1","1","3","1","","0","1","0","1011.1050000414252","","","<img src = 'targets/mask.png' width = '100%;'>","68","neg","GS","GSnew","3","category3/GS1.png","targets/47.png","0","indirect","27",""
"","html-keyboard-response","203","497079","0.0-10.0-0.12","50jv2vtstw","one_one","1","indirect_first","0","el06ch29","0","31","1","1","3","1","","0","1","0","null","","","<div style=""font-size:60px;"">+</div>","null","","","","","","","","","",""
"","html-keyboard-response","204","497171","0.0-10.0-1.12","50jv2vtstw","one_one","1","indirect_first","0","el06ch29","0","31","1","1","3","1","","0","1","0","null","","","<img src = 'category3/GS3.png' width = '100%;'>","null","","","","","","","","","",""
"","html-keyboard-response","205","497423","0.0-10.0-2.12","50jv2vtstw","one_one","1","indirect_first","0","el06ch29","0","31","1","1","3","1","","0","1","0","null","","","<img src = 'targets/27.png' width = '100%;'>","null","","","","","","","","","",""
"","html-keyboard-response","206","498176","0.0-10.0-3.12","50jv2vtstw","one_one","1","indirect_first","0","el06ch29","0","31","1","1","3","1","","0","1","0","751.1999998241663","","","<img src = 'targets/mask.png' width = '100%;'>","68","neg","GS","GSnew","3","category3/GS3.png","targets/27.png","0","indirect","28",""
"","html-keyboard-response","207","499679","0.0-10.0-0.13","50jv2vtstw","one_one","1","indirect_first","0","el06ch29","0","31","1","1","3","1","","0","1","0","null","","","<div style=""font-size:60px;"">+</div>","null","","","","","","","","","",""
"","html-keyboard-response","208","499771","0.0-10.0-1.13","50jv2vtstw","one_one","1","indirect_first","0","el06ch29","0","31","1","1","3","1","","0","1","0","null","","","<img src = 'category2/GS1.png' width = '100%;'>","null","","","","","","","","","",""
"","html-keyboard-response","209","500024","0.0-10.0-2.13","50jv2vtstw","one_one","1","indirect_first","0","el06ch29","0","31","1","1","3","1","","0","1","0","null","","","<img src = 'targets/14.png' width = '100%;'>","null","","","","","","","","","",""
"","html-keyboard-response","210","500937","0.0-10.0-3.13","50jv2vtstw","one_one","1","indirect_first","0","el06ch29","0","31","1","1","3","1","","0","1","0","910.3700001724064","","","<img src = 'targets/mask.png' width = '100%;'>","75","pos","GS","GSnew","2","category2/GS1.png","targets/14.png","1","indirect","29",""
"","html-keyboard-response","211","502441","0.0-10.0-0.14","50jv2vtstw","one_one","1","indirect_first","0","el06ch29","0","31","1","1","3","1","","0","1","0","null","","","<div style=""font-size:60px;"">+</div>","null","","","","","","","","","",""
"","html-keyboard-response","212","502533","0.0-10.0-1.14","50jv2vtstw","one_one","1","indirect_first","0","el06ch29","0","31","1","1","3","1","","0","1","0","null","","","<img src = 'category1/GS3.png' width = '100%;'>","null","","","","","","","","","",""
"","html-keyboard-response","213","502787","0.0-10.0-2.14","50jv2vtstw","one_one","1","indirect_first","0","el06ch29","0","31","1","1","3","1","","0","1","0","null","","","<img src = 'targets/26.png' width = '100%;'>","null","","","","","","","","","",""
"","html-keyboard-response","214","503540","0.0-10.0-3.14","50jv2vtstw","one_one","1","indirect_first","0","el06ch29","0","31","1","1","3","1","","0","1","0","750.9149997495115","","","<img src = 'targets/mask.png' width = '100%;'>","75","neg","GS","GSnew","1","category1/GS3.png","targets/26.png","1","indirect","30",""
"","html-keyboard-response","215","505043","0.0-10.0-0.15","50jv2vtstw","one_one","1","indirect_first","0","el06ch29","0","31","1","1","3","1","","0","1","0","null","","","<div style=""font-size:60px;"">+</div>","null","","","","","","","","","",""
"","html-keyboard-response","216","505147","0.0-10.0-1.15","50jv2vtstw","one_one","1","indirect_first","0","el06ch29","0","31","1","1","3","1","","0","1","0","null","","","<img src = 'category2/GS3.png' width = '100%;'>","null","","","","","","","","","",""
"","html-keyboard-response","217","505400","0.0-10.0-2.15","50jv2vtstw","one_one","1","indirect_first","0","el06ch29","0","31","1","1","3","1","","0","1","0","null","","","<img src = 'targets/38.png' width = '100%;'>","null","","","","","","","","","",""
"","html-keyboard-response","218","505995","0.0-10.0-3.15","50jv2vtstw","one_one","1","indirect_first","0","el06ch29","0","31","1","1","3","1","","0","1","0","592.6749999634922","","","<img src = 'targets/mask.png' width = '100%;'>","68","pos","GS","GSnew","2","category2/GS3.png","targets/38.png","0","indirect","31",""
"","survey-html-form","219","514024","0.0-11.0","50jv2vtstw","one_one","1","indirect_first","0","el06ch29","0","31","1","1","3","1","","0","1","0","7526.874999981374","","{}","","","","","","","","","","","",""
"","image-slider-response","220","525041","0.0-12.0-0.0","50jv2vtstw","one_one","1","indirect_first","0","el06ch29","0","31","1","1","3","1","","0","1","0","9010.919999796897","","","","","neg","GS","GSold","3","category3/CS9.png","targets/1.png","","direct","","84"
"","image-slider-response","221","529047","0.0-12.0-0.1","50jv2vtstw","one_one","1","indirect_first","0","el06ch29","0","31","1","1","3","1","","0","1","0","4003.610000014305","","","","","neg","GS","GSnew","1","category1/GS2.png","targets/42.png","","direct","","-21"
"","image-slider-response","222","538142","0.0-12.0-0.2","50jv2vtstw","one_one","1","indirect_first","0","el06ch29","0","31","1","1","3","1","","0","1","0","9091.96999995038","","","","","neg","GS","GSold","1","category1/CS1.png","targets/8.png","","direct","","-63"
"","image-slider-response","223","541308","0.0-12.0-0.3","50jv2vtstw","one_one","1","indirect_first","0","el06ch29","0","31","1","1","3","1","","0","1","0","3163.8100002892315","","","","","pos","GS","GSnew","2","category2/GS3.png","targets/38.png","","direct","","55"
"","image-slider-response","224","545111","0.0-12.0-0.4","50jv2vtstw","one_one","1","indirect_first","0","el06ch29","0","31","1","1","3","1","","0","1","0","3801.644999999553","","","","","pos","GS","GSold","4","category4/CS3.png","targets/34.png","","direct","","32"
"","image-slider-response","225","548566","0.0-12.0-0.5","50jv2vtstw","one_one","1","indirect_first","0","el06ch29","0","31","1","1","3","1","","0","1","0","3453.495000023395","","","","","neg","GS","abstract","3","category3/wang.png","targets/41.png","","direct","","93"
"","image-slider-response","226","552640","0.0-12.0-0.6","50jv2vtstw","one_one","1","indirect_first","0","el06ch29","0","31","1","1","3","1","","0","1","0","4072.215000167489","","","","","pos","GS","GSold","2","category2/CS2.png","targets/13.png","","direct","","97"
"","image-slider-response","227","556771","0.0-12.0-0.7","50jv2vtstw","one_one","1","indirect_first","0","el06ch29","0","31","1","1","3","1","","0","1","0","4129.155000206083","","","","","neg","GS","GSold","1","category1/CS3.png","targets/48.png","","direct","","-21"
"","image-slider-response","228","560390","0.0-12.0-0.8","50jv2vtstw","one_one","1","indirect_first","0","el06ch29","0","31","1","1","3","1","","0","1","0","3617.8899998776615","","","","","neg","GS","abstract","1","category1/ma.png","targets/20.png","","direct","","51"
"","image-slider-response","229","568294","0.0-12.0-0.9","50jv2vtstw","one_one","1","indirect_first","0","el06ch29","0","31","1","1","3","1","","0","1","0","7902.300000190735","","","","","pos","CS","CS","2","category2/CS5.png","targets/3.png","","direct","","71"
"","image-slider-response","230","572252","0.0-12.0-0.10","50jv2vtstw","one_one","1","indirect_first","0","el06ch29","0","31","1","1","3","1","","0","1","0","3955.769999884069","","","","","pos","GS","GSnew","4","category4/GS3.png","targets/31.png","","direct","","17"
"","image-slider-response","231","578612","0.0-12.0-0.11","50jv2vtstw","one_one","1","indirect_first","0","el06ch29","0","31","1","1","3","1","","0","1","0","6358.314999844879","","","","","neg","GS","GSold","3","category3/CS4.png","targets/21.png","","direct","","-16"
"","image-slider-response","232","583167","0.0-12.0-0.12","50jv2vtstw","one_one","1","indirect_first","0","el06ch29","0","31","1","1","3","1","","0","1","0","4552.695000078529","","","","","pos","GS","GSnew","4","category4/GS1.png","targets/45.png","","direct","","61"
"","image-slider-response","233","587423","0.0-12.0-0.13","50jv2vtstw","one_one","1","indirect_first","0","el06ch29","0","31","1","1","3","1","","0","1","0","4254.300000146031","","","","","neg","CS","CS","3","category3/CS6.png","targets/10.png","","direct","","-18"
"","image-slider-response","234","594988","0.0-12.0-0.14","50jv2vtstw","one_one","1","indirect_first","0","el06ch29","0","31","1","1","3","1","","0","1","0","7564.334999769926","","","","","pos","GS","GSold","2","category2/CS8.png","targets/39.png","","direct","","-11"
"","image-slider-response","235","599109","0.0-12.0-0.15","50jv2vtstw","one_one","1","indirect_first","0","el06ch29","0","31","1","1","3","1","","0","1","0","4118.795000016689","","","","","neg","GS","GSnew","3","category3/GS3.png","targets/27.png","","direct","","38"
"","image-slider-response","236","603441","0.0-12.0-0.16","50jv2vtstw","one_one","1","indirect_first","0","el06ch29","0","31","1","1","3","1","","0","1","0","4330.620000138879","","","","","pos","GS","GSold","4","category4/CS5.png","targets/36.png","","direct","","20"
"","image-slider-response","237","607639","0.0-12.0-0.17","50jv2vtstw","one_one","1","indirect_first","0","el06ch29","0","31","1","1","3","1","","0","1","0","4195.90499997139","","","","","neg","GS","GSold","1","category1/CS6.png","targets/18.png","","direct","","-57"
"","image-slider-response","238","612792","0.0-12.0-0.18","50jv2vtstw","one_one","1","indirect_first","0","el06ch29","0","31","1","1","3","1","","0","1","0","5151.749999728054","","","","","pos","CS","CS","4","category4/CS8.png","targets/29.png","","direct","","33"
"","image-slider-response","239","621911","0.0-12.0-0.19","50jv2vtstw","one_one","1","indirect_first","0","el06ch29","0","31","1","1","3","1","","0","1","0","9117.114999797195","","","","","neg","CS","CS","1","category1/CS7.png","targets/30.png","","direct","","-80"
"","image-slider-response","240","624990","0.0-12.0-0.20","50jv2vtstw","one_one","1","indirect_first","0","el06ch29","0","31","1","1","3","1","","0","1","0","3077.070000115782","","","","","neg","GS","GSnew","3","category3/GS1.png","targets/47.png","","direct","","30"
"","image-slider-response","241","628984","0.0-12.0-0.21","50jv2vtstw","one_one","1","indirect_first","0","el06ch29","0","31","1","1","3","1","","0","1","0","3992.5099997781217","","","","","pos","GS","GSnew","2","category2/GS1.png","targets/14.png","","direct","","50"
"","image-slider-response","242","632313","0.0-12.0-0.22","50jv2vtstw","one_one","1","indirect_first","0","el06ch29","0","31","1","1","3","1","","0","1","0","3327.2899999283254","","","","","pos","GS","GSold","4","category4/CS2.png","targets/43.png","","direct","","79"
"","image-slider-response","243","636588","0.0-12.0-0.23","50jv2vtstw","one_one","1","indirect_first","0","el06ch29","0","31","1","1","3","1","","0","1","0","4272.984999697655","","","","","pos","GS","abstract","2","category2/men.png","targets/25.png","","direct","","51"
"","image-slider-response","244","641287","0.0-12.0-0.24","50jv2vtstw","one_one","1","indirect_first","0","el06ch29","0","31","1","1","3","1","","0","1","0","4697.2550000064075","","","","","neg","GS","GSnew","1","category1/GS1.png","targets/19.png","","direct","","-24"
"","image-slider-response","245","646304","0.0-12.0-0.25","50jv2vtstw","one_one","1","indirect_first","0","el06ch29","0","31","1","1","3","1","","0","1","0","5015.0600001215935","","","","","pos","GS","abstract","4","category4/lin.png","targets/32.png","","direct","","37"
"","image-slider-response","246","650048","0.0-12.0-0.26","50jv2vtstw","one_one","1","indirect_first","0","el06ch29","0","31","1","1","3","1","","0","1","0","3741.2199997343123","","","","","neg","GS","GSold","3","category3/CS2.png","targets/2.png","","direct","","48"
"","image-slider-response","247","653946","0.0-12.0-0.27","50jv2vtstw","one_one","1","indirect_first","0","el06ch29","0","31","1","1","3","1","","0","1","0","3896.639999933541","","","","","neg","GS","GSnew","3","category3/GS2.png","targets/33.png","","direct","","-38"
"","image-slider-response","248","658983","0.0-12.0-0.28","50jv2vtstw","one_one","1","indirect_first","0","el06ch29","0","31","1","1","3","1","","0","1","0","5034.57499993965","","","","","pos","GS","GSnew","4","category4/GS2.png","targets/5.png","","direct","","-59"
"","image-slider-response","249","664647","0.0-12.0-0.29","50jv2vtstw","one_one","1","indirect_first","0","el06ch29","0","31","1","1","3","1","","0","1","0","5661.759999580681","","","","","pos","GS","GSold","2","category2/CS10.png","targets/12.png","","direct","","50"
"","image-slider-response","250","668535","0.0-12.0-0.30","50jv2vtstw","one_one","1","indirect_first","0","el06ch29","0","31","1","1","3","1","","0","1","0","3886.335000395775","","","","","neg","GS","GSnew","1","category1/GS3.png","targets/26.png","","direct","","18"
"","image-slider-response","251","671980","0.0-12.0-0.31","50jv2vtstw","one_one","1","indirect_first","0","el06ch29","0","31","1","1","3","1","","0","1","0","3442.894999869168","","","","","pos","GS","GSnew","2","category2/GS2.png","targets/4.png","","direct","","-18"
"","survey-html-form","252","677025","0.0-13.0","50jv2vtstw","one_one","1","indirect_first","0","el06ch29","0","31","1","1","3","1","","0","1","0","5044.980000238866","","{}","","","","","","","","","","","",""
"","image-slider-response","253","685091","0.0-14.0-0.0","50jv2vtstw","one_one","1","indirect_first","0","el06ch29","0","31","1","1","3","1","","0","1","0","7059.495000168681","","","","","pos","All","all","4","category4/lin_all.png","","","all","","-15"
"","image-slider-response","254","689915","0.0-14.0-0.1","50jv2vtstw","one_one","1","indirect_first","0","el06ch29","0","31","1","1","3","1","","0","1","0","4823.379999957979","","","","","neg","All","all","3","category3/wang_all.png","","","all","","26"
"","image-slider-response","255","694604","0.0-14.0-0.2","50jv2vtstw","one_one","1","indirect_first","0","el06ch29","0","31","1","1","3","1","","0","1","0","4687.060000374913","","","","","pos","All","all","2","category2/men_all.png","","","all","","-22"
"","image-slider-response","256","699612","0.0-14.0-0.3","50jv2vtstw","one_one","1","indirect_first","0","el06ch29","0","31","1","1","3","1","","0","1","0","5005.379999987781","","","","","neg","All","all","1","category1/ma_all.png","","","all","","-62"
"","survey-text","257","702342","0.0-15.0","50jv2vtstw","one_one","1","indirect_first","0","el06ch29","0","31","1","1","3","1","","0","1","0","2712.2700000181794","","{""comment"":""""}","","","","","","","","","","","",""
"","survey-html-form","258","713079","0.0-16.0","50jv2vtstw","one_one","1","indirect_first","0","el06ch29","0","31","1","1","3","1","","0","1","0","10734.725000336766","","{""hinschauen"":""0"",""ablenkung"":""1"",""gewissenhaft"":""0""}","","","","","","","","","","","",""
