"success","trial_type","trial_index","time_elapsed","internal_node_id","subject","condition","condition_code","measure","measure_code","codeword","gender","age","education","chinese","fach","handedness","comment","hinschauen","ablenkung","gewissenhaft","rt","url","responses","stimulus","key_press","val","type","type_specific","category","cs_selected","response","target","task","indirect","nr_pres"
"true","fullscreen","0","4453","0.0-0.0","xygobjvobv","many_one","0","direct_first","1","rt03rt15","0","24","1","1","3","1","","0","1","0","","","","","","","","","","","","","","",""
"","external-html","1","53612","0.0-1.0","xygobjvobv","many_one","0","direct_first","1","rt03rt15","0","24","1","1","3","1","","0","1","0","49108","text/information.html","","","","","","","","","","","","",""
"","external-html","2","72711","0.0-2.0","xygobjvobv","many_one","0","direct_first","1","rt03rt15","0","24","1","1","3","1","","0","1","0","18982","text/consent.html","","","","","","","","","","","","",""
"","survey-html-form","3","167510","0.0-3.0","xygobjvobv","many_one","0","direct_first","1","rt03rt15","0","24","1","1","3","1","","0","1","0","94795","","{""codeword_enter"":""rt03rt15""}","","","","","","","","","","","",""
"","survey-html-form","4","187739","0.0-4.0","xygobjvobv","many_one","0","direct_first","1","rt03rt15","0","24","1","1","3","1","","0","1","0","20225","","{""age"":""24"",""education"":""1"",""subject"":""3"",""gender"":""0"",""handedness"":""1"",""chinese"":""1""}","","","","","","","","","","","",""
"","survey-html-form","5","206005","0.0-5.0","xygobjvobv","many_one","0","direct_first","1","rt03rt15","0","24","1","1","3","1","","0","1","0","18264","","{}","","","","","","","","","","","",""
"","html-keyboard-response","6","210030","0.0-6.0-0.0-0.0","xygobjvobv","many_one","0","direct_first","1","rt03rt15","0","24","1","1","3","1","","0","1","0","null","","","<div class = 'row'><div class = 'column'><img src = 'category3/CS5.png' width = '70%;'></div><div class = 'column'><img src = 'uspos/1340.bmp' width = '100%;'></div></div>","null","pos","CS","CS","3","category3/CS5.png","","","","",""
"","html-keyboard-response","7","212563","0.0-6.0-0.0-0.1","xygobjvobv","many_one","0","direct_first","1","rt03rt15","0","24","1","1","3","1","","0","1","0","null","","","<div class = 'row'><div class = 'column'><img src = 'category3/CS4.png' width = '70%;'></div><div class = 'column'><img src = 'uspos/2360.bmp' width = '100%;'></div></div>","null","pos","CS","CS","3","category3/CS4.png","","","","",""
"","html-keyboard-response","8","215097","0.0-6.0-0.0-0.2","xygobjvobv","many_one","0","direct_first","1","rt03rt15","0","24","1","1","3","1","","0","1","0","null","","","<div class = 'row'><div class = 'column'><img src = 'uspos/8190.bmp' width = '100%;'></div><div class = 'column'><img src = 'category3/CS3.png' width = '70%;'></div></div>","null","pos","CS","CS","3","category3/CS3.png","","","","",""
"","html-keyboard-response","9","217628","0.0-6.0-0.0-0.3","xygobjvobv","many_one","0","direct_first","1","rt03rt15","0","24","1","1","3","1","","0","1","0","null","","","<div class = 'row'><div class = 'column'><img src = 'usneg/9290.bmp' width = '100%;'></div><div class = 'column'><img src = 'category4/CS4.png' width = '70%;'></div></div>","null","neg","CS","CS","4","category4/CS4.png","","","","",""
"","html-keyboard-response","10","220146","0.0-6.0-0.0-0.4","xygobjvobv","many_one","0","direct_first","1","rt03rt15","0","24","1","1","3","1","","0","1","0","null","","","<div class = 'row'><div class = 'column'><img src = 'category4/CS10.png' width = '70%;'></div><div class = 'column'><img src = 'usneg/9340.bmp' width = '100%;'></div></div>","null","neg","CS","CS","4","category4/CS10.png","","","","",""
"","html-keyboard-response","11","222676","0.0-6.0-0.0-0.5","xygobjvobv","many_one","0","direct_first","1","rt03rt15","0","24","1","1","3","1","","0","1","0","null","","","<div class = 'row'><div class = 'column'><img src = 'category1/CS6.png' width = '70%;'></div><div class = 'column'><img src = 'uspos/1460.bmp' width = '100%;'></div></div>","null","pos","CS","CS","1","category1/CS6.png","","","","",""
"","html-keyboard-response","12","225185","0.0-6.0-0.0-0.6","xygobjvobv","many_one","0","direct_first","1","rt03rt15","0","24","1","1","3","1","","0","1","0","null","","","<div class = 'row'><div class = 'column'><img src = 'usneg/6212.bmp' width = '100%;'></div><div class = 'column'><img src = 'category2/CS8.png' width = '70%;'></div></div>","null","neg","CS","CS","2","category2/CS8.png","","","","",""
"","html-keyboard-response","13","227712","0.0-6.0-0.0-0.7","xygobjvobv","many_one","0","direct_first","1","rt03rt15","0","24","1","1","3","1","","0","1","0","null","","","<div class = 'row'><div class = 'column'><img src = 'category4/CS2.png' width = '70%;'></div><div class = 'column'><img src = 'usneg/9280.bmp' width = '100%;'></div></div>","null","neg","CS","CS","4","category4/CS2.png","","","","",""
"","html-keyboard-response","14","230244","0.0-6.0-0.0-0.8","xygobjvobv","many_one","0","direct_first","1","rt03rt15","0","24","1","1","3","1","","0","1","0","null","","","<div class = 'row'><div class = 'column'><img src = 'category1/CS3.png' width = '70%;'></div><div class = 'column'><img src = 'uspos/2340.bmp' width = '100%;'></div></div>","null","pos","CS","CS","1","category1/CS3.png","","","","",""
"","html-keyboard-response","15","232753","0.0-6.0-0.0-0.9","xygobjvobv","many_one","0","direct_first","1","rt03rt15","0","24","1","1","3","1","","0","1","0","null","","","<div class = 'row'><div class = 'column'><img src = 'category1/CS7.png' width = '70%;'></div><div class = 'column'><img src = 'uspos/2030.bmp' width = '100%;'></div></div>","null","pos","CS","CS","1","category1/CS7.png","","","","",""
"","html-keyboard-response","16","235277","0.0-6.0-0.0-0.10","xygobjvobv","many_one","0","direct_first","1","rt03rt15","0","24","1","1","3","1","","0","1","0","null","","","<div class = 'row'><div class = 'column'><img src = 'category2/CS9.png' width = '70%;'></div><div class = 'column'><img src = 'usneg/9584.bmp' width = '100%;'></div></div>","null","neg","CS","CS","2","category2/CS9.png","","","","",""
"","html-keyboard-response","17","237782","0.0-6.0-0.0-0.11","xygobjvobv","many_one","0","direct_first","1","rt03rt15","0","24","1","1","3","1","","0","1","0","null","","","<div class = 'row'><div class = 'column'><img src = 'uspos/7580.bmp' width = '100%;'></div><div class = 'column'><img src = 'category1/CS10.png' width = '70%;'></div></div>","null","pos","CS","CS","1","category1/CS10.png","","","","",""
"","html-keyboard-response","18","240292","0.0-6.0-0.0-0.12","xygobjvobv","many_one","0","direct_first","1","rt03rt15","0","24","1","1","3","1","","0","1","0","null","","","<div class = 'row'><div class = 'column'><img src = 'usneg/9000.bmp' width = '100%;'></div><div class = 'column'><img src = 'category4/CS6.png' width = '70%;'></div></div>","null","neg","CS","CS","4","category4/CS6.png","","","","",""
"","html-keyboard-response","19","242800","0.0-6.0-0.0-0.13","xygobjvobv","many_one","0","direct_first","1","rt03rt15","0","24","1","1","3","1","","0","1","0","null","","","<div class = 'row'><div class = 'column'><img src = 'usneg/9050.bmp' width = '100%;'></div><div class = 'column'><img src = 'category2/CS7.png' width = '70%;'></div></div>","null","neg","CS","CS","2","category2/CS7.png","","","","",""
"","html-keyboard-response","20","245309","0.0-6.0-0.0-0.14","xygobjvobv","many_one","0","direct_first","1","rt03rt15","0","24","1","1","3","1","","0","1","0","null","","","<div class = 'row'><div class = 'column'><img src = 'uspos/2208.bmp' width = '100%;'></div><div class = 'column'><img src = 'category3/CS10.png' width = '70%;'></div></div>","null","pos","CS","CS","3","category3/CS10.png","","","","",""
"","html-keyboard-response","21","247839","0.0-6.0-0.0-0.15","xygobjvobv","many_one","0","direct_first","1","rt03rt15","0","24","1","1","3","1","","0","1","0","null","","","<div class = 'row'><div class = 'column'><img src = 'category4/CS9.png' width = '70%;'></div><div class = 'column'><img src = 'usneg/9561.bmp' width = '100%;'></div></div>","null","neg","CS","CS","4","category4/CS9.png","","","","",""
"","html-keyboard-response","22","250348","0.0-6.0-0.0-0.16","xygobjvobv","many_one","0","direct_first","1","rt03rt15","0","24","1","1","3","1","","0","1","0","null","","","<div class = 'row'><div class = 'column'><img src = 'category3/CS7.png' width = '70%;'></div><div class = 'column'><img src = 'uspos/8540.bmp' width = '100%;'></div></div>","null","pos","CS","CS","3","category3/CS7.png","","","","",""
"","html-keyboard-response","23","252875","0.0-6.0-0.0-0.17","xygobjvobv","many_one","0","direct_first","1","rt03rt15","0","24","1","1","3","1","","0","1","0","null","","","<div class = 'row'><div class = 'column'><img src = 'usneg/3181.bmp' width = '100%;'></div><div class = 'column'><img src = 'category2/CS5.png' width = '70%;'></div></div>","null","neg","CS","CS","2","category2/CS5.png","","","","",""
"","html-keyboard-response","24","255407","0.0-6.0-0.0-0.18","xygobjvobv","many_one","0","direct_first","1","rt03rt15","0","24","1","1","3","1","","0","1","0","null","","","<div class = 'row'><div class = 'column'><img src = 'category2/CS1.png' width = '70%;'></div><div class = 'column'><img src = 'usneg/9404.bmp' width = '100%;'></div></div>","null","neg","CS","CS","2","category2/CS1.png","","","","",""
"","html-keyboard-response","25","257917","0.0-6.0-0.0-0.19","xygobjvobv","many_one","0","direct_first","1","rt03rt15","0","24","1","1","3","1","","0","1","0","null","","","<div class = 'row'><div class = 'column'><img src = 'category1/CS5.png' width = '70%;'></div><div class = 'column'><img src = 'uspos/2057.bmp' width = '100%;'></div></div>","null","pos","CS","CS","1","category1/CS5.png","","","","",""
"","survey-html-form","26","260801","0.0-6.0-1.0","xygobjvobv","many_one","0","direct_first","1","rt03rt15","0","24","1","1","3","1","","0","1","0","2376","","{}","","","","","","","","","","","",""
"","html-keyboard-response","27","264824","0.0-6.0-2.0-0.0","xygobjvobv","many_one","0","direct_first","1","rt03rt15","0","24","1","1","3","1","","0","1","0","null","","","<div class = 'row'><div class = 'column'><img src = 'category4/CS2.png' width = '70%;'></div><div class = 'column'><img src = 'usneg/9280.bmp' width = '100%;'></div></div>","null","neg","CS","CS","4","category4/CS2.png","","","","",""
"","html-keyboard-response","28","267355","0.0-6.0-2.0-0.1","xygobjvobv","many_one","0","direct_first","1","rt03rt15","0","24","1","1","3","1","","0","1","0","null","","","<div class = 'row'><div class = 'column'><img src = 'usneg/9000.bmp' width = '100%;'></div><div class = 'column'><img src = 'category4/CS6.png' width = '70%;'></div></div>","null","neg","CS","CS","4","category4/CS6.png","","","","",""
"","html-keyboard-response","29","269863","0.0-6.0-2.0-0.2","xygobjvobv","many_one","0","direct_first","1","rt03rt15","0","24","1","1","3","1","","0","1","0","null","","","<div class = 'row'><div class = 'column'><img src = 'usneg/9561.bmp' width = '100%;'></div><div class = 'column'><img src = 'category4/CS9.png' width = '70%;'></div></div>","null","neg","CS","CS","4","category4/CS9.png","","","","",""
"","html-keyboard-response","30","272373","0.0-6.0-2.0-0.3","xygobjvobv","many_one","0","direct_first","1","rt03rt15","0","24","1","1","3","1","","0","1","0","null","","","<div class = 'row'><div class = 'column'><img src = 'uspos/2360.bmp' width = '100%;'></div><div class = 'column'><img src = 'category3/CS4.png' width = '70%;'></div></div>","null","pos","CS","CS","3","category3/CS4.png","","","","",""
"","html-keyboard-response","31","274882","0.0-6.0-2.0-0.4","xygobjvobv","many_one","0","direct_first","1","rt03rt15","0","24","1","1","3","1","","0","1","0","null","","","<div class = 'row'><div class = 'column'><img src = 'uspos/1460.bmp' width = '100%;'></div><div class = 'column'><img src = 'category1/CS6.png' width = '70%;'></div></div>","null","pos","CS","CS","1","category1/CS6.png","","","","",""
"","html-keyboard-response","32","277401","0.0-6.0-2.0-0.5","xygobjvobv","many_one","0","direct_first","1","rt03rt15","0","24","1","1","3","1","","0","1","0","null","","","<div class = 'row'><div class = 'column'><img src = 'usneg/3181.bmp' width = '100%;'></div><div class = 'column'><img src = 'category2/CS5.png' width = '70%;'></div></div>","null","neg","CS","CS","2","category2/CS5.png","","","","",""
"","html-keyboard-response","33","279920","0.0-6.0-2.0-0.6","xygobjvobv","many_one","0","direct_first","1","rt03rt15","0","24","1","1","3","1","","0","1","0","null","","","<div class = 'row'><div class = 'column'><img src = 'usneg/6212.bmp' width = '100%;'></div><div class = 'column'><img src = 'category2/CS8.png' width = '70%;'></div></div>","null","neg","CS","CS","2","category2/CS8.png","","","","",""
"","html-keyboard-response","34","282429","0.0-6.0-2.0-0.7","xygobjvobv","many_one","0","direct_first","1","rt03rt15","0","24","1","1","3","1","","0","1","0","null","","","<div class = 'row'><div class = 'column'><img src = 'usneg/9404.bmp' width = '100%;'></div><div class = 'column'><img src = 'category2/CS1.png' width = '70%;'></div></div>","null","neg","CS","CS","2","category2/CS1.png","","","","",""
"","html-keyboard-response","35","284951","0.0-6.0-2.0-0.8","xygobjvobv","many_one","0","direct_first","1","rt03rt15","0","24","1","1","3","1","","0","1","0","null","","","<div class = 'row'><div class = 'column'><img src = 'category1/CS5.png' width = '70%;'></div><div class = 'column'><img src = 'uspos/2057.bmp' width = '100%;'></div></div>","null","pos","CS","CS","1","category1/CS5.png","","","","",""
"","html-keyboard-response","36","287470","0.0-6.0-2.0-0.9","xygobjvobv","many_one","0","direct_first","1","rt03rt15","0","24","1","1","3","1","","0","1","0","null","","","<div class = 'row'><div class = 'column'><img src = 'category3/CS7.png' width = '70%;'></div><div class = 'column'><img src = 'uspos/8540.bmp' width = '100%;'></div></div>","null","pos","CS","CS","3","category3/CS7.png","","","","",""
"","html-keyboard-response","37","289988","0.0-6.0-2.0-0.10","xygobjvobv","many_one","0","direct_first","1","rt03rt15","0","24","1","1","3","1","","0","1","0","null","","","<div class = 'row'><div class = 'column'><img src = 'category1/CS10.png' width = '70%;'></div><div class = 'column'><img src = 'uspos/7580.bmp' width = '100%;'></div></div>","null","pos","CS","CS","1","category1/CS10.png","","","","",""
"","html-keyboard-response","38","292517","0.0-6.0-2.0-0.11","xygobjvobv","many_one","0","direct_first","1","rt03rt15","0","24","1","1","3","1","","0","1","0","null","","","<div class = 'row'><div class = 'column'><img src = 'category3/CS3.png' width = '70%;'></div><div class = 'column'><img src = 'uspos/8190.bmp' width = '100%;'></div></div>","null","pos","CS","CS","3","category3/CS3.png","","","","",""
"","html-keyboard-response","39","295036","0.0-6.0-2.0-0.12","xygobjvobv","many_one","0","direct_first","1","rt03rt15","0","24","1","1","3","1","","0","1","0","null","","","<div class = 'row'><div class = 'column'><img src = 'usneg/9290.bmp' width = '100%;'></div><div class = 'column'><img src = 'category4/CS4.png' width = '70%;'></div></div>","null","neg","CS","CS","4","category4/CS4.png","","","","",""
"","html-keyboard-response","40","297569","0.0-6.0-2.0-0.13","xygobjvobv","many_one","0","direct_first","1","rt03rt15","0","24","1","1","3","1","","0","1","0","null","","","<div class = 'row'><div class = 'column'><img src = 'category1/CS3.png' width = '70%;'></div><div class = 'column'><img src = 'uspos/2340.bmp' width = '100%;'></div></div>","null","pos","CS","CS","1","category1/CS3.png","","","","",""
"","html-keyboard-response","41","300085","0.0-6.0-2.0-0.14","xygobjvobv","many_one","0","direct_first","1","rt03rt15","0","24","1","1","3","1","","0","1","0","null","","","<div class = 'row'><div class = 'column'><img src = 'category2/CS7.png' width = '70%;'></div><div class = 'column'><img src = 'usneg/9050.bmp' width = '100%;'></div></div>","null","neg","CS","CS","2","category2/CS7.png","","","","",""
"","html-keyboard-response","42","302602","0.0-6.0-2.0-0.15","xygobjvobv","many_one","0","direct_first","1","rt03rt15","0","24","1","1","3","1","","0","1","0","null","","","<div class = 'row'><div class = 'column'><img src = 'usneg/9340.bmp' width = '100%;'></div><div class = 'column'><img src = 'category4/CS10.png' width = '70%;'></div></div>","null","neg","CS","CS","4","category4/CS10.png","","","","",""
"","html-keyboard-response","43","305134","0.0-6.0-2.0-0.16","xygobjvobv","many_one","0","direct_first","1","rt03rt15","0","24","1","1","3","1","","0","1","0","null","","","<div class = 'row'><div class = 'column'><img src = 'category1/CS7.png' width = '70%;'></div><div class = 'column'><img src = 'uspos/2030.bmp' width = '100%;'></div></div>","null","pos","CS","CS","1","category1/CS7.png","","","","",""
"","html-keyboard-response","44","307652","0.0-6.0-2.0-0.17","xygobjvobv","many_one","0","direct_first","1","rt03rt15","0","24","1","1","3","1","","0","1","0","null","","","<div class = 'row'><div class = 'column'><img src = 'usneg/9584.bmp' width = '100%;'></div><div class = 'column'><img src = 'category2/CS9.png' width = '70%;'></div></div>","null","neg","CS","CS","2","category2/CS9.png","","","","",""
"","html-keyboard-response","45","310184","0.0-6.0-2.0-0.18","xygobjvobv","many_one","0","direct_first","1","rt03rt15","0","24","1","1","3","1","","0","1","0","null","","","<div class = 'row'><div class = 'column'><img src = 'uspos/2208.bmp' width = '100%;'></div><div class = 'column'><img src = 'category3/CS10.png' width = '70%;'></div></div>","null","pos","CS","CS","3","category3/CS10.png","","","","",""
"","html-keyboard-response","46","312717","0.0-6.0-2.0-0.19","xygobjvobv","many_one","0","direct_first","1","rt03rt15","0","24","1","1","3","1","","0","1","0","null","","","<div class = 'row'><div class = 'column'><img src = 'uspos/1340.bmp' width = '100%;'></div><div class = 'column'><img src = 'category3/CS5.png' width = '70%;'></div></div>","null","pos","CS","CS","3","category3/CS5.png","","","","",""
"","survey-html-form","47","318252","0.0-6.0-3.0","xygobjvobv","many_one","0","direct_first","1","rt03rt15","0","24","1","1","3","1","","0","1","0","5020","","{}","","","","","","","","","","","",""
"","html-keyboard-response","48","322282","0.0-6.0-4.0-0.0","xygobjvobv","many_one","0","direct_first","1","rt03rt15","0","24","1","1","3","1","","0","1","0","null","","","<div class = 'row'><div class = 'column'><img src = 'category2/CS8.png' width = '70%;'></div><div class = 'column'><img src = 'usneg/6212.bmp' width = '100%;'></div></div>","null","neg","CS","CS","2","category2/CS8.png","","","","",""
"","html-keyboard-response","49","324815","0.0-6.0-4.0-0.1","xygobjvobv","many_one","0","direct_first","1","rt03rt15","0","24","1","1","3","1","","0","1","0","null","","","<div class = 'row'><div class = 'column'><img src = 'category1/CS10.png' width = '70%;'></div><div class = 'column'><img src = 'uspos/7580.bmp' width = '100%;'></div></div>","null","pos","CS","CS","1","category1/CS10.png","","","","",""
"","html-keyboard-response","50","327349","0.0-6.0-4.0-0.2","xygobjvobv","many_one","0","direct_first","1","rt03rt15","0","24","1","1","3","1","","0","1","0","null","","","<div class = 'row'><div class = 'column'><img src = 'category3/CS4.png' width = '70%;'></div><div class = 'column'><img src = 'uspos/2360.bmp' width = '100%;'></div></div>","null","pos","CS","CS","3","category3/CS4.png","","","","",""
"","html-keyboard-response","51","329871","0.0-6.0-4.0-0.3","xygobjvobv","many_one","0","direct_first","1","rt03rt15","0","24","1","1","3","1","","0","1","0","null","","","<div class = 'row'><div class = 'column'><img src = 'usneg/9340.bmp' width = '100%;'></div><div class = 'column'><img src = 'category4/CS10.png' width = '70%;'></div></div>","null","neg","CS","CS","4","category4/CS10.png","","","","",""
"","html-keyboard-response","52","332381","0.0-6.0-4.0-0.4","xygobjvobv","many_one","0","direct_first","1","rt03rt15","0","24","1","1","3","1","","0","1","0","null","","","<div class = 'row'><div class = 'column'><img src = 'usneg/9280.bmp' width = '100%;'></div><div class = 'column'><img src = 'category4/CS2.png' width = '70%;'></div></div>","null","neg","CS","CS","4","category4/CS2.png","","","","",""
"","html-keyboard-response","53","334915","0.0-6.0-4.0-0.5","xygobjvobv","many_one","0","direct_first","1","rt03rt15","0","24","1","1","3","1","","0","1","0","null","","","<div class = 'row'><div class = 'column'><img src = 'usneg/9050.bmp' width = '100%;'></div><div class = 'column'><img src = 'category2/CS7.png' width = '70%;'></div></div>","null","neg","CS","CS","2","category2/CS7.png","","","","",""
"","html-keyboard-response","54","337448","0.0-6.0-4.0-0.6","xygobjvobv","many_one","0","direct_first","1","rt03rt15","0","24","1","1","3","1","","0","1","0","null","","","<div class = 'row'><div class = 'column'><img src = 'uspos/1460.bmp' width = '100%;'></div><div class = 'column'><img src = 'category1/CS6.png' width = '70%;'></div></div>","null","pos","CS","CS","1","category1/CS6.png","","","","",""
"","html-keyboard-response","55","339980","0.0-6.0-4.0-0.7","xygobjvobv","many_one","0","direct_first","1","rt03rt15","0","24","1","1","3","1","","0","1","0","null","","","<div class = 'row'><div class = 'column'><img src = 'uspos/8540.bmp' width = '100%;'></div><div class = 'column'><img src = 'category3/CS7.png' width = '70%;'></div></div>","null","pos","CS","CS","3","category3/CS7.png","","","","",""
"","html-keyboard-response","56","342498","0.0-6.0-4.0-0.8","xygobjvobv","many_one","0","direct_first","1","rt03rt15","0","24","1","1","3","1","","0","1","0","null","","","<div class = 'row'><div class = 'column'><img src = 'category2/CS1.png' width = '70%;'></div><div class = 'column'><img src = 'usneg/9404.bmp' width = '100%;'></div></div>","null","neg","CS","CS","2","category2/CS1.png","","","","",""
"","html-keyboard-response","57","345029","0.0-6.0-4.0-0.9","xygobjvobv","many_one","0","direct_first","1","rt03rt15","0","24","1","1","3","1","","0","1","0","null","","","<div class = 'row'><div class = 'column'><img src = 'uspos/8190.bmp' width = '100%;'></div><div class = 'column'><img src = 'category3/CS3.png' width = '70%;'></div></div>","null","pos","CS","CS","3","category3/CS3.png","","","","",""
"","html-keyboard-response","58","347546","0.0-6.0-4.0-0.10","xygobjvobv","many_one","0","direct_first","1","rt03rt15","0","24","1","1","3","1","","0","1","0","null","","","<div class = 'row'><div class = 'column'><img src = 'category1/CS7.png' width = '70%;'></div><div class = 'column'><img src = 'uspos/2030.bmp' width = '100%;'></div></div>","null","pos","CS","CS","1","category1/CS7.png","","","","",""
"","html-keyboard-response","59","350079","0.0-6.0-4.0-0.11","xygobjvobv","many_one","0","direct_first","1","rt03rt15","0","24","1","1","3","1","","0","1","0","null","","","<div class = 'row'><div class = 'column'><img src = 'usneg/3181.bmp' width = '100%;'></div><div class = 'column'><img src = 'category2/CS5.png' width = '70%;'></div></div>","null","neg","CS","CS","2","category2/CS5.png","","","","",""
"","html-keyboard-response","60","352585","0.0-6.0-4.0-0.12","xygobjvobv","many_one","0","direct_first","1","rt03rt15","0","24","1","1","3","1","","0","1","0","null","","","<div class = 'row'><div class = 'column'><img src = 'category1/CS5.png' width = '70%;'></div><div class = 'column'><img src = 'uspos/2057.bmp' width = '100%;'></div></div>","null","pos","CS","CS","1","category1/CS5.png","","","","",""
"","html-keyboard-response","61","355095","0.0-6.0-4.0-0.13","xygobjvobv","many_one","0","direct_first","1","rt03rt15","0","24","1","1","3","1","","0","1","0","null","","","<div class = 'row'><div class = 'column'><img src = 'category1/CS3.png' width = '70%;'></div><div class = 'column'><img src = 'uspos/2340.bmp' width = '100%;'></div></div>","null","pos","CS","CS","1","category1/CS3.png","","","","",""
"","html-keyboard-response","62","357624","0.0-6.0-4.0-0.14","xygobjvobv","many_one","0","direct_first","1","rt03rt15","0","24","1","1","3","1","","0","1","0","null","","","<div class = 'row'><div class = 'column'><img src = 'usneg/9000.bmp' width = '100%;'></div><div class = 'column'><img src = 'category4/CS6.png' width = '70%;'></div></div>","null","neg","CS","CS","4","category4/CS6.png","","","","",""
"","html-keyboard-response","63","360143","0.0-6.0-4.0-0.15","xygobjvobv","many_one","0","direct_first","1","rt03rt15","0","24","1","1","3","1","","0","1","0","null","","","<div class = 'row'><div class = 'column'><img src = 'uspos/2208.bmp' width = '100%;'></div><div class = 'column'><img src = 'category3/CS10.png' width = '70%;'></div></div>","null","pos","CS","CS","3","category3/CS10.png","","","","",""
"","html-keyboard-response","64","362662","0.0-6.0-4.0-0.16","xygobjvobv","many_one","0","direct_first","1","rt03rt15","0","24","1","1","3","1","","0","1","0","null","","","<div class = 'row'><div class = 'column'><img src = 'usneg/9584.bmp' width = '100%;'></div><div class = 'column'><img src = 'category2/CS9.png' width = '70%;'></div></div>","null","neg","CS","CS","2","category2/CS9.png","","","","",""
"","html-keyboard-response","65","365192","0.0-6.0-4.0-0.17","xygobjvobv","many_one","0","direct_first","1","rt03rt15","0","24","1","1","3","1","","0","1","0","null","","","<div class = 'row'><div class = 'column'><img src = 'uspos/1340.bmp' width = '100%;'></div><div class = 'column'><img src = 'category3/CS5.png' width = '70%;'></div></div>","null","pos","CS","CS","3","category3/CS5.png","","","","",""
"","html-keyboard-response","66","367702","0.0-6.0-4.0-0.18","xygobjvobv","many_one","0","direct_first","1","rt03rt15","0","24","1","1","3","1","","0","1","0","null","","","<div class = 'row'><div class = 'column'><img src = 'usneg/9561.bmp' width = '100%;'></div><div class = 'column'><img src = 'category4/CS9.png' width = '70%;'></div></div>","null","neg","CS","CS","4","category4/CS9.png","","","","",""
"","html-keyboard-response","67","370227","0.0-6.0-4.0-0.19","xygobjvobv","many_one","0","direct_first","1","rt03rt15","0","24","1","1","3","1","","0","1","0","null","","","<div class = 'row'><div class = 'column'><img src = 'usneg/9290.bmp' width = '100%;'></div><div class = 'column'><img src = 'category4/CS4.png' width = '70%;'></div></div>","null","neg","CS","CS","4","category4/CS4.png","","","","",""
"","survey-html-form","68","374000","0.0-6.0-5.0","xygobjvobv","many_one","0","direct_first","1","rt03rt15","0","24","1","1","3","1","","0","1","0","3272","","{}","","","","","","","","","","","",""
"","html-keyboard-response","69","378023","0.0-6.0-6.0-0.0","xygobjvobv","many_one","0","direct_first","1","rt03rt15","0","24","1","1","3","1","","0","1","0","null","","","<div class = 'row'><div class = 'column'><img src = 'category1/CS5.png' width = '70%;'></div><div class = 'column'><img src = 'uspos/2057.bmp' width = '100%;'></div></div>","null","pos","CS","CS","1","category1/CS5.png","","","","",""
"","html-keyboard-response","70","380559","0.0-6.0-6.0-0.1","xygobjvobv","many_one","0","direct_first","1","rt03rt15","0","24","1","1","3","1","","0","1","0","null","","","<div class = 'row'><div class = 'column'><img src = 'uspos/2030.bmp' width = '100%;'></div><div class = 'column'><img src = 'category1/CS7.png' width = '70%;'></div></div>","null","pos","CS","CS","1","category1/CS7.png","","","","",""
"","html-keyboard-response","71","383092","0.0-6.0-6.0-0.2","xygobjvobv","many_one","0","direct_first","1","rt03rt15","0","24","1","1","3","1","","0","1","0","null","","","<div class = 'row'><div class = 'column'><img src = 'usneg/9404.bmp' width = '100%;'></div><div class = 'column'><img src = 'category2/CS1.png' width = '70%;'></div></div>","null","neg","CS","CS","2","category2/CS1.png","","","","",""
"","html-keyboard-response","72","385607","0.0-6.0-6.0-0.3","xygobjvobv","many_one","0","direct_first","1","rt03rt15","0","24","1","1","3","1","","0","1","0","null","","","<div class = 'row'><div class = 'column'><img src = 'uspos/2208.bmp' width = '100%;'></div><div class = 'column'><img src = 'category3/CS10.png' width = '70%;'></div></div>","null","pos","CS","CS","3","category3/CS10.png","","","","",""
"","html-keyboard-response","73","388125","0.0-6.0-6.0-0.4","xygobjvobv","many_one","0","direct_first","1","rt03rt15","0","24","1","1","3","1","","0","1","0","null","","","<div class = 'row'><div class = 'column'><img src = 'category1/CS10.png' width = '70%;'></div><div class = 'column'><img src = 'uspos/7580.bmp' width = '100%;'></div></div>","null","pos","CS","CS","1","category1/CS10.png","","","","",""
"","html-keyboard-response","74","390630","0.0-6.0-6.0-0.5","xygobjvobv","many_one","0","direct_first","1","rt03rt15","0","24","1","1","3","1","","0","1","0","null","","","<div class = 'row'><div class = 'column'><img src = 'category2/CS7.png' width = '70%;'></div><div class = 'column'><img src = 'usneg/9050.bmp' width = '100%;'></div></div>","null","neg","CS","CS","2","category2/CS7.png","","","","",""
"","html-keyboard-response","75","393140","0.0-6.0-6.0-0.6","xygobjvobv","many_one","0","direct_first","1","rt03rt15","0","24","1","1","3","1","","0","1","0","null","","","<div class = 'row'><div class = 'column'><img src = 'usneg/9561.bmp' width = '100%;'></div><div class = 'column'><img src = 'category4/CS9.png' width = '70%;'></div></div>","null","neg","CS","CS","4","category4/CS9.png","","","","",""
"","html-keyboard-response","76","395648","0.0-6.0-6.0-0.7","xygobjvobv","many_one","0","direct_first","1","rt03rt15","0","24","1","1","3","1","","0","1","0","null","","","<div class = 'row'><div class = 'column'><img src = 'usneg/9000.bmp' width = '100%;'></div><div class = 'column'><img src = 'category4/CS6.png' width = '70%;'></div></div>","null","neg","CS","CS","4","category4/CS6.png","","","","",""
"","html-keyboard-response","77","398156","0.0-6.0-6.0-0.8","xygobjvobv","many_one","0","direct_first","1","rt03rt15","0","24","1","1","3","1","","0","1","0","null","","","<div class = 'row'><div class = 'column'><img src = 'category2/CS8.png' width = '70%;'></div><div class = 'column'><img src = 'usneg/6212.bmp' width = '100%;'></div></div>","null","neg","CS","CS","2","category2/CS8.png","","","","",""
"","html-keyboard-response","78","400677","0.0-6.0-6.0-0.9","xygobjvobv","many_one","0","direct_first","1","rt03rt15","0","24","1","1","3","1","","0","1","0","null","","","<div class = 'row'><div class = 'column'><img src = 'category4/CS4.png' width = '70%;'></div><div class = 'column'><img src = 'usneg/9290.bmp' width = '100%;'></div></div>","null","neg","CS","CS","4","category4/CS4.png","","","","",""
"","html-keyboard-response","79","403186","0.0-6.0-6.0-0.10","xygobjvobv","many_one","0","direct_first","1","rt03rt15","0","24","1","1","3","1","","0","1","0","null","","","<div class = 'row'><div class = 'column'><img src = 'category2/CS9.png' width = '70%;'></div><div class = 'column'><img src = 'usneg/9584.bmp' width = '100%;'></div></div>","null","neg","CS","CS","2","category2/CS9.png","","","","",""
"","html-keyboard-response","80","405706","0.0-6.0-6.0-0.11","xygobjvobv","many_one","0","direct_first","1","rt03rt15","0","24","1","1","3","1","","0","1","0","null","","","<div class = 'row'><div class = 'column'><img src = 'uspos/1340.bmp' width = '100%;'></div><div class = 'column'><img src = 'category3/CS5.png' width = '70%;'></div></div>","null","pos","CS","CS","3","category3/CS5.png","","","","",""
"","html-keyboard-response","81","408238","0.0-6.0-6.0-0.12","xygobjvobv","many_one","0","direct_first","1","rt03rt15","0","24","1","1","3","1","","0","1","0","null","","","<div class = 'row'><div class = 'column'><img src = 'category4/CS10.png' width = '70%;'></div><div class = 'column'><img src = 'usneg/9340.bmp' width = '100%;'></div></div>","null","neg","CS","CS","4","category4/CS10.png","","","","",""
"","html-keyboard-response","82","410754","0.0-6.0-6.0-0.13","xygobjvobv","many_one","0","direct_first","1","rt03rt15","0","24","1","1","3","1","","0","1","0","null","","","<div class = 'row'><div class = 'column'><img src = 'category3/CS3.png' width = '70%;'></div><div class = 'column'><img src = 'uspos/8190.bmp' width = '100%;'></div></div>","null","pos","CS","CS","3","category3/CS3.png","","","","",""
"","html-keyboard-response","83","413287","0.0-6.0-6.0-0.14","xygobjvobv","many_one","0","direct_first","1","rt03rt15","0","24","1","1","3","1","","0","1","0","null","","","<div class = 'row'><div class = 'column'><img src = 'category3/CS4.png' width = '70%;'></div><div class = 'column'><img src = 'uspos/2360.bmp' width = '100%;'></div></div>","null","pos","CS","CS","3","category3/CS4.png","","","","",""
"","html-keyboard-response","84","415793","0.0-6.0-6.0-0.15","xygobjvobv","many_one","0","direct_first","1","rt03rt15","0","24","1","1","3","1","","0","1","0","null","","","<div class = 'row'><div class = 'column'><img src = 'category2/CS5.png' width = '70%;'></div><div class = 'column'><img src = 'usneg/3181.bmp' width = '100%;'></div></div>","null","neg","CS","CS","2","category2/CS5.png","","","","",""
"","html-keyboard-response","85","418302","0.0-6.0-6.0-0.16","xygobjvobv","many_one","0","direct_first","1","rt03rt15","0","24","1","1","3","1","","0","1","0","null","","","<div class = 'row'><div class = 'column'><img src = 'category3/CS7.png' width = '70%;'></div><div class = 'column'><img src = 'uspos/8540.bmp' width = '100%;'></div></div>","null","pos","CS","CS","3","category3/CS7.png","","","","",""
"","html-keyboard-response","86","420811","0.0-6.0-6.0-0.17","xygobjvobv","many_one","0","direct_first","1","rt03rt15","0","24","1","1","3","1","","0","1","0","null","","","<div class = 'row'><div class = 'column'><img src = 'uspos/1460.bmp' width = '100%;'></div><div class = 'column'><img src = 'category1/CS6.png' width = '70%;'></div></div>","null","pos","CS","CS","1","category1/CS6.png","","","","",""
"","html-keyboard-response","87","423330","0.0-6.0-6.0-0.18","xygobjvobv","many_one","0","direct_first","1","rt03rt15","0","24","1","1","3","1","","0","1","0","null","","","<div class = 'row'><div class = 'column'><img src = 'category4/CS2.png' width = '70%;'></div><div class = 'column'><img src = 'usneg/9280.bmp' width = '100%;'></div></div>","null","neg","CS","CS","4","category4/CS2.png","","","","",""
"","html-keyboard-response","88","425852","0.0-6.0-6.0-0.19","xygobjvobv","many_one","0","direct_first","1","rt03rt15","0","24","1","1","3","1","","0","1","0","null","","","<div class = 'row'><div class = 'column'><img src = 'category1/CS3.png' width = '70%;'></div><div class = 'column'><img src = 'uspos/2340.bmp' width = '100%;'></div></div>","null","pos","CS","CS","1","category1/CS3.png","","","","",""
"","survey-html-form","89","442145","0.0-7.0","xygobjvobv","many_one","0","direct_first","1","rt03rt15","0","24","1","1","3","1","","0","1","0","15775","","{}","","","","","","","","","","","",""
"","image-slider-response","90","448761","0.0-8.0-0.0","xygobjvobv","many_one","0","direct_first","1","rt03rt15","0","24","1","1","3","1","","0","1","0","4592","","","","","neg","GS","GSold","4","category4/CS8.png","-56","targets/33.png","direct","",""
"","image-slider-response","91","453010","0.0-8.0-0.1","xygobjvobv","many_one","0","direct_first","1","rt03rt15","0","24","1","1","3","1","","0","1","0","4246","","","","","pos","GS","GSnew","1","category1/GS3.png","-54","targets/36.png","direct","",""
"","image-slider-response","92","457162","0.0-8.0-0.2","xygobjvobv","many_one","0","direct_first","1","rt03rt15","0","24","1","1","3","1","","0","1","0","4151","","","","","pos","CS","CS","1","category1/CS3.png","52","targets/18.png","direct","",""
"","image-slider-response","93","462635","0.0-8.0-0.3","xygobjvobv","many_one","0","direct_first","1","rt03rt15","0","24","1","1","3","1","","0","1","0","5471","","","","","pos","GS","GSold","3","category3/CS9.png","87","targets/17.png","direct","",""
"","image-slider-response","94","470451","0.0-8.0-0.4","xygobjvobv","many_one","0","direct_first","1","rt03rt15","0","24","1","1","3","1","","0","1","0","7814","","","","","pos","CS","CS","1","category1/CS6.png","18","targets/14.png","direct","",""
"","image-slider-response","95","474716","0.0-8.0-0.5","xygobjvobv","many_one","0","direct_first","1","rt03rt15","0","24","1","1","3","1","","0","1","0","4262","","","","","neg","CS","CS","2","category2/CS1.png","-27","targets/8.png","direct","",""
"","image-slider-response","96","479078","0.0-8.0-0.6","xygobjvobv","many_one","0","direct_first","1","rt03rt15","0","24","1","1","3","1","","0","1","0","4359","","","","","pos","GS","GSold","1","category1/CS4.png","18","targets/10.png","direct","",""
"","image-slider-response","97","482453","0.0-8.0-0.7","xygobjvobv","many_one","0","direct_first","1","rt03rt15","0","24","1","1","3","1","","0","1","0","3373","","","","","pos","CS","CS","3","category3/CS10.png","96","targets/16.png","direct","",""
"","image-slider-response","98","487369","0.0-8.0-0.8","xygobjvobv","many_one","0","direct_first","1","rt03rt15","0","24","1","1","3","1","","0","1","0","4914","","","","","neg","GS","GSnew","4","category4/GS1.png","-71","targets/21.png","direct","",""
"","image-slider-response","99","491342","0.0-8.0-0.9","xygobjvobv","many_one","0","direct_first","1","rt03rt15","0","24","1","1","3","1","","0","1","0","3971","","","","","neg","CS","CS","2","category2/CS8.png","-55","targets/41.png","direct","",""
"","image-slider-response","100","494439","0.0-8.0-0.10","xygobjvobv","many_one","0","direct_first","1","rt03rt15","0","24","1","1","3","1","","0","1","0","3094","","","","","pos","CS","CS","3","category3/CS7.png","90","targets/31.png","direct","",""
"","image-slider-response","101","500807","0.0-8.0-0.11","xygobjvobv","many_one","0","direct_first","1","rt03rt15","0","24","1","1","3","1","","0","1","0","6366","","","","","neg","GS","abstract","2","category2/men.png","-29","targets/40.png","direct","",""
"","image-slider-response","102","504568","0.0-8.0-0.12","xygobjvobv","many_one","0","direct_first","1","rt03rt15","0","24","1","1","3","1","","0","1","0","3758","","","","","neg","GS","GSold","2","category2/CS4.png","-37","targets/6.png","direct","",""
"","image-slider-response","103","509281","0.0-8.0-0.13","xygobjvobv","many_one","0","direct_first","1","rt03rt15","0","24","1","1","3","1","","0","1","0","4710","","","","","neg","GS","GSnew","4","category4/GS2.png","-66","targets/46.png","direct","",""
"","image-slider-response","104","512721","0.0-8.0-0.14","xygobjvobv","many_one","0","direct_first","1","rt03rt15","0","24","1","1","3","1","","0","1","0","3438","","","","","pos","GS","GSnew","3","category3/GS3.png","-28","targets/39.png","direct","",""
"","image-slider-response","105","516786","0.0-8.0-0.15","xygobjvobv","many_one","0","direct_first","1","rt03rt15","0","24","1","1","3","1","","0","1","0","4063","","","","","neg","GS","GSold","2","category2/CS6.png","-51","targets/45.png","direct","",""
"","image-slider-response","106","519546","0.0-8.0-0.16","xygobjvobv","many_one","0","direct_first","1","rt03rt15","0","24","1","1","3","1","","0","1","0","2758","","","","","pos","GS","GSnew","1","category1/GS2.png","29","targets/12.png","direct","",""
"","image-slider-response","107","523666","0.0-8.0-0.17","xygobjvobv","many_one","0","direct_first","1","rt03rt15","0","24","1","1","3","1","","0","1","0","4117","","","","","pos","CS","CS","3","category3/CS5.png","88","targets/26.png","direct","",""
"","image-slider-response","108","528155","0.0-8.0-0.18","xygobjvobv","many_one","0","direct_first","1","rt03rt15","0","24","1","1","3","1","","0","1","0","4487","","","","","neg","GS","GSnew","2","category2/GS2.png","-23","targets/20.png","direct","",""
"","image-slider-response","109","531419","0.0-8.0-0.19","xygobjvobv","many_one","0","direct_first","1","rt03rt15","0","24","1","1","3","1","","0","1","0","3263","","","","","neg","GS","GSold","4","category4/CS3.png","-84","targets/37.png","direct","",""
"","image-slider-response","110","534716","0.0-8.0-0.20","xygobjvobv","many_one","0","direct_first","1","rt03rt15","0","24","1","1","3","1","","0","1","0","3295","","","","","pos","CS","CS","3","category3/CS3.png","75","targets/25.png","direct","",""
"","image-slider-response","111","543157","0.0-8.0-0.21","xygobjvobv","many_one","0","direct_first","1","rt03rt15","0","24","1","1","3","1","","0","1","0","8439","","","","","pos","GS","GSold","3","category3/CS6.png","65","targets/1.png","direct","",""
"","image-slider-response","112","546333","0.0-8.0-0.22","xygobjvobv","many_one","0","direct_first","1","rt03rt15","0","24","1","1","3","1","","0","1","0","3174","","","","","neg","GS","GSnew","2","category2/GS3.png","41","targets/48.png","direct","",""
"","image-slider-response","113","549431","0.0-8.0-0.23","xygobjvobv","many_one","0","direct_first","1","rt03rt15","0","24","1","1","3","1","","0","1","0","3096","","","","","pos","GS","GSnew","1","category1/GS1.png","27","targets/11.png","direct","",""
"","image-slider-response","114","553358","0.0-8.0-0.24","xygobjvobv","many_one","0","direct_first","1","rt03rt15","0","24","1","1","3","1","","0","1","0","3926","","","","","neg","CS","CS","4","category4/CS4.png","-74","targets/13.png","direct","",""
"","image-slider-response","115","557622","0.0-8.0-0.25","xygobjvobv","many_one","0","direct_first","1","rt03rt15","0","24","1","1","3","1","","0","1","0","4263","","","","","neg","GS","abstract","4","category4/lin.png","-58","targets/24.png","direct","",""
"","image-slider-response","116","561753","0.0-8.0-0.26","xygobjvobv","many_one","0","direct_first","1","rt03rt15","0","24","1","1","3","1","","0","1","0","4127","","","","","pos","GS","GSold","1","category1/CS9.png","44","targets/29.png","direct","",""
"","image-slider-response","117","564943","0.0-8.0-0.27","xygobjvobv","many_one","0","direct_first","1","rt03rt15","0","24","1","1","3","1","","0","1","0","3189","","","","","neg","CS","CS","4","category4/CS6.png","-94","targets/23.png","direct","",""
"","image-slider-response","118","568961","0.0-8.0-0.28","xygobjvobv","many_one","0","direct_first","1","rt03rt15","0","24","1","1","3","1","","0","1","0","4015","","","","","pos","GS","GSnew","3","category3/GS2.png","-27","targets/38.png","direct","",""
"","image-slider-response","119","572186","0.0-8.0-0.29","xygobjvobv","many_one","0","direct_first","1","rt03rt15","0","24","1","1","3","1","","0","1","0","3223","","","","","neg","CS","CS","2","category2/CS9.png","-59","targets/35.png","direct","",""
"","image-slider-response","120","575243","0.0-8.0-0.30","xygobjvobv","many_one","0","direct_first","1","rt03rt15","0","24","1","1","3","1","","0","1","0","3055","","","","","pos","CS","CS","1","category1/CS10.png","50","targets/44.png","direct","",""
"","image-slider-response","121","578209","0.0-8.0-0.31","xygobjvobv","many_one","0","direct_first","1","rt03rt15","0","24","1","1","3","1","","0","1","0","2965","","","","","neg","CS","CS","4","category4/CS9.png","-37","targets/15.png","direct","",""
"","image-slider-response","122","581378","0.0-8.0-0.32","xygobjvobv","many_one","0","direct_first","1","rt03rt15","0","24","1","1","3","1","","0","1","0","3166","","","","","neg","CS","CS","2","category2/CS7.png","-38","targets/28.png","direct","",""
"","image-slider-response","123","584147","0.0-8.0-0.33","xygobjvobv","many_one","0","direct_first","1","rt03rt15","0","24","1","1","3","1","","0","1","0","2767","","","","","neg","GS","GSold","2","category2/CS3.png","-48","targets/32.png","direct","",""
"","image-slider-response","124","588868","0.0-8.0-0.34","xygobjvobv","many_one","0","direct_first","1","rt03rt15","0","24","1","1","3","1","","0","1","0","4719","","","","","neg","GS","GSnew","4","category4/GS3.png","-68","targets/22.png","direct","",""
"","image-slider-response","125","592932","0.0-8.0-0.35","xygobjvobv","many_one","0","direct_first","1","rt03rt15","0","24","1","1","3","1","","0","1","0","4061","","","","","neg","GS","GSnew","2","category2/GS1.png","-51","targets/9.png","direct","",""
"","image-slider-response","126","595852","0.0-8.0-0.36","xygobjvobv","many_one","0","direct_first","1","rt03rt15","0","24","1","1","3","1","","0","1","0","2918","","","","","pos","GS","GSold","1","category1/CS1.png","33","targets/19.png","direct","",""
"","image-slider-response","127","598732","0.0-8.0-0.37","xygobjvobv","many_one","0","direct_first","1","rt03rt15","0","24","1","1","3","1","","0","1","0","2878","","","","","neg","CS","CS","4","category4/CS2.png","-48","targets/43.png","direct","",""
"","image-slider-response","128","602149","0.0-8.0-0.38","xygobjvobv","many_one","0","direct_first","1","rt03rt15","0","24","1","1","3","1","","0","1","0","3414","","","","","pos","GS","GSold","3","category3/CS1.png","70","targets/7.png","direct","",""
"","image-slider-response","129","604981","0.0-8.0-0.39","xygobjvobv","many_one","0","direct_first","1","rt03rt15","0","24","1","1","3","1","","0","1","0","2830","","","","","neg","GS","GSold","4","category4/CS7.png","-57","targets/5.png","direct","",""
"","image-slider-response","130","607494","0.0-8.0-0.40","xygobjvobv","many_one","0","direct_first","1","rt03rt15","0","24","1","1","3","1","","0","1","0","2510","","","","","pos","CS","CS","3","category3/CS4.png","44","targets/27.png","direct","",""
"","image-slider-response","131","610182","0.0-8.0-0.41","xygobjvobv","many_one","0","direct_first","1","rt03rt15","0","24","1","1","3","1","","0","1","0","2685","","","","","neg","CS","CS","4","category4/CS10.png","-49","targets/34.png","direct","",""
"","image-slider-response","132","614758","0.0-8.0-0.42","xygobjvobv","many_one","0","direct_first","1","rt03rt15","0","24","1","1","3","1","","0","1","0","4574","","","","","pos","GS","abstract","3","category3/wang.png","27","targets/3.png","direct","",""
"","image-slider-response","133","619335","0.0-8.0-0.43","xygobjvobv","many_one","0","direct_first","1","rt03rt15","0","24","1","1","3","1","","0","1","0","4576","","","","","pos","GS","GSnew","3","category3/GS1.png","-36","targets/4.png","direct","",""
"","image-slider-response","134","622752","0.0-8.0-0.44","xygobjvobv","many_one","0","direct_first","1","rt03rt15","0","24","1","1","3","1","","0","1","0","3414","","","","","pos","GS","abstract","1","category1/ma.png","18","targets/2.png","direct","",""
"","image-slider-response","135","627224","0.0-8.0-0.45","xygobjvobv","many_one","0","direct_first","1","rt03rt15","0","24","1","1","3","1","","0","1","0","4471","","","","","neg","CS","CS","2","category2/CS5.png","26","targets/42.png","direct","",""
"","image-slider-response","136","630433","0.0-8.0-0.46","xygobjvobv","many_one","0","direct_first","1","rt03rt15","0","24","1","1","3","1","","0","1","0","3208","","","","","pos","CS","CS","1","category1/CS5.png","24","targets/30.png","direct","",""
"","image-slider-response","137","635722","0.0-8.0-0.47","xygobjvobv","many_one","0","direct_first","1","rt03rt15","0","24","1","1","3","1","","0","1","0","5285","","","","","pos","CS","CS","1","category1/CS7.png","-38","targets/47.png","direct","",""
"","html-keyboard-response","138","668897","0.0-9.0","xygobjvobv","many_one","0","direct_first","1","rt03rt15","0","24","1","1","3","1","","0","1","0","33173","","","<p>Sie sehen nun die chinesischen Zeichen nur ganz kurz. Danach sehen Sie die jeweilige Aussprache der Zeichen als Silbe auf dem Bildschrim. Ihre Aufgabe ist es, für jede Silbe anzugeben, ob diese etwas angenehmes, oder unangenehmes bedeuten könnte. Verlassen Sie sich hier vor allem auf Ihre Intuition.<br><br>Die Zeichen werden nur zur Orientierung dargestellt, beachten Sie sie deshalb nicht. Konzentrieren Sie sich vor allem auf die Silben. <br>Reagieren Sie mit folgenden zwei Tasten: <br><br><b>'D' </b> wenn die Silbe etwas <b>unangenehmes</b> bedeuten könnte. <br><b>'K'</b> wenn die Silbe etwas <b>angenehmes</b> bedeuten könnte. <br><br>Bitte legen Sie nun den Zeigefinger der linken Hand auf die Taste 'D' und den Zeigefinger der rechten Hand auf die Taste 'K'. <br>Reagieren Sie auf jede Silbe so schnell wie möglich. Uns interessiert Ihre spontane Reaktion. <br> <br> <br>Drücken Sie 'D' oder 'K', um die nächste Aufgabe zu starten. </p>","75","","","","","","","","","",""
"","html-keyboard-response","139","671911","0.0-10.0-0.0","xygobjvobv","many_one","0","direct_first","1","rt03rt15","0","24","1","1","3","1","","0","1","0","null","","","<div style=""font-size:60px;"">+</div>","null","","","","","","","","","",""
"","html-keyboard-response","140","672005","0.0-10.0-1.0","xygobjvobv","many_one","0","direct_first","1","rt03rt15","0","24","1","1","3","1","","0","1","0","null","","","<img src = 'category2/CS6.png' width = '100%;'>","null","","","","","","","","","",""
"","html-keyboard-response","141","672270","0.0-10.0-2.0","xygobjvobv","many_one","0","direct_first","1","rt03rt15","0","24","1","1","3","1","","0","1","0","null","","","<img src = 'targets/45.png' width = '100%;'>","null","","","","","","","","","",""
"","html-keyboard-response","142","673522","0.0-10.0-3.0","xygobjvobv","many_one","0","direct_first","1","rt03rt15","0","24","1","1","3","1","","0","1","0","1249","","","<img src = 'targets/mask.png' width = '100%;'>","75","neg","GS","GSold","2","category2/CS6.png","","targets/45.png","indirect","1","0"
"","html-keyboard-response","143","675034","0.0-10.0-0.1","xygobjvobv","many_one","0","direct_first","1","rt03rt15","0","24","1","1","3","1","","0","1","0","null","","","<div style=""font-size:60px;"">+</div>","null","","","","","","","","","",""
"","html-keyboard-response","144","675130","0.0-10.0-1.1","xygobjvobv","many_one","0","direct_first","1","rt03rt15","0","24","1","1","3","1","","0","1","0","null","","","<img src = 'category4/CS2.png' width = '100%;'>","null","","","","","","","","","",""
"","html-keyboard-response","145","675399","0.0-10.0-2.1","xygobjvobv","many_one","0","direct_first","1","rt03rt15","0","24","1","1","3","1","","0","1","0","null","","","<img src = 'targets/43.png' width = '100%;'>","null","","","","","","","","","",""
"","html-keyboard-response","146","677115","0.0-10.0-3.1","xygobjvobv","many_one","0","direct_first","1","rt03rt15","0","24","1","1","3","1","","0","1","0","1713","","","<img src = 'targets/mask.png' width = '100%;'>","75","neg","CS","CS","4","category4/CS2.png","","targets/43.png","indirect","1","1"
"","html-keyboard-response","147","678630","0.0-10.0-0.2","xygobjvobv","many_one","0","direct_first","1","rt03rt15","0","24","1","1","3","1","","0","1","0","null","","","<div style=""font-size:60px;"">+</div>","null","","","","","","","","","",""
"","html-keyboard-response","148","678721","0.0-10.0-1.2","xygobjvobv","many_one","0","direct_first","1","rt03rt15","0","24","1","1","3","1","","0","1","0","null","","","<img src = 'category2/CS8.png' width = '100%;'>","null","","","","","","","","","",""
"","html-keyboard-response","149","678983","0.0-10.0-2.2","xygobjvobv","many_one","0","direct_first","1","rt03rt15","0","24","1","1","3","1","","0","1","0","null","","","<img src = 'targets/41.png' width = '100%;'>","null","","","","","","","","","",""
"","html-keyboard-response","150","681019","0.0-10.0-3.2","xygobjvobv","many_one","0","direct_first","1","rt03rt15","0","24","1","1","3","1","","0","1","0","2033","","","<img src = 'targets/mask.png' width = '100%;'>","68","neg","CS","CS","2","category2/CS8.png","","targets/41.png","indirect","0","2"
"","html-keyboard-response","151","682537","0.0-10.0-0.3","xygobjvobv","many_one","0","direct_first","1","rt03rt15","0","24","1","1","3","1","","0","1","0","null","","","<div style=""font-size:60px;"">+</div>","null","","","","","","","","","",""
"","html-keyboard-response","152","682635","0.0-10.0-1.3","xygobjvobv","many_one","0","direct_first","1","rt03rt15","0","24","1","1","3","1","","0","1","0","null","","","<img src = 'category2/CS4.png' width = '100%;'>","null","","","","","","","","","",""
"","html-keyboard-response","153","682904","0.0-10.0-2.3","xygobjvobv","many_one","0","direct_first","1","rt03rt15","0","24","1","1","3","1","","0","1","0","null","","","<img src = 'targets/6.png' width = '100%;'>","null","","","","","","","","","",""
"","html-keyboard-response","154","684714","0.0-10.0-3.3","xygobjvobv","many_one","0","direct_first","1","rt03rt15","0","24","1","1","3","1","","0","1","0","1808","","","<img src = 'targets/mask.png' width = '100%;'>","68","neg","GS","GSold","2","category2/CS4.png","","targets/6.png","indirect","0","3"
"","html-keyboard-response","155","686228","0.0-10.0-0.4","xygobjvobv","many_one","0","direct_first","1","rt03rt15","0","24","1","1","3","1","","0","1","0","null","","","<div style=""font-size:60px;"">+</div>","null","","","","","","","","","",""
"","html-keyboard-response","156","686330","0.0-10.0-1.4","xygobjvobv","many_one","0","direct_first","1","rt03rt15","0","24","1","1","3","1","","0","1","0","null","","","<img src = 'category2/CS1.png' width = '100%;'>","null","","","","","","","","","",""
"","html-keyboard-response","157","686603","0.0-10.0-2.4","xygobjvobv","many_one","0","direct_first","1","rt03rt15","0","24","1","1","3","1","","0","1","0","null","","","<img src = 'targets/8.png' width = '100%;'>","null","","","","","","","","","",""
"","html-keyboard-response","158","687914","0.0-10.0-3.4","xygobjvobv","many_one","0","direct_first","1","rt03rt15","0","24","1","1","3","1","","0","1","0","1310","","","<img src = 'targets/mask.png' width = '100%;'>","75","neg","CS","CS","2","category2/CS1.png","","targets/8.png","indirect","1","4"
"","html-keyboard-response","159","689435","0.0-10.0-0.5","xygobjvobv","many_one","0","direct_first","1","rt03rt15","0","24","1","1","3","1","","0","1","0","null","","","<div style=""font-size:60px;"">+</div>","null","","","","","","","","","",""
"","html-keyboard-response","160","689536","0.0-10.0-1.5","xygobjvobv","many_one","0","direct_first","1","rt03rt15","0","24","1","1","3","1","","0","1","0","null","","","<img src = 'category1/CS7.png' width = '100%;'>","null","","","","","","","","","",""
"","html-keyboard-response","161","689803","0.0-10.0-2.5","xygobjvobv","many_one","0","direct_first","1","rt03rt15","0","24","1","1","3","1","","0","1","0","null","","","<img src = 'targets/47.png' width = '100%;'>","null","","","","","","","","","",""
"","html-keyboard-response","162","691194","0.0-10.0-3.5","xygobjvobv","many_one","0","direct_first","1","rt03rt15","0","24","1","1","3","1","","0","1","0","1390","","","<img src = 'targets/mask.png' width = '100%;'>","68","pos","CS","CS","1","category1/CS7.png","","targets/47.png","indirect","0","5"
"","html-keyboard-response","163","692719","0.0-10.0-0.6","xygobjvobv","many_one","0","direct_first","1","rt03rt15","0","24","1","1","3","1","","0","1","0","null","","","<div style=""font-size:60px;"">+</div>","null","","","","","","","","","",""
"","html-keyboard-response","164","692819","0.0-10.0-1.6","xygobjvobv","many_one","0","direct_first","1","rt03rt15","0","24","1","1","3","1","","0","1","0","null","","","<img src = 'category2/CS5.png' width = '100%;'>","null","","","","","","","","","",""
"","html-keyboard-response","165","693086","0.0-10.0-2.6","xygobjvobv","many_one","0","direct_first","1","rt03rt15","0","24","1","1","3","1","","0","1","0","null","","","<img src = 'targets/42.png' width = '100%;'>","null","","","","","","","","","",""
"","html-keyboard-response","166","694885","0.0-10.0-3.6","xygobjvobv","many_one","0","direct_first","1","rt03rt15","0","24","1","1","3","1","","0","1","0","1798","","","<img src = 'targets/mask.png' width = '100%;'>","75","neg","CS","CS","2","category2/CS5.png","","targets/42.png","indirect","1","6"
"","html-keyboard-response","167","696418","0.0-10.0-0.7","xygobjvobv","many_one","0","direct_first","1","rt03rt15","0","24","1","1","3","1","","0","1","0","null","","","<div style=""font-size:60px;"">+</div>","null","","","","","","","","","",""
"","html-keyboard-response","168","696518","0.0-10.0-1.7","xygobjvobv","many_one","0","direct_first","1","rt03rt15","0","24","1","1","3","1","","0","1","0","null","","","<img src = 'category1/CS6.png' width = '100%;'>","null","","","","","","","","","",""
"","html-keyboard-response","169","696785","0.0-10.0-2.7","xygobjvobv","many_one","0","direct_first","1","rt03rt15","0","24","1","1","3","1","","0","1","0","null","","","<img src = 'targets/14.png' width = '100%;'>","null","","","","","","","","","",""
"","html-keyboard-response","170","698942","0.0-10.0-3.7","xygobjvobv","many_one","0","direct_first","1","rt03rt15","0","24","1","1","3","1","","0","1","0","2155","","","<img src = 'targets/mask.png' width = '100%;'>","75","pos","CS","CS","1","category1/CS6.png","","targets/14.png","indirect","1","7"
"","html-keyboard-response","171","700468","0.0-10.0-0.8","xygobjvobv","many_one","0","direct_first","1","rt03rt15","0","24","1","1","3","1","","0","1","0","null","","","<div style=""font-size:60px;"">+</div>","null","","","","","","","","","",""
"","html-keyboard-response","172","700567","0.0-10.0-1.8","xygobjvobv","many_one","0","direct_first","1","rt03rt15","0","24","1","1","3","1","","0","1","0","null","","","<img src = 'category4/CS4.png' width = '100%;'>","null","","","","","","","","","",""
"","html-keyboard-response","173","700834","0.0-10.0-2.8","xygobjvobv","many_one","0","direct_first","1","rt03rt15","0","24","1","1","3","1","","0","1","0","null","","","<img src = 'targets/13.png' width = '100%;'>","null","","","","","","","","","",""
"","html-keyboard-response","174","702311","0.0-10.0-3.8","xygobjvobv","many_one","0","direct_first","1","rt03rt15","0","24","1","1","3","1","","0","1","0","1474","","","<img src = 'targets/mask.png' width = '100%;'>","75","neg","CS","CS","4","category4/CS4.png","","targets/13.png","indirect","1","8"
"","html-keyboard-response","175","703834","0.0-10.0-0.9","xygobjvobv","many_one","0","direct_first","1","rt03rt15","0","24","1","1","3","1","","0","1","0","null","","","<div style=""font-size:60px;"">+</div>","null","","","","","","","","","",""
"","html-keyboard-response","176","703934","0.0-10.0-1.9","xygobjvobv","many_one","0","direct_first","1","rt03rt15","0","24","1","1","3","1","","0","1","0","null","","","<img src = 'category3/CS4.png' width = '100%;'>","null","","","","","","","","","",""
"","html-keyboard-response","177","704200","0.0-10.0-2.9","xygobjvobv","many_one","0","direct_first","1","rt03rt15","0","24","1","1","3","1","","0","1","0","null","","","<img src = 'targets/27.png' width = '100%;'>","null","","","","","","","","","",""
"","html-keyboard-response","178","705581","0.0-10.0-3.9","xygobjvobv","many_one","0","direct_first","1","rt03rt15","0","24","1","1","3","1","","0","1","0","1380","","","<img src = 'targets/mask.png' width = '100%;'>","68","pos","CS","CS","3","category3/CS4.png","","targets/27.png","indirect","0","9"
"","html-keyboard-response","179","707084","0.0-10.0-0.10","xygobjvobv","many_one","0","direct_first","1","rt03rt15","0","24","1","1","3","1","","0","1","0","null","","","<div style=""font-size:60px;"">+</div>","null","","","","","","","","","",""
"","html-keyboard-response","180","707184","0.0-10.0-1.10","xygobjvobv","many_one","0","direct_first","1","rt03rt15","0","24","1","1","3","1","","0","1","0","null","","","<img src = 'category3/CS5.png' width = '100%;'>","null","","","","","","","","","",""
"","html-keyboard-response","181","707451","0.0-10.0-2.10","xygobjvobv","many_one","0","direct_first","1","rt03rt15","0","24","1","1","3","1","","0","1","0","null","","","<img src = 'targets/26.png' width = '100%;'>","null","","","","","","","","","",""
"","html-keyboard-response","182","709238","0.0-10.0-3.10","xygobjvobv","many_one","0","direct_first","1","rt03rt15","0","24","1","1","3","1","","0","1","0","1786","","","<img src = 'targets/mask.png' width = '100%;'>","68","pos","CS","CS","3","category3/CS5.png","","targets/26.png","indirect","0","10"
"","html-keyboard-response","183","710750","0.0-10.0-0.11","xygobjvobv","many_one","0","direct_first","1","rt03rt15","0","24","1","1","3","1","","0","1","0","null","","","<div style=""font-size:60px;"">+</div>","null","","","","","","","","","",""
"","html-keyboard-response","184","710850","0.0-10.0-1.11","xygobjvobv","many_one","0","direct_first","1","rt03rt15","0","24","1","1","3","1","","0","1","0","null","","","<img src = 'category2/CS3.png' width = '100%;'>","null","","","","","","","","","",""
"","html-keyboard-response","185","711117","0.0-10.0-2.11","xygobjvobv","many_one","0","direct_first","1","rt03rt15","0","24","1","1","3","1","","0","1","0","null","","","<img src = 'targets/32.png' width = '100%;'>","null","","","","","","","","","",""
"","html-keyboard-response","186","712830","0.0-10.0-3.11","xygobjvobv","many_one","0","direct_first","1","rt03rt15","0","24","1","1","3","1","","0","1","0","1711","","","<img src = 'targets/mask.png' width = '100%;'>","75","neg","GS","GSold","2","category2/CS3.png","","targets/32.png","indirect","1","11"
"","html-keyboard-response","187","714348","0.0-10.0-0.12","xygobjvobv","many_one","0","direct_first","1","rt03rt15","0","24","1","1","3","1","","0","1","0","null","","","<div style=""font-size:60px;"">+</div>","null","","","","","","","","","",""
"","html-keyboard-response","188","714449","0.0-10.0-1.12","xygobjvobv","many_one","0","direct_first","1","rt03rt15","0","24","1","1","3","1","","0","1","0","null","","","<img src = 'category4/CS10.png' width = '100%;'>","null","","","","","","","","","",""
"","html-keyboard-response","189","714716","0.0-10.0-2.12","xygobjvobv","many_one","0","direct_first","1","rt03rt15","0","24","1","1","3","1","","0","1","0","null","","","<img src = 'targets/34.png' width = '100%;'>","null","","","","","","","","","",""
"","html-keyboard-response","190","717911","0.0-10.0-3.12","xygobjvobv","many_one","0","direct_first","1","rt03rt15","0","24","1","1","3","1","","0","1","0","3193","","","<img src = 'targets/mask.png' width = '100%;'>","75","neg","CS","CS","4","category4/CS10.png","","targets/34.png","indirect","1","12"
"","html-keyboard-response","191","719416","0.0-10.0-0.13","xygobjvobv","many_one","0","direct_first","1","rt03rt15","0","24","1","1","3","1","","0","1","0","null","","","<div style=""font-size:60px;"">+</div>","null","","","","","","","","","",""
"","html-keyboard-response","192","719516","0.0-10.0-1.13","xygobjvobv","many_one","0","direct_first","1","rt03rt15","0","24","1","1","3","1","","0","1","0","null","","","<img src = 'category3/CS7.png' width = '100%;'>","null","","","","","","","","","",""
"","html-keyboard-response","193","719782","0.0-10.0-2.13","xygobjvobv","many_one","0","direct_first","1","rt03rt15","0","24","1","1","3","1","","0","1","0","null","","","<img src = 'targets/31.png' width = '100%;'>","null","","","","","","","","","",""
"","html-keyboard-response","194","721490","0.0-10.0-3.13","xygobjvobv","many_one","0","direct_first","1","rt03rt15","0","24","1","1","3","1","","0","1","0","1706","","","<img src = 'targets/mask.png' width = '100%;'>","68","pos","CS","CS","3","category3/CS7.png","","targets/31.png","indirect","0","13"
"","html-keyboard-response","195","723014","0.0-10.0-0.14","xygobjvobv","many_one","0","direct_first","1","rt03rt15","0","24","1","1","3","1","","0","1","0","null","","","<div style=""font-size:60px;"">+</div>","null","","","","","","","","","",""
"","html-keyboard-response","196","723115","0.0-10.0-1.14","xygobjvobv","many_one","0","direct_first","1","rt03rt15","0","24","1","1","3","1","","0","1","0","null","","","<img src = 'category3/CS10.png' width = '100%;'>","null","","","","","","","","","",""
"","html-keyboard-response","197","723381","0.0-10.0-2.14","xygobjvobv","many_one","0","direct_first","1","rt03rt15","0","24","1","1","3","1","","0","1","0","null","","","<img src = 'targets/16.png' width = '100%;'>","null","","","","","","","","","",""
"","html-keyboard-response","198","724266","0.0-10.0-3.14","xygobjvobv","many_one","0","direct_first","1","rt03rt15","0","24","1","1","3","1","","0","1","0","883","","","<img src = 'targets/mask.png' width = '100%;'>","75","pos","CS","CS","3","category3/CS10.png","","targets/16.png","indirect","1","14"
"","html-keyboard-response","199","725798","0.0-10.0-0.15","xygobjvobv","many_one","0","direct_first","1","rt03rt15","0","24","1","1","3","1","","0","1","0","null","","","<div style=""font-size:60px;"">+</div>","null","","","","","","","","","",""
"","html-keyboard-response","200","725898","0.0-10.0-1.15","xygobjvobv","many_one","0","direct_first","1","rt03rt15","0","24","1","1","3","1","","0","1","0","null","","","<img src = 'category4/CS9.png' width = '100%;'>","null","","","","","","","","","",""
"","html-keyboard-response","201","726164","0.0-10.0-2.15","xygobjvobv","many_one","0","direct_first","1","rt03rt15","0","24","1","1","3","1","","0","1","0","null","","","<img src = 'targets/15.png' width = '100%;'>","null","","","","","","","","","",""
"","html-keyboard-response","202","727162","0.0-10.0-3.15","xygobjvobv","many_one","0","direct_first","1","rt03rt15","0","24","1","1","3","1","","0","1","0","995","","","<img src = 'targets/mask.png' width = '100%;'>","68","neg","CS","CS","4","category4/CS9.png","","targets/15.png","indirect","0","15"
"","html-keyboard-response","203","728663","0.0-10.0-0.16","xygobjvobv","many_one","0","direct_first","1","rt03rt15","0","24","1","1","3","1","","0","1","0","null","","","<div style=""font-size:60px;"">+</div>","null","","","","","","","","","",""
"","html-keyboard-response","204","728763","0.0-10.0-1.16","xygobjvobv","many_one","0","direct_first","1","rt03rt15","0","24","1","1","3","1","","0","1","0","null","","","<img src = 'category3/CS3.png' width = '100%;'>","null","","","","","","","","","",""
"","html-keyboard-response","205","729031","0.0-10.0-2.16","xygobjvobv","many_one","0","direct_first","1","rt03rt15","0","24","1","1","3","1","","0","1","0","null","","","<img src = 'targets/25.png' width = '100%;'>","null","","","","","","","","","",""
"","html-keyboard-response","206","731002","0.0-10.0-3.16","xygobjvobv","many_one","0","direct_first","1","rt03rt15","0","24","1","1","3","1","","0","1","0","1969","","","<img src = 'targets/mask.png' width = '100%;'>","68","pos","CS","CS","3","category3/CS3.png","","targets/25.png","indirect","0","16"
"","html-keyboard-response","207","732531","0.0-10.0-0.17","xygobjvobv","many_one","0","direct_first","1","rt03rt15","0","24","1","1","3","1","","0","1","0","null","","","<div style=""font-size:60px;"">+</div>","null","","","","","","","","","",""
"","html-keyboard-response","208","732631","0.0-10.0-1.17","xygobjvobv","many_one","0","direct_first","1","rt03rt15","0","24","1","1","3","1","","0","1","0","null","","","<img src = 'category2/CS9.png' width = '100%;'>","null","","","","","","","","","",""
"","html-keyboard-response","209","732898","0.0-10.0-2.17","xygobjvobv","many_one","0","direct_first","1","rt03rt15","0","24","1","1","3","1","","0","1","0","null","","","<img src = 'targets/35.png' width = '100%;'>","null","","","","","","","","","",""
"","html-keyboard-response","210","734761","0.0-10.0-3.17","xygobjvobv","many_one","0","direct_first","1","rt03rt15","0","24","1","1","3","1","","0","1","0","1863","","","<img src = 'targets/mask.png' width = '100%;'>","75","neg","CS","CS","2","category2/CS9.png","","targets/35.png","indirect","1","17"
"","html-keyboard-response","211","736280","0.0-10.0-0.18","xygobjvobv","many_one","0","direct_first","1","rt03rt15","0","24","1","1","3","1","","0","1","0","null","","","<div style=""font-size:60px;"">+</div>","null","","","","","","","","","",""
"","html-keyboard-response","212","736381","0.0-10.0-1.18","xygobjvobv","many_one","0","direct_first","1","rt03rt15","0","24","1","1","3","1","","0","1","0","null","","","<img src = 'category1/CS10.png' width = '100%;'>","null","","","","","","","","","",""
"","html-keyboard-response","213","736647","0.0-10.0-2.18","xygobjvobv","many_one","0","direct_first","1","rt03rt15","0","24","1","1","3","1","","0","1","0","null","","","<img src = 'targets/44.png' width = '100%;'>","null","","","","","","","","","",""
"","html-keyboard-response","214","737978","0.0-10.0-3.18","xygobjvobv","many_one","0","direct_first","1","rt03rt15","0","24","1","1","3","1","","0","1","0","1330","","","<img src = 'targets/mask.png' width = '100%;'>","75","pos","CS","CS","1","category1/CS10.png","","targets/44.png","indirect","1","18"
"","html-keyboard-response","215","739480","0.0-10.0-0.19","xygobjvobv","many_one","0","direct_first","1","rt03rt15","0","24","1","1","3","1","","0","1","0","null","","","<div style=""font-size:60px;"">+</div>","null","","","","","","","","","",""
"","html-keyboard-response","216","739580","0.0-10.0-1.19","xygobjvobv","many_one","0","direct_first","1","rt03rt15","0","24","1","1","3","1","","0","1","0","null","","","<img src = 'category2/CS7.png' width = '100%;'>","null","","","","","","","","","",""
"","html-keyboard-response","217","739846","0.0-10.0-2.19","xygobjvobv","many_one","0","direct_first","1","rt03rt15","0","24","1","1","3","1","","0","1","0","null","","","<img src = 'targets/28.png' width = '100%;'>","null","","","","","","","","","",""
"","html-keyboard-response","218","743036","0.0-10.0-3.19","xygobjvobv","many_one","0","direct_first","1","rt03rt15","0","24","1","1","3","1","","0","1","0","3188","","","<img src = 'targets/mask.png' width = '100%;'>","68","neg","CS","CS","2","category2/CS7.png","","targets/28.png","indirect","0","19"
"","html-keyboard-response","219","744545","0.0-10.0-0.20","xygobjvobv","many_one","0","direct_first","1","rt03rt15","0","24","1","1","3","1","","0","1","0","null","","","<div style=""font-size:60px;"">+</div>","null","","","","","","","","","",""
"","html-keyboard-response","220","744645","0.0-10.0-1.20","xygobjvobv","many_one","0","direct_first","1","rt03rt15","0","24","1","1","3","1","","0","1","0","null","","","<img src = 'category1/CS5.png' width = '100%;'>","null","","","","","","","","","",""
"","html-keyboard-response","221","744913","0.0-10.0-2.20","xygobjvobv","many_one","0","direct_first","1","rt03rt15","0","24","1","1","3","1","","0","1","0","null","","","<img src = 'targets/30.png' width = '100%;'>","null","","","","","","","","","",""
"","html-keyboard-response","222","747282","0.0-10.0-3.20","xygobjvobv","many_one","0","direct_first","1","rt03rt15","0","24","1","1","3","1","","0","1","0","2367","","","<img src = 'targets/mask.png' width = '100%;'>","68","pos","CS","CS","1","category1/CS5.png","","targets/30.png","indirect","0","20"
"","html-keyboard-response","223","748795","0.0-10.0-0.21","xygobjvobv","many_one","0","direct_first","1","rt03rt15","0","24","1","1","3","1","","0","1","0","null","","","<div style=""font-size:60px;"">+</div>","null","","","","","","","","","",""
"","html-keyboard-response","224","748887","0.0-10.0-1.21","xygobjvobv","many_one","0","direct_first","1","rt03rt15","0","24","1","1","3","1","","0","1","0","null","","","<img src = 'category4/CS6.png' width = '100%;'>","null","","","","","","","","","",""
"","html-keyboard-response","225","749154","0.0-10.0-2.21","xygobjvobv","many_one","0","direct_first","1","rt03rt15","0","24","1","1","3","1","","0","1","0","null","","","<img src = 'targets/23.png' width = '100%;'>","null","","","","","","","","","",""
"","html-keyboard-response","226","749933","0.0-10.0-3.21","xygobjvobv","many_one","0","direct_first","1","rt03rt15","0","24","1","1","3","1","","0","1","0","777","","","<img src = 'targets/mask.png' width = '100%;'>","68","neg","CS","CS","4","category4/CS6.png","","targets/23.png","indirect","0","21"
"","html-keyboard-response","227","751445","0.0-10.0-0.22","xygobjvobv","many_one","0","direct_first","1","rt03rt15","0","24","1","1","3","1","","0","1","0","null","","","<div style=""font-size:60px;"">+</div>","null","","","","","","","","","",""
"","html-keyboard-response","228","751545","0.0-10.0-1.22","xygobjvobv","many_one","0","direct_first","1","rt03rt15","0","24","1","1","3","1","","0","1","0","null","","","<img src = 'category3/CS1.png' width = '100%;'>","null","","","","","","","","","",""
"","html-keyboard-response","229","751812","0.0-10.0-2.22","xygobjvobv","many_one","0","direct_first","1","rt03rt15","0","24","1","1","3","1","","0","1","0","null","","","<img src = 'targets/7.png' width = '100%;'>","null","","","","","","","","","",""
"","html-keyboard-response","230","753534","0.0-10.0-3.22","xygobjvobv","many_one","0","direct_first","1","rt03rt15","0","24","1","1","3","1","","0","1","0","1721","","","<img src = 'targets/mask.png' width = '100%;'>","75","pos","GS","GSold","3","category3/CS1.png","","targets/7.png","indirect","1","22"
"","html-keyboard-response","231","755055","0.0-10.0-0.23","xygobjvobv","many_one","0","direct_first","1","rt03rt15","0","24","1","1","3","1","","0","1","0","null","","","<div style=""font-size:60px;"">+</div>","null","","","","","","","","","",""
"","html-keyboard-response","232","755156","0.0-10.0-1.23","xygobjvobv","many_one","0","direct_first","1","rt03rt15","0","24","1","1","3","1","","0","1","0","null","","","<img src = 'category1/CS3.png' width = '100%;'>","null","","","","","","","","","",""
"","html-keyboard-response","233","755420","0.0-10.0-2.23","xygobjvobv","many_one","0","direct_first","1","rt03rt15","0","24","1","1","3","1","","0","1","0","null","","","<img src = 'targets/18.png' width = '100%;'>","null","","","","","","","","","",""
"","html-keyboard-response","234","756967","0.0-10.0-3.23","xygobjvobv","many_one","0","direct_first","1","rt03rt15","0","24","1","1","3","1","","0","1","0","1547","","","<img src = 'targets/mask.png' width = '100%;'>","68","pos","CS","CS","1","category1/CS3.png","","targets/18.png","indirect","0","23"
"","survey-html-form","235","761677","0.0-11.0","xygobjvobv","many_one","0","direct_first","1","rt03rt15","0","24","1","1","3","1","","0","1","0","4204","","{}","","","","","","","","","","","",""
"","html-keyboard-response","236","764694","0.0-12.0-0.0","xygobjvobv","many_one","0","direct_first","1","rt03rt15","0","24","1","1","3","1","","0","1","0","null","","","<div style=""font-size:60px;"">+</div>","null","","","","","","","","","",""
"","html-keyboard-response","237","764793","0.0-12.0-1.0","xygobjvobv","many_one","0","direct_first","1","rt03rt15","0","24","1","1","3","1","","0","1","0","null","","","<img src = 'category1/GS3.png' width = '100%;'>","null","","","","","","","","","",""
"","html-keyboard-response","238","765059","0.0-12.0-2.0","xygobjvobv","many_one","0","direct_first","1","rt03rt15","0","24","1","1","3","1","","0","1","0","null","","","<img src = 'targets/36.png' width = '100%;'>","null","","","","","","","","","",""
"","html-keyboard-response","239","767295","0.0-12.0-3.0","xygobjvobv","many_one","0","direct_first","1","rt03rt15","0","24","1","1","3","1","","0","1","0","2235","","","<img src = 'targets/mask.png' width = '100%;'>","68","pos","GS","GSnew","1","category1/GS3.png","","targets/36.png","indirect","0","24"
"","html-keyboard-response","240","768810","0.0-12.0-0.1","xygobjvobv","many_one","0","direct_first","1","rt03rt15","0","24","1","1","3","1","","0","1","0","null","","","<div style=""font-size:60px;"">+</div>","null","","","","","","","","","",""
"","html-keyboard-response","241","768901","0.0-12.0-1.1","xygobjvobv","many_one","0","direct_first","1","rt03rt15","0","24","1","1","3","1","","0","1","0","null","","","<img src = 'category1/GS2.png' width = '100%;'>","null","","","","","","","","","",""
"","html-keyboard-response","242","769165","0.0-12.0-2.1","xygobjvobv","many_one","0","direct_first","1","rt03rt15","0","24","1","1","3","1","","0","1","0","null","","","<img src = 'targets/12.png' width = '100%;'>","null","","","","","","","","","",""
"","html-keyboard-response","243","771188","0.0-12.0-3.1","xygobjvobv","many_one","0","direct_first","1","rt03rt15","0","24","1","1","3","1","","0","1","0","2023","","","<img src = 'targets/mask.png' width = '100%;'>","75","pos","GS","GSnew","1","category1/GS2.png","","targets/12.png","indirect","1","25"
"","html-keyboard-response","244","772698","0.0-12.0-0.2","xygobjvobv","many_one","0","direct_first","1","rt03rt15","0","24","1","1","3","1","","0","1","0","null","","","<div style=""font-size:60px;"">+</div>","null","","","","","","","","","",""
"","html-keyboard-response","245","772792","0.0-12.0-1.2","xygobjvobv","many_one","0","direct_first","1","rt03rt15","0","24","1","1","3","1","","0","1","0","null","","","<img src = 'category2/GS3.png' width = '100%;'>","null","","","","","","","","","",""
"","html-keyboard-response","246","773055","0.0-12.0-2.2","xygobjvobv","many_one","0","direct_first","1","rt03rt15","0","24","1","1","3","1","","0","1","0","null","","","<img src = 'targets/48.png' width = '100%;'>","null","","","","","","","","","",""
"","html-keyboard-response","247","774942","0.0-12.0-3.2","xygobjvobv","many_one","0","direct_first","1","rt03rt15","0","24","1","1","3","1","","0","1","0","1886","","","<img src = 'targets/mask.png' width = '100%;'>","68","neg","GS","GSnew","2","category2/GS3.png","","targets/48.png","indirect","0","26"
"","html-keyboard-response","248","776459","0.0-12.0-0.3","xygobjvobv","many_one","0","direct_first","1","rt03rt15","0","24","1","1","3","1","","0","1","0","null","","","<div style=""font-size:60px;"">+</div>","null","","","","","","","","","",""
"","html-keyboard-response","249","776563","0.0-12.0-1.3","xygobjvobv","many_one","0","direct_first","1","rt03rt15","0","24","1","1","3","1","","0","1","0","null","","","<img src = 'category4/lin.png' width = '100%;'>","null","","","","","","","","","",""
"","html-keyboard-response","250","776825","0.0-12.0-2.3","xygobjvobv","many_one","0","direct_first","1","rt03rt15","0","24","1","1","3","1","","0","1","0","null","","","<img src = 'targets/24.png' width = '100%;'>","null","","","","","","","","","",""
"","html-keyboard-response","251","778486","0.0-12.0-3.3","xygobjvobv","many_one","0","direct_first","1","rt03rt15","0","24","1","1","3","1","","0","1","0","1660","","","<img src = 'targets/mask.png' width = '100%;'>","68","neg","GS","abstract","4","category4/lin.png","","targets/24.png","indirect","0","27"
"","html-keyboard-response","252","779991","0.0-12.0-0.4","xygobjvobv","many_one","0","direct_first","1","rt03rt15","0","24","1","1","3","1","","0","1","0","null","","","<div style=""font-size:60px;"">+</div>","null","","","","","","","","","",""
"","html-keyboard-response","253","780085","0.0-12.0-1.4","xygobjvobv","many_one","0","direct_first","1","rt03rt15","0","24","1","1","3","1","","0","1","0","null","","","<img src = 'category4/CS3.png' width = '100%;'>","null","","","","","","","","","",""
"","html-keyboard-response","254","780349","0.0-12.0-2.4","xygobjvobv","many_one","0","direct_first","1","rt03rt15","0","24","1","1","3","1","","0","1","0","null","","","<img src = 'targets/37.png' width = '100%;'>","null","","","","","","","","","",""
"","html-keyboard-response","255","782630","0.0-12.0-3.4","xygobjvobv","many_one","0","direct_first","1","rt03rt15","0","24","1","1","3","1","","0","1","0","2279","","","<img src = 'targets/mask.png' width = '100%;'>","68","neg","GS","GSold","4","category4/CS3.png","","targets/37.png","indirect","0","28"
"","html-keyboard-response","256","784142","0.0-12.0-0.5","xygobjvobv","many_one","0","direct_first","1","rt03rt15","0","24","1","1","3","1","","0","1","0","null","","","<div style=""font-size:60px;"">+</div>","null","","","","","","","","","",""
"","html-keyboard-response","257","784232","0.0-12.0-1.5","xygobjvobv","many_one","0","direct_first","1","rt03rt15","0","24","1","1","3","1","","0","1","0","null","","","<img src = 'category1/ma.png' width = '100%;'>","null","","","","","","","","","",""
"","html-keyboard-response","258","784492","0.0-12.0-2.5","xygobjvobv","many_one","0","direct_first","1","rt03rt15","0","24","1","1","3","1","","0","1","0","null","","","<img src = 'targets/2.png' width = '100%;'>","null","","","","","","","","","",""
"","html-keyboard-response","259","786378","0.0-12.0-3.5","xygobjvobv","many_one","0","direct_first","1","rt03rt15","0","24","1","1","3","1","","0","1","0","1885","","","<img src = 'targets/mask.png' width = '100%;'>","68","pos","GS","abstract","1","category1/ma.png","","targets/2.png","indirect","0","29"
"","html-keyboard-response","260","787890","0.0-12.0-0.6","xygobjvobv","many_one","0","direct_first","1","rt03rt15","0","24","1","1","3","1","","0","1","0","null","","","<div style=""font-size:60px;"">+</div>","null","","","","","","","","","",""
"","html-keyboard-response","261","787988","0.0-12.0-1.6","xygobjvobv","many_one","0","direct_first","1","rt03rt15","0","24","1","1","3","1","","0","1","0","null","","","<img src = 'category4/GS2.png' width = '100%;'>","null","","","","","","","","","",""
"","html-keyboard-response","262","788257","0.0-12.0-2.6","xygobjvobv","many_one","0","direct_first","1","rt03rt15","0","24","1","1","3","1","","0","1","0","null","","","<img src = 'targets/46.png' width = '100%;'>","null","","","","","","","","","",""
"","html-keyboard-response","263","790026","0.0-12.0-3.6","xygobjvobv","many_one","0","direct_first","1","rt03rt15","0","24","1","1","3","1","","0","1","0","1768","","","<img src = 'targets/mask.png' width = '100%;'>","75","neg","GS","GSnew","4","category4/GS2.png","","targets/46.png","indirect","1","30"
"","html-keyboard-response","264","791534","0.0-12.0-0.7","xygobjvobv","many_one","0","direct_first","1","rt03rt15","0","24","1","1","3","1","","0","1","0","null","","","<div style=""font-size:60px;"">+</div>","null","","","","","","","","","",""
"","html-keyboard-response","265","791635","0.0-12.0-1.7","xygobjvobv","many_one","0","direct_first","1","rt03rt15","0","24","1","1","3","1","","0","1","0","null","","","<img src = 'category1/CS9.png' width = '100%;'>","null","","","","","","","","","",""
"","html-keyboard-response","266","791901","0.0-12.0-2.7","xygobjvobv","many_one","0","direct_first","1","rt03rt15","0","24","1","1","3","1","","0","1","0","null","","","<img src = 'targets/29.png' width = '100%;'>","null","","","","","","","","","",""
"","html-keyboard-response","267","792898","0.0-12.0-3.7","xygobjvobv","many_one","0","direct_first","1","rt03rt15","0","24","1","1","3","1","","0","1","0","997","","","<img src = 'targets/mask.png' width = '100%;'>","68","pos","GS","GSold","1","category1/CS9.png","","targets/29.png","indirect","0","31"
"","html-keyboard-response","268","794407","0.0-12.0-0.8","xygobjvobv","many_one","0","direct_first","1","rt03rt15","0","24","1","1","3","1","","0","1","0","null","","","<div style=""font-size:60px;"">+</div>","null","","","","","","","","","",""
"","html-keyboard-response","269","794500","0.0-12.0-1.8","xygobjvobv","many_one","0","direct_first","1","rt03rt15","0","24","1","1","3","1","","0","1","0","null","","","<img src = 'category4/CS7.png' width = '100%;'>","null","","","","","","","","","",""
"","html-keyboard-response","270","794773","0.0-12.0-2.8","xygobjvobv","many_one","0","direct_first","1","rt03rt15","0","24","1","1","3","1","","0","1","0","null","","","<img src = 'targets/5.png' width = '100%;'>","null","","","","","","","","","",""
"","html-keyboard-response","271","796066","0.0-12.0-3.8","xygobjvobv","many_one","0","direct_first","1","rt03rt15","0","24","1","1","3","1","","0","1","0","1292","","","<img src = 'targets/mask.png' width = '100%;'>","68","neg","GS","GSold","4","category4/CS7.png","","targets/5.png","indirect","0","32"
"","html-keyboard-response","272","797579","0.0-12.0-0.9","xygobjvobv","many_one","0","direct_first","1","rt03rt15","0","24","1","1","3","1","","0","1","0","null","","","<div style=""font-size:60px;"">+</div>","null","","","","","","","","","",""
"","html-keyboard-response","273","797670","0.0-12.0-1.9","xygobjvobv","many_one","0","direct_first","1","rt03rt15","0","24","1","1","3","1","","0","1","0","null","","","<img src = 'category1/CS1.png' width = '100%;'>","null","","","","","","","","","",""
"","html-keyboard-response","274","797934","0.0-12.0-2.9","xygobjvobv","many_one","0","direct_first","1","rt03rt15","0","24","1","1","3","1","","0","1","0","null","","","<img src = 'targets/19.png' width = '100%;'>","null","","","","","","","","","",""
"","html-keyboard-response","275","798739","0.0-12.0-3.9","xygobjvobv","many_one","0","direct_first","1","rt03rt15","0","24","1","1","3","1","","0","1","0","804","","","<img src = 'targets/mask.png' width = '100%;'>","75","pos","GS","GSold","1","category1/CS1.png","","targets/19.png","indirect","1","33"
"","html-keyboard-response","276","800258","0.0-12.0-0.10","xygobjvobv","many_one","0","direct_first","1","rt03rt15","0","24","1","1","3","1","","0","1","0","null","","","<div style=""font-size:60px;"">+</div>","null","","","","","","","","","",""
"","html-keyboard-response","277","800352","0.0-12.0-1.10","xygobjvobv","many_one","0","direct_first","1","rt03rt15","0","24","1","1","3","1","","0","1","0","null","","","<img src = 'category4/GS3.png' width = '100%;'>","null","","","","","","","","","",""
"","html-keyboard-response","278","800606","0.0-12.0-2.10","xygobjvobv","many_one","0","direct_first","1","rt03rt15","0","24","1","1","3","1","","0","1","0","null","","","<img src = 'targets/22.png' width = '100%;'>","null","","","","","","","","","",""
"","html-keyboard-response","279","801330","0.0-12.0-3.10","xygobjvobv","many_one","0","direct_first","1","rt03rt15","0","24","1","1","3","1","","0","1","0","723","","","<img src = 'targets/mask.png' width = '100%;'>","75","neg","GS","GSnew","4","category4/GS3.png","","targets/22.png","indirect","1","34"
"","html-keyboard-response","280","802838","0.0-12.0-0.11","xygobjvobv","many_one","0","direct_first","1","rt03rt15","0","24","1","1","3","1","","0","1","0","null","","","<div style=""font-size:60px;"">+</div>","null","","","","","","","","","",""
"","html-keyboard-response","281","802932","0.0-12.0-1.11","xygobjvobv","many_one","0","direct_first","1","rt03rt15","0","24","1","1","3","1","","0","1","0","null","","","<img src = 'category3/CS9.png' width = '100%;'>","null","","","","","","","","","",""
"","html-keyboard-response","282","803197","0.0-12.0-2.11","xygobjvobv","many_one","0","direct_first","1","rt03rt15","0","24","1","1","3","1","","0","1","0","null","","","<img src = 'targets/17.png' width = '100%;'>","null","","","","","","","","","",""
"","html-keyboard-response","283","804713","0.0-12.0-3.11","xygobjvobv","many_one","0","direct_first","1","rt03rt15","0","24","1","1","3","1","","0","1","0","1517","","","<img src = 'targets/mask.png' width = '100%;'>","75","pos","GS","GSold","3","category3/CS9.png","","targets/17.png","indirect","1","35"
"","html-keyboard-response","284","806221","0.0-12.0-0.12","xygobjvobv","many_one","0","direct_first","1","rt03rt15","0","24","1","1","3","1","","0","1","0","null","","","<div style=""font-size:60px;"">+</div>","null","","","","","","","","","",""
"","html-keyboard-response","285","806322","0.0-12.0-1.12","xygobjvobv","many_one","0","direct_first","1","rt03rt15","0","24","1","1","3","1","","0","1","0","null","","","<img src = 'category3/GS3.png' width = '100%;'>","null","","","","","","","","","",""
"","html-keyboard-response","286","806587","0.0-12.0-2.12","xygobjvobv","many_one","0","direct_first","1","rt03rt15","0","24","1","1","3","1","","0","1","0","null","","","<img src = 'targets/39.png' width = '100%;'>","null","","","","","","","","","",""
"","html-keyboard-response","287","807683","0.0-12.0-3.12","xygobjvobv","many_one","0","direct_first","1","rt03rt15","0","24","1","1","3","1","","0","1","0","1094","","","<img src = 'targets/mask.png' width = '100%;'>","68","pos","GS","GSnew","3","category3/GS3.png","","targets/39.png","indirect","0","36"
"","html-keyboard-response","288","809188","0.0-12.0-0.13","xygobjvobv","many_one","0","direct_first","1","rt03rt15","0","24","1","1","3","1","","0","1","0","null","","","<div style=""font-size:60px;"">+</div>","null","","","","","","","","","",""
"","html-keyboard-response","289","809288","0.0-12.0-1.13","xygobjvobv","many_one","0","direct_first","1","rt03rt15","0","24","1","1","3","1","","0","1","0","null","","","<img src = 'category3/GS2.png' width = '100%;'>","null","","","","","","","","","",""
"","html-keyboard-response","290","809555","0.0-12.0-2.13","xygobjvobv","many_one","0","direct_first","1","rt03rt15","0","24","1","1","3","1","","0","1","0","null","","","<img src = 'targets/38.png' width = '100%;'>","null","","","","","","","","","",""
"","html-keyboard-response","291","810170","0.0-12.0-3.13","xygobjvobv","many_one","0","direct_first","1","rt03rt15","0","24","1","1","3","1","","0","1","0","614","","","<img src = 'targets/mask.png' width = '100%;'>","68","pos","GS","GSnew","3","category3/GS2.png","","targets/38.png","indirect","0","37"
"","html-keyboard-response","292","811679","0.0-12.0-0.14","xygobjvobv","many_one","0","direct_first","1","rt03rt15","0","24","1","1","3","1","","0","1","0","null","","","<div style=""font-size:60px;"">+</div>","null","","","","","","","","","",""
"","html-keyboard-response","293","811780","0.0-12.0-1.14","xygobjvobv","many_one","0","direct_first","1","rt03rt15","0","24","1","1","3","1","","0","1","0","null","","","<img src = 'category4/GS1.png' width = '100%;'>","null","","","","","","","","","",""
"","html-keyboard-response","294","812045","0.0-12.0-2.14","xygobjvobv","many_one","0","direct_first","1","rt03rt15","0","24","1","1","3","1","","0","1","0","null","","","<img src = 'targets/21.png' width = '100%;'>","null","","","","","","","","","",""
"","html-keyboard-response","295","813034","0.0-12.0-3.14","xygobjvobv","many_one","0","direct_first","1","rt03rt15","0","24","1","1","3","1","","0","1","0","988","","","<img src = 'targets/mask.png' width = '100%;'>","68","neg","GS","GSnew","4","category4/GS1.png","","targets/21.png","indirect","0","38"
"","html-keyboard-response","296","814553","0.0-12.0-0.15","xygobjvobv","many_one","0","direct_first","1","rt03rt15","0","24","1","1","3","1","","0","1","0","null","","","<div style=""font-size:60px;"">+</div>","null","","","","","","","","","",""
"","html-keyboard-response","297","814653","0.0-12.0-1.15","xygobjvobv","many_one","0","direct_first","1","rt03rt15","0","24","1","1","3","1","","0","1","0","null","","","<img src = 'category2/GS2.png' width = '100%;'>","null","","","","","","","","","",""
"","html-keyboard-response","298","814919","0.0-12.0-2.15","xygobjvobv","many_one","0","direct_first","1","rt03rt15","0","24","1","1","3","1","","0","1","0","null","","","<img src = 'targets/20.png' width = '100%;'>","null","","","","","","","","","",""
"","html-keyboard-response","299","816166","0.0-12.0-3.15","xygobjvobv","many_one","0","direct_first","1","rt03rt15","0","24","1","1","3","1","","0","1","0","1244","","","<img src = 'targets/mask.png' width = '100%;'>","75","neg","GS","GSnew","2","category2/GS2.png","","targets/20.png","indirect","1","39"
"","html-keyboard-response","300","817670","0.0-12.0-0.16","xygobjvobv","many_one","0","direct_first","1","rt03rt15","0","24","1","1","3","1","","0","1","0","null","","","<div style=""font-size:60px;"">+</div>","null","","","","","","","","","",""
"","html-keyboard-response","301","817770","0.0-12.0-1.16","xygobjvobv","many_one","0","direct_first","1","rt03rt15","0","24","1","1","3","1","","0","1","0","null","","","<img src = 'category2/GS1.png' width = '100%;'>","null","","","","","","","","","",""
"","html-keyboard-response","302","818036","0.0-12.0-2.16","xygobjvobv","many_one","0","direct_first","1","rt03rt15","0","24","1","1","3","1","","0","1","0","null","","","<img src = 'targets/9.png' width = '100%;'>","null","","","","","","","","","",""
"","html-keyboard-response","303","818894","0.0-12.0-3.16","xygobjvobv","many_one","0","direct_first","1","rt03rt15","0","24","1","1","3","1","","0","1","0","857","","","<img src = 'targets/mask.png' width = '100%;'>","75","neg","GS","GSnew","2","category2/GS1.png","","targets/9.png","indirect","1","40"
"","html-keyboard-response","304","820403","0.0-12.0-0.17","xygobjvobv","many_one","0","direct_first","1","rt03rt15","0","24","1","1","3","1","","0","1","0","null","","","<div style=""font-size:60px;"">+</div>","null","","","","","","","","","",""
"","html-keyboard-response","305","820503","0.0-12.0-1.17","xygobjvobv","many_one","0","direct_first","1","rt03rt15","0","24","1","1","3","1","","0","1","0","null","","","<img src = 'category2/men.png' width = '100%;'>","null","","","","","","","","","",""
"","html-keyboard-response","306","820769","0.0-12.0-2.17","xygobjvobv","many_one","0","direct_first","1","rt03rt15","0","24","1","1","3","1","","0","1","0","null","","","<img src = 'targets/40.png' width = '100%;'>","null","","","","","","","","","",""
"","html-keyboard-response","307","821814","0.0-12.0-3.17","xygobjvobv","many_one","0","direct_first","1","rt03rt15","0","24","1","1","3","1","","0","1","0","1045","","","<img src = 'targets/mask.png' width = '100%;'>","68","neg","GS","abstract","2","category2/men.png","","targets/40.png","indirect","0","41"
"","html-keyboard-response","308","823319","0.0-12.0-0.18","xygobjvobv","many_one","0","direct_first","1","rt03rt15","0","24","1","1","3","1","","0","1","0","null","","","<div style=""font-size:60px;"">+</div>","null","","","","","","","","","",""
"","html-keyboard-response","309","823419","0.0-12.0-1.18","xygobjvobv","many_one","0","direct_first","1","rt03rt15","0","24","1","1","3","1","","0","1","0","null","","","<img src = 'category3/GS1.png' width = '100%;'>","null","","","","","","","","","",""
"","html-keyboard-response","310","823686","0.0-12.0-2.18","xygobjvobv","many_one","0","direct_first","1","rt03rt15","0","24","1","1","3","1","","0","1","0","null","","","<img src = 'targets/4.png' width = '100%;'>","null","","","","","","","","","",""
"","html-keyboard-response","311","824701","0.0-12.0-3.18","xygobjvobv","many_one","0","direct_first","1","rt03rt15","0","24","1","1","3","1","","0","1","0","1015","","","<img src = 'targets/mask.png' width = '100%;'>","68","pos","GS","GSnew","3","category3/GS1.png","","targets/4.png","indirect","0","42"
"","html-keyboard-response","312","826218","0.0-12.0-0.19","xygobjvobv","many_one","0","direct_first","1","rt03rt15","0","24","1","1","3","1","","0","1","0","null","","","<div style=""font-size:60px;"">+</div>","null","","","","","","","","","",""
"","html-keyboard-response","313","826318","0.0-12.0-1.19","xygobjvobv","many_one","0","direct_first","1","rt03rt15","0","24","1","1","3","1","","0","1","0","null","","","<img src = 'category4/CS8.png' width = '100%;'>","null","","","","","","","","","",""
"","html-keyboard-response","314","826585","0.0-12.0-2.19","xygobjvobv","many_one","0","direct_first","1","rt03rt15","0","24","1","1","3","1","","0","1","0","null","","","<img src = 'targets/33.png' width = '100%;'>","null","","","","","","","","","",""
"","html-keyboard-response","315","828342","0.0-12.0-3.19","xygobjvobv","many_one","0","direct_first","1","rt03rt15","0","24","1","1","3","1","","0","1","0","1754","","","<img src = 'targets/mask.png' width = '100%;'>","68","neg","GS","GSold","4","category4/CS8.png","","targets/33.png","indirect","0","43"
"","html-keyboard-response","316","829852","0.0-12.0-0.20","xygobjvobv","many_one","0","direct_first","1","rt03rt15","0","24","1","1","3","1","","0","1","0","null","","","<div style=""font-size:60px;"">+</div>","null","","","","","","","","","",""
"","html-keyboard-response","317","829952","0.0-12.0-1.20","xygobjvobv","many_one","0","direct_first","1","rt03rt15","0","24","1","1","3","1","","0","1","0","null","","","<img src = 'category1/GS1.png' width = '100%;'>","null","","","","","","","","","",""
"","html-keyboard-response","318","830218","0.0-12.0-2.20","xygobjvobv","many_one","0","direct_first","1","rt03rt15","0","24","1","1","3","1","","0","1","0","null","","","<img src = 'targets/11.png' width = '100%;'>","null","","","","","","","","","",""
"","html-keyboard-response","319","831222","0.0-12.0-3.20","xygobjvobv","many_one","0","direct_first","1","rt03rt15","0","24","1","1","3","1","","0","1","0","1002","","","<img src = 'targets/mask.png' width = '100%;'>","75","pos","GS","GSnew","1","category1/GS1.png","","targets/11.png","indirect","1","44"
"","html-keyboard-response","320","832735","0.0-12.0-0.21","xygobjvobv","many_one","0","direct_first","1","rt03rt15","0","24","1","1","3","1","","0","1","0","null","","","<div style=""font-size:60px;"">+</div>","null","","","","","","","","","",""
"","html-keyboard-response","321","832833","0.0-12.0-1.21","xygobjvobv","many_one","0","direct_first","1","rt03rt15","0","24","1","1","3","1","","0","1","0","null","","","<img src = 'category3/CS6.png' width = '100%;'>","null","","","","","","","","","",""
"","html-keyboard-response","322","833101","0.0-12.0-2.21","xygobjvobv","many_one","0","direct_first","1","rt03rt15","0","24","1","1","3","1","","0","1","0","null","","","<img src = 'targets/1.png' width = '100%;'>","null","","","","","","","","","",""
"","html-keyboard-response","323","834574","0.0-12.0-3.21","xygobjvobv","many_one","0","direct_first","1","rt03rt15","0","24","1","1","3","1","","0","1","0","1473","","","<img src = 'targets/mask.png' width = '100%;'>","75","pos","GS","GSold","3","category3/CS6.png","","targets/1.png","indirect","1","45"
"","html-keyboard-response","324","836083","0.0-12.0-0.22","xygobjvobv","many_one","0","direct_first","1","rt03rt15","0","24","1","1","3","1","","0","1","0","null","","","<div style=""font-size:60px;"">+</div>","null","","","","","","","","","",""
"","html-keyboard-response","325","836184","0.0-12.0-1.22","xygobjvobv","many_one","0","direct_first","1","rt03rt15","0","24","1","1","3","1","","0","1","0","null","","","<img src = 'category1/CS4.png' width = '100%;'>","null","","","","","","","","","",""
"","html-keyboard-response","326","836450","0.0-12.0-2.22","xygobjvobv","many_one","0","direct_first","1","rt03rt15","0","24","1","1","3","1","","0","1","0","null","","","<img src = 'targets/10.png' width = '100%;'>","null","","","","","","","","","",""
"","html-keyboard-response","327","837295","0.0-12.0-3.22","xygobjvobv","many_one","0","direct_first","1","rt03rt15","0","24","1","1","3","1","","0","1","0","844","","","<img src = 'targets/mask.png' width = '100%;'>","68","pos","GS","GSold","1","category1/CS4.png","","targets/10.png","indirect","0","46"
"","html-keyboard-response","328","838801","0.0-12.0-0.23","xygobjvobv","many_one","0","direct_first","1","rt03rt15","0","24","1","1","3","1","","0","1","0","null","","","<div style=""font-size:60px;"">+</div>","null","","","","","","","","","",""
"","html-keyboard-response","329","838900","0.0-12.0-1.23","xygobjvobv","many_one","0","direct_first","1","rt03rt15","0","24","1","1","3","1","","0","1","0","null","","","<img src = 'category3/wang.png' width = '100%;'>","null","","","","","","","","","",""
"","html-keyboard-response","330","839168","0.0-12.0-2.23","xygobjvobv","many_one","0","direct_first","1","rt03rt15","0","24","1","1","3","1","","0","1","0","null","","","<img src = 'targets/3.png' width = '100%;'>","null","","","","","","","","","",""
"","html-keyboard-response","331","840446","0.0-12.0-3.23","xygobjvobv","many_one","0","direct_first","1","rt03rt15","0","24","1","1","3","1","","0","1","0","1278","","","<img src = 'targets/mask.png' width = '100%;'>","68","pos","GS","abstract","3","category3/wang.png","","targets/3.png","indirect","0","47"
"","survey-html-form","332","851337","0.0-13.0","xygobjvobv","many_one","0","direct_first","1","rt03rt15","0","24","1","1","3","1","","0","1","0","10388","","{}","","","","","","","","","","","",""
