"success","trial_type","trial_index","time_elapsed","internal_node_id","subject","condition","condition_code","measure","measure_code","codeword","gender","age","education","chinese","fach","handedness","comment","hinschauen","ablenkung","gewissenhaft","rt","url","responses","stimulus","key_press","val","type","type_specific","category","cs_selected","response","target","task","indirect","nr_pres"
"true","fullscreen","0","710124","0.0-0.0","7ljncbzlhh","one_one","1","direct_first","1","ss06an10","0","20","1","1","3","1","","0","1","0","","","","","","","","","","","","","","",""
"","external-html","1","816202","0.0-1.0","7ljncbzlhh","one_one","1","direct_first","1","ss06an10","0","20","1","1","3","1","","0","1","0","105986","text/information.html","","","","","","","","","","","","",""
"","external-html","2","827356","0.0-2.0","7ljncbzlhh","one_one","1","direct_first","1","ss06an10","0","20","1","1","3","1","","0","1","0","11066","text/consent.html","","","","","","","","","","","","",""
"","survey-html-form","3","954389","0.0-3.0","7ljncbzlhh","one_one","1","direct_first","1","ss06an10","0","20","1","1","3","1","","0","1","0","127029","","{""codeword_enter"":""ss06an10""}","","","","","","","","","","","",""
"","survey-html-form","4","983157","0.0-4.0","7ljncbzlhh","one_one","1","direct_first","1","ss06an10","0","20","1","1","3","1","","0","1","0","28765","","{""age"":""20"",""education"":""1"",""subject"":""3"",""gender"":""0"",""handedness"":""1"",""chinese"":""1""}","","","","","","","","","","","",""
"","survey-html-form","5","1011106","0.0-5.0","7ljncbzlhh","one_one","1","direct_first","1","ss06an10","0","20","1","1","3","1","","0","1","0","27949","","{}","","","","","","","","","","","",""
"","html-keyboard-response","6","1015111","0.0-6.0-0.0-0.0","7ljncbzlhh","one_one","1","direct_first","1","ss06an10","0","20","1","1","3","1","","0","1","0","null","","","<div class = 'row'><div class = 'column'><img src = 'uspos/2057.bmp' width = '100%;'></div><div class = 'column'><img src = 'category4/CS2.png' width = '70%;'></div></div>","null","pos","CS","CS","4","category4/CS2.png","","","","",""
"","html-keyboard-response","7","1017616","0.0-6.0-0.0-0.1","7ljncbzlhh","one_one","1","direct_first","1","ss06an10","0","20","1","1","3","1","","0","1","0","null","","","<div class = 'row'><div class = 'column'><img src = 'uspos/1440.bmp' width = '100%;'></div><div class = 'column'><img src = 'category2/CS6.png' width = '70%;'></div></div>","null","pos","CS","CS","2","category2/CS6.png","","","","",""
"","html-keyboard-response","8","1020127","0.0-6.0-0.0-0.2","7ljncbzlhh","one_one","1","direct_first","1","ss06an10","0","20","1","1","3","1","","0","1","0","null","","","<div class = 'row'><div class = 'column'><img src = 'uspos/2057.bmp' width = '100%;'></div><div class = 'column'><img src = 'category4/CS2.png' width = '70%;'></div></div>","null","pos","CS","CS","4","category4/CS2.png","","","","",""
"","html-keyboard-response","9","1022631","0.0-6.0-0.0-0.3","7ljncbzlhh","one_one","1","direct_first","1","ss06an10","0","20","1","1","3","1","","0","1","0","null","","","<div class = 'row'><div class = 'column'><img src = 'uspos/1440.bmp' width = '100%;'></div><div class = 'column'><img src = 'category2/CS6.png' width = '70%;'></div></div>","null","pos","CS","CS","2","category2/CS6.png","","","","",""
"","html-keyboard-response","10","1025136","0.0-6.0-0.0-0.4","7ljncbzlhh","one_one","1","direct_first","1","ss06an10","0","20","1","1","3","1","","0","1","0","null","","","<div class = 'row'><div class = 'column'><img src = 'category4/CS2.png' width = '70%;'></div><div class = 'column'><img src = 'uspos/2057.bmp' width = '100%;'></div></div>","null","pos","CS","CS","4","category4/CS2.png","","","","",""
"","html-keyboard-response","11","1027644","0.0-6.0-0.0-0.5","7ljncbzlhh","one_one","1","direct_first","1","ss06an10","0","20","1","1","3","1","","0","1","0","null","","","<div class = 'row'><div class = 'column'><img src = 'category3/CS4.png' width = '70%;'></div><div class = 'column'><img src = 'usneg/9415.bmp' width = '100%;'></div></div>","null","neg","CS","CS","3","category3/CS4.png","","","","",""
"","html-keyboard-response","12","1030154","0.0-6.0-0.0-0.6","7ljncbzlhh","one_one","1","direct_first","1","ss06an10","0","20","1","1","3","1","","0","1","0","null","","","<div class = 'row'><div class = 'column'><img src = 'uspos/1440.bmp' width = '100%;'></div><div class = 'column'><img src = 'category2/CS6.png' width = '70%;'></div></div>","null","pos","CS","CS","2","category2/CS6.png","","","","",""
"","html-keyboard-response","13","1032665","0.0-6.0-0.0-0.7","7ljncbzlhh","one_one","1","direct_first","1","ss06an10","0","20","1","1","3","1","","0","1","0","null","","","<div class = 'row'><div class = 'column'><img src = 'usneg/9220.bmp' width = '100%;'></div><div class = 'column'><img src = 'category1/CS10.png' width = '70%;'></div></div>","null","neg","CS","CS","1","category1/CS10.png","","","","",""
"","html-keyboard-response","14","1035175","0.0-6.0-0.0-0.8","7ljncbzlhh","one_one","1","direct_first","1","ss06an10","0","20","1","1","3","1","","0","1","0","null","","","<div class = 'row'><div class = 'column'><img src = 'category3/CS4.png' width = '70%;'></div><div class = 'column'><img src = 'usneg/9415.bmp' width = '100%;'></div></div>","null","neg","CS","CS","3","category3/CS4.png","","","","",""
"","html-keyboard-response","15","1037686","0.0-6.0-0.0-0.9","7ljncbzlhh","one_one","1","direct_first","1","ss06an10","0","20","1","1","3","1","","0","1","0","null","","","<div class = 'row'><div class = 'column'><img src = 'category4/CS2.png' width = '70%;'></div><div class = 'column'><img src = 'uspos/2057.bmp' width = '100%;'></div></div>","null","pos","CS","CS","4","category4/CS2.png","","","","",""
"","html-keyboard-response","16","1040198","0.0-6.0-0.0-0.10","7ljncbzlhh","one_one","1","direct_first","1","ss06an10","0","20","1","1","3","1","","0","1","0","null","","","<div class = 'row'><div class = 'column'><img src = 'usneg/9415.bmp' width = '100%;'></div><div class = 'column'><img src = 'category3/CS4.png' width = '70%;'></div></div>","null","neg","CS","CS","3","category3/CS4.png","","","","",""
"","html-keyboard-response","17","1042702","0.0-6.0-0.0-0.11","7ljncbzlhh","one_one","1","direct_first","1","ss06an10","0","20","1","1","3","1","","0","1","0","null","","","<div class = 'row'><div class = 'column'><img src = 'usneg/9220.bmp' width = '100%;'></div><div class = 'column'><img src = 'category1/CS10.png' width = '70%;'></div></div>","null","neg","CS","CS","1","category1/CS10.png","","","","",""
"","html-keyboard-response","18","1045207","0.0-6.0-0.0-0.12","7ljncbzlhh","one_one","1","direct_first","1","ss06an10","0","20","1","1","3","1","","0","1","0","null","","","<div class = 'row'><div class = 'column'><img src = 'category3/CS4.png' width = '70%;'></div><div class = 'column'><img src = 'usneg/9415.bmp' width = '100%;'></div></div>","null","neg","CS","CS","3","category3/CS4.png","","","","",""
"","html-keyboard-response","19","1047710","0.0-6.0-0.0-0.13","7ljncbzlhh","one_one","1","direct_first","1","ss06an10","0","20","1","1","3","1","","0","1","0","null","","","<div class = 'row'><div class = 'column'><img src = 'category1/CS10.png' width = '70%;'></div><div class = 'column'><img src = 'usneg/9220.bmp' width = '100%;'></div></div>","null","neg","CS","CS","1","category1/CS10.png","","","","",""
"","html-keyboard-response","20","1050222","0.0-6.0-0.0-0.14","7ljncbzlhh","one_one","1","direct_first","1","ss06an10","0","20","1","1","3","1","","0","1","0","null","","","<div class = 'row'><div class = 'column'><img src = 'category4/CS2.png' width = '70%;'></div><div class = 'column'><img src = 'uspos/2057.bmp' width = '100%;'></div></div>","null","pos","CS","CS","4","category4/CS2.png","","","","",""
"","html-keyboard-response","21","1052732","0.0-6.0-0.0-0.15","7ljncbzlhh","one_one","1","direct_first","1","ss06an10","0","20","1","1","3","1","","0","1","0","null","","","<div class = 'row'><div class = 'column'><img src = 'uspos/1440.bmp' width = '100%;'></div><div class = 'column'><img src = 'category2/CS6.png' width = '70%;'></div></div>","null","pos","CS","CS","2","category2/CS6.png","","","","",""
"","html-keyboard-response","22","1055241","0.0-6.0-0.0-0.16","7ljncbzlhh","one_one","1","direct_first","1","ss06an10","0","20","1","1","3","1","","0","1","0","null","","","<div class = 'row'><div class = 'column'><img src = 'category3/CS4.png' width = '70%;'></div><div class = 'column'><img src = 'usneg/9415.bmp' width = '100%;'></div></div>","null","neg","CS","CS","3","category3/CS4.png","","","","",""
"","html-keyboard-response","23","1057746","0.0-6.0-0.0-0.17","7ljncbzlhh","one_one","1","direct_first","1","ss06an10","0","20","1","1","3","1","","0","1","0","null","","","<div class = 'row'><div class = 'column'><img src = 'usneg/9220.bmp' width = '100%;'></div><div class = 'column'><img src = 'category1/CS10.png' width = '70%;'></div></div>","null","neg","CS","CS","1","category1/CS10.png","","","","",""
"","html-keyboard-response","24","1060248","0.0-6.0-0.0-0.18","7ljncbzlhh","one_one","1","direct_first","1","ss06an10","0","20","1","1","3","1","","0","1","0","null","","","<div class = 'row'><div class = 'column'><img src = 'category2/CS6.png' width = '70%;'></div><div class = 'column'><img src = 'uspos/1440.bmp' width = '100%;'></div></div>","null","pos","CS","CS","2","category2/CS6.png","","","","",""
"","html-keyboard-response","25","1062752","0.0-6.0-0.0-0.19","7ljncbzlhh","one_one","1","direct_first","1","ss06an10","0","20","1","1","3","1","","0","1","0","null","","","<div class = 'row'><div class = 'column'><img src = 'usneg/9220.bmp' width = '100%;'></div><div class = 'column'><img src = 'category1/CS10.png' width = '70%;'></div></div>","null","neg","CS","CS","1","category1/CS10.png","","","","",""
"","survey-html-form","26","1071143","0.0-6.0-1.0","7ljncbzlhh","one_one","1","direct_first","1","ss06an10","0","20","1","1","3","1","","0","1","0","7889","","{}","","","","","","","","","","","",""
"","html-keyboard-response","27","1075149","0.0-6.0-2.0-0.0","7ljncbzlhh","one_one","1","direct_first","1","ss06an10","0","20","1","1","3","1","","0","1","0","null","","","<div class = 'row'><div class = 'column'><img src = 'category3/CS4.png' width = '70%;'></div><div class = 'column'><img src = 'usneg/9415.bmp' width = '100%;'></div></div>","null","neg","CS","CS","3","category3/CS4.png","","","","",""
"","html-keyboard-response","28","1077657","0.0-6.0-2.0-0.1","7ljncbzlhh","one_one","1","direct_first","1","ss06an10","0","20","1","1","3","1","","0","1","0","null","","","<div class = 'row'><div class = 'column'><img src = 'category4/CS2.png' width = '70%;'></div><div class = 'column'><img src = 'uspos/2057.bmp' width = '100%;'></div></div>","null","pos","CS","CS","4","category4/CS2.png","","","","",""
"","html-keyboard-response","29","1080163","0.0-6.0-2.0-0.2","7ljncbzlhh","one_one","1","direct_first","1","ss06an10","0","20","1","1","3","1","","0","1","0","null","","","<div class = 'row'><div class = 'column'><img src = 'category3/CS4.png' width = '70%;'></div><div class = 'column'><img src = 'usneg/9415.bmp' width = '100%;'></div></div>","null","neg","CS","CS","3","category3/CS4.png","","","","",""
"","html-keyboard-response","30","1082674","0.0-6.0-2.0-0.3","7ljncbzlhh","one_one","1","direct_first","1","ss06an10","0","20","1","1","3","1","","0","1","0","null","","","<div class = 'row'><div class = 'column'><img src = 'category2/CS6.png' width = '70%;'></div><div class = 'column'><img src = 'uspos/1440.bmp' width = '100%;'></div></div>","null","pos","CS","CS","2","category2/CS6.png","","","","",""
"","html-keyboard-response","31","1085185","0.0-6.0-2.0-0.4","7ljncbzlhh","one_one","1","direct_first","1","ss06an10","0","20","1","1","3","1","","0","1","0","null","","","<div class = 'row'><div class = 'column'><img src = 'usneg/9220.bmp' width = '100%;'></div><div class = 'column'><img src = 'category1/CS10.png' width = '70%;'></div></div>","null","neg","CS","CS","1","category1/CS10.png","","","","",""
"","html-keyboard-response","32","1087695","0.0-6.0-2.0-0.5","7ljncbzlhh","one_one","1","direct_first","1","ss06an10","0","20","1","1","3","1","","0","1","0","null","","","<div class = 'row'><div class = 'column'><img src = 'category2/CS6.png' width = '70%;'></div><div class = 'column'><img src = 'uspos/1440.bmp' width = '100%;'></div></div>","null","pos","CS","CS","2","category2/CS6.png","","","","",""
"","html-keyboard-response","33","1090199","0.0-6.0-2.0-0.6","7ljncbzlhh","one_one","1","direct_first","1","ss06an10","0","20","1","1","3","1","","0","1","0","null","","","<div class = 'row'><div class = 'column'><img src = 'usneg/9415.bmp' width = '100%;'></div><div class = 'column'><img src = 'category3/CS4.png' width = '70%;'></div></div>","null","neg","CS","CS","3","category3/CS4.png","","","","",""
"","html-keyboard-response","34","1092701","0.0-6.0-2.0-0.7","7ljncbzlhh","one_one","1","direct_first","1","ss06an10","0","20","1","1","3","1","","0","1","0","null","","","<div class = 'row'><div class = 'column'><img src = 'category2/CS6.png' width = '70%;'></div><div class = 'column'><img src = 'uspos/1440.bmp' width = '100%;'></div></div>","null","pos","CS","CS","2","category2/CS6.png","","","","",""
"","html-keyboard-response","35","1095212","0.0-6.0-2.0-0.8","7ljncbzlhh","one_one","1","direct_first","1","ss06an10","0","20","1","1","3","1","","0","1","0","null","","","<div class = 'row'><div class = 'column'><img src = 'category1/CS10.png' width = '70%;'></div><div class = 'column'><img src = 'usneg/9220.bmp' width = '100%;'></div></div>","null","neg","CS","CS","1","category1/CS10.png","","","","",""
"","html-keyboard-response","36","1097722","0.0-6.0-2.0-0.9","7ljncbzlhh","one_one","1","direct_first","1","ss06an10","0","20","1","1","3","1","","0","1","0","null","","","<div class = 'row'><div class = 'column'><img src = 'uspos/2057.bmp' width = '100%;'></div><div class = 'column'><img src = 'category4/CS2.png' width = '70%;'></div></div>","null","pos","CS","CS","4","category4/CS2.png","","","","",""
"","html-keyboard-response","37","1100230","0.0-6.0-2.0-0.10","7ljncbzlhh","one_one","1","direct_first","1","ss06an10","0","20","1","1","3","1","","0","1","0","null","","","<div class = 'row'><div class = 'column'><img src = 'category2/CS6.png' width = '70%;'></div><div class = 'column'><img src = 'uspos/1440.bmp' width = '100%;'></div></div>","null","pos","CS","CS","2","category2/CS6.png","","","","",""
"","html-keyboard-response","38","1102735","0.0-6.0-2.0-0.11","7ljncbzlhh","one_one","1","direct_first","1","ss06an10","0","20","1","1","3","1","","0","1","0","null","","","<div class = 'row'><div class = 'column'><img src = 'category4/CS2.png' width = '70%;'></div><div class = 'column'><img src = 'uspos/2057.bmp' width = '100%;'></div></div>","null","pos","CS","CS","4","category4/CS2.png","","","","",""
"","html-keyboard-response","39","1105239","0.0-6.0-2.0-0.12","7ljncbzlhh","one_one","1","direct_first","1","ss06an10","0","20","1","1","3","1","","0","1","0","null","","","<div class = 'row'><div class = 'column'><img src = 'usneg/9220.bmp' width = '100%;'></div><div class = 'column'><img src = 'category1/CS10.png' width = '70%;'></div></div>","null","neg","CS","CS","1","category1/CS10.png","","","","",""
"","html-keyboard-response","40","1107750","0.0-6.0-2.0-0.13","7ljncbzlhh","one_one","1","direct_first","1","ss06an10","0","20","1","1","3","1","","0","1","0","null","","","<div class = 'row'><div class = 'column'><img src = 'category2/CS6.png' width = '70%;'></div><div class = 'column'><img src = 'uspos/1440.bmp' width = '100%;'></div></div>","null","pos","CS","CS","2","category2/CS6.png","","","","",""
"","html-keyboard-response","41","1110262","0.0-6.0-2.0-0.14","7ljncbzlhh","one_one","1","direct_first","1","ss06an10","0","20","1","1","3","1","","0","1","0","null","","","<div class = 'row'><div class = 'column'><img src = 'category3/CS4.png' width = '70%;'></div><div class = 'column'><img src = 'usneg/9415.bmp' width = '100%;'></div></div>","null","neg","CS","CS","3","category3/CS4.png","","","","",""
"","html-keyboard-response","42","1112772","0.0-6.0-2.0-0.15","7ljncbzlhh","one_one","1","direct_first","1","ss06an10","0","20","1","1","3","1","","0","1","0","null","","","<div class = 'row'><div class = 'column'><img src = 'category1/CS10.png' width = '70%;'></div><div class = 'column'><img src = 'usneg/9220.bmp' width = '100%;'></div></div>","null","neg","CS","CS","1","category1/CS10.png","","","","",""
"","html-keyboard-response","43","1115282","0.0-6.0-2.0-0.16","7ljncbzlhh","one_one","1","direct_first","1","ss06an10","0","20","1","1","3","1","","0","1","0","null","","","<div class = 'row'><div class = 'column'><img src = 'category3/CS4.png' width = '70%;'></div><div class = 'column'><img src = 'usneg/9415.bmp' width = '100%;'></div></div>","null","neg","CS","CS","3","category3/CS4.png","","","","",""
"","html-keyboard-response","44","1117790","0.0-6.0-2.0-0.17","7ljncbzlhh","one_one","1","direct_first","1","ss06an10","0","20","1","1","3","1","","0","1","0","null","","","<div class = 'row'><div class = 'column'><img src = 'uspos/2057.bmp' width = '100%;'></div><div class = 'column'><img src = 'category4/CS2.png' width = '70%;'></div></div>","null","pos","CS","CS","4","category4/CS2.png","","","","",""
"","html-keyboard-response","45","1120295","0.0-6.0-2.0-0.18","7ljncbzlhh","one_one","1","direct_first","1","ss06an10","0","20","1","1","3","1","","0","1","0","null","","","<div class = 'row'><div class = 'column'><img src = 'category1/CS10.png' width = '70%;'></div><div class = 'column'><img src = 'usneg/9220.bmp' width = '100%;'></div></div>","null","neg","CS","CS","1","category1/CS10.png","","","","",""
"","html-keyboard-response","46","1122798","0.0-6.0-2.0-0.19","7ljncbzlhh","one_one","1","direct_first","1","ss06an10","0","20","1","1","3","1","","0","1","0","null","","","<div class = 'row'><div class = 'column'><img src = 'category4/CS2.png' width = '70%;'></div><div class = 'column'><img src = 'uspos/2057.bmp' width = '100%;'></div></div>","null","pos","CS","CS","4","category4/CS2.png","","","","",""
"","survey-html-form","47","1125092","0.0-6.0-3.0","7ljncbzlhh","one_one","1","direct_first","1","ss06an10","0","20","1","1","3","1","","0","1","0","1787","","{}","","","","","","","","","","","",""
"","html-keyboard-response","48","1129095","0.0-6.0-4.0-0.0","7ljncbzlhh","one_one","1","direct_first","1","ss06an10","0","20","1","1","3","1","","0","1","0","null","","","<div class = 'row'><div class = 'column'><img src = 'usneg/9415.bmp' width = '100%;'></div><div class = 'column'><img src = 'category3/CS4.png' width = '70%;'></div></div>","null","neg","CS","CS","3","category3/CS4.png","","","","",""
"","html-keyboard-response","49","1131600","0.0-6.0-4.0-0.1","7ljncbzlhh","one_one","1","direct_first","1","ss06an10","0","20","1","1","3","1","","0","1","0","null","","","<div class = 'row'><div class = 'column'><img src = 'category2/CS6.png' width = '70%;'></div><div class = 'column'><img src = 'uspos/1440.bmp' width = '100%;'></div></div>","null","pos","CS","CS","2","category2/CS6.png","","","","",""
"","html-keyboard-response","50","1134107","0.0-6.0-4.0-0.2","7ljncbzlhh","one_one","1","direct_first","1","ss06an10","0","20","1","1","3","1","","0","1","0","null","","","<div class = 'row'><div class = 'column'><img src = 'usneg/9415.bmp' width = '100%;'></div><div class = 'column'><img src = 'category3/CS4.png' width = '70%;'></div></div>","null","neg","CS","CS","3","category3/CS4.png","","","","",""
"","html-keyboard-response","51","1136612","0.0-6.0-4.0-0.3","7ljncbzlhh","one_one","1","direct_first","1","ss06an10","0","20","1","1","3","1","","0","1","0","null","","","<div class = 'row'><div class = 'column'><img src = 'category1/CS10.png' width = '70%;'></div><div class = 'column'><img src = 'usneg/9220.bmp' width = '100%;'></div></div>","null","neg","CS","CS","1","category1/CS10.png","","","","",""
"","html-keyboard-response","52","1139117","0.0-6.0-4.0-0.4","7ljncbzlhh","one_one","1","direct_first","1","ss06an10","0","20","1","1","3","1","","0","1","0","null","","","<div class = 'row'><div class = 'column'><img src = 'category4/CS2.png' width = '70%;'></div><div class = 'column'><img src = 'uspos/2057.bmp' width = '100%;'></div></div>","null","pos","CS","CS","4","category4/CS2.png","","","","",""
"","html-keyboard-response","53","1141620","0.0-6.0-4.0-0.5","7ljncbzlhh","one_one","1","direct_first","1","ss06an10","0","20","1","1","3","1","","0","1","0","null","","","<div class = 'row'><div class = 'column'><img src = 'category1/CS10.png' width = '70%;'></div><div class = 'column'><img src = 'usneg/9220.bmp' width = '100%;'></div></div>","null","neg","CS","CS","1","category1/CS10.png","","","","",""
"","html-keyboard-response","54","1144124","0.0-6.0-4.0-0.6","7ljncbzlhh","one_one","1","direct_first","1","ss06an10","0","20","1","1","3","1","","0","1","0","null","","","<div class = 'row'><div class = 'column'><img src = 'uspos/2057.bmp' width = '100%;'></div><div class = 'column'><img src = 'category4/CS2.png' width = '70%;'></div></div>","null","pos","CS","CS","4","category4/CS2.png","","","","",""
"","html-keyboard-response","55","1146627","0.0-6.0-4.0-0.7","7ljncbzlhh","one_one","1","direct_first","1","ss06an10","0","20","1","1","3","1","","0","1","0","null","","","<div class = 'row'><div class = 'column'><img src = 'category3/CS4.png' width = '70%;'></div><div class = 'column'><img src = 'usneg/9415.bmp' width = '100%;'></div></div>","null","neg","CS","CS","3","category3/CS4.png","","","","",""
"","html-keyboard-response","56","1149137","0.0-6.0-4.0-0.8","7ljncbzlhh","one_one","1","direct_first","1","ss06an10","0","20","1","1","3","1","","0","1","0","null","","","<div class = 'row'><div class = 'column'><img src = 'uspos/1440.bmp' width = '100%;'></div><div class = 'column'><img src = 'category2/CS6.png' width = '70%;'></div></div>","null","pos","CS","CS","2","category2/CS6.png","","","","",""
"","html-keyboard-response","57","1151642","0.0-6.0-4.0-0.9","7ljncbzlhh","one_one","1","direct_first","1","ss06an10","0","20","1","1","3","1","","0","1","0","null","","","<div class = 'row'><div class = 'column'><img src = 'usneg/9220.bmp' width = '100%;'></div><div class = 'column'><img src = 'category1/CS10.png' width = '70%;'></div></div>","null","neg","CS","CS","1","category1/CS10.png","","","","",""
"","html-keyboard-response","58","1154146","0.0-6.0-4.0-0.10","7ljncbzlhh","one_one","1","direct_first","1","ss06an10","0","20","1","1","3","1","","0","1","0","null","","","<div class = 'row'><div class = 'column'><img src = 'category3/CS4.png' width = '70%;'></div><div class = 'column'><img src = 'usneg/9415.bmp' width = '100%;'></div></div>","null","neg","CS","CS","3","category3/CS4.png","","","","",""
"","html-keyboard-response","59","1156652","0.0-6.0-4.0-0.11","7ljncbzlhh","one_one","1","direct_first","1","ss06an10","0","20","1","1","3","1","","0","1","0","null","","","<div class = 'row'><div class = 'column'><img src = 'category2/CS6.png' width = '70%;'></div><div class = 'column'><img src = 'uspos/1440.bmp' width = '100%;'></div></div>","null","pos","CS","CS","2","category2/CS6.png","","","","",""
"","html-keyboard-response","60","1159156","0.0-6.0-4.0-0.12","7ljncbzlhh","one_one","1","direct_first","1","ss06an10","0","20","1","1","3","1","","0","1","0","null","","","<div class = 'row'><div class = 'column'><img src = 'category3/CS4.png' width = '70%;'></div><div class = 'column'><img src = 'usneg/9415.bmp' width = '100%;'></div></div>","null","neg","CS","CS","3","category3/CS4.png","","","","",""
"","html-keyboard-response","61","1161659","0.0-6.0-4.0-0.13","7ljncbzlhh","one_one","1","direct_first","1","ss06an10","0","20","1","1","3","1","","0","1","0","null","","","<div class = 'row'><div class = 'column'><img src = 'category4/CS2.png' width = '70%;'></div><div class = 'column'><img src = 'uspos/2057.bmp' width = '100%;'></div></div>","null","pos","CS","CS","4","category4/CS2.png","","","","",""
"","html-keyboard-response","62","1164170","0.0-6.0-4.0-0.14","7ljncbzlhh","one_one","1","direct_first","1","ss06an10","0","20","1","1","3","1","","0","1","0","null","","","<div class = 'row'><div class = 'column'><img src = 'uspos/1440.bmp' width = '100%;'></div><div class = 'column'><img src = 'category2/CS6.png' width = '70%;'></div></div>","null","pos","CS","CS","2","category2/CS6.png","","","","",""
"","html-keyboard-response","63","1166681","0.0-6.0-4.0-0.15","7ljncbzlhh","one_one","1","direct_first","1","ss06an10","0","20","1","1","3","1","","0","1","0","null","","","<div class = 'row'><div class = 'column'><img src = 'usneg/9220.bmp' width = '100%;'></div><div class = 'column'><img src = 'category1/CS10.png' width = '70%;'></div></div>","null","neg","CS","CS","1","category1/CS10.png","","","","",""
"","html-keyboard-response","64","1169185","0.0-6.0-4.0-0.16","7ljncbzlhh","one_one","1","direct_first","1","ss06an10","0","20","1","1","3","1","","0","1","0","null","","","<div class = 'row'><div class = 'column'><img src = 'uspos/1440.bmp' width = '100%;'></div><div class = 'column'><img src = 'category2/CS6.png' width = '70%;'></div></div>","null","pos","CS","CS","2","category2/CS6.png","","","","",""
"","html-keyboard-response","65","1171689","0.0-6.0-4.0-0.17","7ljncbzlhh","one_one","1","direct_first","1","ss06an10","0","20","1","1","3","1","","0","1","0","null","","","<div class = 'row'><div class = 'column'><img src = 'uspos/2057.bmp' width = '100%;'></div><div class = 'column'><img src = 'category4/CS2.png' width = '70%;'></div></div>","null","pos","CS","CS","4","category4/CS2.png","","","","",""
"","html-keyboard-response","66","1174192","0.0-6.0-4.0-0.18","7ljncbzlhh","one_one","1","direct_first","1","ss06an10","0","20","1","1","3","1","","0","1","0","null","","","<div class = 'row'><div class = 'column'><img src = 'category1/CS10.png' width = '70%;'></div><div class = 'column'><img src = 'usneg/9220.bmp' width = '100%;'></div></div>","null","neg","CS","CS","1","category1/CS10.png","","","","",""
"","html-keyboard-response","67","1176697","0.0-6.0-4.0-0.19","7ljncbzlhh","one_one","1","direct_first","1","ss06an10","0","20","1","1","3","1","","0","1","0","null","","","<div class = 'row'><div class = 'column'><img src = 'uspos/2057.bmp' width = '100%;'></div><div class = 'column'><img src = 'category4/CS2.png' width = '70%;'></div></div>","null","pos","CS","CS","4","category4/CS2.png","","","","",""
"","survey-html-form","68","1183460","0.0-6.0-5.0","7ljncbzlhh","one_one","1","direct_first","1","ss06an10","0","20","1","1","3","1","","0","1","0","6262","","{}","","","","","","","","","","","",""
"","html-keyboard-response","69","1187465","0.0-6.0-6.0-0.0","7ljncbzlhh","one_one","1","direct_first","1","ss06an10","0","20","1","1","3","1","","0","1","0","null","","","<div class = 'row'><div class = 'column'><img src = 'category2/CS6.png' width = '70%;'></div><div class = 'column'><img src = 'uspos/1440.bmp' width = '100%;'></div></div>","null","pos","CS","CS","2","category2/CS6.png","","","","",""
"","html-keyboard-response","70","1189975","0.0-6.0-6.0-0.1","7ljncbzlhh","one_one","1","direct_first","1","ss06an10","0","20","1","1","3","1","","0","1","0","null","","","<div class = 'row'><div class = 'column'><img src = 'category4/CS2.png' width = '70%;'></div><div class = 'column'><img src = 'uspos/2057.bmp' width = '100%;'></div></div>","null","pos","CS","CS","4","category4/CS2.png","","","","",""
"","html-keyboard-response","71","1192483","0.0-6.0-6.0-0.2","7ljncbzlhh","one_one","1","direct_first","1","ss06an10","0","20","1","1","3","1","","0","1","0","null","","","<div class = 'row'><div class = 'column'><img src = 'category2/CS6.png' width = '70%;'></div><div class = 'column'><img src = 'uspos/1440.bmp' width = '100%;'></div></div>","null","pos","CS","CS","2","category2/CS6.png","","","","",""
"","html-keyboard-response","72","1194988","0.0-6.0-6.0-0.3","7ljncbzlhh","one_one","1","direct_first","1","ss06an10","0","20","1","1","3","1","","0","1","0","null","","","<div class = 'row'><div class = 'column'><img src = 'usneg/9220.bmp' width = '100%;'></div><div class = 'column'><img src = 'category1/CS10.png' width = '70%;'></div></div>","null","neg","CS","CS","1","category1/CS10.png","","","","",""
"","html-keyboard-response","73","1197499","0.0-6.0-6.0-0.4","7ljncbzlhh","one_one","1","direct_first","1","ss06an10","0","20","1","1","3","1","","0","1","0","null","","","<div class = 'row'><div class = 'column'><img src = 'usneg/9415.bmp' width = '100%;'></div><div class = 'column'><img src = 'category3/CS4.png' width = '70%;'></div></div>","null","neg","CS","CS","3","category3/CS4.png","","","","",""
"","html-keyboard-response","74","1200003","0.0-6.0-6.0-0.5","7ljncbzlhh","one_one","1","direct_first","1","ss06an10","0","20","1","1","3","1","","0","1","0","null","","","<div class = 'row'><div class = 'column'><img src = 'uspos/2057.bmp' width = '100%;'></div><div class = 'column'><img src = 'category4/CS2.png' width = '70%;'></div></div>","null","pos","CS","CS","4","category4/CS2.png","","","","",""
"","html-keyboard-response","75","1202514","0.0-6.0-6.0-0.6","7ljncbzlhh","one_one","1","direct_first","1","ss06an10","0","20","1","1","3","1","","0","1","0","null","","","<div class = 'row'><div class = 'column'><img src = 'category2/CS6.png' width = '70%;'></div><div class = 'column'><img src = 'uspos/1440.bmp' width = '100%;'></div></div>","null","pos","CS","CS","2","category2/CS6.png","","","","",""
"","html-keyboard-response","76","1205026","0.0-6.0-6.0-0.7","7ljncbzlhh","one_one","1","direct_first","1","ss06an10","0","20","1","1","3","1","","0","1","0","null","","","<div class = 'row'><div class = 'column'><img src = 'category1/CS10.png' width = '70%;'></div><div class = 'column'><img src = 'usneg/9220.bmp' width = '100%;'></div></div>","null","neg","CS","CS","1","category1/CS10.png","","","","",""
"","html-keyboard-response","77","1207536","0.0-6.0-6.0-0.8","7ljncbzlhh","one_one","1","direct_first","1","ss06an10","0","20","1","1","3","1","","0","1","0","null","","","<div class = 'row'><div class = 'column'><img src = 'uspos/1440.bmp' width = '100%;'></div><div class = 'column'><img src = 'category2/CS6.png' width = '70%;'></div></div>","null","pos","CS","CS","2","category2/CS6.png","","","","",""
"","html-keyboard-response","78","1210040","0.0-6.0-6.0-0.9","7ljncbzlhh","one_one","1","direct_first","1","ss06an10","0","20","1","1","3","1","","0","1","0","null","","","<div class = 'row'><div class = 'column'><img src = 'category1/CS10.png' width = '70%;'></div><div class = 'column'><img src = 'usneg/9220.bmp' width = '100%;'></div></div>","null","neg","CS","CS","1","category1/CS10.png","","","","",""
"","html-keyboard-response","79","1212546","0.0-6.0-6.0-0.10","7ljncbzlhh","one_one","1","direct_first","1","ss06an10","0","20","1","1","3","1","","0","1","0","null","","","<div class = 'row'><div class = 'column'><img src = 'uspos/2057.bmp' width = '100%;'></div><div class = 'column'><img src = 'category4/CS2.png' width = '70%;'></div></div>","null","pos","CS","CS","4","category4/CS2.png","","","","",""
"","html-keyboard-response","80","1215052","0.0-6.0-6.0-0.11","7ljncbzlhh","one_one","1","direct_first","1","ss06an10","0","20","1","1","3","1","","0","1","0","null","","","<div class = 'row'><div class = 'column'><img src = 'usneg/9415.bmp' width = '100%;'></div><div class = 'column'><img src = 'category3/CS4.png' width = '70%;'></div></div>","null","neg","CS","CS","3","category3/CS4.png","","","","",""
"","html-keyboard-response","81","1217563","0.0-6.0-6.0-0.12","7ljncbzlhh","one_one","1","direct_first","1","ss06an10","0","20","1","1","3","1","","0","1","0","null","","","<div class = 'row'><div class = 'column'><img src = 'category4/CS2.png' width = '70%;'></div><div class = 'column'><img src = 'uspos/2057.bmp' width = '100%;'></div></div>","null","pos","CS","CS","4","category4/CS2.png","","","","",""
"","html-keyboard-response","82","1220075","0.0-6.0-6.0-0.13","7ljncbzlhh","one_one","1","direct_first","1","ss06an10","0","20","1","1","3","1","","0","1","0","null","","","<div class = 'row'><div class = 'column'><img src = 'usneg/9415.bmp' width = '100%;'></div><div class = 'column'><img src = 'category3/CS4.png' width = '70%;'></div></div>","null","neg","CS","CS","3","category3/CS4.png","","","","",""
"","html-keyboard-response","83","1222578","0.0-6.0-6.0-0.14","7ljncbzlhh","one_one","1","direct_first","1","ss06an10","0","20","1","1","3","1","","0","1","0","null","","","<div class = 'row'><div class = 'column'><img src = 'uspos/2057.bmp' width = '100%;'></div><div class = 'column'><img src = 'category4/CS2.png' width = '70%;'></div></div>","null","pos","CS","CS","4","category4/CS2.png","","","","",""
"","html-keyboard-response","84","1225084","0.0-6.0-6.0-0.15","7ljncbzlhh","one_one","1","direct_first","1","ss06an10","0","20","1","1","3","1","","0","1","0","null","","","<div class = 'row'><div class = 'column'><img src = 'usneg/9220.bmp' width = '100%;'></div><div class = 'column'><img src = 'category1/CS10.png' width = '70%;'></div></div>","null","neg","CS","CS","1","category1/CS10.png","","","","",""
"","html-keyboard-response","85","1227588","0.0-6.0-6.0-0.16","7ljncbzlhh","one_one","1","direct_first","1","ss06an10","0","20","1","1","3","1","","0","1","0","null","","","<div class = 'row'><div class = 'column'><img src = 'category3/CS4.png' width = '70%;'></div><div class = 'column'><img src = 'usneg/9415.bmp' width = '100%;'></div></div>","null","neg","CS","CS","3","category3/CS4.png","","","","",""
"","html-keyboard-response","86","1230094","0.0-6.0-6.0-0.17","7ljncbzlhh","one_one","1","direct_first","1","ss06an10","0","20","1","1","3","1","","0","1","0","null","","","<div class = 'row'><div class = 'column'><img src = 'usneg/9220.bmp' width = '100%;'></div><div class = 'column'><img src = 'category1/CS10.png' width = '70%;'></div></div>","null","neg","CS","CS","1","category1/CS10.png","","","","",""
"","html-keyboard-response","87","1232599","0.0-6.0-6.0-0.18","7ljncbzlhh","one_one","1","direct_first","1","ss06an10","0","20","1","1","3","1","","0","1","0","null","","","<div class = 'row'><div class = 'column'><img src = 'category3/CS4.png' width = '70%;'></div><div class = 'column'><img src = 'usneg/9415.bmp' width = '100%;'></div></div>","null","neg","CS","CS","3","category3/CS4.png","","","","",""
"","html-keyboard-response","88","1235104","0.0-6.0-6.0-0.19","7ljncbzlhh","one_one","1","direct_first","1","ss06an10","0","20","1","1","3","1","","0","1","0","null","","","<div class = 'row'><div class = 'column'><img src = 'uspos/1440.bmp' width = '100%;'></div><div class = 'column'><img src = 'category2/CS6.png' width = '70%;'></div></div>","null","pos","CS","CS","2","category2/CS6.png","","","","",""
"","survey-html-form","89","1257816","0.0-7.0","7ljncbzlhh","one_one","1","direct_first","1","ss06an10","0","20","1","1","3","1","","0","1","0","22208","","{}","","","","","","","","","","","",""
"","image-slider-response","90","1276827","0.0-8.0-0.0","7ljncbzlhh","one_one","1","direct_first","1","ss06an10","0","20","1","1","3","1","","0","1","0","17003","","","","","neg","GS","GSold","1","category1/CS8.png","-38","targets/29.png","direct","",""
"","image-slider-response","91","1284725","0.0-8.0-0.1","7ljncbzlhh","one_one","1","direct_first","1","ss06an10","0","20","1","1","3","1","","0","1","0","7895","","","","","neg","GS","GSnew","1","category1/GS2.png","13","targets/32.png","direct","",""
"","image-slider-response","92","1294925","0.0-8.0-0.2","7ljncbzlhh","one_one","1","direct_first","1","ss06an10","0","20","1","1","3","1","","0","1","0","10198","","","","","neg","GS","abstract","3","category3/wang.png","-32","targets/15.png","direct","",""
"","image-slider-response","93","1301456","0.0-8.0-0.3","7ljncbzlhh","one_one","1","direct_first","1","ss06an10","0","20","1","1","3","1","","0","1","0","6528","","","","","neg","GS","GSold","3","category3/CS7.png","-42","targets/48.png","direct","",""
"","image-slider-response","94","1308664","0.0-8.0-0.4","7ljncbzlhh","one_one","1","direct_first","1","ss06an10","0","20","1","1","3","1","","0","1","0","7208","","","","","pos","GS","GSnew","4","category4/GS3.png","-55","targets/16.png","direct","",""
"","image-slider-response","95","1312367","0.0-8.0-0.5","7ljncbzlhh","one_one","1","direct_first","1","ss06an10","0","20","1","1","3","1","","0","1","0","3701","","","","","pos","GS","GSold","4","category4/CS9.png","15","targets/17.png","direct","",""
"","image-slider-response","96","1318776","0.0-8.0-0.6","7ljncbzlhh","one_one","1","direct_first","1","ss06an10","0","20","1","1","3","1","","0","1","0","6407","","","","","neg","CS","CS","3","category3/CS4.png","-42","targets/30.png","direct","",""
"","image-slider-response","97","1327913","0.0-8.0-0.7","7ljncbzlhh","one_one","1","direct_first","1","ss06an10","0","20","1","1","3","1","","0","1","0","9135","","","","","neg","GS","GSold","3","category3/CS9.png","9","targets/41.png","direct","",""
"","image-slider-response","98","1333354","0.0-8.0-0.8","7ljncbzlhh","one_one","1","direct_first","1","ss06an10","0","20","1","1","3","1","","0","1","0","5438","","","","","pos","GS","GSold","2","category2/CS1.png","45","targets/19.png","direct","",""
"","image-slider-response","99","1337061","0.0-8.0-0.9","7ljncbzlhh","one_one","1","direct_first","1","ss06an10","0","20","1","1","3","1","","0","1","0","3704","","","","","pos","GS","GSold","4","category4/CS5.png","32","targets/3.png","direct","",""
"","image-slider-response","100","1339729","0.0-8.0-0.10","7ljncbzlhh","one_one","1","direct_first","1","ss06an10","0","20","1","1","3","1","","0","1","0","2666","","","","","neg","GS","GSnew","3","category3/GS1.png","26","targets/39.png","direct","",""
"","image-slider-response","101","1345063","0.0-8.0-0.11","7ljncbzlhh","one_one","1","direct_first","1","ss06an10","0","20","1","1","3","1","","0","1","0","5332","","","","","pos","GS","abstract","2","category2/men.png","8","targets/35.png","direct","",""
"","image-slider-response","102","1348306","0.0-8.0-0.12","7ljncbzlhh","one_one","1","direct_first","1","ss06an10","0","20","1","1","3","1","","0","1","0","3238","","","","","neg","GS","GSold","1","category1/CS7.png","52","targets/20.png","direct","",""
"","image-slider-response","103","1352801","0.0-8.0-0.13","7ljncbzlhh","one_one","1","direct_first","1","ss06an10","0","20","1","1","3","1","","0","1","0","4493","","","","","pos","CS","CS","4","category4/CS2.png","63","targets/18.png","direct","",""
"","image-slider-response","104","1358949","0.0-8.0-0.14","7ljncbzlhh","one_one","1","direct_first","1","ss06an10","0","20","1","1","3","1","","0","1","0","6146","","","","","pos","GS","GSnew","2","category2/GS3.png","15","targets/23.png","direct","",""
"","image-slider-response","105","1366075","0.0-8.0-0.15","7ljncbzlhh","one_one","1","direct_first","1","ss06an10","0","20","1","1","3","1","","0","1","0","7124","","","","","pos","CS","CS","2","category2/CS6.png","60","targets/11.png","direct","",""
"","image-slider-response","106","1375343","0.0-8.0-0.16","7ljncbzlhh","one_one","1","direct_first","1","ss06an10","0","20","1","1","3","1","","0","1","0","9266","","","","","pos","GS","abstract","4","category4/lin.png","-23","targets/4.png","direct","",""
"","image-slider-response","107","1378562","0.0-8.0-0.17","7ljncbzlhh","one_one","1","direct_first","1","ss06an10","0","20","1","1","3","1","","0","1","0","3217","","","","","neg","GS","GSold","1","category1/CS4.png","-71","targets/21.png","direct","",""
"","image-slider-response","108","1381891","0.0-8.0-0.18","7ljncbzlhh","one_one","1","direct_first","1","ss06an10","0","20","1","1","3","1","","0","1","0","3326","","","","","neg","GS","GSnew","3","category3/GS3.png","-27","targets/47.png","direct","",""
"","image-slider-response","109","1386036","0.0-8.0-0.19","7ljncbzlhh","one_one","1","direct_first","1","ss06an10","0","20","1","1","3","1","","0","1","0","4143","","","","","pos","GS","GSnew","4","category4/GS2.png","-46","targets/13.png","direct","",""
"","image-slider-response","110","1390012","0.0-8.0-0.20","7ljncbzlhh","one_one","1","direct_first","1","ss06an10","0","20","1","1","3","1","","0","1","0","3975","","","","","neg","GS","GSnew","1","category1/GS3.png","69","targets/10.png","direct","",""
"","image-slider-response","111","1396468","0.0-8.0-0.21","7ljncbzlhh","one_one","1","direct_first","1","ss06an10","0","20","1","1","3","1","","0","1","0","6454","","","","","pos","GS","GSnew","4","category4/GS1.png","-13","targets/24.png","direct","",""
"","image-slider-response","112","1400351","0.0-8.0-0.22","7ljncbzlhh","one_one","1","direct_first","1","ss06an10","0","20","1","1","3","1","","0","1","0","3881","","","","","neg","GS","GSnew","1","category1/GS1.png","38","targets/25.png","direct","",""
"","image-slider-response","113","1403466","0.0-8.0-0.23","7ljncbzlhh","one_one","1","direct_first","1","ss06an10","0","20","1","1","3","1","","0","1","0","3113","","","","","pos","GS","GSold","2","category2/CS10.png","69","targets/42.png","direct","",""
"","image-slider-response","114","1406604","0.0-8.0-0.24","7ljncbzlhh","one_one","1","direct_first","1","ss06an10","0","20","1","1","3","1","","0","1","0","3135","","","","","neg","GS","GSold","3","category3/CS3.png","-26","targets/34.png","direct","",""
"","image-slider-response","115","1414126","0.0-8.0-0.25","7ljncbzlhh","one_one","1","direct_first","1","ss06an10","0","20","1","1","3","1","","0","1","0","7519","","","","","pos","GS","GSold","4","category4/CS10.png","17","targets/5.png","direct","",""
"","image-slider-response","116","1416893","0.0-8.0-0.26","7ljncbzlhh","one_one","1","direct_first","1","ss06an10","0","20","1","1","3","1","","0","1","0","2765","","","","","pos","GS","GSnew","2","category2/GS1.png","-22","targets/36.png","direct","",""
"","image-slider-response","117","1419817","0.0-8.0-0.27","7ljncbzlhh","one_one","1","direct_first","1","ss06an10","0","20","1","1","3","1","","0","1","0","2922","","","","","neg","GS","GSnew","3","category3/GS2.png","-53","targets/44.png","direct","",""
"","image-slider-response","118","1423340","0.0-8.0-0.28","7ljncbzlhh","one_one","1","direct_first","1","ss06an10","0","20","1","1","3","1","","0","1","0","3520","","","","","neg","GS","abstract","1","category1/ma.png","-23","targets/43.png","direct","",""
"","image-slider-response","119","1427047","0.0-8.0-0.29","7ljncbzlhh","one_one","1","direct_first","1","ss06an10","0","20","1","1","3","1","","0","1","0","3705","","","","","neg","CS","CS","1","category1/CS10.png","-68","targets/28.png","direct","",""
"","image-slider-response","120","1430574","0.0-8.0-0.30","7ljncbzlhh","one_one","1","direct_first","1","ss06an10","0","20","1","1","3","1","","0","1","0","3525","","","","","pos","GS","GSnew","2","category2/GS2.png","40","targets/27.png","direct","",""
"","image-slider-response","121","1433903","0.0-8.0-0.31","7ljncbzlhh","one_one","1","direct_first","1","ss06an10","0","20","1","1","3","1","","0","1","0","3328","","","","","pos","GS","GSold","2","category2/CS4.png","87","targets/40.png","direct","",""
"","html-keyboard-response","122","1492805","0.0-9.0","7ljncbzlhh","one_one","1","direct_first","1","ss06an10","0","20","1","1","3","1","","0","1","0","58900","","","<p>Sie sehen nun die chinesischen Zeichen nur ganz kurz. Danach sehen Sie die jeweilige Aussprache der Zeichen als Silbe auf dem Bildschrim. Ihre Aufgabe ist es, für jede Silbe anzugeben, ob diese etwas angenehmes, oder unangenehmes bedeuten könnte. Verlassen Sie sich hier vor allem auf Ihre Intuition.<br><br>Die Zeichen werden nur zur Orientierung dargestellt, beachten Sie sie deshalb nicht. Konzentrieren Sie sich vor allem auf die Silben. <br>Reagieren Sie mit folgenden zwei Tasten: <br><br><b>'D' </b> wenn die Silbe etwas <b>unangenehmes</b> bedeuten könnte. <br><b>'K'</b> wenn die Silbe etwas <b>angenehmes</b> bedeuten könnte. <br><br>Bitte legen Sie nun den Zeigefinger der linken Hand auf die Taste 'D' und den Zeigefinger der rechten Hand auf die Taste 'K'. <br>Reagieren Sie auf jede Silbe so schnell wie möglich. Uns interessiert Ihre spontane Reaktion. <br> <br> <br>Drücken Sie 'D' oder 'K', um die nächste Aufgabe zu starten. </p>","75","","","","","","","","","",""
"","html-keyboard-response","123","1495808","0.0-10.0-0.0","7ljncbzlhh","one_one","1","direct_first","1","ss06an10","0","20","1","1","3","1","","0","1","0","null","","","<div style=""font-size:60px;"">+</div>","null","","","","","","","","","",""
"","html-keyboard-response","124","1495901","0.0-10.0-1.0","7ljncbzlhh","one_one","1","direct_first","1","ss06an10","0","20","1","1","3","1","","0","1","0","null","","","<img src = 'category1/CS4.png' width = '100%;'>","null","","","","","","","","","",""
"","html-keyboard-response","125","1496156","0.0-10.0-2.0","7ljncbzlhh","one_one","1","direct_first","1","ss06an10","0","20","1","1","3","1","","0","1","0","null","","","<img src = 'targets/21.png' width = '100%;'>","null","","","","","","","","","",""
"","html-keyboard-response","126","1500548","0.0-10.0-3.0","7ljncbzlhh","one_one","1","direct_first","1","ss06an10","0","20","1","1","3","1","","0","1","0","4390","","","<img src = 'targets/mask.png' width = '100%;'>","75","neg","GS","GSold","1","category1/CS4.png","","targets/21.png","indirect","1","0"
"","html-keyboard-response","127","1502051","0.0-10.0-0.1","7ljncbzlhh","one_one","1","direct_first","1","ss06an10","0","20","1","1","3","1","","0","1","0","null","","","<div style=""font-size:60px;"">+</div>","null","","","","","","","","","",""
"","html-keyboard-response","128","1502143","0.0-10.0-1.1","7ljncbzlhh","one_one","1","direct_first","1","ss06an10","0","20","1","1","3","1","","0","1","0","null","","","<img src = 'category1/CS10.png' width = '100%;'>","null","","","","","","","","","",""
"","html-keyboard-response","129","1502396","0.0-10.0-2.1","7ljncbzlhh","one_one","1","direct_first","1","ss06an10","0","20","1","1","3","1","","0","1","0","null","","","<img src = 'targets/28.png' width = '100%;'>","null","","","","","","","","","",""
"","html-keyboard-response","130","1504204","0.0-10.0-3.1","7ljncbzlhh","one_one","1","direct_first","1","ss06an10","0","20","1","1","3","1","","0","1","0","1806","","","<img src = 'targets/mask.png' width = '100%;'>","75","neg","CS","CS","1","category1/CS10.png","","targets/28.png","indirect","1","1"
"","html-keyboard-response","131","1505711","0.0-10.0-0.2","7ljncbzlhh","one_one","1","direct_first","1","ss06an10","0","20","1","1","3","1","","0","1","0","null","","","<div style=""font-size:60px;"">+</div>","null","","","","","","","","","",""
"","html-keyboard-response","132","1505802","0.0-10.0-1.2","7ljncbzlhh","one_one","1","direct_first","1","ss06an10","0","20","1","1","3","1","","0","1","0","null","","","<img src = 'category4/CS5.png' width = '100%;'>","null","","","","","","","","","",""
"","html-keyboard-response","133","1506057","0.0-10.0-2.2","7ljncbzlhh","one_one","1","direct_first","1","ss06an10","0","20","1","1","3","1","","0","1","0","null","","","<img src = 'targets/3.png' width = '100%;'>","null","","","","","","","","","",""
"","html-keyboard-response","134","1508535","0.0-10.0-3.2","7ljncbzlhh","one_one","1","direct_first","1","ss06an10","0","20","1","1","3","1","","0","1","0","2476","","","<img src = 'targets/mask.png' width = '100%;'>","68","pos","GS","GSold","4","category4/CS5.png","","targets/3.png","indirect","0","2"
"","html-keyboard-response","135","1510041","0.0-10.0-0.3","7ljncbzlhh","one_one","1","direct_first","1","ss06an10","0","20","1","1","3","1","","0","1","0","null","","","<div style=""font-size:60px;"">+</div>","null","","","","","","","","","",""
"","html-keyboard-response","136","1510134","0.0-10.0-1.3","7ljncbzlhh","one_one","1","direct_first","1","ss06an10","0","20","1","1","3","1","","0","1","0","null","","","<img src = 'category4/CS9.png' width = '100%;'>","null","","","","","","","","","",""
"","html-keyboard-response","137","1510390","0.0-10.0-2.3","7ljncbzlhh","one_one","1","direct_first","1","ss06an10","0","20","1","1","3","1","","0","1","0","null","","","<img src = 'targets/17.png' width = '100%;'>","null","","","","","","","","","",""
"","html-keyboard-response","138","1511744","0.0-10.0-3.3","7ljncbzlhh","one_one","1","direct_first","1","ss06an10","0","20","1","1","3","1","","0","1","0","1353","","","<img src = 'targets/mask.png' width = '100%;'>","75","pos","GS","GSold","4","category4/CS9.png","","targets/17.png","indirect","1","3"
"","html-keyboard-response","139","1513246","0.0-10.0-0.4","7ljncbzlhh","one_one","1","direct_first","1","ss06an10","0","20","1","1","3","1","","0","1","0","null","","","<div style=""font-size:60px;"">+</div>","null","","","","","","","","","",""
"","html-keyboard-response","140","1513337","0.0-10.0-1.4","7ljncbzlhh","one_one","1","direct_first","1","ss06an10","0","20","1","1","3","1","","0","1","0","null","","","<img src = 'category2/CS1.png' width = '100%;'>","null","","","","","","","","","",""
"","html-keyboard-response","141","1513589","0.0-10.0-2.4","7ljncbzlhh","one_one","1","direct_first","1","ss06an10","0","20","1","1","3","1","","0","1","0","null","","","<img src = 'targets/19.png' width = '100%;'>","null","","","","","","","","","",""
"","html-keyboard-response","142","1514635","0.0-10.0-3.4","7ljncbzlhh","one_one","1","direct_first","1","ss06an10","0","20","1","1","3","1","","0","1","0","1046","","","<img src = 'targets/mask.png' width = '100%;'>","75","pos","GS","GSold","2","category2/CS1.png","","targets/19.png","indirect","1","4"
"","html-keyboard-response","143","1516139","0.0-10.0-0.5","7ljncbzlhh","one_one","1","direct_first","1","ss06an10","0","20","1","1","3","1","","0","1","0","null","","","<div style=""font-size:60px;"">+</div>","null","","","","","","","","","",""
"","html-keyboard-response","144","1516232","0.0-10.0-1.5","7ljncbzlhh","one_one","1","direct_first","1","ss06an10","0","20","1","1","3","1","","0","1","0","null","","","<img src = 'category4/CS2.png' width = '100%;'>","null","","","","","","","","","",""
"","html-keyboard-response","145","1516483","0.0-10.0-2.5","7ljncbzlhh","one_one","1","direct_first","1","ss06an10","0","20","1","1","3","1","","0","1","0","null","","","<img src = 'targets/18.png' width = '100%;'>","null","","","","","","","","","",""
"","html-keyboard-response","146","1517477","0.0-10.0-3.5","7ljncbzlhh","one_one","1","direct_first","1","ss06an10","0","20","1","1","3","1","","0","1","0","992","","","<img src = 'targets/mask.png' width = '100%;'>","68","pos","CS","CS","4","category4/CS2.png","","targets/18.png","indirect","0","5"
"","html-keyboard-response","147","1518985","0.0-10.0-0.6","7ljncbzlhh","one_one","1","direct_first","1","ss06an10","0","20","1","1","3","1","","0","1","0","null","","","<div style=""font-size:60px;"">+</div>","null","","","","","","","","","",""
"","html-keyboard-response","148","1519081","0.0-10.0-1.6","7ljncbzlhh","one_one","1","direct_first","1","ss06an10","0","20","1","1","3","1","","0","1","0","null","","","<img src = 'category3/CS4.png' width = '100%;'>","null","","","","","","","","","",""
"","html-keyboard-response","149","1519332","0.0-10.0-2.6","7ljncbzlhh","one_one","1","direct_first","1","ss06an10","0","20","1","1","3","1","","0","1","0","null","","","<img src = 'targets/30.png' width = '100%;'>","null","","","","","","","","","",""
"","html-keyboard-response","150","1520231","0.0-10.0-3.6","7ljncbzlhh","one_one","1","direct_first","1","ss06an10","0","20","1","1","3","1","","0","1","0","897","","","<img src = 'targets/mask.png' width = '100%;'>","75","neg","CS","CS","3","category3/CS4.png","","targets/30.png","indirect","1","6"
"","html-keyboard-response","151","1521738","0.0-10.0-0.7","7ljncbzlhh","one_one","1","direct_first","1","ss06an10","0","20","1","1","3","1","","0","1","0","null","","","<div style=""font-size:60px;"">+</div>","null","","","","","","","","","",""
"","html-keyboard-response","152","1521829","0.0-10.0-1.7","7ljncbzlhh","one_one","1","direct_first","1","ss06an10","0","20","1","1","3","1","","0","1","0","null","","","<img src = 'category1/CS7.png' width = '100%;'>","null","","","","","","","","","",""
"","html-keyboard-response","153","1522087","0.0-10.0-2.7","7ljncbzlhh","one_one","1","direct_first","1","ss06an10","0","20","1","1","3","1","","0","1","0","null","","","<img src = 'targets/20.png' width = '100%;'>","null","","","","","","","","","",""
"","html-keyboard-response","154","1523018","0.0-10.0-3.7","7ljncbzlhh","one_one","1","direct_first","1","ss06an10","0","20","1","1","3","1","","0","1","0","929","","","<img src = 'targets/mask.png' width = '100%;'>","75","neg","GS","GSold","1","category1/CS7.png","","targets/20.png","indirect","1","7"
"","html-keyboard-response","155","1524519","0.0-10.0-0.8","7ljncbzlhh","one_one","1","direct_first","1","ss06an10","0","20","1","1","3","1","","0","1","0","null","","","<div style=""font-size:60px;"">+</div>","null","","","","","","","","","",""
"","html-keyboard-response","156","1524612","0.0-10.0-1.8","7ljncbzlhh","one_one","1","direct_first","1","ss06an10","0","20","1","1","3","1","","0","1","0","null","","","<img src = 'category2/CS10.png' width = '100%;'>","null","","","","","","","","","",""
"","html-keyboard-response","157","1524868","0.0-10.0-2.8","7ljncbzlhh","one_one","1","direct_first","1","ss06an10","0","20","1","1","3","1","","0","1","0","null","","","<img src = 'targets/42.png' width = '100%;'>","null","","","","","","","","","",""
"","html-keyboard-response","158","1526280","0.0-10.0-3.8","7ljncbzlhh","one_one","1","direct_first","1","ss06an10","0","20","1","1","3","1","","0","1","0","1411","","","<img src = 'targets/mask.png' width = '100%;'>","68","pos","GS","GSold","2","category2/CS10.png","","targets/42.png","indirect","0","8"
"","html-keyboard-response","159","1527781","0.0-10.0-0.9","7ljncbzlhh","one_one","1","direct_first","1","ss06an10","0","20","1","1","3","1","","0","1","0","null","","","<div style=""font-size:60px;"">+</div>","null","","","","","","","","","",""
"","html-keyboard-response","160","1527874","0.0-10.0-1.9","7ljncbzlhh","one_one","1","direct_first","1","ss06an10","0","20","1","1","3","1","","0","1","0","null","","","<img src = 'category3/CS9.png' width = '100%;'>","null","","","","","","","","","",""
"","html-keyboard-response","161","1528127","0.0-10.0-2.9","7ljncbzlhh","one_one","1","direct_first","1","ss06an10","0","20","1","1","3","1","","0","1","0","null","","","<img src = 'targets/41.png' width = '100%;'>","null","","","","","","","","","",""
"","html-keyboard-response","162","1531979","0.0-10.0-3.9","7ljncbzlhh","one_one","1","direct_first","1","ss06an10","0","20","1","1","3","1","","0","1","0","3851","","","<img src = 'targets/mask.png' width = '100%;'>","75","neg","GS","GSold","3","category3/CS9.png","","targets/41.png","indirect","1","9"
"","html-keyboard-response","163","1533486","0.0-10.0-0.10","7ljncbzlhh","one_one","1","direct_first","1","ss06an10","0","20","1","1","3","1","","0","1","0","null","","","<div style=""font-size:60px;"">+</div>","null","","","","","","","","","",""
"","html-keyboard-response","164","1533578","0.0-10.0-1.10","7ljncbzlhh","one_one","1","direct_first","1","ss06an10","0","20","1","1","3","1","","0","1","0","null","","","<img src = 'category1/CS8.png' width = '100%;'>","null","","","","","","","","","",""
"","html-keyboard-response","165","1533833","0.0-10.0-2.10","7ljncbzlhh","one_one","1","direct_first","1","ss06an10","0","20","1","1","3","1","","0","1","0","null","","","<img src = 'targets/29.png' width = '100%;'>","null","","","","","","","","","",""
"","html-keyboard-response","166","1535802","0.0-10.0-3.10","7ljncbzlhh","one_one","1","direct_first","1","ss06an10","0","20","1","1","3","1","","0","1","0","1968","","","<img src = 'targets/mask.png' width = '100%;'>","75","neg","GS","GSold","1","category1/CS8.png","","targets/29.png","indirect","1","10"
"","html-keyboard-response","167","1537305","0.0-10.0-0.11","7ljncbzlhh","one_one","1","direct_first","1","ss06an10","0","20","1","1","3","1","","0","1","0","null","","","<div style=""font-size:60px;"">+</div>","null","","","","","","","","","",""
"","html-keyboard-response","168","1537398","0.0-10.0-1.11","7ljncbzlhh","one_one","1","direct_first","1","ss06an10","0","20","1","1","3","1","","0","1","0","null","","","<img src = 'category3/CS7.png' width = '100%;'>","null","","","","","","","","","",""
"","html-keyboard-response","169","1537654","0.0-10.0-2.11","7ljncbzlhh","one_one","1","direct_first","1","ss06an10","0","20","1","1","3","1","","0","1","0","null","","","<img src = 'targets/48.png' width = '100%;'>","null","","","","","","","","","",""
"","html-keyboard-response","170","1538538","0.0-10.0-3.11","7ljncbzlhh","one_one","1","direct_first","1","ss06an10","0","20","1","1","3","1","","0","1","0","884","","","<img src = 'targets/mask.png' width = '100%;'>","68","neg","GS","GSold","3","category3/CS7.png","","targets/48.png","indirect","0","11"
"","html-keyboard-response","171","1540041","0.0-10.0-0.12","7ljncbzlhh","one_one","1","direct_first","1","ss06an10","0","20","1","1","3","1","","0","1","0","null","","","<div style=""font-size:60px;"">+</div>","null","","","","","","","","","",""
"","html-keyboard-response","172","1540135","0.0-10.0-1.12","7ljncbzlhh","one_one","1","direct_first","1","ss06an10","0","20","1","1","3","1","","0","1","0","null","","","<img src = 'category2/CS6.png' width = '100%;'>","null","","","","","","","","","",""
"","html-keyboard-response","173","1540390","0.0-10.0-2.12","7ljncbzlhh","one_one","1","direct_first","1","ss06an10","0","20","1","1","3","1","","0","1","0","null","","","<img src = 'targets/11.png' width = '100%;'>","null","","","","","","","","","",""
"","html-keyboard-response","174","1542211","0.0-10.0-3.12","7ljncbzlhh","one_one","1","direct_first","1","ss06an10","0","20","1","1","3","1","","0","1","0","1820","","","<img src = 'targets/mask.png' width = '100%;'>","68","pos","CS","CS","2","category2/CS6.png","","targets/11.png","indirect","0","12"
"","html-keyboard-response","175","1543717","0.0-10.0-0.13","7ljncbzlhh","one_one","1","direct_first","1","ss06an10","0","20","1","1","3","1","","0","1","0","null","","","<div style=""font-size:60px;"">+</div>","null","","","","","","","","","",""
"","html-keyboard-response","176","1543811","0.0-10.0-1.13","7ljncbzlhh","one_one","1","direct_first","1","ss06an10","0","20","1","1","3","1","","0","1","0","null","","","<img src = 'category3/CS3.png' width = '100%;'>","null","","","","","","","","","",""
"","html-keyboard-response","177","1544065","0.0-10.0-2.13","7ljncbzlhh","one_one","1","direct_first","1","ss06an10","0","20","1","1","3","1","","0","1","0","null","","","<img src = 'targets/34.png' width = '100%;'>","null","","","","","","","","","",""
"","html-keyboard-response","178","1546527","0.0-10.0-3.13","7ljncbzlhh","one_one","1","direct_first","1","ss06an10","0","20","1","1","3","1","","0","1","0","2461","","","<img src = 'targets/mask.png' width = '100%;'>","75","neg","GS","GSold","3","category3/CS3.png","","targets/34.png","indirect","1","13"
"","html-keyboard-response","179","1548035","0.0-10.0-0.14","7ljncbzlhh","one_one","1","direct_first","1","ss06an10","0","20","1","1","3","1","","0","1","0","null","","","<div style=""font-size:60px;"">+</div>","null","","","","","","","","","",""
"","html-keyboard-response","180","1548126","0.0-10.0-1.14","7ljncbzlhh","one_one","1","direct_first","1","ss06an10","0","20","1","1","3","1","","0","1","0","null","","","<img src = 'category2/CS4.png' width = '100%;'>","null","","","","","","","","","",""
"","html-keyboard-response","181","1548384","0.0-10.0-2.14","7ljncbzlhh","one_one","1","direct_first","1","ss06an10","0","20","1","1","3","1","","0","1","0","null","","","<img src = 'targets/40.png' width = '100%;'>","null","","","","","","","","","",""
"","html-keyboard-response","182","1549568","0.0-10.0-3.14","7ljncbzlhh","one_one","1","direct_first","1","ss06an10","0","20","1","1","3","1","","0","1","0","1183","","","<img src = 'targets/mask.png' width = '100%;'>","68","pos","GS","GSold","2","category2/CS4.png","","targets/40.png","indirect","0","14"
"","html-keyboard-response","183","1551075","0.0-10.0-0.15","7ljncbzlhh","one_one","1","direct_first","1","ss06an10","0","20","1","1","3","1","","0","1","0","null","","","<div style=""font-size:60px;"">+</div>","null","","","","","","","","","",""
"","html-keyboard-response","184","1551167","0.0-10.0-1.15","7ljncbzlhh","one_one","1","direct_first","1","ss06an10","0","20","1","1","3","1","","0","1","0","null","","","<img src = 'category4/CS10.png' width = '100%;'>","null","","","","","","","","","",""
"","html-keyboard-response","185","1551423","0.0-10.0-2.15","7ljncbzlhh","one_one","1","direct_first","1","ss06an10","0","20","1","1","3","1","","0","1","0","null","","","<img src = 'targets/5.png' width = '100%;'>","null","","","","","","","","","",""
"","html-keyboard-response","186","1552449","0.0-10.0-3.15","7ljncbzlhh","one_one","1","direct_first","1","ss06an10","0","20","1","1","3","1","","0","1","0","1025","","","<img src = 'targets/mask.png' width = '100%;'>","75","pos","GS","GSold","4","category4/CS10.png","","targets/5.png","indirect","1","15"
"","survey-html-form","187","1555419","0.0-11.0","7ljncbzlhh","one_one","1","direct_first","1","ss06an10","0","20","1","1","3","1","","0","1","0","2469","","{}","","","","","","","","","","","",""
"","html-keyboard-response","188","1558423","0.0-12.0-0.0","7ljncbzlhh","one_one","1","direct_first","1","ss06an10","0","20","1","1","3","1","","0","1","0","null","","","<div style=""font-size:60px;"">+</div>","null","","","","","","","","","",""
"","html-keyboard-response","189","1558516","0.0-12.0-1.0","7ljncbzlhh","one_one","1","direct_first","1","ss06an10","0","20","1","1","3","1","","0","1","0","null","","","<img src = 'category1/ma.png' width = '100%;'>","null","","","","","","","","","",""
"","html-keyboard-response","190","1558772","0.0-12.0-2.0","7ljncbzlhh","one_one","1","direct_first","1","ss06an10","0","20","1","1","3","1","","0","1","0","null","","","<img src = 'targets/43.png' width = '100%;'>","null","","","","","","","","","",""
"","html-keyboard-response","191","1560145","0.0-12.0-3.0","7ljncbzlhh","one_one","1","direct_first","1","ss06an10","0","20","1","1","3","1","","0","1","0","1371","","","<img src = 'targets/mask.png' width = '100%;'>","68","neg","GS","abstract","1","category1/ma.png","","targets/43.png","indirect","0","16"
"","html-keyboard-response","192","1561648","0.0-12.0-0.1","7ljncbzlhh","one_one","1","direct_first","1","ss06an10","0","20","1","1","3","1","","0","1","0","null","","","<div style=""font-size:60px;"">+</div>","null","","","","","","","","","",""
"","html-keyboard-response","193","1561742","0.0-12.0-1.1","7ljncbzlhh","one_one","1","direct_first","1","ss06an10","0","20","1","1","3","1","","0","1","0","null","","","<img src = 'category3/GS1.png' width = '100%;'>","null","","","","","","","","","",""
"","html-keyboard-response","194","1561997","0.0-12.0-2.1","7ljncbzlhh","one_one","1","direct_first","1","ss06an10","0","20","1","1","3","1","","0","1","0","null","","","<img src = 'targets/39.png' width = '100%;'>","null","","","","","","","","","",""
"","html-keyboard-response","195","1563848","0.0-12.0-3.1","7ljncbzlhh","one_one","1","direct_first","1","ss06an10","0","20","1","1","3","1","","0","1","0","1849","","","<img src = 'targets/mask.png' width = '100%;'>","68","neg","GS","GSnew","3","category3/GS1.png","","targets/39.png","indirect","0","17"
"","html-keyboard-response","196","1565352","0.0-12.0-0.2","7ljncbzlhh","one_one","1","direct_first","1","ss06an10","0","20","1","1","3","1","","0","1","0","null","","","<div style=""font-size:60px;"">+</div>","null","","","","","","","","","",""
"","html-keyboard-response","197","1565445","0.0-12.0-1.2","7ljncbzlhh","one_one","1","direct_first","1","ss06an10","0","20","1","1","3","1","","0","1","0","null","","","<img src = 'category2/GS1.png' width = '100%;'>","null","","","","","","","","","",""
"","html-keyboard-response","198","1565698","0.0-12.0-2.2","7ljncbzlhh","one_one","1","direct_first","1","ss06an10","0","20","1","1","3","1","","0","1","0","null","","","<img src = 'targets/36.png' width = '100%;'>","null","","","","","","","","","",""
"","html-keyboard-response","199","1569316","0.0-12.0-3.2","7ljncbzlhh","one_one","1","direct_first","1","ss06an10","0","20","1","1","3","1","","0","1","0","3617","","","<img src = 'targets/mask.png' width = '100%;'>","68","pos","GS","GSnew","2","category2/GS1.png","","targets/36.png","indirect","0","18"
"","html-keyboard-response","200","1570820","0.0-12.0-0.3","7ljncbzlhh","one_one","1","direct_first","1","ss06an10","0","20","1","1","3","1","","0","1","0","null","","","<div style=""font-size:60px;"">+</div>","null","","","","","","","","","",""
"","html-keyboard-response","201","1570913","0.0-12.0-1.3","7ljncbzlhh","one_one","1","direct_first","1","ss06an10","0","20","1","1","3","1","","0","1","0","null","","","<img src = 'category4/GS2.png' width = '100%;'>","null","","","","","","","","","",""
"","html-keyboard-response","202","1571169","0.0-12.0-2.3","7ljncbzlhh","one_one","1","direct_first","1","ss06an10","0","20","1","1","3","1","","0","1","0","null","","","<img src = 'targets/13.png' width = '100%;'>","null","","","","","","","","","",""
"","html-keyboard-response","203","1572541","0.0-12.0-3.3","7ljncbzlhh","one_one","1","direct_first","1","ss06an10","0","20","1","1","3","1","","0","1","0","1370","","","<img src = 'targets/mask.png' width = '100%;'>","75","pos","GS","GSnew","4","category4/GS2.png","","targets/13.png","indirect","1","19"
"","html-keyboard-response","204","1574045","0.0-12.0-0.4","7ljncbzlhh","one_one","1","direct_first","1","ss06an10","0","20","1","1","3","1","","0","1","0","null","","","<div style=""font-size:60px;"">+</div>","null","","","","","","","","","",""
"","html-keyboard-response","205","1574136","0.0-12.0-1.4","7ljncbzlhh","one_one","1","direct_first","1","ss06an10","0","20","1","1","3","1","","0","1","0","null","","","<img src = 'category3/GS2.png' width = '100%;'>","null","","","","","","","","","",""
"","html-keyboard-response","206","1574390","0.0-12.0-2.4","7ljncbzlhh","one_one","1","direct_first","1","ss06an10","0","20","1","1","3","1","","0","1","0","null","","","<img src = 'targets/44.png' width = '100%;'>","null","","","","","","","","","",""
"","html-keyboard-response","207","1575039","0.0-12.0-3.4","7ljncbzlhh","one_one","1","direct_first","1","ss06an10","0","20","1","1","3","1","","0","1","0","647","","","<img src = 'targets/mask.png' width = '100%;'>","75","neg","GS","GSnew","3","category3/GS2.png","","targets/44.png","indirect","1","20"
"","html-keyboard-response","208","1576541","0.0-12.0-0.5","7ljncbzlhh","one_one","1","direct_first","1","ss06an10","0","20","1","1","3","1","","0","1","0","null","","","<div style=""font-size:60px;"">+</div>","null","","","","","","","","","",""
"","html-keyboard-response","209","1576634","0.0-12.0-1.5","7ljncbzlhh","one_one","1","direct_first","1","ss06an10","0","20","1","1","3","1","","0","1","0","null","","","<img src = 'category4/GS3.png' width = '100%;'>","null","","","","","","","","","",""
"","html-keyboard-response","210","1576889","0.0-12.0-2.5","7ljncbzlhh","one_one","1","direct_first","1","ss06an10","0","20","1","1","3","1","","0","1","0","null","","","<img src = 'targets/16.png' width = '100%;'>","null","","","","","","","","","",""
"","html-keyboard-response","211","1578634","0.0-12.0-3.5","7ljncbzlhh","one_one","1","direct_first","1","ss06an10","0","20","1","1","3","1","","0","1","0","1745","","","<img src = 'targets/mask.png' width = '100%;'>","68","pos","GS","GSnew","4","category4/GS3.png","","targets/16.png","indirect","0","21"
"","html-keyboard-response","212","1580138","0.0-12.0-0.6","7ljncbzlhh","one_one","1","direct_first","1","ss06an10","0","20","1","1","3","1","","0","1","0","null","","","<div style=""font-size:60px;"">+</div>","null","","","","","","","","","",""
"","html-keyboard-response","213","1580231","0.0-12.0-1.6","7ljncbzlhh","one_one","1","direct_first","1","ss06an10","0","20","1","1","3","1","","0","1","0","null","","","<img src = 'category3/GS3.png' width = '100%;'>","null","","","","","","","","","",""
"","html-keyboard-response","214","1580489","0.0-12.0-2.6","7ljncbzlhh","one_one","1","direct_first","1","ss06an10","0","20","1","1","3","1","","0","1","0","null","","","<img src = 'targets/47.png' width = '100%;'>","null","","","","","","","","","",""
"","html-keyboard-response","215","1581207","0.0-12.0-3.6","7ljncbzlhh","one_one","1","direct_first","1","ss06an10","0","20","1","1","3","1","","0","1","0","717","","","<img src = 'targets/mask.png' width = '100%;'>","75","neg","GS","GSnew","3","category3/GS3.png","","targets/47.png","indirect","1","22"
"","html-keyboard-response","216","1582709","0.0-12.0-0.7","7ljncbzlhh","one_one","1","direct_first","1","ss06an10","0","20","1","1","3","1","","0","1","0","null","","","<div style=""font-size:60px;"">+</div>","null","","","","","","","","","",""
"","html-keyboard-response","217","1582805","0.0-12.0-1.7","7ljncbzlhh","one_one","1","direct_first","1","ss06an10","0","20","1","1","3","1","","0","1","0","null","","","<img src = 'category1/GS2.png' width = '100%;'>","null","","","","","","","","","",""
"","html-keyboard-response","218","1583060","0.0-12.0-2.7","7ljncbzlhh","one_one","1","direct_first","1","ss06an10","0","20","1","1","3","1","","0","1","0","null","","","<img src = 'targets/32.png' width = '100%;'>","null","","","","","","","","","",""
"","html-keyboard-response","219","1583874","0.0-12.0-3.7","7ljncbzlhh","one_one","1","direct_first","1","ss06an10","0","20","1","1","3","1","","0","1","0","812","","","<img src = 'targets/mask.png' width = '100%;'>","75","neg","GS","GSnew","1","category1/GS2.png","","targets/32.png","indirect","1","23"
"","html-keyboard-response","220","1585379","0.0-12.0-0.8","7ljncbzlhh","one_one","1","direct_first","1","ss06an10","0","20","1","1","3","1","","0","1","0","null","","","<div style=""font-size:60px;"">+</div>","null","","","","","","","","","",""
"","html-keyboard-response","221","1585472","0.0-12.0-1.8","7ljncbzlhh","one_one","1","direct_first","1","ss06an10","0","20","1","1","3","1","","0","1","0","null","","","<img src = 'category2/GS2.png' width = '100%;'>","null","","","","","","","","","",""
"","html-keyboard-response","222","1585728","0.0-12.0-2.8","7ljncbzlhh","one_one","1","direct_first","1","ss06an10","0","20","1","1","3","1","","0","1","0","null","","","<img src = 'targets/27.png' width = '100%;'>","null","","","","","","","","","",""
"","html-keyboard-response","223","1586861","0.0-12.0-3.8","7ljncbzlhh","one_one","1","direct_first","1","ss06an10","0","20","1","1","3","1","","0","1","0","1133","","","<img src = 'targets/mask.png' width = '100%;'>","68","pos","GS","GSnew","2","category2/GS2.png","","targets/27.png","indirect","0","24"
"","html-keyboard-response","224","1588366","0.0-12.0-0.9","7ljncbzlhh","one_one","1","direct_first","1","ss06an10","0","20","1","1","3","1","","0","1","0","null","","","<div style=""font-size:60px;"">+</div>","null","","","","","","","","","",""
"","html-keyboard-response","225","1588459","0.0-12.0-1.9","7ljncbzlhh","one_one","1","direct_first","1","ss06an10","0","20","1","1","3","1","","0","1","0","null","","","<img src = 'category1/GS1.png' width = '100%;'>","null","","","","","","","","","",""
"","html-keyboard-response","226","1588714","0.0-12.0-2.9","7ljncbzlhh","one_one","1","direct_first","1","ss06an10","0","20","1","1","3","1","","0","1","0","null","","","<img src = 'targets/25.png' width = '100%;'>","null","","","","","","","","","",""
"","html-keyboard-response","227","1589477","0.0-12.0-3.9","7ljncbzlhh","one_one","1","direct_first","1","ss06an10","0","20","1","1","3","1","","0","1","0","761","","","<img src = 'targets/mask.png' width = '100%;'>","75","neg","GS","GSnew","1","category1/GS1.png","","targets/25.png","indirect","1","25"
"","html-keyboard-response","228","1590981","0.0-12.0-0.10","7ljncbzlhh","one_one","1","direct_first","1","ss06an10","0","20","1","1","3","1","","0","1","0","null","","","<div style=""font-size:60px;"">+</div>","null","","","","","","","","","",""
"","html-keyboard-response","229","1591074","0.0-12.0-1.10","7ljncbzlhh","one_one","1","direct_first","1","ss06an10","0","20","1","1","3","1","","0","1","0","null","","","<img src = 'category2/men.png' width = '100%;'>","null","","","","","","","","","",""
"","html-keyboard-response","230","1591330","0.0-12.0-2.10","7ljncbzlhh","one_one","1","direct_first","1","ss06an10","0","20","1","1","3","1","","0","1","0","null","","","<img src = 'targets/35.png' width = '100%;'>","null","","","","","","","","","",""
"","html-keyboard-response","231","1592318","0.0-12.0-3.10","7ljncbzlhh","one_one","1","direct_first","1","ss06an10","0","20","1","1","3","1","","0","1","0","988","","","<img src = 'targets/mask.png' width = '100%;'>","75","pos","GS","abstract","2","category2/men.png","","targets/35.png","indirect","1","26"
"","html-keyboard-response","232","1593820","0.0-12.0-0.11","7ljncbzlhh","one_one","1","direct_first","1","ss06an10","0","20","1","1","3","1","","0","1","0","null","","","<div style=""font-size:60px;"">+</div>","null","","","","","","","","","",""
"","html-keyboard-response","233","1593913","0.0-12.0-1.11","7ljncbzlhh","one_one","1","direct_first","1","ss06an10","0","20","1","1","3","1","","0","1","0","null","","","<img src = 'category2/GS3.png' width = '100%;'>","null","","","","","","","","","",""
"","html-keyboard-response","234","1594168","0.0-12.0-2.11","7ljncbzlhh","one_one","1","direct_first","1","ss06an10","0","20","1","1","3","1","","0","1","0","null","","","<img src = 'targets/23.png' width = '100%;'>","null","","","","","","","","","",""
"","html-keyboard-response","235","1595532","0.0-12.0-3.11","7ljncbzlhh","one_one","1","direct_first","1","ss06an10","0","20","1","1","3","1","","0","1","0","1364","","","<img src = 'targets/mask.png' width = '100%;'>","68","pos","GS","GSnew","2","category2/GS3.png","","targets/23.png","indirect","0","27"
"","html-keyboard-response","236","1597039","0.0-12.0-0.12","7ljncbzlhh","one_one","1","direct_first","1","ss06an10","0","20","1","1","3","1","","0","1","0","null","","","<div style=""font-size:60px;"">+</div>","null","","","","","","","","","",""
"","html-keyboard-response","237","1597132","0.0-12.0-1.12","7ljncbzlhh","one_one","1","direct_first","1","ss06an10","0","20","1","1","3","1","","0","1","0","null","","","<img src = 'category4/lin.png' width = '100%;'>","null","","","","","","","","","",""
"","html-keyboard-response","238","1597387","0.0-12.0-2.12","7ljncbzlhh","one_one","1","direct_first","1","ss06an10","0","20","1","1","3","1","","0","1","0","null","","","<img src = 'targets/4.png' width = '100%;'>","null","","","","","","","","","",""
"","html-keyboard-response","239","1600082","0.0-12.0-3.12","7ljncbzlhh","one_one","1","direct_first","1","ss06an10","0","20","1","1","3","1","","0","1","0","2693","","","<img src = 'targets/mask.png' width = '100%;'>","68","pos","GS","abstract","4","category4/lin.png","","targets/4.png","indirect","0","28"
"","html-keyboard-response","240","1601586","0.0-12.0-0.13","7ljncbzlhh","one_one","1","direct_first","1","ss06an10","0","20","1","1","3","1","","0","1","0","null","","","<div style=""font-size:60px;"">+</div>","null","","","","","","","","","",""
"","html-keyboard-response","241","1601680","0.0-12.0-1.13","7ljncbzlhh","one_one","1","direct_first","1","ss06an10","0","20","1","1","3","1","","0","1","0","null","","","<img src = 'category1/GS3.png' width = '100%;'>","null","","","","","","","","","",""
"","html-keyboard-response","242","1601935","0.0-12.0-2.13","7ljncbzlhh","one_one","1","direct_first","1","ss06an10","0","20","1","1","3","1","","0","1","0","null","","","<img src = 'targets/10.png' width = '100%;'>","null","","","","","","","","","",""
"","html-keyboard-response","243","1603774","0.0-12.0-3.13","7ljncbzlhh","one_one","1","direct_first","1","ss06an10","0","20","1","1","3","1","","0","1","0","1838","","","<img src = 'targets/mask.png' width = '100%;'>","75","neg","GS","GSnew","1","category1/GS3.png","","targets/10.png","indirect","1","29"
"","html-keyboard-response","244","1605276","0.0-12.0-0.14","7ljncbzlhh","one_one","1","direct_first","1","ss06an10","0","20","1","1","3","1","","0","1","0","null","","","<div style=""font-size:60px;"">+</div>","null","","","","","","","","","",""
"","html-keyboard-response","245","1605369","0.0-12.0-1.14","7ljncbzlhh","one_one","1","direct_first","1","ss06an10","0","20","1","1","3","1","","0","1","0","null","","","<img src = 'category3/wang.png' width = '100%;'>","null","","","","","","","","","",""
"","html-keyboard-response","246","1605621","0.0-12.0-2.14","7ljncbzlhh","one_one","1","direct_first","1","ss06an10","0","20","1","1","3","1","","0","1","0","null","","","<img src = 'targets/15.png' width = '100%;'>","null","","","","","","","","","",""
"","html-keyboard-response","247","1606336","0.0-12.0-3.14","7ljncbzlhh","one_one","1","direct_first","1","ss06an10","0","20","1","1","3","1","","0","1","0","713","","","<img src = 'targets/mask.png' width = '100%;'>","75","neg","GS","abstract","3","category3/wang.png","","targets/15.png","indirect","1","30"
"","html-keyboard-response","248","1607845","0.0-12.0-0.15","7ljncbzlhh","one_one","1","direct_first","1","ss06an10","0","20","1","1","3","1","","0","1","0","null","","","<div style=""font-size:60px;"">+</div>","null","","","","","","","","","",""
"","html-keyboard-response","249","1607938","0.0-12.0-1.15","7ljncbzlhh","one_one","1","direct_first","1","ss06an10","0","20","1","1","3","1","","0","1","0","null","","","<img src = 'category4/GS1.png' width = '100%;'>","null","","","","","","","","","",""
"","html-keyboard-response","250","1608196","0.0-12.0-2.15","7ljncbzlhh","one_one","1","direct_first","1","ss06an10","0","20","1","1","3","1","","0","1","0","null","","","<img src = 'targets/24.png' width = '100%;'>","null","","","","","","","","","",""
"","html-keyboard-response","251","1608770","0.0-12.0-3.15","7ljncbzlhh","one_one","1","direct_first","1","ss06an10","0","20","1","1","3","1","","0","1","0","573","","","<img src = 'targets/mask.png' width = '100%;'>","68","pos","GS","GSnew","4","category4/GS1.png","","targets/24.png","indirect","0","31"
"","survey-html-form","252","1617655","0.0-13.0","7ljncbzlhh","one_one","1","direct_first","1","ss06an10","0","20","1","1","3","1","","0","1","0","8379","","{}","","","","","","","","","","","",""
"","image-slider-response","253","1642696","0.0-14.0-0.0","7ljncbzlhh","one_one","1","direct_first","1","ss06an10","0","20","1","1","3","1","","0","1","0","24037","","","","","pos","All","all","2","category2/men_all.png","-35","","all","",""
"","image-slider-response","254","1648688","0.0-14.0-0.1","7ljncbzlhh","one_one","1","direct_first","1","ss06an10","0","20","1","1","3","1","","0","1","0","5991","","","","","neg","All","all","3","category3/wang_all.png","-50","","all","",""
"","image-slider-response","255","1654437","0.0-14.0-0.2","7ljncbzlhh","one_one","1","direct_first","1","ss06an10","0","20","1","1","3","1","","0","1","0","5746","","","","","pos","All","all","4","category4/lin_all.png","4","","all","",""
"","image-slider-response","256","1658729","0.0-14.0-0.3","7ljncbzlhh","one_one","1","direct_first","1","ss06an10","0","20","1","1","3","1","","0","1","0","4290","","","","","neg","All","all","1","category1/ma_all.png","-21","","all","",""
"","survey-text","257","1667416","0.0-15.0","7ljncbzlhh","one_one","1","direct_first","1","ss06an10","0","20","1","1","3","1","","0","1","0","8673","","{""comment"":""""}","","","","","","","","","","","",""
"","survey-html-form","258","1690329","0.0-16.0","7ljncbzlhh","one_one","1","direct_first","1","ss06an10","0","20","1","1","3","1","","0","1","0","22911","","{""hinschauen"":""0"",""ablenkung"":""1"",""gewissenhaft"":""0""}","","","","","","","","","","","",""
