"success","trial_type","trial_index","time_elapsed","internal_node_id","subject","condition","condition_code","measure","measure_code","codeword","gender","age","education","chinese","fach","handedness","comment","hinschauen","ablenkung","gewissenhaft","rt","url","responses","stimulus","key_press","val","type","type_specific","category","cs_selected","target","indirect","task","nr_pres","response"
"true","fullscreen","0","12635","0.0-0.0","qqn3sh6fd4","one_one","1","indirect_first","0","an06al26","0","26","1","1","3","1","","0","1","0","","","","","","","","","","","","","","",""
"","external-html","1","17910","0.0-1.0","qqn3sh6fd4","one_one","1","indirect_first","0","an06al26","0","26","1","1","3","1","","0","1","0","5186.320000095293","text/information.html","","","","","","","","","","","","",""
"","external-html","2","25356","0.0-2.0","qqn3sh6fd4","one_one","1","indirect_first","0","an06al26","0","26","1","1","3","1","","0","1","0","7406.889999983832","text/consent.html","","","","","","","","","","","","",""
"","survey-html-form","3","69717","0.0-3.0","qqn3sh6fd4","one_one","1","indirect_first","0","an06al26","0","26","1","1","3","1","","0","1","0","44355.93499999959","","{""codeword_enter"":""an06al26""}","","","","","","","","","","","",""
"","survey-html-form","4","88514","0.0-4.0","qqn3sh6fd4","one_one","1","indirect_first","0","an06al26","0","26","1","1","3","1","","0","1","0","18793.865000014193","","{""age"":""26"",""education"":""1"",""subject"":""3"",""gender"":""0"",""handedness"":""1"",""chinese"":""1""}","","","","","","","","","","","",""
"","survey-html-form","5","100144","0.0-5.0","qqn3sh6fd4","one_one","1","indirect_first","0","an06al26","0","26","1","1","3","1","","0","1","0","11628.140000044368","","{}","","","","","","","","","","","",""
"","html-keyboard-response","6","104151","0.0-6.0-0.0-0.0","qqn3sh6fd4","one_one","1","indirect_first","0","an06al26","0","26","1","1","3","1","","0","1","0","null","","","<div class = 'row'><div class = 'column'><img src = 'category3/CS10.png' width = '70%;'></div><div class = 'column'><img src = 'usneg/8485.bmp' width = '100%;'></div></div>","null","neg","CS","CS","3","category3/CS10.png","","","","",""
"","html-keyboard-response","7","106665","0.0-6.0-0.0-0.1","qqn3sh6fd4","one_one","1","indirect_first","0","an06al26","0","26","1","1","3","1","","0","1","0","null","","","<div class = 'row'><div class = 'column'><img src = 'category1/CS8.png' width = '70%;'></div><div class = 'column'><img src = 'uspos/2900.2.bmp' width = '100%;'></div></div>","null","pos","CS","CS","1","category1/CS8.png","","","","",""
"","html-keyboard-response","8","109178","0.0-6.0-0.0-0.2","qqn3sh6fd4","one_one","1","indirect_first","0","an06al26","0","26","1","1","3","1","","0","1","0","null","","","<div class = 'row'><div class = 'column'><img src = 'category2/CS8.png' width = '70%;'></div><div class = 'column'><img src = 'usneg/2750.bmp' width = '100%;'></div></div>","null","neg","CS","CS","2","category2/CS8.png","","","","",""
"","html-keyboard-response","9","111691","0.0-6.0-0.0-0.3","qqn3sh6fd4","one_one","1","indirect_first","0","an06al26","0","26","1","1","3","1","","0","1","0","null","","","<div class = 'row'><div class = 'column'><img src = 'uspos/2900.2.bmp' width = '100%;'></div><div class = 'column'><img src = 'category1/CS8.png' width = '70%;'></div></div>","null","pos","CS","CS","1","category1/CS8.png","","","","",""
"","html-keyboard-response","10","114202","0.0-6.0-0.0-0.4","qqn3sh6fd4","one_one","1","indirect_first","0","an06al26","0","26","1","1","3","1","","0","1","0","null","","","<div class = 'row'><div class = 'column'><img src = 'category4/CS6.png' width = '70%;'></div><div class = 'column'><img src = 'uspos/5700.bmp' width = '100%;'></div></div>","null","pos","CS","CS","4","category4/CS6.png","","","","",""
"","html-keyboard-response","11","116715","0.0-6.0-0.0-0.5","qqn3sh6fd4","one_one","1","indirect_first","0","an06al26","0","26","1","1","3","1","","0","1","0","null","","","<div class = 'row'><div class = 'column'><img src = 'uspos/2900.2.bmp' width = '100%;'></div><div class = 'column'><img src = 'category1/CS8.png' width = '70%;'></div></div>","null","pos","CS","CS","1","category1/CS8.png","","","","",""
"","html-keyboard-response","12","119228","0.0-6.0-0.0-0.6","qqn3sh6fd4","one_one","1","indirect_first","0","an06al26","0","26","1","1","3","1","","0","1","0","null","","","<div class = 'row'><div class = 'column'><img src = 'category4/CS6.png' width = '70%;'></div><div class = 'column'><img src = 'uspos/5700.bmp' width = '100%;'></div></div>","null","pos","CS","CS","4","category4/CS6.png","","","","",""
"","html-keyboard-response","13","121737","0.0-6.0-0.0-0.7","qqn3sh6fd4","one_one","1","indirect_first","0","an06al26","0","26","1","1","3","1","","0","1","0","null","","","<div class = 'row'><div class = 'column'><img src = 'category3/CS10.png' width = '70%;'></div><div class = 'column'><img src = 'usneg/8485.bmp' width = '100%;'></div></div>","null","neg","CS","CS","3","category3/CS10.png","","","","",""
"","html-keyboard-response","14","124250","0.0-6.0-0.0-0.8","qqn3sh6fd4","one_one","1","indirect_first","0","an06al26","0","26","1","1","3","1","","0","1","0","null","","","<div class = 'row'><div class = 'column'><img src = 'uspos/5700.bmp' width = '100%;'></div><div class = 'column'><img src = 'category4/CS6.png' width = '70%;'></div></div>","null","pos","CS","CS","4","category4/CS6.png","","","","",""
"","html-keyboard-response","15","126763","0.0-6.0-0.0-0.9","qqn3sh6fd4","one_one","1","indirect_first","0","an06al26","0","26","1","1","3","1","","0","1","0","null","","","<div class = 'row'><div class = 'column'><img src = 'usneg/8485.bmp' width = '100%;'></div><div class = 'column'><img src = 'category3/CS10.png' width = '70%;'></div></div>","null","neg","CS","CS","3","category3/CS10.png","","","","",""
"","html-keyboard-response","16","129275","0.0-6.0-0.0-0.10","qqn3sh6fd4","one_one","1","indirect_first","0","an06al26","0","26","1","1","3","1","","0","1","0","null","","","<div class = 'row'><div class = 'column'><img src = 'category2/CS8.png' width = '70%;'></div><div class = 'column'><img src = 'usneg/2750.bmp' width = '100%;'></div></div>","null","neg","CS","CS","2","category2/CS8.png","","","","",""
"","html-keyboard-response","17","131789","0.0-6.0-0.0-0.11","qqn3sh6fd4","one_one","1","indirect_first","0","an06al26","0","26","1","1","3","1","","0","1","0","null","","","<div class = 'row'><div class = 'column'><img src = 'usneg/8485.bmp' width = '100%;'></div><div class = 'column'><img src = 'category3/CS10.png' width = '70%;'></div></div>","null","neg","CS","CS","3","category3/CS10.png","","","","",""
"","html-keyboard-response","18","134300","0.0-6.0-0.0-0.12","qqn3sh6fd4","one_one","1","indirect_first","0","an06al26","0","26","1","1","3","1","","0","1","0","null","","","<div class = 'row'><div class = 'column'><img src = 'uspos/2900.2.bmp' width = '100%;'></div><div class = 'column'><img src = 'category1/CS8.png' width = '70%;'></div></div>","null","pos","CS","CS","1","category1/CS8.png","","","","",""
"","html-keyboard-response","19","136813","0.0-6.0-0.0-0.13","qqn3sh6fd4","one_one","1","indirect_first","0","an06al26","0","26","1","1","3","1","","0","1","0","null","","","<div class = 'row'><div class = 'column'><img src = 'category2/CS8.png' width = '70%;'></div><div class = 'column'><img src = 'usneg/2750.bmp' width = '100%;'></div></div>","null","neg","CS","CS","2","category2/CS8.png","","","","",""
"","html-keyboard-response","20","139323","0.0-6.0-0.0-0.14","qqn3sh6fd4","one_one","1","indirect_first","0","an06al26","0","26","1","1","3","1","","0","1","0","null","","","<div class = 'row'><div class = 'column'><img src = 'uspos/5700.bmp' width = '100%;'></div><div class = 'column'><img src = 'category4/CS6.png' width = '70%;'></div></div>","null","pos","CS","CS","4","category4/CS6.png","","","","",""
"","html-keyboard-response","21","141836","0.0-6.0-0.0-0.15","qqn3sh6fd4","one_one","1","indirect_first","0","an06al26","0","26","1","1","3","1","","0","1","0","null","","","<div class = 'row'><div class = 'column'><img src = 'category2/CS8.png' width = '70%;'></div><div class = 'column'><img src = 'usneg/2750.bmp' width = '100%;'></div></div>","null","neg","CS","CS","2","category2/CS8.png","","","","",""
"","html-keyboard-response","22","144345","0.0-6.0-0.0-0.16","qqn3sh6fd4","one_one","1","indirect_first","0","an06al26","0","26","1","1","3","1","","0","1","0","null","","","<div class = 'row'><div class = 'column'><img src = 'uspos/5700.bmp' width = '100%;'></div><div class = 'column'><img src = 'category4/CS6.png' width = '70%;'></div></div>","null","pos","CS","CS","4","category4/CS6.png","","","","",""
"","html-keyboard-response","23","146853","0.0-6.0-0.0-0.17","qqn3sh6fd4","one_one","1","indirect_first","0","an06al26","0","26","1","1","3","1","","0","1","0","null","","","<div class = 'row'><div class = 'column'><img src = 'usneg/8485.bmp' width = '100%;'></div><div class = 'column'><img src = 'category3/CS10.png' width = '70%;'></div></div>","null","neg","CS","CS","3","category3/CS10.png","","","","",""
"","html-keyboard-response","24","149362","0.0-6.0-0.0-0.18","qqn3sh6fd4","one_one","1","indirect_first","0","an06al26","0","26","1","1","3","1","","0","1","0","null","","","<div class = 'row'><div class = 'column'><img src = 'usneg/2750.bmp' width = '100%;'></div><div class = 'column'><img src = 'category2/CS8.png' width = '70%;'></div></div>","null","neg","CS","CS","2","category2/CS8.png","","","","",""
"","html-keyboard-response","25","151875","0.0-6.0-0.0-0.19","qqn3sh6fd4","one_one","1","indirect_first","0","an06al26","0","26","1","1","3","1","","0","1","0","null","","","<div class = 'row'><div class = 'column'><img src = 'uspos/2900.2.bmp' width = '100%;'></div><div class = 'column'><img src = 'category1/CS8.png' width = '70%;'></div></div>","null","pos","CS","CS","1","category1/CS8.png","","","","",""
"","survey-html-form","26","154214","0.0-6.0-1.0","qqn3sh6fd4","one_one","1","indirect_first","0","an06al26","0","26","1","1","3","1","","0","1","0","1832.3749999981374","","{}","","","","","","","","","","","",""
"","html-keyboard-response","27","158228","0.0-6.0-2.0-0.0","qqn3sh6fd4","one_one","1","indirect_first","0","an06al26","0","26","1","1","3","1","","0","1","0","null","","","<div class = 'row'><div class = 'column'><img src = 'category4/CS6.png' width = '70%;'></div><div class = 'column'><img src = 'uspos/5700.bmp' width = '100%;'></div></div>","null","pos","CS","CS","4","category4/CS6.png","","","","",""
"","html-keyboard-response","28","160736","0.0-6.0-2.0-0.1","qqn3sh6fd4","one_one","1","indirect_first","0","an06al26","0","26","1","1","3","1","","0","1","0","null","","","<div class = 'row'><div class = 'column'><img src = 'category2/CS8.png' width = '70%;'></div><div class = 'column'><img src = 'usneg/2750.bmp' width = '100%;'></div></div>","null","neg","CS","CS","2","category2/CS8.png","","","","",""
"","html-keyboard-response","29","163249","0.0-6.0-2.0-0.2","qqn3sh6fd4","one_one","1","indirect_first","0","an06al26","0","26","1","1","3","1","","0","1","0","null","","","<div class = 'row'><div class = 'column'><img src = 'uspos/5700.bmp' width = '100%;'></div><div class = 'column'><img src = 'category4/CS6.png' width = '70%;'></div></div>","null","pos","CS","CS","4","category4/CS6.png","","","","",""
"","html-keyboard-response","30","165762","0.0-6.0-2.0-0.3","qqn3sh6fd4","one_one","1","indirect_first","0","an06al26","0","26","1","1","3","1","","0","1","0","null","","","<div class = 'row'><div class = 'column'><img src = 'category3/CS10.png' width = '70%;'></div><div class = 'column'><img src = 'usneg/8485.bmp' width = '100%;'></div></div>","null","neg","CS","CS","3","category3/CS10.png","","","","",""
"","html-keyboard-response","31","168274","0.0-6.0-2.0-0.4","qqn3sh6fd4","one_one","1","indirect_first","0","an06al26","0","26","1","1","3","1","","0","1","0","null","","","<div class = 'row'><div class = 'column'><img src = 'category1/CS8.png' width = '70%;'></div><div class = 'column'><img src = 'uspos/2900.2.bmp' width = '100%;'></div></div>","null","pos","CS","CS","1","category1/CS8.png","","","","",""
"","html-keyboard-response","32","170788","0.0-6.0-2.0-0.5","qqn3sh6fd4","one_one","1","indirect_first","0","an06al26","0","26","1","1","3","1","","0","1","0","null","","","<div class = 'row'><div class = 'column'><img src = 'uspos/5700.bmp' width = '100%;'></div><div class = 'column'><img src = 'category4/CS6.png' width = '70%;'></div></div>","null","pos","CS","CS","4","category4/CS6.png","","","","",""
"","html-keyboard-response","33","173301","0.0-6.0-2.0-0.6","qqn3sh6fd4","one_one","1","indirect_first","0","an06al26","0","26","1","1","3","1","","0","1","0","null","","","<div class = 'row'><div class = 'column'><img src = 'category1/CS8.png' width = '70%;'></div><div class = 'column'><img src = 'uspos/2900.2.bmp' width = '100%;'></div></div>","null","pos","CS","CS","1","category1/CS8.png","","","","",""
"","html-keyboard-response","34","175809","0.0-6.0-2.0-0.7","qqn3sh6fd4","one_one","1","indirect_first","0","an06al26","0","26","1","1","3","1","","0","1","0","null","","","<div class = 'row'><div class = 'column'><img src = 'category3/CS10.png' width = '70%;'></div><div class = 'column'><img src = 'usneg/8485.bmp' width = '100%;'></div></div>","null","neg","CS","CS","3","category3/CS10.png","","","","",""
"","html-keyboard-response","35","178320","0.0-6.0-2.0-0.8","qqn3sh6fd4","one_one","1","indirect_first","0","an06al26","0","26","1","1","3","1","","0","1","0","null","","","<div class = 'row'><div class = 'column'><img src = 'category2/CS8.png' width = '70%;'></div><div class = 'column'><img src = 'usneg/2750.bmp' width = '100%;'></div></div>","null","neg","CS","CS","2","category2/CS8.png","","","","",""
"","html-keyboard-response","36","180831","0.0-6.0-2.0-0.9","qqn3sh6fd4","one_one","1","indirect_first","0","an06al26","0","26","1","1","3","1","","0","1","0","null","","","<div class = 'row'><div class = 'column'><img src = 'category1/CS8.png' width = '70%;'></div><div class = 'column'><img src = 'uspos/2900.2.bmp' width = '100%;'></div></div>","null","pos","CS","CS","1","category1/CS8.png","","","","",""
"","html-keyboard-response","37","183344","0.0-6.0-2.0-0.10","qqn3sh6fd4","one_one","1","indirect_first","0","an06al26","0","26","1","1","3","1","","0","1","0","null","","","<div class = 'row'><div class = 'column'><img src = 'usneg/8485.bmp' width = '100%;'></div><div class = 'column'><img src = 'category3/CS10.png' width = '70%;'></div></div>","null","neg","CS","CS","3","category3/CS10.png","","","","",""
"","html-keyboard-response","38","185855","0.0-6.0-2.0-0.11","qqn3sh6fd4","one_one","1","indirect_first","0","an06al26","0","26","1","1","3","1","","0","1","0","null","","","<div class = 'row'><div class = 'column'><img src = 'usneg/2750.bmp' width = '100%;'></div><div class = 'column'><img src = 'category2/CS8.png' width = '70%;'></div></div>","null","neg","CS","CS","2","category2/CS8.png","","","","",""
"","html-keyboard-response","39","188368","0.0-6.0-2.0-0.12","qqn3sh6fd4","one_one","1","indirect_first","0","an06al26","0","26","1","1","3","1","","0","1","0","null","","","<div class = 'row'><div class = 'column'><img src = 'uspos/2900.2.bmp' width = '100%;'></div><div class = 'column'><img src = 'category1/CS8.png' width = '70%;'></div></div>","null","pos","CS","CS","1","category1/CS8.png","","","","",""
"","html-keyboard-response","40","190878","0.0-6.0-2.0-0.13","qqn3sh6fd4","one_one","1","indirect_first","0","an06al26","0","26","1","1","3","1","","0","1","0","null","","","<div class = 'row'><div class = 'column'><img src = 'uspos/5700.bmp' width = '100%;'></div><div class = 'column'><img src = 'category4/CS6.png' width = '70%;'></div></div>","null","pos","CS","CS","4","category4/CS6.png","","","","",""
"","html-keyboard-response","41","193391","0.0-6.0-2.0-0.14","qqn3sh6fd4","one_one","1","indirect_first","0","an06al26","0","26","1","1","3","1","","0","1","0","null","","","<div class = 'row'><div class = 'column'><img src = 'category2/CS8.png' width = '70%;'></div><div class = 'column'><img src = 'usneg/2750.bmp' width = '100%;'></div></div>","null","neg","CS","CS","2","category2/CS8.png","","","","",""
"","html-keyboard-response","42","195900","0.0-6.0-2.0-0.15","qqn3sh6fd4","one_one","1","indirect_first","0","an06al26","0","26","1","1","3","1","","0","1","0","null","","","<div class = 'row'><div class = 'column'><img src = 'category4/CS6.png' width = '70%;'></div><div class = 'column'><img src = 'uspos/5700.bmp' width = '100%;'></div></div>","null","pos","CS","CS","4","category4/CS6.png","","","","",""
"","html-keyboard-response","43","198413","0.0-6.0-2.0-0.16","qqn3sh6fd4","one_one","1","indirect_first","0","an06al26","0","26","1","1","3","1","","0","1","0","null","","","<div class = 'row'><div class = 'column'><img src = 'usneg/8485.bmp' width = '100%;'></div><div class = 'column'><img src = 'category3/CS10.png' width = '70%;'></div></div>","null","neg","CS","CS","3","category3/CS10.png","","","","",""
"","html-keyboard-response","44","200923","0.0-6.0-2.0-0.17","qqn3sh6fd4","one_one","1","indirect_first","0","an06al26","0","26","1","1","3","1","","0","1","0","null","","","<div class = 'row'><div class = 'column'><img src = 'usneg/2750.bmp' width = '100%;'></div><div class = 'column'><img src = 'category2/CS8.png' width = '70%;'></div></div>","null","neg","CS","CS","2","category2/CS8.png","","","","",""
"","html-keyboard-response","45","203436","0.0-6.0-2.0-0.18","qqn3sh6fd4","one_one","1","indirect_first","0","an06al26","0","26","1","1","3","1","","0","1","0","null","","","<div class = 'row'><div class = 'column'><img src = 'uspos/2900.2.bmp' width = '100%;'></div><div class = 'column'><img src = 'category1/CS8.png' width = '70%;'></div></div>","null","pos","CS","CS","1","category1/CS8.png","","","","",""
"","html-keyboard-response","46","205944","0.0-6.0-2.0-0.19","qqn3sh6fd4","one_one","1","indirect_first","0","an06al26","0","26","1","1","3","1","","0","1","0","null","","","<div class = 'row'><div class = 'column'><img src = 'category3/CS10.png' width = '70%;'></div><div class = 'column'><img src = 'usneg/8485.bmp' width = '100%;'></div></div>","null","neg","CS","CS","3","category3/CS10.png","","","","",""
"","survey-html-form","47","207879","0.0-6.0-3.0","qqn3sh6fd4","one_one","1","indirect_first","0","an06al26","0","26","1","1","3","1","","0","1","0","1429.230000008829","","{}","","","","","","","","","","","",""
"","html-keyboard-response","48","211885","0.0-6.0-4.0-0.0","qqn3sh6fd4","one_one","1","indirect_first","0","an06al26","0","26","1","1","3","1","","0","1","0","null","","","<div class = 'row'><div class = 'column'><img src = 'uspos/2900.2.bmp' width = '100%;'></div><div class = 'column'><img src = 'category1/CS8.png' width = '70%;'></div></div>","null","pos","CS","CS","1","category1/CS8.png","","","","",""
"","html-keyboard-response","49","214397","0.0-6.0-4.0-0.1","qqn3sh6fd4","one_one","1","indirect_first","0","an06al26","0","26","1","1","3","1","","0","1","0","null","","","<div class = 'row'><div class = 'column'><img src = 'category4/CS6.png' width = '70%;'></div><div class = 'column'><img src = 'uspos/5700.bmp' width = '100%;'></div></div>","null","pos","CS","CS","4","category4/CS6.png","","","","",""
"","html-keyboard-response","50","216911","0.0-6.0-4.0-0.2","qqn3sh6fd4","one_one","1","indirect_first","0","an06al26","0","26","1","1","3","1","","0","1","0","null","","","<div class = 'row'><div class = 'column'><img src = 'uspos/2900.2.bmp' width = '100%;'></div><div class = 'column'><img src = 'category1/CS8.png' width = '70%;'></div></div>","null","pos","CS","CS","1","category1/CS8.png","","","","",""
"","html-keyboard-response","51","219423","0.0-6.0-4.0-0.3","qqn3sh6fd4","one_one","1","indirect_first","0","an06al26","0","26","1","1","3","1","","0","1","0","null","","","<div class = 'row'><div class = 'column'><img src = 'uspos/5700.bmp' width = '100%;'></div><div class = 'column'><img src = 'category4/CS6.png' width = '70%;'></div></div>","null","pos","CS","CS","4","category4/CS6.png","","","","",""
"","html-keyboard-response","52","221936","0.0-6.0-4.0-0.4","qqn3sh6fd4","one_one","1","indirect_first","0","an06al26","0","26","1","1","3","1","","0","1","0","null","","","<div class = 'row'><div class = 'column'><img src = 'category2/CS8.png' width = '70%;'></div><div class = 'column'><img src = 'usneg/2750.bmp' width = '100%;'></div></div>","null","neg","CS","CS","2","category2/CS8.png","","","","",""
"","html-keyboard-response","53","224448","0.0-6.0-4.0-0.5","qqn3sh6fd4","one_one","1","indirect_first","0","an06al26","0","26","1","1","3","1","","0","1","0","null","","","<div class = 'row'><div class = 'column'><img src = 'usneg/8485.bmp' width = '100%;'></div><div class = 'column'><img src = 'category3/CS10.png' width = '70%;'></div></div>","null","neg","CS","CS","3","category3/CS10.png","","","","",""
"","html-keyboard-response","54","226961","0.0-6.0-4.0-0.6","qqn3sh6fd4","one_one","1","indirect_first","0","an06al26","0","26","1","1","3","1","","0","1","0","null","","","<div class = 'row'><div class = 'column'><img src = 'category4/CS6.png' width = '70%;'></div><div class = 'column'><img src = 'uspos/5700.bmp' width = '100%;'></div></div>","null","pos","CS","CS","4","category4/CS6.png","","","","",""
"","html-keyboard-response","55","229474","0.0-6.0-4.0-0.7","qqn3sh6fd4","one_one","1","indirect_first","0","an06al26","0","26","1","1","3","1","","0","1","0","null","","","<div class = 'row'><div class = 'column'><img src = 'uspos/2900.2.bmp' width = '100%;'></div><div class = 'column'><img src = 'category1/CS8.png' width = '70%;'></div></div>","null","pos","CS","CS","1","category1/CS8.png","","","","",""
"","html-keyboard-response","56","231984","0.0-6.0-4.0-0.8","qqn3sh6fd4","one_one","1","indirect_first","0","an06al26","0","26","1","1","3","1","","0","1","0","null","","","<div class = 'row'><div class = 'column'><img src = 'category3/CS10.png' width = '70%;'></div><div class = 'column'><img src = 'usneg/8485.bmp' width = '100%;'></div></div>","null","neg","CS","CS","3","category3/CS10.png","","","","",""
"","html-keyboard-response","57","234498","0.0-6.0-4.0-0.9","qqn3sh6fd4","one_one","1","indirect_first","0","an06al26","0","26","1","1","3","1","","0","1","0","null","","","<div class = 'row'><div class = 'column'><img src = 'uspos/2900.2.bmp' width = '100%;'></div><div class = 'column'><img src = 'category1/CS8.png' width = '70%;'></div></div>","null","pos","CS","CS","1","category1/CS8.png","","","","",""
"","html-keyboard-response","58","237009","0.0-6.0-4.0-0.10","qqn3sh6fd4","one_one","1","indirect_first","0","an06al26","0","26","1","1","3","1","","0","1","0","null","","","<div class = 'row'><div class = 'column'><img src = 'usneg/2750.bmp' width = '100%;'></div><div class = 'column'><img src = 'category2/CS8.png' width = '70%;'></div></div>","null","neg","CS","CS","2","category2/CS8.png","","","","",""
"","html-keyboard-response","59","239521","0.0-6.0-4.0-0.11","qqn3sh6fd4","one_one","1","indirect_first","0","an06al26","0","26","1","1","3","1","","0","1","0","null","","","<div class = 'row'><div class = 'column'><img src = 'category3/CS10.png' width = '70%;'></div><div class = 'column'><img src = 'usneg/8485.bmp' width = '100%;'></div></div>","null","neg","CS","CS","3","category3/CS10.png","","","","",""
"","html-keyboard-response","60","242034","0.0-6.0-4.0-0.12","qqn3sh6fd4","one_one","1","indirect_first","0","an06al26","0","26","1","1","3","1","","0","1","0","null","","","<div class = 'row'><div class = 'column'><img src = 'category2/CS8.png' width = '70%;'></div><div class = 'column'><img src = 'usneg/2750.bmp' width = '100%;'></div></div>","null","neg","CS","CS","2","category2/CS8.png","","","","",""
"","html-keyboard-response","61","244543","0.0-6.0-4.0-0.13","qqn3sh6fd4","one_one","1","indirect_first","0","an06al26","0","26","1","1","3","1","","0","1","0","null","","","<div class = 'row'><div class = 'column'><img src = 'uspos/2900.2.bmp' width = '100%;'></div><div class = 'column'><img src = 'category1/CS8.png' width = '70%;'></div></div>","null","pos","CS","CS","1","category1/CS8.png","","","","",""
"","html-keyboard-response","62","247055","0.0-6.0-4.0-0.14","qqn3sh6fd4","one_one","1","indirect_first","0","an06al26","0","26","1","1","3","1","","0","1","0","null","","","<div class = 'row'><div class = 'column'><img src = 'category3/CS10.png' width = '70%;'></div><div class = 'column'><img src = 'usneg/8485.bmp' width = '100%;'></div></div>","null","neg","CS","CS","3","category3/CS10.png","","","","",""
"","html-keyboard-response","63","249568","0.0-6.0-4.0-0.15","qqn3sh6fd4","one_one","1","indirect_first","0","an06al26","0","26","1","1","3","1","","0","1","0","null","","","<div class = 'row'><div class = 'column'><img src = 'usneg/2750.bmp' width = '100%;'></div><div class = 'column'><img src = 'category2/CS8.png' width = '70%;'></div></div>","null","neg","CS","CS","2","category2/CS8.png","","","","",""
"","html-keyboard-response","64","252081","0.0-6.0-4.0-0.16","qqn3sh6fd4","one_one","1","indirect_first","0","an06al26","0","26","1","1","3","1","","0","1","0","null","","","<div class = 'row'><div class = 'column'><img src = 'category4/CS6.png' width = '70%;'></div><div class = 'column'><img src = 'uspos/5700.bmp' width = '100%;'></div></div>","null","pos","CS","CS","4","category4/CS6.png","","","","",""
"","html-keyboard-response","65","254595","0.0-6.0-4.0-0.17","qqn3sh6fd4","one_one","1","indirect_first","0","an06al26","0","26","1","1","3","1","","0","1","0","null","","","<div class = 'row'><div class = 'column'><img src = 'usneg/8485.bmp' width = '100%;'></div><div class = 'column'><img src = 'category3/CS10.png' width = '70%;'></div></div>","null","neg","CS","CS","3","category3/CS10.png","","","","",""
"","html-keyboard-response","66","257108","0.0-6.0-4.0-0.18","qqn3sh6fd4","one_one","1","indirect_first","0","an06al26","0","26","1","1","3","1","","0","1","0","null","","","<div class = 'row'><div class = 'column'><img src = 'uspos/5700.bmp' width = '100%;'></div><div class = 'column'><img src = 'category4/CS6.png' width = '70%;'></div></div>","null","pos","CS","CS","4","category4/CS6.png","","","","",""
"","html-keyboard-response","67","259621","0.0-6.0-4.0-0.19","qqn3sh6fd4","one_one","1","indirect_first","0","an06al26","0","26","1","1","3","1","","0","1","0","null","","","<div class = 'row'><div class = 'column'><img src = 'category2/CS8.png' width = '70%;'></div><div class = 'column'><img src = 'usneg/2750.bmp' width = '100%;'></div></div>","null","neg","CS","CS","2","category2/CS8.png","","","","",""
"","survey-html-form","68","261710","0.0-6.0-5.0","qqn3sh6fd4","one_one","1","indirect_first","0","an06al26","0","26","1","1","3","1","","0","1","0","1587.7299999119714","","{}","","","","","","","","","","","",""
"","html-keyboard-response","69","265725","0.0-6.0-6.0-0.0","qqn3sh6fd4","one_one","1","indirect_first","0","an06al26","0","26","1","1","3","1","","0","1","0","null","","","<div class = 'row'><div class = 'column'><img src = 'category3/CS10.png' width = '70%;'></div><div class = 'column'><img src = 'usneg/8485.bmp' width = '100%;'></div></div>","null","neg","CS","CS","3","category3/CS10.png","","","","",""
"","html-keyboard-response","70","268231","0.0-6.0-6.0-0.1","qqn3sh6fd4","one_one","1","indirect_first","0","an06al26","0","26","1","1","3","1","","0","1","0","null","","","<div class = 'row'><div class = 'column'><img src = 'category2/CS8.png' width = '70%;'></div><div class = 'column'><img src = 'usneg/2750.bmp' width = '100%;'></div></div>","null","neg","CS","CS","2","category2/CS8.png","","","","",""
"","html-keyboard-response","71","270744","0.0-6.0-6.0-0.2","qqn3sh6fd4","one_one","1","indirect_first","0","an06al26","0","26","1","1","3","1","","0","1","0","null","","","<div class = 'row'><div class = 'column'><img src = 'uspos/5700.bmp' width = '100%;'></div><div class = 'column'><img src = 'category4/CS6.png' width = '70%;'></div></div>","null","pos","CS","CS","4","category4/CS6.png","","","","",""
"","html-keyboard-response","72","273257","0.0-6.0-6.0-0.3","qqn3sh6fd4","one_one","1","indirect_first","0","an06al26","0","26","1","1","3","1","","0","1","0","null","","","<div class = 'row'><div class = 'column'><img src = 'category2/CS8.png' width = '70%;'></div><div class = 'column'><img src = 'usneg/2750.bmp' width = '100%;'></div></div>","null","neg","CS","CS","2","category2/CS8.png","","","","",""
"","html-keyboard-response","73","275769","0.0-6.0-6.0-0.4","qqn3sh6fd4","one_one","1","indirect_first","0","an06al26","0","26","1","1","3","1","","0","1","0","null","","","<div class = 'row'><div class = 'column'><img src = 'category4/CS6.png' width = '70%;'></div><div class = 'column'><img src = 'uspos/5700.bmp' width = '100%;'></div></div>","null","pos","CS","CS","4","category4/CS6.png","","","","",""
"","html-keyboard-response","74","278280","0.0-6.0-6.0-0.5","qqn3sh6fd4","one_one","1","indirect_first","0","an06al26","0","26","1","1","3","1","","0","1","0","null","","","<div class = 'row'><div class = 'column'><img src = 'category2/CS8.png' width = '70%;'></div><div class = 'column'><img src = 'usneg/2750.bmp' width = '100%;'></div></div>","null","neg","CS","CS","2","category2/CS8.png","","","","",""
"","html-keyboard-response","75","280793","0.0-6.0-6.0-0.6","qqn3sh6fd4","one_one","1","indirect_first","0","an06al26","0","26","1","1","3","1","","0","1","0","null","","","<div class = 'row'><div class = 'column'><img src = 'category1/CS8.png' width = '70%;'></div><div class = 'column'><img src = 'uspos/2900.2.bmp' width = '100%;'></div></div>","null","pos","CS","CS","1","category1/CS8.png","","","","",""
"","html-keyboard-response","76","283306","0.0-6.0-6.0-0.7","qqn3sh6fd4","one_one","1","indirect_first","0","an06al26","0","26","1","1","3","1","","0","1","0","null","","","<div class = 'row'><div class = 'column'><img src = 'category3/CS10.png' width = '70%;'></div><div class = 'column'><img src = 'usneg/8485.bmp' width = '100%;'></div></div>","null","neg","CS","CS","3","category3/CS10.png","","","","",""
"","html-keyboard-response","77","285813","0.0-6.0-6.0-0.8","qqn3sh6fd4","one_one","1","indirect_first","0","an06al26","0","26","1","1","3","1","","0","1","0","null","","","<div class = 'row'><div class = 'column'><img src = 'usneg/2750.bmp' width = '100%;'></div><div class = 'column'><img src = 'category2/CS8.png' width = '70%;'></div></div>","null","neg","CS","CS","2","category2/CS8.png","","","","",""
"","html-keyboard-response","78","288326","0.0-6.0-6.0-0.9","qqn3sh6fd4","one_one","1","indirect_first","0","an06al26","0","26","1","1","3","1","","0","1","0","null","","","<div class = 'row'><div class = 'column'><img src = 'uspos/5700.bmp' width = '100%;'></div><div class = 'column'><img src = 'category4/CS6.png' width = '70%;'></div></div>","null","pos","CS","CS","4","category4/CS6.png","","","","",""
"","html-keyboard-response","79","290837","0.0-6.0-6.0-0.10","qqn3sh6fd4","one_one","1","indirect_first","0","an06al26","0","26","1","1","3","1","","0","1","0","null","","","<div class = 'row'><div class = 'column'><img src = 'uspos/2900.2.bmp' width = '100%;'></div><div class = 'column'><img src = 'category1/CS8.png' width = '70%;'></div></div>","null","pos","CS","CS","1","category1/CS8.png","","","","",""
"","html-keyboard-response","80","293350","0.0-6.0-6.0-0.11","qqn3sh6fd4","one_one","1","indirect_first","0","an06al26","0","26","1","1","3","1","","0","1","0","null","","","<div class = 'row'><div class = 'column'><img src = 'category3/CS10.png' width = '70%;'></div><div class = 'column'><img src = 'usneg/8485.bmp' width = '100%;'></div></div>","null","neg","CS","CS","3","category3/CS10.png","","","","",""
"","html-keyboard-response","81","295862","0.0-6.0-6.0-0.12","qqn3sh6fd4","one_one","1","indirect_first","0","an06al26","0","26","1","1","3","1","","0","1","0","null","","","<div class = 'row'><div class = 'column'><img src = 'category1/CS8.png' width = '70%;'></div><div class = 'column'><img src = 'uspos/2900.2.bmp' width = '100%;'></div></div>","null","pos","CS","CS","1","category1/CS8.png","","","","",""
"","html-keyboard-response","82","298375","0.0-6.0-6.0-0.13","qqn3sh6fd4","one_one","1","indirect_first","0","an06al26","0","26","1","1","3","1","","0","1","0","null","","","<div class = 'row'><div class = 'column'><img src = 'category2/CS8.png' width = '70%;'></div><div class = 'column'><img src = 'usneg/2750.bmp' width = '100%;'></div></div>","null","neg","CS","CS","2","category2/CS8.png","","","","",""
"","html-keyboard-response","83","300888","0.0-6.0-6.0-0.14","qqn3sh6fd4","one_one","1","indirect_first","0","an06al26","0","26","1","1","3","1","","0","1","0","null","","","<div class = 'row'><div class = 'column'><img src = 'category3/CS10.png' width = '70%;'></div><div class = 'column'><img src = 'usneg/8485.bmp' width = '100%;'></div></div>","null","neg","CS","CS","3","category3/CS10.png","","","","",""
"","html-keyboard-response","84","303401","0.0-6.0-6.0-0.15","qqn3sh6fd4","one_one","1","indirect_first","0","an06al26","0","26","1","1","3","1","","0","1","0","null","","","<div class = 'row'><div class = 'column'><img src = 'uspos/5700.bmp' width = '100%;'></div><div class = 'column'><img src = 'category4/CS6.png' width = '70%;'></div></div>","null","pos","CS","CS","4","category4/CS6.png","","","","",""
"","html-keyboard-response","85","305912","0.0-6.0-6.0-0.16","qqn3sh6fd4","one_one","1","indirect_first","0","an06al26","0","26","1","1","3","1","","0","1","0","null","","","<div class = 'row'><div class = 'column'><img src = 'category1/CS8.png' width = '70%;'></div><div class = 'column'><img src = 'uspos/2900.2.bmp' width = '100%;'></div></div>","null","pos","CS","CS","1","category1/CS8.png","","","","",""
"","html-keyboard-response","86","308424","0.0-6.0-6.0-0.17","qqn3sh6fd4","one_one","1","indirect_first","0","an06al26","0","26","1","1","3","1","","0","1","0","null","","","<div class = 'row'><div class = 'column'><img src = 'category4/CS6.png' width = '70%;'></div><div class = 'column'><img src = 'uspos/5700.bmp' width = '100%;'></div></div>","null","pos","CS","CS","4","category4/CS6.png","","","","",""
"","html-keyboard-response","87","310937","0.0-6.0-6.0-0.18","qqn3sh6fd4","one_one","1","indirect_first","0","an06al26","0","26","1","1","3","1","","0","1","0","null","","","<div class = 'row'><div class = 'column'><img src = 'uspos/2900.2.bmp' width = '100%;'></div><div class = 'column'><img src = 'category1/CS8.png' width = '70%;'></div></div>","null","pos","CS","CS","1","category1/CS8.png","","","","",""
"","html-keyboard-response","88","313448","0.0-6.0-6.0-0.19","qqn3sh6fd4","one_one","1","indirect_first","0","an06al26","0","26","1","1","3","1","","0","1","0","null","","","<div class = 'row'><div class = 'column'><img src = 'usneg/8485.bmp' width = '100%;'></div><div class = 'column'><img src = 'category3/CS10.png' width = '70%;'></div></div>","null","neg","CS","CS","3","category3/CS10.png","","","","",""
"","html-keyboard-response","89","324645","0.0-7.0","qqn3sh6fd4","one_one","1","indirect_first","0","an06al26","0","26","1","1","3","1","","0","1","0","10690.03000005614","","","<p>Sie sehen nun die chinesischen Zeichen nur ganz kurz. Danach sehen Sie die jeweilige Aussprache der Zeichen als Silbe auf dem Bildschrim. Ihre Aufgabe ist es, für jede Silbe anzugeben, ob diese etwas angenehmes, oder unangenehmes bedeuten könnte. Verlassen Sie sich hier vor allem auf Ihre Intuition.<br><br>Die Zeichen werden nur zur Orientierung dargestellt, beachten Sie sie deshalb nicht. Konzentrieren Sie sich vor allem auf die Silben. <br>Reagieren Sie mit folgenden zwei Tasten: <br><br><b>'D' </b> wenn die Silbe etwas <b>unangenehmes</b> bedeuten könnte. <br><b>'K'</b> wenn die Silbe etwas <b>angenehmes</b> bedeuten könnte. <br><br>Bitte legen Sie nun den Zeigefinger der linken Hand auf die Taste 'D' und den Zeigefinger der rechten Hand auf die Taste 'K'. <br>Reagieren Sie auf jede Silbe so schnell wie möglich. Uns interessiert Ihre spontane Reaktion. <br> <br> <br>Drücken Sie 'D' oder 'K', um die nächste Aufgabe zu starten. </p>","75","","","","","","","","","",""
"","html-keyboard-response","90","327656","0.0-8.0-0.0","qqn3sh6fd4","one_one","1","indirect_first","0","an06al26","0","26","1","1","3","1","","0","1","0","null","","","<div style=""font-size:60px;"">+</div>","null","","","","","","","","","",""
"","html-keyboard-response","91","327752","0.0-8.0-1.0","qqn3sh6fd4","one_one","1","indirect_first","0","an06al26","0","26","1","1","3","1","","0","1","0","null","","","<img src = 'category2/CS5.png' width = '100%;'>","null","","","","","","","","","",""
"","html-keyboard-response","92","328010","0.0-8.0-2.0","qqn3sh6fd4","one_one","1","indirect_first","0","an06al26","0","26","1","1","3","1","","0","1","0","null","","","<img src = 'targets/4.png' width = '100%;'>","null","","","","","","","","","",""
"","html-keyboard-response","93","330179","0.0-8.0-3.0","qqn3sh6fd4","one_one","1","indirect_first","0","an06al26","0","26","1","1","3","1","","0","1","0","2167.3700000392273","","","<img src = 'targets/mask.png' width = '100%;'>","68","neg","GS","GSold","2","category2/CS5.png","targets/4.png","0","indirect","0",""
"","html-keyboard-response","94","331685","0.0-8.0-0.1","qqn3sh6fd4","one_one","1","indirect_first","0","an06al26","0","26","1","1","3","1","","0","1","0","null","","","<div style=""font-size:60px;"">+</div>","null","","","","","","","","","",""
"","html-keyboard-response","95","331782","0.0-8.0-1.1","qqn3sh6fd4","one_one","1","indirect_first","0","an06al26","0","26","1","1","3","1","","0","1","0","null","","","<img src = 'category4/CS6.png' width = '100%;'>","null","","","","","","","","","",""
"","html-keyboard-response","96","332035","0.0-8.0-2.1","qqn3sh6fd4","one_one","1","indirect_first","0","an06al26","0","26","1","1","3","1","","0","1","0","null","","","<img src = 'targets/6.png' width = '100%;'>","null","","","","","","","","","",""
"","html-keyboard-response","97","334289","0.0-8.0-3.1","qqn3sh6fd4","one_one","1","indirect_first","0","an06al26","0","26","1","1","3","1","","0","1","0","2252.7749999426305","","","<img src = 'targets/mask.png' width = '100%;'>","75","pos","CS","CS","4","category4/CS6.png","targets/6.png","1","indirect","1",""
"","html-keyboard-response","98","335800","0.0-8.0-0.2","qqn3sh6fd4","one_one","1","indirect_first","0","an06al26","0","26","1","1","3","1","","0","1","0","null","","","<div style=""font-size:60px;"">+</div>","null","","","","","","","","","",""
"","html-keyboard-response","99","335897","0.0-8.0-1.2","qqn3sh6fd4","one_one","1","indirect_first","0","an06al26","0","26","1","1","3","1","","0","1","0","null","","","<img src = 'category1/CS1.png' width = '100%;'>","null","","","","","","","","","",""
"","html-keyboard-response","100","336155","0.0-8.0-2.2","qqn3sh6fd4","one_one","1","indirect_first","0","an06al26","0","26","1","1","3","1","","0","1","0","null","","","<img src = 'targets/24.png' width = '100%;'>","null","","","","","","","","","",""
"","html-keyboard-response","101","338260","0.0-8.0-3.2","qqn3sh6fd4","one_one","1","indirect_first","0","an06al26","0","26","1","1","3","1","","0","1","0","2103.3949999837205","","","<img src = 'targets/mask.png' width = '100%;'>","75","pos","GS","GSold","1","category1/CS1.png","targets/24.png","1","indirect","2",""
"","html-keyboard-response","102","339772","0.0-8.0-0.3","qqn3sh6fd4","one_one","1","indirect_first","0","an06al26","0","26","1","1","3","1","","0","1","0","null","","","<div style=""font-size:60px;"">+</div>","null","","","","","","","","","",""
"","html-keyboard-response","103","339864","0.0-8.0-1.3","qqn3sh6fd4","one_one","1","indirect_first","0","an06al26","0","26","1","1","3","1","","0","1","0","null","","","<img src = 'category1/CS4.png' width = '100%;'>","null","","","","","","","","","",""
"","html-keyboard-response","104","340122","0.0-8.0-2.3","qqn3sh6fd4","one_one","1","indirect_first","0","an06al26","0","26","1","1","3","1","","0","1","0","null","","","<img src = 'targets/25.png' width = '100%;'>","null","","","","","","","","","",""
"","html-keyboard-response","105","342012","0.0-8.0-3.3","qqn3sh6fd4","one_one","1","indirect_first","0","an06al26","0","26","1","1","3","1","","0","1","0","1888.829999952577","","","<img src = 'targets/mask.png' width = '100%;'>","75","pos","GS","GSold","1","category1/CS4.png","targets/25.png","1","indirect","3",""
"","html-keyboard-response","106","343524","0.0-8.0-0.4","qqn3sh6fd4","one_one","1","indirect_first","0","an06al26","0","26","1","1","3","1","","0","1","0","null","","","<div style=""font-size:60px;"">+</div>","null","","","","","","","","","",""
"","html-keyboard-response","107","343620","0.0-8.0-1.4","qqn3sh6fd4","one_one","1","indirect_first","0","an06al26","0","26","1","1","3","1","","0","1","0","null","","","<img src = 'category3/CS1.png' width = '100%;'>","null","","","","","","","","","",""
"","html-keyboard-response","108","343878","0.0-8.0-2.4","qqn3sh6fd4","one_one","1","indirect_first","0","an06al26","0","26","1","1","3","1","","0","1","0","null","","","<img src = 'targets/1.png' width = '100%;'>","null","","","","","","","","","",""
"","html-keyboard-response","109","345497","0.0-8.0-3.4","qqn3sh6fd4","one_one","1","indirect_first","0","an06al26","0","26","1","1","3","1","","0","1","0","1617.644999991171","","","<img src = 'targets/mask.png' width = '100%;'>","68","neg","GS","GSold","3","category3/CS1.png","targets/1.png","0","indirect","4",""
"","html-keyboard-response","110","347007","0.0-8.0-0.5","qqn3sh6fd4","one_one","1","indirect_first","0","an06al26","0","26","1","1","3","1","","0","1","0","null","","","<div style=""font-size:60px;"">+</div>","null","","","","","","","","","",""
"","html-keyboard-response","111","347104","0.0-8.0-1.5","qqn3sh6fd4","one_one","1","indirect_first","0","an06al26","0","26","1","1","3","1","","0","1","0","null","","","<img src = 'category3/CS6.png' width = '100%;'>","null","","","","","","","","","",""
"","html-keyboard-response","112","347361","0.0-8.0-2.5","qqn3sh6fd4","one_one","1","indirect_first","0","an06al26","0","26","1","1","3","1","","0","1","0","null","","","<img src = 'targets/17.png' width = '100%;'>","null","","","","","","","","","",""
"","html-keyboard-response","113","348395","0.0-8.0-3.5","qqn3sh6fd4","one_one","1","indirect_first","0","an06al26","0","26","1","1","3","1","","0","1","0","1032.7050000196323","","","<img src = 'targets/mask.png' width = '100%;'>","75","neg","GS","GSold","3","category3/CS6.png","targets/17.png","1","indirect","5",""
"","html-keyboard-response","114","349906","0.0-8.0-0.6","qqn3sh6fd4","one_one","1","indirect_first","0","an06al26","0","26","1","1","3","1","","0","1","0","null","","","<div style=""font-size:60px;"">+</div>","null","","","","","","","","","",""
"","html-keyboard-response","115","350003","0.0-8.0-1.6","qqn3sh6fd4","one_one","1","indirect_first","0","an06al26","0","26","1","1","3","1","","0","1","0","null","","","<img src = 'category1/CS8.png' width = '100%;'>","null","","","","","","","","","",""
"","html-keyboard-response","116","350261","0.0-8.0-2.6","qqn3sh6fd4","one_one","1","indirect_first","0","an06al26","0","26","1","1","3","1","","0","1","0","null","","","<img src = 'targets/22.png' width = '100%;'>","null","","","","","","","","","",""
"","html-keyboard-response","117","351148","0.0-8.0-3.6","qqn3sh6fd4","one_one","1","indirect_first","0","an06al26","0","26","1","1","3","1","","0","1","0","886.5849999710917","","","<img src = 'targets/mask.png' width = '100%;'>","75","pos","CS","CS","1","category1/CS8.png","targets/22.png","1","indirect","6",""
"","html-keyboard-response","118","352658","0.0-8.0-0.7","qqn3sh6fd4","one_one","1","indirect_first","0","an06al26","0","26","1","1","3","1","","0","1","0","null","","","<div style=""font-size:60px;"">+</div>","null","","","","","","","","","",""
"","html-keyboard-response","119","352755","0.0-8.0-1.7","qqn3sh6fd4","one_one","1","indirect_first","0","an06al26","0","26","1","1","3","1","","0","1","0","null","","","<img src = 'category3/CS4.png' width = '100%;'>","null","","","","","","","","","",""
"","html-keyboard-response","120","353012","0.0-8.0-2.7","qqn3sh6fd4","one_one","1","indirect_first","0","an06al26","0","26","1","1","3","1","","0","1","0","null","","","<img src = 'targets/11.png' width = '100%;'>","null","","","","","","","","","",""
"","html-keyboard-response","121","353944","0.0-8.0-3.7","qqn3sh6fd4","one_one","1","indirect_first","0","an06al26","0","26","1","1","3","1","","0","1","0","930.2649999735877","","","<img src = 'targets/mask.png' width = '100%;'>","75","neg","GS","GSold","3","category3/CS4.png","targets/11.png","1","indirect","7",""
"","html-keyboard-response","122","355456","0.0-8.0-0.8","qqn3sh6fd4","one_one","1","indirect_first","0","an06al26","0","26","1","1","3","1","","0","1","0","null","","","<div style=""font-size:60px;"">+</div>","null","","","","","","","","","",""
"","html-keyboard-response","123","355552","0.0-8.0-1.8","qqn3sh6fd4","one_one","1","indirect_first","0","an06al26","0","26","1","1","3","1","","0","1","0","null","","","<img src = 'category2/CS8.png' width = '100%;'>","null","","","","","","","","","",""
"","html-keyboard-response","124","355810","0.0-8.0-2.8","qqn3sh6fd4","one_one","1","indirect_first","0","an06al26","0","26","1","1","3","1","","0","1","0","null","","","<img src = 'targets/44.png' width = '100%;'>","null","","","","","","","","","",""
"","html-keyboard-response","125","356709","0.0-8.0-3.8","qqn3sh6fd4","one_one","1","indirect_first","0","an06al26","0","26","1","1","3","1","","0","1","0","898.4550000168383","","","<img src = 'targets/mask.png' width = '100%;'>","68","neg","CS","CS","2","category2/CS8.png","targets/44.png","0","indirect","8",""
"","html-keyboard-response","126","358219","0.0-8.0-0.9","qqn3sh6fd4","one_one","1","indirect_first","0","an06al26","0","26","1","1","3","1","","0","1","0","null","","","<div style=""font-size:60px;"">+</div>","null","","","","","","","","","",""
"","html-keyboard-response","127","358315","0.0-8.0-1.9","qqn3sh6fd4","one_one","1","indirect_first","0","an06al26","0","26","1","1","3","1","","0","1","0","null","","","<img src = 'category4/CS7.png' width = '100%;'>","null","","","","","","","","","",""
"","html-keyboard-response","128","358573","0.0-8.0-2.9","qqn3sh6fd4","one_one","1","indirect_first","0","an06al26","0","26","1","1","3","1","","0","1","0","null","","","<img src = 'targets/19.png' width = '100%;'>","null","","","","","","","","","",""
"","html-keyboard-response","129","359111","0.0-8.0-3.9","qqn3sh6fd4","one_one","1","indirect_first","0","an06al26","0","26","1","1","3","1","","0","1","0","537.3449999606237","","","<img src = 'targets/mask.png' width = '100%;'>","75","pos","GS","GSold","4","category4/CS7.png","targets/19.png","1","indirect","9",""
"","html-keyboard-response","130","360623","0.0-8.0-0.10","qqn3sh6fd4","one_one","1","indirect_first","0","an06al26","0","26","1","1","3","1","","0","1","0","null","","","<div style=""font-size:60px;"">+</div>","null","","","","","","","","","",""
"","html-keyboard-response","131","360719","0.0-8.0-1.10","qqn3sh6fd4","one_one","1","indirect_first","0","an06al26","0","26","1","1","3","1","","0","1","0","null","","","<img src = 'category2/CS2.png' width = '100%;'>","null","","","","","","","","","",""
"","html-keyboard-response","132","360977","0.0-8.0-2.10","qqn3sh6fd4","one_one","1","indirect_first","0","an06al26","0","26","1","1","3","1","","0","1","0","null","","","<img src = 'targets/41.png' width = '100%;'>","null","","","","","","","","","",""
"","html-keyboard-response","133","361679","0.0-8.0-3.10","qqn3sh6fd4","one_one","1","indirect_first","0","an06al26","0","26","1","1","3","1","","0","1","0","700.6200000178069","","","<img src = 'targets/mask.png' width = '100%;'>","68","neg","GS","GSold","2","category2/CS2.png","targets/41.png","0","indirect","10",""
"","html-keyboard-response","134","363186","0.0-8.0-0.11","qqn3sh6fd4","one_one","1","indirect_first","0","an06al26","0","26","1","1","3","1","","0","1","0","null","","","<div style=""font-size:60px;"">+</div>","null","","","","","","","","","",""
"","html-keyboard-response","135","363282","0.0-8.0-1.11","qqn3sh6fd4","one_one","1","indirect_first","0","an06al26","0","26","1","1","3","1","","0","1","0","null","","","<img src = 'category4/CS1.png' width = '100%;'>","null","","","","","","","","","",""
"","html-keyboard-response","136","363540","0.0-8.0-2.11","qqn3sh6fd4","one_one","1","indirect_first","0","an06al26","0","26","1","1","3","1","","0","1","0","null","","","<img src = 'targets/8.png' width = '100%;'>","null","","","","","","","","","",""
"","html-keyboard-response","137","364775","0.0-8.0-3.11","qqn3sh6fd4","one_one","1","indirect_first","0","an06al26","0","26","1","1","3","1","","0","1","0","1234.45999994874","","","<img src = 'targets/mask.png' width = '100%;'>","75","pos","GS","GSold","4","category4/CS1.png","targets/8.png","1","indirect","11",""
"","html-keyboard-response","138","366286","0.0-8.0-0.12","qqn3sh6fd4","one_one","1","indirect_first","0","an06al26","0","26","1","1","3","1","","0","1","0","null","","","<div style=""font-size:60px;"">+</div>","null","","","","","","","","","",""
"","html-keyboard-response","139","366383","0.0-8.0-1.12","qqn3sh6fd4","one_one","1","indirect_first","0","an06al26","0","26","1","1","3","1","","0","1","0","null","","","<img src = 'category1/CS2.png' width = '100%;'>","null","","","","","","","","","",""
"","html-keyboard-response","140","366635","0.0-8.0-2.12","qqn3sh6fd4","one_one","1","indirect_first","0","an06al26","0","26","1","1","3","1","","0","1","0","null","","","<img src = 'targets/5.png' width = '100%;'>","null","","","","","","","","","",""
"","html-keyboard-response","141","367441","0.0-8.0-3.12","qqn3sh6fd4","one_one","1","indirect_first","0","an06al26","0","26","1","1","3","1","","0","1","0","804.1949999751523","","","<img src = 'targets/mask.png' width = '100%;'>","68","pos","GS","GSold","1","category1/CS2.png","targets/5.png","0","indirect","12",""
"","html-keyboard-response","142","368952","0.0-8.0-0.13","qqn3sh6fd4","one_one","1","indirect_first","0","an06al26","0","26","1","1","3","1","","0","1","0","null","","","<div style=""font-size:60px;"">+</div>","null","","","","","","","","","",""
"","html-keyboard-response","143","369048","0.0-8.0-1.13","qqn3sh6fd4","one_one","1","indirect_first","0","an06al26","0","26","1","1","3","1","","0","1","0","null","","","<img src = 'category2/CS1.png' width = '100%;'>","null","","","","","","","","","",""
"","html-keyboard-response","144","369306","0.0-8.0-2.13","qqn3sh6fd4","one_one","1","indirect_first","0","an06al26","0","26","1","1","3","1","","0","1","0","null","","","<img src = 'targets/27.png' width = '100%;'>","null","","","","","","","","","",""
"","html-keyboard-response","145","370354","0.0-8.0-3.13","qqn3sh6fd4","one_one","1","indirect_first","0","an06al26","0","26","1","1","3","1","","0","1","0","1045.9150000242516","","","<img src = 'targets/mask.png' width = '100%;'>","75","neg","GS","GSold","2","category2/CS1.png","targets/27.png","1","indirect","13",""
"","html-keyboard-response","146","371865","0.0-8.0-0.14","qqn3sh6fd4","one_one","1","indirect_first","0","an06al26","0","26","1","1","3","1","","0","1","0","null","","","<div style=""font-size:60px;"">+</div>","null","","","","","","","","","",""
"","html-keyboard-response","147","371960","0.0-8.0-1.14","qqn3sh6fd4","one_one","1","indirect_first","0","an06al26","0","26","1","1","3","1","","0","1","0","null","","","<img src = 'category3/CS10.png' width = '100%;'>","null","","","","","","","","","",""
"","html-keyboard-response","148","372218","0.0-8.0-2.14","qqn3sh6fd4","one_one","1","indirect_first","0","an06al26","0","26","1","1","3","1","","0","1","0","null","","","<img src = 'targets/12.png' width = '100%;'>","null","","","","","","","","","",""
"","html-keyboard-response","149","372982","0.0-8.0-3.14","qqn3sh6fd4","one_one","1","indirect_first","0","an06al26","0","26","1","1","3","1","","0","1","0","762.6549999695271","","","<img src = 'targets/mask.png' width = '100%;'>","68","neg","CS","CS","3","category3/CS10.png","targets/12.png","0","indirect","14",""
"","html-keyboard-response","150","374489","0.0-8.0-0.15","qqn3sh6fd4","one_one","1","indirect_first","0","an06al26","0","26","1","1","3","1","","0","1","0","null","","","<div style=""font-size:60px;"">+</div>","null","","","","","","","","","",""
"","html-keyboard-response","151","374585","0.0-8.0-1.15","qqn3sh6fd4","one_one","1","indirect_first","0","an06al26","0","26","1","1","3","1","","0","1","0","null","","","<img src = 'category4/CS8.png' width = '100%;'>","null","","","","","","","","","",""
"","html-keyboard-response","152","374843","0.0-8.0-2.15","qqn3sh6fd4","one_one","1","indirect_first","0","an06al26","0","26","1","1","3","1","","0","1","0","null","","","<img src = 'targets/33.png' width = '100%;'>","null","","","","","","","","","",""
"","html-keyboard-response","153","375333","0.0-8.0-3.15","qqn3sh6fd4","one_one","1","indirect_first","0","an06al26","0","26","1","1","3","1","","0","1","0","489.31999993510544","","","<img src = 'targets/mask.png' width = '100%;'>","75","pos","GS","GSold","4","category4/CS8.png","targets/33.png","1","indirect","15",""
"","survey-html-form","154","377607","0.0-9.0","qqn3sh6fd4","one_one","1","indirect_first","0","an06al26","0","26","1","1","3","1","","0","1","0","1767.7350000012666","","{}","","","","","","","","","","","",""
"","html-keyboard-response","155","380619","0.0-10.0-0.0","qqn3sh6fd4","one_one","1","indirect_first","0","an06al26","0","26","1","1","3","1","","0","1","0","null","","","<div style=""font-size:60px;"">+</div>","null","","","","","","","","","",""
"","html-keyboard-response","156","380712","0.0-10.0-1.0","qqn3sh6fd4","one_one","1","indirect_first","0","an06al26","0","26","1","1","3","1","","0","1","0","null","","","<img src = 'category2/men.png' width = '100%;'>","null","","","","","","","","","",""
"","html-keyboard-response","157","380970","0.0-10.0-2.0","qqn3sh6fd4","one_one","1","indirect_first","0","an06al26","0","26","1","1","3","1","","0","1","0","null","","","<img src = 'targets/31.png' width = '100%;'>","null","","","","","","","","","",""
"","html-keyboard-response","158","381818","0.0-10.0-3.0","qqn3sh6fd4","one_one","1","indirect_first","0","an06al26","0","26","1","1","3","1","","0","1","0","845.7849998958409","","","<img src = 'targets/mask.png' width = '100%;'>","75","neg","GS","abstract","2","category2/men.png","targets/31.png","1","indirect","16",""
"","html-keyboard-response","159","383329","0.0-10.0-0.1","qqn3sh6fd4","one_one","1","indirect_first","0","an06al26","0","26","1","1","3","1","","0","1","0","null","","","<div style=""font-size:60px;"">+</div>","null","","","","","","","","","",""
"","html-keyboard-response","160","383425","0.0-10.0-1.1","qqn3sh6fd4","one_one","1","indirect_first","0","an06al26","0","26","1","1","3","1","","0","1","0","null","","","<img src = 'category1/ma.png' width = '100%;'>","null","","","","","","","","","",""
"","html-keyboard-response","161","383682","0.0-10.0-2.1","qqn3sh6fd4","one_one","1","indirect_first","0","an06al26","0","26","1","1","3","1","","0","1","0","null","","","<img src = 'targets/23.png' width = '100%;'>","null","","","","","","","","","",""
"","html-keyboard-response","162","384365","0.0-10.0-3.1","qqn3sh6fd4","one_one","1","indirect_first","0","an06al26","0","26","1","1","3","1","","0","1","0","681.4500000327826","","","<img src = 'targets/mask.png' width = '100%;'>","75","pos","GS","abstract","1","category1/ma.png","targets/23.png","1","indirect","17",""
"","html-keyboard-response","163","385874","0.0-10.0-0.2","qqn3sh6fd4","one_one","1","indirect_first","0","an06al26","0","26","1","1","3","1","","0","1","0","null","","","<div style=""font-size:60px;"">+</div>","null","","","","","","","","","",""
"","html-keyboard-response","164","385970","0.0-10.0-1.2","qqn3sh6fd4","one_one","1","indirect_first","0","an06al26","0","26","1","1","3","1","","0","1","0","null","","","<img src = 'category4/GS2.png' width = '100%;'>","null","","","","","","","","","",""
"","html-keyboard-response","165","386231","0.0-10.0-2.2","qqn3sh6fd4","one_one","1","indirect_first","0","an06al26","0","26","1","1","3","1","","0","1","0","null","","","<img src = 'targets/47.png' width = '100%;'>","null","","","","","","","","","",""
"","html-keyboard-response","166","386973","0.0-10.0-3.2","qqn3sh6fd4","one_one","1","indirect_first","0","an06al26","0","26","1","1","3","1","","0","1","0","741.24500004109","","","<img src = 'targets/mask.png' width = '100%;'>","75","pos","GS","GSnew","4","category4/GS2.png","targets/47.png","1","indirect","18",""
"","html-keyboard-response","167","388485","0.0-10.0-0.3","qqn3sh6fd4","one_one","1","indirect_first","0","an06al26","0","26","1","1","3","1","","0","1","0","null","","","<div style=""font-size:60px;"">+</div>","null","","","","","","","","","",""
"","html-keyboard-response","168","388581","0.0-10.0-1.3","qqn3sh6fd4","one_one","1","indirect_first","0","an06al26","0","26","1","1","3","1","","0","1","0","null","","","<img src = 'category1/GS1.png' width = '100%;'>","null","","","","","","","","","",""
"","html-keyboard-response","169","388839","0.0-10.0-2.3","qqn3sh6fd4","one_one","1","indirect_first","0","an06al26","0","26","1","1","3","1","","0","1","0","null","","","<img src = 'targets/10.png' width = '100%;'>","null","","","","","","","","","",""
"","html-keyboard-response","170","389463","0.0-10.0-3.3","qqn3sh6fd4","one_one","1","indirect_first","0","an06al26","0","26","1","1","3","1","","0","1","0","623.0750000104308","","","<img src = 'targets/mask.png' width = '100%;'>","75","pos","GS","GSnew","1","category1/GS1.png","targets/10.png","1","indirect","19",""
"","html-keyboard-response","171","390974","0.0-10.0-0.4","qqn3sh6fd4","one_one","1","indirect_first","0","an06al26","0","26","1","1","3","1","","0","1","0","null","","","<div style=""font-size:60px;"">+</div>","null","","","","","","","","","",""
"","html-keyboard-response","172","391067","0.0-10.0-1.4","qqn3sh6fd4","one_one","1","indirect_first","0","an06al26","0","26","1","1","3","1","","0","1","0","null","","","<img src = 'category4/lin.png' width = '100%;'>","null","","","","","","","","","",""
"","html-keyboard-response","173","391320","0.0-10.0-2.4","qqn3sh6fd4","one_one","1","indirect_first","0","an06al26","0","26","1","1","3","1","","0","1","0","null","","","<img src = 'targets/43.png' width = '100%;'>","null","","","","","","","","","",""
"","html-keyboard-response","174","392146","0.0-10.0-3.4","qqn3sh6fd4","one_one","1","indirect_first","0","an06al26","0","26","1","1","3","1","","0","1","0","825.7250000024214","","","<img src = 'targets/mask.png' width = '100%;'>","75","pos","GS","abstract","4","category4/lin.png","targets/43.png","1","indirect","20",""
"","html-keyboard-response","175","393658","0.0-10.0-0.5","qqn3sh6fd4","one_one","1","indirect_first","0","an06al26","0","26","1","1","3","1","","0","1","0","null","","","<div style=""font-size:60px;"">+</div>","null","","","","","","","","","",""
"","html-keyboard-response","176","393751","0.0-10.0-1.5","qqn3sh6fd4","one_one","1","indirect_first","0","an06al26","0","26","1","1","3","1","","0","1","0","null","","","<img src = 'category2/GS2.png' width = '100%;'>","null","","","","","","","","","",""
"","html-keyboard-response","177","394012","0.0-10.0-2.5","qqn3sh6fd4","one_one","1","indirect_first","0","an06al26","0","26","1","1","3","1","","0","1","0","null","","","<img src = 'targets/16.png' width = '100%;'>","null","","","","","","","","","",""
"","html-keyboard-response","178","394628","0.0-10.0-3.5","qqn3sh6fd4","one_one","1","indirect_first","0","an06al26","0","26","1","1","3","1","","0","1","0","615.1600000448525","","","<img src = 'targets/mask.png' width = '100%;'>","75","neg","GS","GSnew","2","category2/GS2.png","targets/16.png","1","indirect","21",""
"","html-keyboard-response","179","396135","0.0-10.0-0.6","qqn3sh6fd4","one_one","1","indirect_first","0","an06al26","0","26","1","1","3","1","","0","1","0","null","","","<div style=""font-size:60px;"">+</div>","null","","","","","","","","","",""
"","html-keyboard-response","180","396231","0.0-10.0-1.6","qqn3sh6fd4","one_one","1","indirect_first","0","an06al26","0","26","1","1","3","1","","0","1","0","null","","","<img src = 'category2/GS3.png' width = '100%;'>","null","","","","","","","","","",""
"","html-keyboard-response","181","396488","0.0-10.0-2.6","qqn3sh6fd4","one_one","1","indirect_first","0","an06al26","0","26","1","1","3","1","","0","1","0","null","","","<img src = 'targets/32.png' width = '100%;'>","null","","","","","","","","","",""
"","html-keyboard-response","182","396782","0.0-10.0-3.6","qqn3sh6fd4","one_one","1","indirect_first","0","an06al26","0","26","1","1","3","1","","0","1","0","292.9249999579042","","","<img src = 'targets/mask.png' width = '100%;'>","75","neg","GS","GSnew","2","category2/GS3.png","targets/32.png","1","indirect","22",""
"","html-keyboard-response","183","398289","0.0-10.0-0.7","qqn3sh6fd4","one_one","1","indirect_first","0","an06al26","0","26","1","1","3","1","","0","1","0","null","","","<div style=""font-size:60px;"">+</div>","null","","","","","","","","","",""
"","html-keyboard-response","184","398385","0.0-10.0-1.7","qqn3sh6fd4","one_one","1","indirect_first","0","an06al26","0","26","1","1","3","1","","0","1","0","null","","","<img src = 'category1/GS2.png' width = '100%;'>","null","","","","","","","","","",""
"","html-keyboard-response","185","398640","0.0-10.0-2.7","qqn3sh6fd4","one_one","1","indirect_first","0","an06al26","0","26","1","1","3","1","","0","1","0","null","","","<img src = 'targets/7.png' width = '100%;'>","null","","","","","","","","","",""
"","html-keyboard-response","186","399278","0.0-10.0-3.7","qqn3sh6fd4","one_one","1","indirect_first","0","an06al26","0","26","1","1","3","1","","0","1","0","637.8300000214949","","","<img src = 'targets/mask.png' width = '100%;'>","75","pos","GS","GSnew","1","category1/GS2.png","targets/7.png","1","indirect","23",""
"","html-keyboard-response","187","400784","0.0-10.0-0.8","qqn3sh6fd4","one_one","1","indirect_first","0","an06al26","0","26","1","1","3","1","","0","1","0","null","","","<div style=""font-size:60px;"">+</div>","null","","","","","","","","","",""
"","html-keyboard-response","188","400881","0.0-10.0-1.8","qqn3sh6fd4","one_one","1","indirect_first","0","an06al26","0","26","1","1","3","1","","0","1","0","null","","","<img src = 'category3/GS3.png' width = '100%;'>","null","","","","","","","","","",""
"","html-keyboard-response","189","401139","0.0-10.0-2.8","qqn3sh6fd4","one_one","1","indirect_first","0","an06al26","0","26","1","1","3","1","","0","1","0","null","","","<img src = 'targets/36.png' width = '100%;'>","null","","","","","","","","","",""
"","html-keyboard-response","190","401615","0.0-10.0-3.8","qqn3sh6fd4","one_one","1","indirect_first","0","an06al26","0","26","1","1","3","1","","0","1","0","474.51500000897795","","","<img src = 'targets/mask.png' width = '100%;'>","68","neg","GS","GSnew","3","category3/GS3.png","targets/36.png","0","indirect","24",""
"","html-keyboard-response","191","403126","0.0-10.0-0.9","qqn3sh6fd4","one_one","1","indirect_first","0","an06al26","0","26","1","1","3","1","","0","1","0","null","","","<div style=""font-size:60px;"">+</div>","null","","","","","","","","","",""
"","html-keyboard-response","192","403223","0.0-10.0-1.9","qqn3sh6fd4","one_one","1","indirect_first","0","an06al26","0","26","1","1","3","1","","0","1","0","null","","","<img src = 'category3/GS1.png' width = '100%;'>","null","","","","","","","","","",""
"","html-keyboard-response","193","403481","0.0-10.0-2.9","qqn3sh6fd4","one_one","1","indirect_first","0","an06al26","0","26","1","1","3","1","","0","1","0","null","","","<img src = 'targets/42.png' width = '100%;'>","null","","","","","","","","","",""
"","html-keyboard-response","194","403813","0.0-10.0-3.9","qqn3sh6fd4","one_one","1","indirect_first","0","an06al26","0","26","1","1","3","1","","0","1","0","331.8650000728667","","","<img src = 'targets/mask.png' width = '100%;'>","68","neg","GS","GSnew","3","category3/GS1.png","targets/42.png","0","indirect","25",""
"","html-keyboard-response","195","405325","0.0-10.0-0.10","qqn3sh6fd4","one_one","1","indirect_first","0","an06al26","0","26","1","1","3","1","","0","1","0","null","","","<div style=""font-size:60px;"">+</div>","null","","","","","","","","","",""
"","html-keyboard-response","196","405421","0.0-10.0-1.10","qqn3sh6fd4","one_one","1","indirect_first","0","an06al26","0","26","1","1","3","1","","0","1","0","null","","","<img src = 'category3/GS2.png' width = '100%;'>","null","","","","","","","","","",""
"","html-keyboard-response","197","405679","0.0-10.0-2.10","qqn3sh6fd4","one_one","1","indirect_first","0","an06al26","0","26","1","1","3","1","","0","1","0","null","","","<img src = 'targets/18.png' width = '100%;'>","null","","","","","","","","","",""
"","html-keyboard-response","198","405953","0.0-10.0-3.10","qqn3sh6fd4","one_one","1","indirect_first","0","an06al26","0","26","1","1","3","1","","0","1","0","272.9099999414757","","","<img src = 'targets/mask.png' width = '100%;'>","68","neg","GS","GSnew","3","category3/GS2.png","targets/18.png","0","indirect","26",""
"","html-keyboard-response","199","407464","0.0-10.0-0.11","qqn3sh6fd4","one_one","1","indirect_first","0","an06al26","0","26","1","1","3","1","","0","1","0","null","","","<div style=""font-size:60px;"">+</div>","null","","","","","","","","","",""
"","html-keyboard-response","200","407561","0.0-10.0-1.11","qqn3sh6fd4","one_one","1","indirect_first","0","an06al26","0","26","1","1","3","1","","0","1","0","null","","","<img src = 'category2/GS1.png' width = '100%;'>","null","","","","","","","","","",""
"","html-keyboard-response","201","407818","0.0-10.0-2.11","qqn3sh6fd4","one_one","1","indirect_first","0","an06al26","0","26","1","1","3","1","","0","1","0","null","","","<img src = 'targets/45.png' width = '100%;'>","null","","","","","","","","","",""
"","html-keyboard-response","202","408268","0.0-10.0-3.11","qqn3sh6fd4","one_one","1","indirect_first","0","an06al26","0","26","1","1","3","1","","0","1","0","448.3799999579787","","","<img src = 'targets/mask.png' width = '100%;'>","75","neg","GS","GSnew","2","category2/GS1.png","targets/45.png","1","indirect","27",""
"","html-keyboard-response","203","409779","0.0-10.0-0.12","qqn3sh6fd4","one_one","1","indirect_first","0","an06al26","0","26","1","1","3","1","","0","1","0","null","","","<div style=""font-size:60px;"">+</div>","null","","","","","","","","","",""
"","html-keyboard-response","204","409871","0.0-10.0-1.12","qqn3sh6fd4","one_one","1","indirect_first","0","an06al26","0","26","1","1","3","1","","0","1","0","null","","","<img src = 'category4/GS1.png' width = '100%;'>","null","","","","","","","","","",""
"","html-keyboard-response","205","410127","0.0-10.0-2.12","qqn3sh6fd4","one_one","1","indirect_first","0","an06al26","0","26","1","1","3","1","","0","1","0","null","","","<img src = 'targets/37.png' width = '100%;'>","null","","","","","","","","","",""
"","html-keyboard-response","206","410559","0.0-10.0-3.12","qqn3sh6fd4","one_one","1","indirect_first","0","an06al26","0","26","1","1","3","1","","0","1","0","431.19000003207475","","","<img src = 'targets/mask.png' width = '100%;'>","75","pos","GS","GSnew","4","category4/GS1.png","targets/37.png","1","indirect","28",""
"","html-keyboard-response","207","412069","0.0-10.0-0.13","qqn3sh6fd4","one_one","1","indirect_first","0","an06al26","0","26","1","1","3","1","","0","1","0","null","","","<div style=""font-size:60px;"">+</div>","null","","","","","","","","","",""
"","html-keyboard-response","208","412165","0.0-10.0-1.13","qqn3sh6fd4","one_one","1","indirect_first","0","an06al26","0","26","1","1","3","1","","0","1","0","null","","","<img src = 'category1/GS3.png' width = '100%;'>","null","","","","","","","","","",""
"","html-keyboard-response","209","412422","0.0-10.0-2.13","qqn3sh6fd4","one_one","1","indirect_first","0","an06al26","0","26","1","1","3","1","","0","1","0","null","","","<img src = 'targets/28.png' width = '100%;'>","null","","","","","","","","","",""
"","html-keyboard-response","210","413358","0.0-10.0-3.13","qqn3sh6fd4","one_one","1","indirect_first","0","an06al26","0","26","1","1","3","1","","0","1","0","935.0550000090152","","","<img src = 'targets/mask.png' width = '100%;'>","75","pos","GS","GSnew","1","category1/GS3.png","targets/28.png","1","indirect","29",""
"","html-keyboard-response","211","414866","0.0-10.0-0.14","qqn3sh6fd4","one_one","1","indirect_first","0","an06al26","0","26","1","1","3","1","","0","1","0","null","","","<div style=""font-size:60px;"">+</div>","null","","","","","","","","","",""
"","html-keyboard-response","212","414959","0.0-10.0-1.14","qqn3sh6fd4","one_one","1","indirect_first","0","an06al26","0","26","1","1","3","1","","0","1","0","null","","","<img src = 'category3/wang.png' width = '100%;'>","null","","","","","","","","","",""
"","html-keyboard-response","213","415217","0.0-10.0-2.14","qqn3sh6fd4","one_one","1","indirect_first","0","an06al26","0","26","1","1","3","1","","0","1","0","null","","","<img src = 'targets/2.png' width = '100%;'>","null","","","","","","","","","",""
"","html-keyboard-response","214","415602","0.0-10.0-3.14","qqn3sh6fd4","one_one","1","indirect_first","0","an06al26","0","26","1","1","3","1","","0","1","0","383.44500004313886","","","<img src = 'targets/mask.png' width = '100%;'>","68","neg","GS","abstract","3","category3/wang.png","targets/2.png","0","indirect","30",""
"","html-keyboard-response","215","417114","0.0-10.0-0.15","qqn3sh6fd4","one_one","1","indirect_first","0","an06al26","0","26","1","1","3","1","","0","1","0","null","","","<div style=""font-size:60px;"">+</div>","null","","","","","","","","","",""
"","html-keyboard-response","216","417210","0.0-10.0-1.15","qqn3sh6fd4","one_one","1","indirect_first","0","an06al26","0","26","1","1","3","1","","0","1","0","null","","","<img src = 'category4/GS3.png' width = '100%;'>","null","","","","","","","","","",""
"","html-keyboard-response","217","417468","0.0-10.0-2.15","qqn3sh6fd4","one_one","1","indirect_first","0","an06al26","0","26","1","1","3","1","","0","1","0","null","","","<img src = 'targets/38.png' width = '100%;'>","null","","","","","","","","","",""
"","html-keyboard-response","218","417957","0.0-10.0-3.15","qqn3sh6fd4","one_one","1","indirect_first","0","an06al26","0","26","1","1","3","1","","0","1","0","488.6049999622628","","","<img src = 'targets/mask.png' width = '100%;'>","75","pos","GS","GSnew","4","category4/GS3.png","targets/38.png","1","indirect","31",""
"","survey-html-form","219","421951","0.0-11.0","qqn3sh6fd4","one_one","1","indirect_first","0","an06al26","0","26","1","1","3","1","","0","1","0","3488.0300000077114","","{}","","","","","","","","","","","",""
"","image-slider-response","220","429686","0.0-12.0-0.0","qqn3sh6fd4","one_one","1","indirect_first","0","an06al26","0","26","1","1","3","1","","0","1","0","5727.160000009462","","","","","pos","CS","CS","1","category1/CS8.png","targets/22.png","","direct","","100"
"","image-slider-response","221","432995","0.0-12.0-0.1","qqn3sh6fd4","one_one","1","indirect_first","0","an06al26","0","26","1","1","3","1","","0","1","0","3307.6400000136346","","","","","pos","GS","GSnew","1","category1/GS3.png","targets/28.png","","direct","","24"
"","image-slider-response","222","436084","0.0-12.0-0.2","qqn3sh6fd4","one_one","1","indirect_first","0","an06al26","0","26","1","1","3","1","","0","1","0","3087.470000027679","","","","","pos","GS","GSold","4","category4/CS7.png","targets/19.png","","direct","","-43"
"","image-slider-response","223","439248","0.0-12.0-0.3","qqn3sh6fd4","one_one","1","indirect_first","0","an06al26","0","26","1","1","3","1","","0","1","0","3162.335000000894","","","","","neg","CS","CS","2","category2/CS8.png","targets/44.png","","direct","","-100"
"","image-slider-response","224","442042","0.0-12.0-0.4","qqn3sh6fd4","one_one","1","indirect_first","0","an06al26","0","26","1","1","3","1","","0","1","0","2792.4299999140203","","","","","pos","GS","GSnew","4","category4/GS3.png","targets/38.png","","direct","","32"
"","image-slider-response","225","444666","0.0-12.0-0.5","qqn3sh6fd4","one_one","1","indirect_first","0","an06al26","0","26","1","1","3","1","","0","1","0","2622.4099999526516","","","","","neg","GS","GSnew","2","category2/GS1.png","targets/45.png","","direct","","-28"
"","image-slider-response","226","448923","0.0-12.0-0.6","qqn3sh6fd4","one_one","1","indirect_first","0","an06al26","0","26","1","1","3","1","","0","1","0","4255.765000008978","","","","","neg","GS","abstract","2","category2/men.png","targets/31.png","","direct","","-82"
"","image-slider-response","227","451480","0.0-12.0-0.7","qqn3sh6fd4","one_one","1","indirect_first","0","an06al26","0","26","1","1","3","1","","0","1","0","2556.025000056252","","","","","neg","GS","GSnew","2","category2/GS3.png","targets/32.png","","direct","","49"
"","image-slider-response","228","453867","0.0-12.0-0.8","qqn3sh6fd4","one_one","1","indirect_first","0","an06al26","0","26","1","1","3","1","","0","1","0","2384.985000011511","","","","","neg","GS","GSold","3","category3/CS1.png","targets/1.png","","direct","","-100"
"","image-slider-response","229","456326","0.0-12.0-0.9","qqn3sh6fd4","one_one","1","indirect_first","0","an06al26","0","26","1","1","3","1","","0","1","0","2458.1649999599904","","","","","neg","GS","GSold","2","category2/CS5.png","targets/4.png","","direct","","-100"
"","image-slider-response","230","458508","0.0-12.0-0.10","qqn3sh6fd4","one_one","1","indirect_first","0","an06al26","0","26","1","1","3","1","","0","1","0","2180.7400000980124","","","","","neg","GS","GSold","2","category2/CS2.png","targets/41.png","","direct","","47"
"","image-slider-response","231","460845","0.0-12.0-0.11","qqn3sh6fd4","one_one","1","indirect_first","0","an06al26","0","26","1","1","3","1","","0","1","0","2335.7949999626726","","","","","neg","CS","CS","3","category3/CS10.png","targets/12.png","","direct","","-100"
"","image-slider-response","232","464007","0.0-12.0-0.12","qqn3sh6fd4","one_one","1","indirect_first","0","an06al26","0","26","1","1","3","1","","0","1","0","3160.554999951273","","","","","pos","GS","GSnew","1","category1/GS1.png","targets/10.png","","direct","","-38"
"","image-slider-response","233","466287","0.0-12.0-0.13","qqn3sh6fd4","one_one","1","indirect_first","0","an06al26","0","26","1","1","3","1","","0","1","0","2278.414999949746","","","","","pos","GS","GSnew","1","category1/GS2.png","targets/7.png","","direct","","1"
"","image-slider-response","234","468853","0.0-12.0-0.14","qqn3sh6fd4","one_one","1","indirect_first","0","an06al26","0","26","1","1","3","1","","0","1","0","2564.5999999251217","","","","","neg","GS","GSold","2","category2/CS1.png","targets/27.png","","direct","","-60"
"","image-slider-response","235","472163","0.0-12.0-0.15","qqn3sh6fd4","one_one","1","indirect_first","0","an06al26","0","26","1","1","3","1","","0","1","0","3308.2249999279156","","","","","neg","GS","GSnew","3","category3/GS2.png","targets/18.png","","direct","","-100"
"","image-slider-response","236","474656","0.0-12.0-0.16","qqn3sh6fd4","one_one","1","indirect_first","0","an06al26","0","26","1","1","3","1","","0","1","0","2491.715000011027","","","","","pos","GS","GSold","1","category1/CS1.png","targets/24.png","","direct","","38"
"","image-slider-response","237","477818","0.0-12.0-0.17","qqn3sh6fd4","one_one","1","indirect_first","0","an06al26","0","26","1","1","3","1","","0","1","0","3160.8049999922514","","","","","pos","GS","GSold","1","category1/CS2.png","targets/5.png","","direct","","-56"
"","image-slider-response","238","480719","0.0-12.0-0.18","qqn3sh6fd4","one_one","1","indirect_first","0","an06al26","0","26","1","1","3","1","","0","1","0","2899.3550000013784","","","","","neg","GS","GSnew","3","category3/GS3.png","targets/36.png","","direct","","-86"
"","image-slider-response","239","483440","0.0-12.0-0.19","qqn3sh6fd4","one_one","1","indirect_first","0","an06al26","0","26","1","1","3","1","","0","1","0","2720.2800000086427","","","","","pos","GS","GSold","4","category4/CS8.png","targets/33.png","","direct","","58"
"","image-slider-response","240","486414","0.0-12.0-0.20","qqn3sh6fd4","one_one","1","indirect_first","0","an06al26","0","26","1","1","3","1","","0","1","0","2972.2350001102313","","","","","pos","GS","GSnew","4","category4/GS2.png","targets/47.png","","direct","","66"
"","image-slider-response","241","488841","0.0-12.0-0.21","qqn3sh6fd4","one_one","1","indirect_first","0","an06al26","0","26","1","1","3","1","","0","1","0","2425.969999982044","","","","","pos","GS","GSold","4","category4/CS1.png","targets/8.png","","direct","","54"
"","image-slider-response","242","491562","0.0-12.0-0.22","qqn3sh6fd4","one_one","1","indirect_first","0","an06al26","0","26","1","1","3","1","","0","1","0","2719.5449999999255","","","","","neg","GS","GSnew","3","category3/GS1.png","targets/42.png","","direct","","-90"
"","image-slider-response","243","494129","0.0-12.0-0.23","qqn3sh6fd4","one_one","1","indirect_first","0","an06al26","0","26","1","1","3","1","","0","1","0","2564.8449999280274","","","","","pos","GS","GSold","1","category1/CS4.png","targets/25.png","","direct","","-25"
"","image-slider-response","244","497144","0.0-12.0-0.24","qqn3sh6fd4","one_one","1","indirect_first","0","an06al26","0","26","1","1","3","1","","0","1","0","3013.799999956973","","","","","pos","CS","CS","4","category4/CS6.png","targets/6.png","","direct","","100"
"","image-slider-response","245","499807","0.0-12.0-0.25","qqn3sh6fd4","one_one","1","indirect_first","0","an06al26","0","26","1","1","3","1","","0","1","0","2661.835000035353","","","","","pos","GS","abstract","1","category1/ma.png","targets/23.png","","direct","","-83"
"","image-slider-response","246","502863","0.0-12.0-0.26","qqn3sh6fd4","one_one","1","indirect_first","0","an06al26","0","26","1","1","3","1","","0","1","0","3054.9049999099225","","","","","neg","GS","GSold","3","category3/CS6.png","targets/17.png","","direct","","-100"
"","image-slider-response","247","506001","0.0-12.0-0.27","qqn3sh6fd4","one_one","1","indirect_first","0","an06al26","0","26","1","1","3","1","","0","1","0","3136.309999972582","","","","","neg","GS","GSold","3","category3/CS4.png","targets/11.png","","direct","","-100"
"","image-slider-response","248","508493","0.0-12.0-0.28","qqn3sh6fd4","one_one","1","indirect_first","0","an06al26","0","26","1","1","3","1","","0","1","0","2491.1449999781325","","","","","pos","GS","abstract","4","category4/lin.png","targets/43.png","","direct","","66"
"","image-slider-response","249","511083","0.0-12.0-0.29","qqn3sh6fd4","one_one","1","indirect_first","0","an06al26","0","26","1","1","3","1","","0","1","0","2588.6950000422075","","","","","pos","GS","GSnew","4","category4/GS1.png","targets/37.png","","direct","","56"
"","image-slider-response","250","513477","0.0-12.0-0.30","qqn3sh6fd4","one_one","1","indirect_first","0","an06al26","0","26","1","1","3","1","","0","1","0","2392.2749999910593","","","","","neg","GS","abstract","3","category3/wang.png","targets/2.png","","direct","","-100"
"","image-slider-response","251","515847","0.0-12.0-0.31","qqn3sh6fd4","one_one","1","indirect_first","0","an06al26","0","26","1","1","3","1","","0","1","0","2367.919999989681","","","","","neg","GS","GSnew","2","category2/GS2.png","targets/16.png","","direct","","-64"
"","survey-html-form","252","517007","0.0-13.0","qqn3sh6fd4","one_one","1","indirect_first","0","an06al26","0","26","1","1","3","1","","0","1","0","1159.8750000121072","","{}","","","","","","","","","","","",""
"","image-slider-response","253","526362","0.0-14.0-0.0","qqn3sh6fd4","one_one","1","indirect_first","0","an06al26","0","26","1","1","3","1","","0","1","0","8347.094999975525","","","","","pos","All","all","4","category4/lin_all.png","","","all","","25"
"","image-slider-response","254","529091","0.0-14.0-0.1","qqn3sh6fd4","one_one","1","indirect_first","0","an06al26","0","26","1","1","3","1","","0","1","0","2727.4800000013784","","","","","neg","All","all","3","category3/wang_all.png","","","all","","-100"
"","image-slider-response","255","531738","0.0-14.0-0.2","qqn3sh6fd4","one_one","1","indirect_first","0","an06al26","0","26","1","1","3","1","","0","1","0","2645.769999944605","","","","","pos","All","all","1","category1/ma_all.png","","","all","","-22"
"","image-slider-response","256","535440","0.0-14.0-0.3","qqn3sh6fd4","one_one","1","indirect_first","0","an06al26","0","26","1","1","3","1","","0","1","0","3700.8050000295043","","","","","neg","All","all","2","category2/men_all.png","","","all","","-79"
"","survey-text","257","537714","0.0-15.0","qqn3sh6fd4","one_one","1","indirect_first","0","an06al26","0","26","1","1","3","1","","0","1","0","2261.7499999469146","","{""comment"":""""}","","","","","","","","","","","",""
"","survey-html-form","258","554390","0.0-16.0","qqn3sh6fd4","one_one","1","indirect_first","0","an06al26","0","26","1","1","3","1","","0","1","0","16674.07499998808","","{""hinschauen"":""0"",""ablenkung"":""1"",""gewissenhaft"":""0""}","","","","","","","","","","","",""
