"success","trial_type","trial_index","time_elapsed","internal_node_id","subject","condition","condition_code","measure","measure_code","codeword","gender","age","education","chinese","fach","handedness","comment","hinschauen","ablenkung","gewissenhaft","rt","url","responses","stimulus","key_press","val","type","type_specific","category","cs_selected","target","indirect","task","nr_pres","response"
"true","fullscreen","0","12282","0.0-0.0","w8o67hhk08","one_one","1","indirect_first","0","ar06in27","0","25","1","1","3","1","","0","1","0","","","","","","","","","","","","","","",""
"","external-html","1","36442","0.0-1.0","w8o67hhk08","one_one","1","indirect_first","0","ar06in27","0","25","1","1","3","1","","0","1","0","24126.320000039414","text/information.html","","","","","","","","","","","","",""
"","external-html","2","58914","0.0-2.0","w8o67hhk08","one_one","1","indirect_first","0","ar06in27","0","25","1","1","3","1","","0","1","0","22435.80999993719","text/consent.html","","","","","","","","","","","","",""
"","survey-html-form","3","113978","0.0-3.0","w8o67hhk08","one_one","1","indirect_first","0","ar06in27","0","25","1","1","3","1","","0","1","0","55058.380000060424","","{""codeword_enter"":""ar06in27""}","","","","","","","","","","","",""
"","survey-html-form","4","132025","0.0-4.0","w8o67hhk08","one_one","1","indirect_first","0","ar06in27","0","25","1","1","3","1","","0","1","0","18041.639999952167","","{""age"":""25"",""education"":""1"",""subject"":""3"",""gender"":""0"",""handedness"":""1"",""chinese"":""1""}","","","","","","","","","","","",""
"","survey-html-form","5","153616","0.0-5.0","w8o67hhk08","one_one","1","indirect_first","0","ar06in27","0","25","1","1","3","1","","0","1","0","21584.58500006236","","{}","","","","","","","","","","","",""
"","html-keyboard-response","6","157629","0.0-6.0-0.0-0.0","w8o67hhk08","one_one","1","indirect_first","0","ar06in27","0","25","1","1","3","1","","0","1","0","null","","","<div class = 'row'><div class = 'column'><img src = 'usneg/9050.bmp' width = '100%;'></div><div class = 'column'><img src = 'category4/CS9.png' width = '70%;'></div></div>","null","neg","CS","CS","4","category4/CS9.png","","","","",""
"","html-keyboard-response","7","160151","0.0-6.0-0.0-0.1","w8o67hhk08","one_one","1","indirect_first","0","ar06in27","0","25","1","1","3","1","","0","1","0","null","","","<div class = 'row'><div class = 'column'><img src = 'category2/CS10.png' width = '70%;'></div><div class = 'column'><img src = 'usneg/9181.bmp' width = '100%;'></div></div>","null","neg","CS","CS","2","category2/CS10.png","","","","",""
"","html-keyboard-response","8","162669","0.0-6.0-0.0-0.2","w8o67hhk08","one_one","1","indirect_first","0","ar06in27","0","25","1","1","3","1","","0","1","0","null","","","<div class = 'row'><div class = 'column'><img src = 'category3/CS9.png' width = '70%;'></div><div class = 'column'><img src = 'uspos/2165.bmp' width = '100%;'></div></div>","null","pos","CS","CS","3","category3/CS9.png","","","","",""
"","html-keyboard-response","9","165184","0.0-6.0-0.0-0.3","w8o67hhk08","one_one","1","indirect_first","0","ar06in27","0","25","1","1","3","1","","0","1","0","null","","","<div class = 'row'><div class = 'column'><img src = 'category4/CS9.png' width = '70%;'></div><div class = 'column'><img src = 'usneg/9050.bmp' width = '100%;'></div></div>","null","neg","CS","CS","4","category4/CS9.png","","","","",""
"","html-keyboard-response","10","167717","0.0-6.0-0.0-0.4","w8o67hhk08","one_one","1","indirect_first","0","ar06in27","0","25","1","1","3","1","","0","1","0","null","","","<div class = 'row'><div class = 'column'><img src = 'category1/CS9.png' width = '70%;'></div><div class = 'column'><img src = 'uspos/5621.bmp' width = '100%;'></div></div>","null","pos","CS","CS","1","category1/CS9.png","","","","",""
"","html-keyboard-response","11","170231","0.0-6.0-0.0-0.5","w8o67hhk08","one_one","1","indirect_first","0","ar06in27","0","25","1","1","3","1","","0","1","0","null","","","<div class = 'row'><div class = 'column'><img src = 'usneg/9050.bmp' width = '100%;'></div><div class = 'column'><img src = 'category4/CS9.png' width = '70%;'></div></div>","null","neg","CS","CS","4","category4/CS9.png","","","","",""
"","html-keyboard-response","12","172761","0.0-6.0-0.0-0.6","w8o67hhk08","one_one","1","indirect_first","0","ar06in27","0","25","1","1","3","1","","0","1","0","null","","","<div class = 'row'><div class = 'column'><img src = 'uspos/5621.bmp' width = '100%;'></div><div class = 'column'><img src = 'category1/CS9.png' width = '70%;'></div></div>","null","pos","CS","CS","1","category1/CS9.png","","","","",""
"","html-keyboard-response","13","175278","0.0-6.0-0.0-0.7","w8o67hhk08","one_one","1","indirect_first","0","ar06in27","0","25","1","1","3","1","","0","1","0","null","","","<div class = 'row'><div class = 'column'><img src = 'category2/CS10.png' width = '70%;'></div><div class = 'column'><img src = 'usneg/9181.bmp' width = '100%;'></div></div>","null","neg","CS","CS","2","category2/CS10.png","","","","",""
"","html-keyboard-response","14","177798","0.0-6.0-0.0-0.8","w8o67hhk08","one_one","1","indirect_first","0","ar06in27","0","25","1","1","3","1","","0","1","0","null","","","<div class = 'row'><div class = 'column'><img src = 'category3/CS9.png' width = '70%;'></div><div class = 'column'><img src = 'uspos/2165.bmp' width = '100%;'></div></div>","null","pos","CS","CS","3","category3/CS9.png","","","","",""
"","html-keyboard-response","15","180320","0.0-6.0-0.0-0.9","w8o67hhk08","one_one","1","indirect_first","0","ar06in27","0","25","1","1","3","1","","0","1","0","null","","","<div class = 'row'><div class = 'column'><img src = 'category1/CS9.png' width = '70%;'></div><div class = 'column'><img src = 'uspos/5621.bmp' width = '100%;'></div></div>","null","pos","CS","CS","1","category1/CS9.png","","","","",""
"","html-keyboard-response","16","182836","0.0-6.0-0.0-0.10","w8o67hhk08","one_one","1","indirect_first","0","ar06in27","0","25","1","1","3","1","","0","1","0","null","","","<div class = 'row'><div class = 'column'><img src = 'uspos/2165.bmp' width = '100%;'></div><div class = 'column'><img src = 'category3/CS9.png' width = '70%;'></div></div>","null","pos","CS","CS","3","category3/CS9.png","","","","",""
"","html-keyboard-response","17","185351","0.0-6.0-0.0-0.11","w8o67hhk08","one_one","1","indirect_first","0","ar06in27","0","25","1","1","3","1","","0","1","0","null","","","<div class = 'row'><div class = 'column'><img src = 'usneg/9181.bmp' width = '100%;'></div><div class = 'column'><img src = 'category2/CS10.png' width = '70%;'></div></div>","null","neg","CS","CS","2","category2/CS10.png","","","","",""
"","html-keyboard-response","18","187867","0.0-6.0-0.0-0.12","w8o67hhk08","one_one","1","indirect_first","0","ar06in27","0","25","1","1","3","1","","0","1","0","null","","","<div class = 'row'><div class = 'column'><img src = 'usneg/9050.bmp' width = '100%;'></div><div class = 'column'><img src = 'category4/CS9.png' width = '70%;'></div></div>","null","neg","CS","CS","4","category4/CS9.png","","","","",""
"","html-keyboard-response","19","190386","0.0-6.0-0.0-0.13","w8o67hhk08","one_one","1","indirect_first","0","ar06in27","0","25","1","1","3","1","","0","1","0","null","","","<div class = 'row'><div class = 'column'><img src = 'uspos/2165.bmp' width = '100%;'></div><div class = 'column'><img src = 'category3/CS9.png' width = '70%;'></div></div>","null","pos","CS","CS","3","category3/CS9.png","","","","",""
"","html-keyboard-response","20","192901","0.0-6.0-0.0-0.14","w8o67hhk08","one_one","1","indirect_first","0","ar06in27","0","25","1","1","3","1","","0","1","0","null","","","<div class = 'row'><div class = 'column'><img src = 'category2/CS10.png' width = '70%;'></div><div class = 'column'><img src = 'usneg/9181.bmp' width = '100%;'></div></div>","null","neg","CS","CS","2","category2/CS10.png","","","","",""
"","html-keyboard-response","21","195409","0.0-6.0-0.0-0.15","w8o67hhk08","one_one","1","indirect_first","0","ar06in27","0","25","1","1","3","1","","0","1","0","null","","","<div class = 'row'><div class = 'column'><img src = 'uspos/5621.bmp' width = '100%;'></div><div class = 'column'><img src = 'category1/CS9.png' width = '70%;'></div></div>","null","pos","CS","CS","1","category1/CS9.png","","","","",""
"","html-keyboard-response","22","197925","0.0-6.0-0.0-0.16","w8o67hhk08","one_one","1","indirect_first","0","ar06in27","0","25","1","1","3","1","","0","1","0","null","","","<div class = 'row'><div class = 'column'><img src = 'usneg/9050.bmp' width = '100%;'></div><div class = 'column'><img src = 'category4/CS9.png' width = '70%;'></div></div>","null","neg","CS","CS","4","category4/CS9.png","","","","",""
"","html-keyboard-response","23","200432","0.0-6.0-0.0-0.17","w8o67hhk08","one_one","1","indirect_first","0","ar06in27","0","25","1","1","3","1","","0","1","0","null","","","<div class = 'row'><div class = 'column'><img src = 'usneg/9181.bmp' width = '100%;'></div><div class = 'column'><img src = 'category2/CS10.png' width = '70%;'></div></div>","null","neg","CS","CS","2","category2/CS10.png","","","","",""
"","html-keyboard-response","24","202938","0.0-6.0-0.0-0.18","w8o67hhk08","one_one","1","indirect_first","0","ar06in27","0","25","1","1","3","1","","0","1","0","null","","","<div class = 'row'><div class = 'column'><img src = 'category3/CS9.png' width = '70%;'></div><div class = 'column'><img src = 'uspos/2165.bmp' width = '100%;'></div></div>","null","pos","CS","CS","3","category3/CS9.png","","","","",""
"","html-keyboard-response","25","205441","0.0-6.0-0.0-0.19","w8o67hhk08","one_one","1","indirect_first","0","ar06in27","0","25","1","1","3","1","","0","1","0","null","","","<div class = 'row'><div class = 'column'><img src = 'category1/CS9.png' width = '70%;'></div><div class = 'column'><img src = 'uspos/5621.bmp' width = '100%;'></div></div>","null","pos","CS","CS","1","category1/CS9.png","","","","",""
"","survey-html-form","26","209080","0.0-6.0-1.0","w8o67hhk08","one_one","1","indirect_first","0","ar06in27","0","25","1","1","3","1","","0","1","0","3124.7449999209493","","{}","","","","","","","","","","","",""
"","html-keyboard-response","27","213092","0.0-6.0-2.0-0.0","w8o67hhk08","one_one","1","indirect_first","0","ar06in27","0","25","1","1","3","1","","0","1","0","null","","","<div class = 'row'><div class = 'column'><img src = 'uspos/2165.bmp' width = '100%;'></div><div class = 'column'><img src = 'category3/CS9.png' width = '70%;'></div></div>","null","pos","CS","CS","3","category3/CS9.png","","","","",""
"","html-keyboard-response","28","215606","0.0-6.0-2.0-0.1","w8o67hhk08","one_one","1","indirect_first","0","ar06in27","0","25","1","1","3","1","","0","1","0","null","","","<div class = 'row'><div class = 'column'><img src = 'usneg/9050.bmp' width = '100%;'></div><div class = 'column'><img src = 'category4/CS9.png' width = '70%;'></div></div>","null","neg","CS","CS","4","category4/CS9.png","","","","",""
"","html-keyboard-response","29","218130","0.0-6.0-2.0-0.2","w8o67hhk08","one_one","1","indirect_first","0","ar06in27","0","25","1","1","3","1","","0","1","0","null","","","<div class = 'row'><div class = 'column'><img src = 'usneg/9181.bmp' width = '100%;'></div><div class = 'column'><img src = 'category2/CS10.png' width = '70%;'></div></div>","null","neg","CS","CS","2","category2/CS10.png","","","","",""
"","html-keyboard-response","30","220647","0.0-6.0-2.0-0.3","w8o67hhk08","one_one","1","indirect_first","0","ar06in27","0","25","1","1","3","1","","0","1","0","null","","","<div class = 'row'><div class = 'column'><img src = 'category3/CS9.png' width = '70%;'></div><div class = 'column'><img src = 'uspos/2165.bmp' width = '100%;'></div></div>","null","pos","CS","CS","3","category3/CS9.png","","","","",""
"","html-keyboard-response","31","223160","0.0-6.0-2.0-0.4","w8o67hhk08","one_one","1","indirect_first","0","ar06in27","0","25","1","1","3","1","","0","1","0","null","","","<div class = 'row'><div class = 'column'><img src = 'uspos/5621.bmp' width = '100%;'></div><div class = 'column'><img src = 'category1/CS9.png' width = '70%;'></div></div>","null","pos","CS","CS","1","category1/CS9.png","","","","",""
"","html-keyboard-response","32","225688","0.0-6.0-2.0-0.5","w8o67hhk08","one_one","1","indirect_first","0","ar06in27","0","25","1","1","3","1","","0","1","0","null","","","<div class = 'row'><div class = 'column'><img src = 'usneg/9181.bmp' width = '100%;'></div><div class = 'column'><img src = 'category2/CS10.png' width = '70%;'></div></div>","null","neg","CS","CS","2","category2/CS10.png","","","","",""
"","html-keyboard-response","33","228205","0.0-6.0-2.0-0.6","w8o67hhk08","one_one","1","indirect_first","0","ar06in27","0","25","1","1","3","1","","0","1","0","null","","","<div class = 'row'><div class = 'column'><img src = 'category3/CS9.png' width = '70%;'></div><div class = 'column'><img src = 'uspos/2165.bmp' width = '100%;'></div></div>","null","pos","CS","CS","3","category3/CS9.png","","","","",""
"","html-keyboard-response","34","230726","0.0-6.0-2.0-0.7","w8o67hhk08","one_one","1","indirect_first","0","ar06in27","0","25","1","1","3","1","","0","1","0","null","","","<div class = 'row'><div class = 'column'><img src = 'usneg/9050.bmp' width = '100%;'></div><div class = 'column'><img src = 'category4/CS9.png' width = '70%;'></div></div>","null","neg","CS","CS","4","category4/CS9.png","","","","",""
"","html-keyboard-response","35","233229","0.0-6.0-2.0-0.8","w8o67hhk08","one_one","1","indirect_first","0","ar06in27","0","25","1","1","3","1","","0","1","0","null","","","<div class = 'row'><div class = 'column'><img src = 'uspos/5621.bmp' width = '100%;'></div><div class = 'column'><img src = 'category1/CS9.png' width = '70%;'></div></div>","null","pos","CS","CS","1","category1/CS9.png","","","","",""
"","html-keyboard-response","36","235745","0.0-6.0-2.0-0.9","w8o67hhk08","one_one","1","indirect_first","0","ar06in27","0","25","1","1","3","1","","0","1","0","null","","","<div class = 'row'><div class = 'column'><img src = 'category4/CS9.png' width = '70%;'></div><div class = 'column'><img src = 'usneg/9050.bmp' width = '100%;'></div></div>","null","neg","CS","CS","4","category4/CS9.png","","","","",""
"","html-keyboard-response","37","238266","0.0-6.0-2.0-0.10","w8o67hhk08","one_one","1","indirect_first","0","ar06in27","0","25","1","1","3","1","","0","1","0","null","","","<div class = 'row'><div class = 'column'><img src = 'uspos/5621.bmp' width = '100%;'></div><div class = 'column'><img src = 'category1/CS9.png' width = '70%;'></div></div>","null","pos","CS","CS","1","category1/CS9.png","","","","",""
"","html-keyboard-response","38","240786","0.0-6.0-2.0-0.11","w8o67hhk08","one_one","1","indirect_first","0","ar06in27","0","25","1","1","3","1","","0","1","0","null","","","<div class = 'row'><div class = 'column'><img src = 'usneg/9181.bmp' width = '100%;'></div><div class = 'column'><img src = 'category2/CS10.png' width = '70%;'></div></div>","null","neg","CS","CS","2","category2/CS10.png","","","","",""
"","html-keyboard-response","39","243308","0.0-6.0-2.0-0.12","w8o67hhk08","one_one","1","indirect_first","0","ar06in27","0","25","1","1","3","1","","0","1","0","null","","","<div class = 'row'><div class = 'column'><img src = 'category1/CS9.png' width = '70%;'></div><div class = 'column'><img src = 'uspos/5621.bmp' width = '100%;'></div></div>","null","pos","CS","CS","1","category1/CS9.png","","","","",""
"","html-keyboard-response","40","245819","0.0-6.0-2.0-0.13","w8o67hhk08","one_one","1","indirect_first","0","ar06in27","0","25","1","1","3","1","","0","1","0","null","","","<div class = 'row'><div class = 'column'><img src = 'usneg/9181.bmp' width = '100%;'></div><div class = 'column'><img src = 'category2/CS10.png' width = '70%;'></div></div>","null","neg","CS","CS","2","category2/CS10.png","","","","",""
"","html-keyboard-response","41","248329","0.0-6.0-2.0-0.14","w8o67hhk08","one_one","1","indirect_first","0","ar06in27","0","25","1","1","3","1","","0","1","0","null","","","<div class = 'row'><div class = 'column'><img src = 'usneg/9050.bmp' width = '100%;'></div><div class = 'column'><img src = 'category4/CS9.png' width = '70%;'></div></div>","null","neg","CS","CS","4","category4/CS9.png","","","","",""
"","html-keyboard-response","42","250842","0.0-6.0-2.0-0.15","w8o67hhk08","one_one","1","indirect_first","0","ar06in27","0","25","1","1","3","1","","0","1","0","null","","","<div class = 'row'><div class = 'column'><img src = 'category3/CS9.png' width = '70%;'></div><div class = 'column'><img src = 'uspos/2165.bmp' width = '100%;'></div></div>","null","pos","CS","CS","3","category3/CS9.png","","","","",""
"","html-keyboard-response","43","253358","0.0-6.0-2.0-0.16","w8o67hhk08","one_one","1","indirect_first","0","ar06in27","0","25","1","1","3","1","","0","1","0","null","","","<div class = 'row'><div class = 'column'><img src = 'usneg/9050.bmp' width = '100%;'></div><div class = 'column'><img src = 'category4/CS9.png' width = '70%;'></div></div>","null","neg","CS","CS","4","category4/CS9.png","","","","",""
"","html-keyboard-response","44","255873","0.0-6.0-2.0-0.17","w8o67hhk08","one_one","1","indirect_first","0","ar06in27","0","25","1","1","3","1","","0","1","0","null","","","<div class = 'row'><div class = 'column'><img src = 'category2/CS10.png' width = '70%;'></div><div class = 'column'><img src = 'usneg/9181.bmp' width = '100%;'></div></div>","null","neg","CS","CS","2","category2/CS10.png","","","","",""
"","html-keyboard-response","45","258391","0.0-6.0-2.0-0.18","w8o67hhk08","one_one","1","indirect_first","0","ar06in27","0","25","1","1","3","1","","0","1","0","null","","","<div class = 'row'><div class = 'column'><img src = 'uspos/5621.bmp' width = '100%;'></div><div class = 'column'><img src = 'category1/CS9.png' width = '70%;'></div></div>","null","pos","CS","CS","1","category1/CS9.png","","","","",""
"","html-keyboard-response","46","260913","0.0-6.0-2.0-0.19","w8o67hhk08","one_one","1","indirect_first","0","ar06in27","0","25","1","1","3","1","","0","1","0","null","","","<div class = 'row'><div class = 'column'><img src = 'category3/CS9.png' width = '70%;'></div><div class = 'column'><img src = 'uspos/2165.bmp' width = '100%;'></div></div>","null","pos","CS","CS","3","category3/CS9.png","","","","",""
"","survey-html-form","47","264015","0.0-6.0-3.0","w8o67hhk08","one_one","1","indirect_first","0","ar06in27","0","25","1","1","3","1","","0","1","0","2590.210000053048","","{}","","","","","","","","","","","",""
"","html-keyboard-response","48","268034","0.0-6.0-4.0-0.0","w8o67hhk08","one_one","1","indirect_first","0","ar06in27","0","25","1","1","3","1","","0","1","0","null","","","<div class = 'row'><div class = 'column'><img src = 'usneg/9181.bmp' width = '100%;'></div><div class = 'column'><img src = 'category2/CS10.png' width = '70%;'></div></div>","null","neg","CS","CS","2","category2/CS10.png","","","","",""
"","html-keyboard-response","49","270559","0.0-6.0-4.0-0.1","w8o67hhk08","one_one","1","indirect_first","0","ar06in27","0","25","1","1","3","1","","0","1","0","null","","","<div class = 'row'><div class = 'column'><img src = 'category1/CS9.png' width = '70%;'></div><div class = 'column'><img src = 'uspos/5621.bmp' width = '100%;'></div></div>","null","pos","CS","CS","1","category1/CS9.png","","","","",""
"","html-keyboard-response","50","273072","0.0-6.0-4.0-0.2","w8o67hhk08","one_one","1","indirect_first","0","ar06in27","0","25","1","1","3","1","","0","1","0","null","","","<div class = 'row'><div class = 'column'><img src = 'usneg/9050.bmp' width = '100%;'></div><div class = 'column'><img src = 'category4/CS9.png' width = '70%;'></div></div>","null","neg","CS","CS","4","category4/CS9.png","","","","",""
"","html-keyboard-response","51","275590","0.0-6.0-4.0-0.3","w8o67hhk08","one_one","1","indirect_first","0","ar06in27","0","25","1","1","3","1","","0","1","0","null","","","<div class = 'row'><div class = 'column'><img src = 'category2/CS10.png' width = '70%;'></div><div class = 'column'><img src = 'usneg/9181.bmp' width = '100%;'></div></div>","null","neg","CS","CS","2","category2/CS10.png","","","","",""
"","html-keyboard-response","52","278119","0.0-6.0-4.0-0.4","w8o67hhk08","one_one","1","indirect_first","0","ar06in27","0","25","1","1","3","1","","0","1","0","null","","","<div class = 'row'><div class = 'column'><img src = 'category3/CS9.png' width = '70%;'></div><div class = 'column'><img src = 'uspos/2165.bmp' width = '100%;'></div></div>","null","pos","CS","CS","3","category3/CS9.png","","","","",""
"","html-keyboard-response","53","280639","0.0-6.0-4.0-0.5","w8o67hhk08","one_one","1","indirect_first","0","ar06in27","0","25","1","1","3","1","","0","1","0","null","","","<div class = 'row'><div class = 'column'><img src = 'usneg/9181.bmp' width = '100%;'></div><div class = 'column'><img src = 'category2/CS10.png' width = '70%;'></div></div>","null","neg","CS","CS","2","category2/CS10.png","","","","",""
"","html-keyboard-response","54","283155","0.0-6.0-4.0-0.6","w8o67hhk08","one_one","1","indirect_first","0","ar06in27","0","25","1","1","3","1","","0","1","0","null","","","<div class = 'row'><div class = 'column'><img src = 'category3/CS9.png' width = '70%;'></div><div class = 'column'><img src = 'uspos/2165.bmp' width = '100%;'></div></div>","null","pos","CS","CS","3","category3/CS9.png","","","","",""
"","html-keyboard-response","55","285671","0.0-6.0-4.0-0.7","w8o67hhk08","one_one","1","indirect_first","0","ar06in27","0","25","1","1","3","1","","0","1","0","null","","","<div class = 'row'><div class = 'column'><img src = 'category1/CS9.png' width = '70%;'></div><div class = 'column'><img src = 'uspos/5621.bmp' width = '100%;'></div></div>","null","pos","CS","CS","1","category1/CS9.png","","","","",""
"","html-keyboard-response","56","288201","0.0-6.0-4.0-0.8","w8o67hhk08","one_one","1","indirect_first","0","ar06in27","0","25","1","1","3","1","","0","1","0","null","","","<div class = 'row'><div class = 'column'><img src = 'category3/CS9.png' width = '70%;'></div><div class = 'column'><img src = 'uspos/2165.bmp' width = '100%;'></div></div>","null","pos","CS","CS","3","category3/CS9.png","","","","",""
"","html-keyboard-response","57","290730","0.0-6.0-4.0-0.9","w8o67hhk08","one_one","1","indirect_first","0","ar06in27","0","25","1","1","3","1","","0","1","0","null","","","<div class = 'row'><div class = 'column'><img src = 'usneg/9050.bmp' width = '100%;'></div><div class = 'column'><img src = 'category4/CS9.png' width = '70%;'></div></div>","null","neg","CS","CS","4","category4/CS9.png","","","","",""
"","html-keyboard-response","58","293245","0.0-6.0-4.0-0.10","w8o67hhk08","one_one","1","indirect_first","0","ar06in27","0","25","1","1","3","1","","0","1","0","null","","","<div class = 'row'><div class = 'column'><img src = 'uspos/5621.bmp' width = '100%;'></div><div class = 'column'><img src = 'category1/CS9.png' width = '70%;'></div></div>","null","pos","CS","CS","1","category1/CS9.png","","","","",""
"","html-keyboard-response","59","295759","0.0-6.0-4.0-0.11","w8o67hhk08","one_one","1","indirect_first","0","ar06in27","0","25","1","1","3","1","","0","1","0","null","","","<div class = 'row'><div class = 'column'><img src = 'usneg/9050.bmp' width = '100%;'></div><div class = 'column'><img src = 'category4/CS9.png' width = '70%;'></div></div>","null","neg","CS","CS","4","category4/CS9.png","","","","",""
"","html-keyboard-response","60","298277","0.0-6.0-4.0-0.12","w8o67hhk08","one_one","1","indirect_first","0","ar06in27","0","25","1","1","3","1","","0","1","0","null","","","<div class = 'row'><div class = 'column'><img src = 'uspos/2165.bmp' width = '100%;'></div><div class = 'column'><img src = 'category3/CS9.png' width = '70%;'></div></div>","null","pos","CS","CS","3","category3/CS9.png","","","","",""
"","html-keyboard-response","61","300791","0.0-6.0-4.0-0.13","w8o67hhk08","one_one","1","indirect_first","0","ar06in27","0","25","1","1","3","1","","0","1","0","null","","","<div class = 'row'><div class = 'column'><img src = 'usneg/9050.bmp' width = '100%;'></div><div class = 'column'><img src = 'category4/CS9.png' width = '70%;'></div></div>","null","neg","CS","CS","4","category4/CS9.png","","","","",""
"","html-keyboard-response","62","303306","0.0-6.0-4.0-0.14","w8o67hhk08","one_one","1","indirect_first","0","ar06in27","0","25","1","1","3","1","","0","1","0","null","","","<div class = 'row'><div class = 'column'><img src = 'usneg/9181.bmp' width = '100%;'></div><div class = 'column'><img src = 'category2/CS10.png' width = '70%;'></div></div>","null","neg","CS","CS","2","category2/CS10.png","","","","",""
"","html-keyboard-response","63","305834","0.0-6.0-4.0-0.15","w8o67hhk08","one_one","1","indirect_first","0","ar06in27","0","25","1","1","3","1","","0","1","0","null","","","<div class = 'row'><div class = 'column'><img src = 'uspos/5621.bmp' width = '100%;'></div><div class = 'column'><img src = 'category1/CS9.png' width = '70%;'></div></div>","null","pos","CS","CS","1","category1/CS9.png","","","","",""
"","html-keyboard-response","64","308352","0.0-6.0-4.0-0.16","w8o67hhk08","one_one","1","indirect_first","0","ar06in27","0","25","1","1","3","1","","0","1","0","null","","","<div class = 'row'><div class = 'column'><img src = 'category2/CS10.png' width = '70%;'></div><div class = 'column'><img src = 'usneg/9181.bmp' width = '100%;'></div></div>","null","neg","CS","CS","2","category2/CS10.png","","","","",""
"","html-keyboard-response","65","310867","0.0-6.0-4.0-0.17","w8o67hhk08","one_one","1","indirect_first","0","ar06in27","0","25","1","1","3","1","","0","1","0","null","","","<div class = 'row'><div class = 'column'><img src = 'usneg/9050.bmp' width = '100%;'></div><div class = 'column'><img src = 'category4/CS9.png' width = '70%;'></div></div>","null","neg","CS","CS","4","category4/CS9.png","","","","",""
"","html-keyboard-response","66","313379","0.0-6.0-4.0-0.18","w8o67hhk08","one_one","1","indirect_first","0","ar06in27","0","25","1","1","3","1","","0","1","0","null","","","<div class = 'row'><div class = 'column'><img src = 'category3/CS9.png' width = '70%;'></div><div class = 'column'><img src = 'uspos/2165.bmp' width = '100%;'></div></div>","null","pos","CS","CS","3","category3/CS9.png","","","","",""
"","html-keyboard-response","67","315902","0.0-6.0-4.0-0.19","w8o67hhk08","one_one","1","indirect_first","0","ar06in27","0","25","1","1","3","1","","0","1","0","null","","","<div class = 'row'><div class = 'column'><img src = 'category1/CS9.png' width = '70%;'></div><div class = 'column'><img src = 'uspos/5621.bmp' width = '100%;'></div></div>","null","pos","CS","CS","1","category1/CS9.png","","","","",""
"","survey-html-form","68","332903","0.0-6.0-5.0","w8o67hhk08","one_one","1","indirect_first","0","ar06in27","0","25","1","1","3","1","","0","1","0","16485.695000039414","","{}","","","","","","","","","","","",""
"","html-keyboard-response","69","336923","0.0-6.0-6.0-0.0","w8o67hhk08","one_one","1","indirect_first","0","ar06in27","0","25","1","1","3","1","","0","1","0","null","","","<div class = 'row'><div class = 'column'><img src = 'category2/CS10.png' width = '70%;'></div><div class = 'column'><img src = 'usneg/9181.bmp' width = '100%;'></div></div>","null","neg","CS","CS","2","category2/CS10.png","","","","",""
"","html-keyboard-response","70","339440","0.0-6.0-6.0-0.1","w8o67hhk08","one_one","1","indirect_first","0","ar06in27","0","25","1","1","3","1","","0","1","0","null","","","<div class = 'row'><div class = 'column'><img src = 'category1/CS9.png' width = '70%;'></div><div class = 'column'><img src = 'uspos/5621.bmp' width = '100%;'></div></div>","null","pos","CS","CS","1","category1/CS9.png","","","","",""
"","html-keyboard-response","71","341958","0.0-6.0-6.0-0.2","w8o67hhk08","one_one","1","indirect_first","0","ar06in27","0","25","1","1","3","1","","0","1","0","null","","","<div class = 'row'><div class = 'column'><img src = 'category2/CS10.png' width = '70%;'></div><div class = 'column'><img src = 'usneg/9181.bmp' width = '100%;'></div></div>","null","neg","CS","CS","2","category2/CS10.png","","","","",""
"","html-keyboard-response","72","344477","0.0-6.0-6.0-0.3","w8o67hhk08","one_one","1","indirect_first","0","ar06in27","0","25","1","1","3","1","","0","1","0","null","","","<div class = 'row'><div class = 'column'><img src = 'category4/CS9.png' width = '70%;'></div><div class = 'column'><img src = 'usneg/9050.bmp' width = '100%;'></div></div>","null","neg","CS","CS","4","category4/CS9.png","","","","",""
"","html-keyboard-response","73","346992","0.0-6.0-6.0-0.4","w8o67hhk08","one_one","1","indirect_first","0","ar06in27","0","25","1","1","3","1","","0","1","0","null","","","<div class = 'row'><div class = 'column'><img src = 'uspos/5621.bmp' width = '100%;'></div><div class = 'column'><img src = 'category1/CS9.png' width = '70%;'></div></div>","null","pos","CS","CS","1","category1/CS9.png","","","","",""
"","html-keyboard-response","74","349519","0.0-6.0-6.0-0.5","w8o67hhk08","one_one","1","indirect_first","0","ar06in27","0","25","1","1","3","1","","0","1","0","null","","","<div class = 'row'><div class = 'column'><img src = 'uspos/2165.bmp' width = '100%;'></div><div class = 'column'><img src = 'category3/CS9.png' width = '70%;'></div></div>","null","pos","CS","CS","3","category3/CS9.png","","","","",""
"","html-keyboard-response","75","352032","0.0-6.0-6.0-0.6","w8o67hhk08","one_one","1","indirect_first","0","ar06in27","0","25","1","1","3","1","","0","1","0","null","","","<div class = 'row'><div class = 'column'><img src = 'category4/CS9.png' width = '70%;'></div><div class = 'column'><img src = 'usneg/9050.bmp' width = '100%;'></div></div>","null","neg","CS","CS","4","category4/CS9.png","","","","",""
"","html-keyboard-response","76","354548","0.0-6.0-6.0-0.7","w8o67hhk08","one_one","1","indirect_first","0","ar06in27","0","25","1","1","3","1","","0","1","0","null","","","<div class = 'row'><div class = 'column'><img src = 'category3/CS9.png' width = '70%;'></div><div class = 'column'><img src = 'uspos/2165.bmp' width = '100%;'></div></div>","null","pos","CS","CS","3","category3/CS9.png","","","","",""
"","html-keyboard-response","77","357070","0.0-6.0-6.0-0.8","w8o67hhk08","one_one","1","indirect_first","0","ar06in27","0","25","1","1","3","1","","0","1","0","null","","","<div class = 'row'><div class = 'column'><img src = 'usneg/9181.bmp' width = '100%;'></div><div class = 'column'><img src = 'category2/CS10.png' width = '70%;'></div></div>","null","neg","CS","CS","2","category2/CS10.png","","","","",""
"","html-keyboard-response","78","359600","0.0-6.0-6.0-0.9","w8o67hhk08","one_one","1","indirect_first","0","ar06in27","0","25","1","1","3","1","","0","1","0","null","","","<div class = 'row'><div class = 'column'><img src = 'uspos/5621.bmp' width = '100%;'></div><div class = 'column'><img src = 'category1/CS9.png' width = '70%;'></div></div>","null","pos","CS","CS","1","category1/CS9.png","","","","",""
"","html-keyboard-response","79","362110","0.0-6.0-6.0-0.10","w8o67hhk08","one_one","1","indirect_first","0","ar06in27","0","25","1","1","3","1","","0","1","0","null","","","<div class = 'row'><div class = 'column'><img src = 'category2/CS10.png' width = '70%;'></div><div class = 'column'><img src = 'usneg/9181.bmp' width = '100%;'></div></div>","null","neg","CS","CS","2","category2/CS10.png","","","","",""
"","html-keyboard-response","80","364623","0.0-6.0-6.0-0.11","w8o67hhk08","one_one","1","indirect_first","0","ar06in27","0","25","1","1","3","1","","0","1","0","null","","","<div class = 'row'><div class = 'column'><img src = 'category4/CS9.png' width = '70%;'></div><div class = 'column'><img src = 'usneg/9050.bmp' width = '100%;'></div></div>","null","neg","CS","CS","4","category4/CS9.png","","","","",""
"","html-keyboard-response","81","367139","0.0-6.0-6.0-0.12","w8o67hhk08","one_one","1","indirect_first","0","ar06in27","0","25","1","1","3","1","","0","1","0","null","","","<div class = 'row'><div class = 'column'><img src = 'usneg/9181.bmp' width = '100%;'></div><div class = 'column'><img src = 'category2/CS10.png' width = '70%;'></div></div>","null","neg","CS","CS","2","category2/CS10.png","","","","",""
"","html-keyboard-response","82","369659","0.0-6.0-6.0-0.13","w8o67hhk08","one_one","1","indirect_first","0","ar06in27","0","25","1","1","3","1","","0","1","0","null","","","<div class = 'row'><div class = 'column'><img src = 'uspos/2165.bmp' width = '100%;'></div><div class = 'column'><img src = 'category3/CS9.png' width = '70%;'></div></div>","null","pos","CS","CS","3","category3/CS9.png","","","","",""
"","html-keyboard-response","83","372168","0.0-6.0-6.0-0.14","w8o67hhk08","one_one","1","indirect_first","0","ar06in27","0","25","1","1","3","1","","0","1","0","null","","","<div class = 'row'><div class = 'column'><img src = 'category1/CS9.png' width = '70%;'></div><div class = 'column'><img src = 'uspos/5621.bmp' width = '100%;'></div></div>","null","pos","CS","CS","1","category1/CS9.png","","","","",""
"","html-keyboard-response","84","374695","0.0-6.0-6.0-0.15","w8o67hhk08","one_one","1","indirect_first","0","ar06in27","0","25","1","1","3","1","","0","1","0","null","","","<div class = 'row'><div class = 'column'><img src = 'uspos/2165.bmp' width = '100%;'></div><div class = 'column'><img src = 'category3/CS9.png' width = '70%;'></div></div>","null","pos","CS","CS","3","category3/CS9.png","","","","",""
"","html-keyboard-response","85","377227","0.0-6.0-6.0-0.16","w8o67hhk08","one_one","1","indirect_first","0","ar06in27","0","25","1","1","3","1","","0","1","0","null","","","<div class = 'row'><div class = 'column'><img src = 'uspos/5621.bmp' width = '100%;'></div><div class = 'column'><img src = 'category1/CS9.png' width = '70%;'></div></div>","null","pos","CS","CS","1","category1/CS9.png","","","","",""
"","html-keyboard-response","86","379742","0.0-6.0-6.0-0.17","w8o67hhk08","one_one","1","indirect_first","0","ar06in27","0","25","1","1","3","1","","0","1","0","null","","","<div class = 'row'><div class = 'column'><img src = 'category4/CS9.png' width = '70%;'></div><div class = 'column'><img src = 'usneg/9050.bmp' width = '100%;'></div></div>","null","neg","CS","CS","4","category4/CS9.png","","","","",""
"","html-keyboard-response","87","382258","0.0-6.0-6.0-0.18","w8o67hhk08","one_one","1","indirect_first","0","ar06in27","0","25","1","1","3","1","","0","1","0","null","","","<div class = 'row'><div class = 'column'><img src = 'uspos/2165.bmp' width = '100%;'></div><div class = 'column'><img src = 'category3/CS9.png' width = '70%;'></div></div>","null","pos","CS","CS","3","category3/CS9.png","","","","",""
"","html-keyboard-response","88","384772","0.0-6.0-6.0-0.19","w8o67hhk08","one_one","1","indirect_first","0","ar06in27","0","25","1","1","3","1","","0","1","0","null","","","<div class = 'row'><div class = 'column'><img src = 'usneg/9050.bmp' width = '100%;'></div><div class = 'column'><img src = 'category4/CS9.png' width = '70%;'></div></div>","null","neg","CS","CS","4","category4/CS9.png","","","","",""
"","html-keyboard-response","89","434352","0.0-7.0","w8o67hhk08","one_one","1","indirect_first","0","ar06in27","0","25","1","1","3","1","","0","1","0","49068.99499986321","","","<p>Sie sehen nun die chinesischen Zeichen nur ganz kurz. Danach sehen Sie die jeweilige Aussprache der Zeichen als Silbe auf dem Bildschrim. Ihre Aufgabe ist es, für jede Silbe anzugeben, ob diese etwas angenehmes, oder unangenehmes bedeuten könnte. Verlassen Sie sich hier vor allem auf Ihre Intuition.<br><br>Die Zeichen werden nur zur Orientierung dargestellt, beachten Sie sie deshalb nicht. Konzentrieren Sie sich vor allem auf die Silben. <br>Reagieren Sie mit folgenden zwei Tasten: <br><br><b>'D' </b> wenn die Silbe etwas <b>unangenehmes</b> bedeuten könnte. <br><b>'K'</b> wenn die Silbe etwas <b>angenehmes</b> bedeuten könnte. <br><br>Bitte legen Sie nun den Zeigefinger der linken Hand auf die Taste 'D' und den Zeigefinger der rechten Hand auf die Taste 'K'. <br>Reagieren Sie auf jede Silbe so schnell wie möglich. Uns interessiert Ihre spontane Reaktion. <br> <br> <br>Drücken Sie 'D' oder 'K', um die nächste Aufgabe zu starten. </p>","75","","","","","","","","","",""
"","html-keyboard-response","90","437362","0.0-8.0-0.0","w8o67hhk08","one_one","1","indirect_first","0","ar06in27","0","25","1","1","3","1","","0","1","0","null","","","<div style=""font-size:60px;"">+</div>","null","","","","","","","","","",""
"","html-keyboard-response","91","437455","0.0-8.0-1.0","w8o67hhk08","one_one","1","indirect_first","0","ar06in27","0","25","1","1","3","1","","0","1","0","null","","","<img src = 'category1/CS9.png' width = '100%;'>","null","","","","","","","","","",""
"","html-keyboard-response","92","437735","0.0-8.0-2.0","w8o67hhk08","one_one","1","indirect_first","0","ar06in27","0","25","1","1","3","1","","0","1","0","null","","","<img src = 'targets/10.png' width = '100%;'>","null","","","","","","","","","",""
"","html-keyboard-response","93","440797","0.0-8.0-3.0","w8o67hhk08","one_one","1","indirect_first","0","ar06in27","0","25","1","1","3","1","","0","1","0","3061.479999916628","","","<img src = 'targets/mask.png' width = '100%;'>","75","pos","CS","CS","1","category1/CS9.png","targets/10.png","1","indirect","0",""
"","html-keyboard-response","94","442316","0.0-8.0-0.1","w8o67hhk08","one_one","1","indirect_first","0","ar06in27","0","25","1","1","3","1","","0","1","0","null","","","<div style=""font-size:60px;"">+</div>","null","","","","","","","","","",""
"","html-keyboard-response","95","442410","0.0-8.0-1.1","w8o67hhk08","one_one","1","indirect_first","0","ar06in27","0","25","1","1","3","1","","0","1","0","null","","","<img src = 'category4/CS10.png' width = '100%;'>","null","","","","","","","","","",""
"","html-keyboard-response","96","442661","0.0-8.0-2.1","w8o67hhk08","one_one","1","indirect_first","0","ar06in27","0","25","1","1","3","1","","0","1","0","null","","","<img src = 'targets/39.png' width = '100%;'>","null","","","","","","","","","",""
"","html-keyboard-response","97","445367","0.0-8.0-3.1","w8o67hhk08","one_one","1","indirect_first","0","ar06in27","0","25","1","1","3","1","","0","1","0","2704.3299998622388","","","<img src = 'targets/mask.png' width = '100%;'>","68","neg","GS","GSold","4","category4/CS10.png","targets/39.png","0","indirect","1",""
"","html-keyboard-response","98","446882","0.0-8.0-0.2","w8o67hhk08","one_one","1","indirect_first","0","ar06in27","0","25","1","1","3","1","","0","1","0","null","","","<div style=""font-size:60px;"">+</div>","null","","","","","","","","","",""
"","html-keyboard-response","99","446974","0.0-8.0-1.2","w8o67hhk08","one_one","1","indirect_first","0","ar06in27","0","25","1","1","3","1","","0","1","0","null","","","<img src = 'category4/CS2.png' width = '100%;'>","null","","","","","","","","","",""
"","html-keyboard-response","100","447226","0.0-8.0-2.2","w8o67hhk08","one_one","1","indirect_first","0","ar06in27","0","25","1","1","3","1","","0","1","0","null","","","<img src = 'targets/9.png' width = '100%;'>","null","","","","","","","","","",""
"","html-keyboard-response","101","450873","0.0-8.0-3.2","w8o67hhk08","one_one","1","indirect_first","0","ar06in27","0","25","1","1","3","1","","0","1","0","3646.0100000258535","","","<img src = 'targets/mask.png' width = '100%;'>","75","neg","GS","GSold","4","category4/CS2.png","targets/9.png","1","indirect","2",""
"","html-keyboard-response","102","452400","0.0-8.0-0.3","w8o67hhk08","one_one","1","indirect_first","0","ar06in27","0","25","1","1","3","1","","0","1","0","null","","","<div style=""font-size:60px;"">+</div>","null","","","","","","","","","",""
"","html-keyboard-response","103","452491","0.0-8.0-1.3","w8o67hhk08","one_one","1","indirect_first","0","ar06in27","0","25","1","1","3","1","","0","1","0","null","","","<img src = 'category3/CS4.png' width = '100%;'>","null","","","","","","","","","",""
"","html-keyboard-response","104","452758","0.0-8.0-2.3","w8o67hhk08","one_one","1","indirect_first","0","ar06in27","0","25","1","1","3","1","","0","1","0","null","","","<img src = 'targets/25.png' width = '100%;'>","null","","","","","","","","","",""
"","html-keyboard-response","105","453940","0.0-8.0-3.3","w8o67hhk08","one_one","1","indirect_first","0","ar06in27","0","25","1","1","3","1","","0","1","0","1181.1349999625236","","","<img src = 'targets/mask.png' width = '100%;'>","75","pos","GS","GSold","3","category3/CS4.png","targets/25.png","1","indirect","3",""
"","html-keyboard-response","106","455461","0.0-8.0-0.4","w8o67hhk08","one_one","1","indirect_first","0","ar06in27","0","25","1","1","3","1","","0","1","0","null","","","<div style=""font-size:60px;"">+</div>","null","","","","","","","","","",""
"","html-keyboard-response","107","455551","0.0-8.0-1.4","w8o67hhk08","one_one","1","indirect_first","0","ar06in27","0","25","1","1","3","1","","0","1","0","null","","","<img src = 'category2/CS10.png' width = '100%;'>","null","","","","","","","","","",""
"","html-keyboard-response","108","455806","0.0-8.0-2.4","w8o67hhk08","one_one","1","indirect_first","0","ar06in27","0","25","1","1","3","1","","0","1","0","null","","","<img src = 'targets/34.png' width = '100%;'>","null","","","","","","","","","",""
"","html-keyboard-response","109","456347","0.0-8.0-3.4","w8o67hhk08","one_one","1","indirect_first","0","ar06in27","0","25","1","1","3","1","","0","1","0","540.6850001309067","","","<img src = 'targets/mask.png' width = '100%;'>","68","neg","CS","CS","2","category2/CS10.png","targets/34.png","0","indirect","4",""
"","html-keyboard-response","110","457865","0.0-8.0-0.5","w8o67hhk08","one_one","1","indirect_first","0","ar06in27","0","25","1","1","3","1","","0","1","0","null","","","<div style=""font-size:60px;"">+</div>","null","","","","","","","","","",""
"","html-keyboard-response","111","457956","0.0-8.0-1.5","w8o67hhk08","one_one","1","indirect_first","0","ar06in27","0","25","1","1","3","1","","0","1","0","null","","","<img src = 'category4/CS8.png' width = '100%;'>","null","","","","","","","","","",""
"","html-keyboard-response","112","458208","0.0-8.0-2.5","w8o67hhk08","one_one","1","indirect_first","0","ar06in27","0","25","1","1","3","1","","0","1","0","null","","","<img src = 'targets/2.png' width = '100%;'>","null","","","","","","","","","",""
"","html-keyboard-response","113","460911","0.0-8.0-3.5","w8o67hhk08","one_one","1","indirect_first","0","ar06in27","0","25","1","1","3","1","","0","1","0","2702.4149999488145","","","<img src = 'targets/mask.png' width = '100%;'>","68","neg","GS","GSold","4","category4/CS8.png","targets/2.png","0","indirect","5",""
"","html-keyboard-response","114","462433","0.0-8.0-0.6","w8o67hhk08","one_one","1","indirect_first","0","ar06in27","0","25","1","1","3","1","","0","1","0","null","","","<div style=""font-size:60px;"">+</div>","null","","","","","","","","","",""
"","html-keyboard-response","115","462526","0.0-8.0-1.6","w8o67hhk08","one_one","1","indirect_first","0","ar06in27","0","25","1","1","3","1","","0","1","0","null","","","<img src = 'category3/CS10.png' width = '100%;'>","null","","","","","","","","","",""
"","html-keyboard-response","116","462807","0.0-8.0-2.6","w8o67hhk08","one_one","1","indirect_first","0","ar06in27","0","25","1","1","3","1","","0","1","0","null","","","<img src = 'targets/47.png' width = '100%;'>","null","","","","","","","","","",""
"","html-keyboard-response","117","464245","0.0-8.0-3.6","w8o67hhk08","one_one","1","indirect_first","0","ar06in27","0","25","1","1","3","1","","0","1","0","1436.6200000513345","","","<img src = 'targets/mask.png' width = '100%;'>","68","pos","GS","GSold","3","category3/CS10.png","targets/47.png","0","indirect","6",""
"","html-keyboard-response","118","465760","0.0-8.0-0.7","w8o67hhk08","one_one","1","indirect_first","0","ar06in27","0","25","1","1","3","1","","0","1","0","null","","","<div style=""font-size:60px;"">+</div>","null","","","","","","","","","",""
"","html-keyboard-response","119","465852","0.0-8.0-1.7","w8o67hhk08","one_one","1","indirect_first","0","ar06in27","0","25","1","1","3","1","","0","1","0","null","","","<img src = 'category2/CS6.png' width = '100%;'>","null","","","","","","","","","",""
"","html-keyboard-response","120","466104","0.0-8.0-2.7","w8o67hhk08","one_one","1","indirect_first","0","ar06in27","0","25","1","1","3","1","","0","1","0","null","","","<img src = 'targets/38.png' width = '100%;'>","null","","","","","","","","","",""
"","html-keyboard-response","121","467195","0.0-8.0-3.7","w8o67hhk08","one_one","1","indirect_first","0","ar06in27","0","25","1","1","3","1","","0","1","0","1090.9349999856204","","","<img src = 'targets/mask.png' width = '100%;'>","68","neg","GS","GSold","2","category2/CS6.png","targets/38.png","0","indirect","7",""
"","html-keyboard-response","122","468709","0.0-8.0-0.8","w8o67hhk08","one_one","1","indirect_first","0","ar06in27","0","25","1","1","3","1","","0","1","0","null","","","<div style=""font-size:60px;"">+</div>","null","","","","","","","","","",""
"","html-keyboard-response","123","468803","0.0-8.0-1.8","w8o67hhk08","one_one","1","indirect_first","0","ar06in27","0","25","1","1","3","1","","0","1","0","null","","","<img src = 'category1/CS8.png' width = '100%;'>","null","","","","","","","","","",""
"","html-keyboard-response","124","469056","0.0-8.0-2.8","w8o67hhk08","one_one","1","indirect_first","0","ar06in27","0","25","1","1","3","1","","0","1","0","null","","","<img src = 'targets/18.png' width = '100%;'>","null","","","","","","","","","",""
"","html-keyboard-response","125","471211","0.0-8.0-3.8","w8o67hhk08","one_one","1","indirect_first","0","ar06in27","0","25","1","1","3","1","","0","1","0","2154.1849998757243","","","<img src = 'targets/mask.png' width = '100%;'>","75","pos","GS","GSold","1","category1/CS8.png","targets/18.png","1","indirect","8",""
"","html-keyboard-response","126","472735","0.0-8.0-0.9","w8o67hhk08","one_one","1","indirect_first","0","ar06in27","0","25","1","1","3","1","","0","1","0","null","","","<div style=""font-size:60px;"">+</div>","null","","","","","","","","","",""
"","html-keyboard-response","127","472827","0.0-8.0-1.9","w8o67hhk08","one_one","1","indirect_first","0","ar06in27","0","25","1","1","3","1","","0","1","0","null","","","<img src = 'category3/CS9.png' width = '100%;'>","null","","","","","","","","","",""
"","html-keyboard-response","128","473079","0.0-8.0-2.9","w8o67hhk08","one_one","1","indirect_first","0","ar06in27","0","25","1","1","3","1","","0","1","0","null","","","<img src = 'targets/8.png' width = '100%;'>","null","","","","","","","","","",""
"","html-keyboard-response","129","473709","0.0-8.0-3.9","w8o67hhk08","one_one","1","indirect_first","0","ar06in27","0","25","1","1","3","1","","0","1","0","629.5749999117106","","","<img src = 'targets/mask.png' width = '100%;'>","75","pos","CS","CS","3","category3/CS9.png","targets/8.png","1","indirect","9",""
"","html-keyboard-response","130","475233","0.0-8.0-0.10","w8o67hhk08","one_one","1","indirect_first","0","ar06in27","0","25","1","1","3","1","","0","1","0","null","","","<div style=""font-size:60px;"">+</div>","null","","","","","","","","","",""
"","html-keyboard-response","131","475325","0.0-8.0-1.10","w8o67hhk08","one_one","1","indirect_first","0","ar06in27","0","25","1","1","3","1","","0","1","0","null","","","<img src = 'category2/CS9.png' width = '100%;'>","null","","","","","","","","","",""
"","html-keyboard-response","132","475592","0.0-8.0-2.10","w8o67hhk08","one_one","1","indirect_first","0","ar06in27","0","25","1","1","3","1","","0","1","0","null","","","<img src = 'targets/11.png' width = '100%;'>","null","","","","","","","","","",""
"","html-keyboard-response","133","477138","0.0-8.0-3.10","w8o67hhk08","one_one","1","indirect_first","0","ar06in27","0","25","1","1","3","1","","0","1","0","1544.0899999812245","","","<img src = 'targets/mask.png' width = '100%;'>","68","neg","GS","GSold","2","category2/CS9.png","targets/11.png","0","indirect","10",""
"","html-keyboard-response","134","478648","0.0-8.0-0.11","w8o67hhk08","one_one","1","indirect_first","0","ar06in27","0","25","1","1","3","1","","0","1","0","null","","","<div style=""font-size:60px;"">+</div>","null","","","","","","","","","",""
"","html-keyboard-response","135","478739","0.0-8.0-1.11","w8o67hhk08","one_one","1","indirect_first","0","ar06in27","0","25","1","1","3","1","","0","1","0","null","","","<img src = 'category2/CS5.png' width = '100%;'>","null","","","","","","","","","",""
"","html-keyboard-response","136","478991","0.0-8.0-2.11","w8o67hhk08","one_one","1","indirect_first","0","ar06in27","0","25","1","1","3","1","","0","1","0","null","","","<img src = 'targets/31.png' width = '100%;'>","null","","","","","","","","","",""
"","html-keyboard-response","137","480574","0.0-8.0-3.11","w8o67hhk08","one_one","1","indirect_first","0","ar06in27","0","25","1","1","3","1","","0","1","0","1581.3199998810887","","","<img src = 'targets/mask.png' width = '100%;'>","75","neg","GS","GSold","2","category2/CS5.png","targets/31.png","1","indirect","11",""
"","html-keyboard-response","138","482095","0.0-8.0-0.12","w8o67hhk08","one_one","1","indirect_first","0","ar06in27","0","25","1","1","3","1","","0","1","0","null","","","<div style=""font-size:60px;"">+</div>","null","","","","","","","","","",""
"","html-keyboard-response","139","482188","0.0-8.0-1.12","w8o67hhk08","one_one","1","indirect_first","0","ar06in27","0","25","1","1","3","1","","0","1","0","null","","","<img src = 'category1/CS6.png' width = '100%;'>","null","","","","","","","","","",""
"","html-keyboard-response","140","482439","0.0-8.0-2.12","w8o67hhk08","one_one","1","indirect_first","0","ar06in27","0","25","1","1","3","1","","0","1","0","null","","","<img src = 'targets/12.png' width = '100%;'>","null","","","","","","","","","",""
"","html-keyboard-response","141","483015","0.0-8.0-3.12","w8o67hhk08","one_one","1","indirect_first","0","ar06in27","0","25","1","1","3","1","","0","1","0","574.7049998026341","","","<img src = 'targets/mask.png' width = '100%;'>","68","pos","GS","GSold","1","category1/CS6.png","targets/12.png","0","indirect","12",""
"","html-keyboard-response","142","484537","0.0-8.0-0.13","w8o67hhk08","one_one","1","indirect_first","0","ar06in27","0","25","1","1","3","1","","0","1","0","null","","","<div style=""font-size:60px;"">+</div>","null","","","","","","","","","",""
"","html-keyboard-response","143","484629","0.0-8.0-1.13","w8o67hhk08","one_one","1","indirect_first","0","ar06in27","0","25","1","1","3","1","","0","1","0","null","","","<img src = 'category1/CS2.png' width = '100%;'>","null","","","","","","","","","",""
"","html-keyboard-response","144","484880","0.0-8.0-2.13","w8o67hhk08","one_one","1","indirect_first","0","ar06in27","0","25","1","1","3","1","","0","1","0","null","","","<img src = 'targets/30.png' width = '100%;'>","null","","","","","","","","","",""
"","html-keyboard-response","145","485386","0.0-8.0-3.13","w8o67hhk08","one_one","1","indirect_first","0","ar06in27","0","25","1","1","3","1","","0","1","0","504.9499999731779","","","<img src = 'targets/mask.png' width = '100%;'>","68","pos","GS","GSold","1","category1/CS2.png","targets/30.png","0","indirect","13",""
"","html-keyboard-response","146","486904","0.0-8.0-0.14","w8o67hhk08","one_one","1","indirect_first","0","ar06in27","0","25","1","1","3","1","","0","1","0","null","","","<div style=""font-size:60px;"">+</div>","null","","","","","","","","","",""
"","html-keyboard-response","147","486996","0.0-8.0-1.14","w8o67hhk08","one_one","1","indirect_first","0","ar06in27","0","25","1","1","3","1","","0","1","0","null","","","<img src = 'category3/CS8.png' width = '100%;'>","null","","","","","","","","","",""
"","html-keyboard-response","148","487261","0.0-8.0-2.14","w8o67hhk08","one_one","1","indirect_first","0","ar06in27","0","25","1","1","3","1","","0","1","0","null","","","<img src = 'targets/5.png' width = '100%;'>","null","","","","","","","","","",""
"","html-keyboard-response","149","487899","0.0-8.0-3.14","w8o67hhk08","one_one","1","indirect_first","0","ar06in27","0","25","1","1","3","1","","0","1","0","636.9299998041242","","","<img src = 'targets/mask.png' width = '100%;'>","75","pos","GS","GSold","3","category3/CS8.png","targets/5.png","1","indirect","14",""
"","html-keyboard-response","150","489425","0.0-8.0-0.15","w8o67hhk08","one_one","1","indirect_first","0","ar06in27","0","25","1","1","3","1","","0","1","0","null","","","<div style=""font-size:60px;"">+</div>","null","","","","","","","","","",""
"","html-keyboard-response","151","489519","0.0-8.0-1.15","w8o67hhk08","one_one","1","indirect_first","0","ar06in27","0","25","1","1","3","1","","0","1","0","null","","","<img src = 'category4/CS9.png' width = '100%;'>","null","","","","","","","","","",""
"","html-keyboard-response","152","489785","0.0-8.0-2.15","w8o67hhk08","one_one","1","indirect_first","0","ar06in27","0","25","1","1","3","1","","0","1","0","null","","","<img src = 'targets/22.png' width = '100%;'>","null","","","","","","","","","",""
"","html-keyboard-response","153","490775","0.0-8.0-3.15","w8o67hhk08","one_one","1","indirect_first","0","ar06in27","0","25","1","1","3","1","","0","1","0","989.4850000273436","","","<img src = 'targets/mask.png' width = '100%;'>","75","neg","CS","CS","4","category4/CS9.png","targets/22.png","1","indirect","15",""
"","survey-html-form","154","496717","0.0-9.0","w8o67hhk08","one_one","1","indirect_first","0","ar06in27","0","25","1","1","3","1","","0","1","0","5426.080000121146","","{}","","","","","","","","","","","",""
"","html-keyboard-response","155","499730","0.0-10.0-0.0","w8o67hhk08","one_one","1","indirect_first","0","ar06in27","0","25","1","1","3","1","","0","1","0","null","","","<div style=""font-size:60px;"">+</div>","null","","","","","","","","","",""
"","html-keyboard-response","156","499824","0.0-10.0-1.0","w8o67hhk08","one_one","1","indirect_first","0","ar06in27","0","25","1","1","3","1","","0","1","0","null","","","<img src = 'category4/lin.png' width = '100%;'>","null","","","","","","","","","",""
"","html-keyboard-response","157","500085","0.0-10.0-2.0","w8o67hhk08","one_one","1","indirect_first","0","ar06in27","0","25","1","1","3","1","","0","1","0","null","","","<img src = 'targets/21.png' width = '100%;'>","null","","","","","","","","","",""
"","html-keyboard-response","158","502570","0.0-10.0-3.0","w8o67hhk08","one_one","1","indirect_first","0","ar06in27","0","25","1","1","3","1","","0","1","0","2483.7799998931587","","","<img src = 'targets/mask.png' width = '100%;'>","75","neg","GS","abstract","4","category4/lin.png","targets/21.png","1","indirect","16",""
"","html-keyboard-response","159","504092","0.0-10.0-0.1","w8o67hhk08","one_one","1","indirect_first","0","ar06in27","0","25","1","1","3","1","","0","1","0","null","","","<div style=""font-size:60px;"">+</div>","null","","","","","","","","","",""
"","html-keyboard-response","160","504185","0.0-10.0-1.1","w8o67hhk08","one_one","1","indirect_first","0","ar06in27","0","25","1","1","3","1","","0","1","0","null","","","<img src = 'category4/GS1.png' width = '100%;'>","null","","","","","","","","","",""
"","html-keyboard-response","161","504452","0.0-10.0-2.1","w8o67hhk08","one_one","1","indirect_first","0","ar06in27","0","25","1","1","3","1","","0","1","0","null","","","<img src = 'targets/19.png' width = '100%;'>","null","","","","","","","","","",""
"","html-keyboard-response","162","506403","0.0-10.0-3.1","w8o67hhk08","one_one","1","indirect_first","0","ar06in27","0","25","1","1","3","1","","0","1","0","1949.7800001408905","","","<img src = 'targets/mask.png' width = '100%;'>","68","neg","GS","GSnew","4","category4/GS1.png","targets/19.png","0","indirect","17",""
"","html-keyboard-response","163","507919","0.0-10.0-0.2","w8o67hhk08","one_one","1","indirect_first","0","ar06in27","0","25","1","1","3","1","","0","1","0","null","","","<div style=""font-size:60px;"">+</div>","null","","","","","","","","","",""
"","html-keyboard-response","164","508010","0.0-10.0-1.2","w8o67hhk08","one_one","1","indirect_first","0","ar06in27","0","25","1","1","3","1","","0","1","0","null","","","<img src = 'category1/GS3.png' width = '100%;'>","null","","","","","","","","","",""
"","html-keyboard-response","165","508275","0.0-10.0-2.2","w8o67hhk08","one_one","1","indirect_first","0","ar06in27","0","25","1","1","3","1","","0","1","0","null","","","<img src = 'targets/17.png' width = '100%;'>","null","","","","","","","","","",""
"","html-keyboard-response","166","509199","0.0-10.0-3.2","w8o67hhk08","one_one","1","indirect_first","0","ar06in27","0","25","1","1","3","1","","0","1","0","922.4649998359382","","","<img src = 'targets/mask.png' width = '100%;'>","68","pos","GS","GSnew","1","category1/GS3.png","targets/17.png","0","indirect","18",""
"","html-keyboard-response","167","510714","0.0-10.0-0.3","w8o67hhk08","one_one","1","indirect_first","0","ar06in27","0","25","1","1","3","1","","0","1","0","null","","","<div style=""font-size:60px;"">+</div>","null","","","","","","","","","",""
"","html-keyboard-response","168","510805","0.0-10.0-1.3","w8o67hhk08","one_one","1","indirect_first","0","ar06in27","0","25","1","1","3","1","","0","1","0","null","","","<img src = 'category4/GS3.png' width = '100%;'>","null","","","","","","","","","",""
"","html-keyboard-response","169","511071","0.0-10.0-2.3","w8o67hhk08","one_one","1","indirect_first","0","ar06in27","0","25","1","1","3","1","","0","1","0","null","","","<img src = 'targets/15.png' width = '100%;'>","null","","","","","","","","","",""
"","html-keyboard-response","170","511769","0.0-10.0-3.3","w8o67hhk08","one_one","1","indirect_first","0","ar06in27","0","25","1","1","3","1","","0","1","0","696.7499998863786","","","<img src = 'targets/mask.png' width = '100%;'>","68","neg","GS","GSnew","4","category4/GS3.png","targets/15.png","0","indirect","19",""
"","html-keyboard-response","171","513292","0.0-10.0-0.4","w8o67hhk08","one_one","1","indirect_first","0","ar06in27","0","25","1","1","3","1","","0","1","0","null","","","<div style=""font-size:60px;"">+</div>","null","","","","","","","","","",""
"","html-keyboard-response","172","513383","0.0-10.0-1.4","w8o67hhk08","one_one","1","indirect_first","0","ar06in27","0","25","1","1","3","1","","0","1","0","null","","","<img src = 'category4/GS2.png' width = '100%;'>","null","","","","","","","","","",""
"","html-keyboard-response","173","513636","0.0-10.0-2.4","w8o67hhk08","one_one","1","indirect_first","0","ar06in27","0","25","1","1","3","1","","0","1","0","null","","","<img src = 'targets/41.png' width = '100%;'>","null","","","","","","","","","",""
"","html-keyboard-response","174","514338","0.0-10.0-3.4","w8o67hhk08","one_one","1","indirect_first","0","ar06in27","0","25","1","1","3","1","","0","1","0","701.5949999913573","","","<img src = 'targets/mask.png' width = '100%;'>","68","neg","GS","GSnew","4","category4/GS2.png","targets/41.png","0","indirect","20",""
"","html-keyboard-response","175","515851","0.0-10.0-0.5","w8o67hhk08","one_one","1","indirect_first","0","ar06in27","0","25","1","1","3","1","","0","1","0","null","","","<div style=""font-size:60px;"">+</div>","null","","","","","","","","","",""
"","html-keyboard-response","176","515943","0.0-10.0-1.5","w8o67hhk08","one_one","1","indirect_first","0","ar06in27","0","25","1","1","3","1","","0","1","0","null","","","<img src = 'category3/GS3.png' width = '100%;'>","null","","","","","","","","","",""
"","html-keyboard-response","177","516206","0.0-10.0-2.5","w8o67hhk08","one_one","1","indirect_first","0","ar06in27","0","25","1","1","3","1","","0","1","0","null","","","<img src = 'targets/6.png' width = '100%;'>","null","","","","","","","","","",""
"","html-keyboard-response","178","516812","0.0-10.0-3.5","w8o67hhk08","one_one","1","indirect_first","0","ar06in27","0","25","1","1","3","1","","0","1","0","604.7600000165403","","","<img src = 'targets/mask.png' width = '100%;'>","75","pos","GS","GSnew","3","category3/GS3.png","targets/6.png","1","indirect","21",""
"","html-keyboard-response","179","518333","0.0-10.0-0.6","w8o67hhk08","one_one","1","indirect_first","0","ar06in27","0","25","1","1","3","1","","0","1","0","null","","","<div style=""font-size:60px;"">+</div>","null","","","","","","","","","",""
"","html-keyboard-response","180","518427","0.0-10.0-1.6","w8o67hhk08","one_one","1","indirect_first","0","ar06in27","0","25","1","1","3","1","","0","1","0","null","","","<img src = 'category1/ma.png' width = '100%;'>","null","","","","","","","","","",""
"","html-keyboard-response","181","518692","0.0-10.0-2.6","w8o67hhk08","one_one","1","indirect_first","0","ar06in27","0","25","1","1","3","1","","0","1","0","null","","","<img src = 'targets/24.png' width = '100%;'>","null","","","","","","","","","",""
"","html-keyboard-response","182","519152","0.0-10.0-3.6","w8o67hhk08","one_one","1","indirect_first","0","ar06in27","0","25","1","1","3","1","","0","1","0","458.4949999116361","","","<img src = 'targets/mask.png' width = '100%;'>","68","pos","GS","abstract","1","category1/ma.png","targets/24.png","0","indirect","22",""
"","html-keyboard-response","183","520666","0.0-10.0-0.7","w8o67hhk08","one_one","1","indirect_first","0","ar06in27","0","25","1","1","3","1","","0","1","0","null","","","<div style=""font-size:60px;"">+</div>","null","","","","","","","","","",""
"","html-keyboard-response","184","520758","0.0-10.0-1.7","w8o67hhk08","one_one","1","indirect_first","0","ar06in27","0","25","1","1","3","1","","0","1","0","null","","","<img src = 'category1/GS2.png' width = '100%;'>","null","","","","","","","","","",""
"","html-keyboard-response","185","521039","0.0-10.0-2.7","w8o67hhk08","one_one","1","indirect_first","0","ar06in27","0","25","1","1","3","1","","0","1","0","null","","","<img src = 'targets/48.png' width = '100%;'>","null","","","","","","","","","",""
"","html-keyboard-response","186","522203","0.0-10.0-3.7","w8o67hhk08","one_one","1","indirect_first","0","ar06in27","0","25","1","1","3","1","","0","1","0","1163.4049999993294","","","<img src = 'targets/mask.png' width = '100%;'>","68","pos","GS","GSnew","1","category1/GS2.png","targets/48.png","0","indirect","23",""
"","html-keyboard-response","187","523723","0.0-10.0-0.8","w8o67hhk08","one_one","1","indirect_first","0","ar06in27","0","25","1","1","3","1","","0","1","0","null","","","<div style=""font-size:60px;"">+</div>","null","","","","","","","","","",""
"","html-keyboard-response","188","523815","0.0-10.0-1.8","w8o67hhk08","one_one","1","indirect_first","0","ar06in27","0","25","1","1","3","1","","0","1","0","null","","","<img src = 'category1/GS1.png' width = '100%;'>","null","","","","","","","","","",""
"","html-keyboard-response","189","524081","0.0-10.0-2.8","w8o67hhk08","one_one","1","indirect_first","0","ar06in27","0","25","1","1","3","1","","0","1","0","null","","","<img src = 'targets/33.png' width = '100%;'>","null","","","","","","","","","",""
"","html-keyboard-response","190","525314","0.0-10.0-3.8","w8o67hhk08","one_one","1","indirect_first","0","ar06in27","0","25","1","1","3","1","","0","1","0","1231.6250000149012","","","<img src = 'targets/mask.png' width = '100%;'>","68","pos","GS","GSnew","1","category1/GS1.png","targets/33.png","0","indirect","24",""
"","html-keyboard-response","191","526830","0.0-10.0-0.9","w8o67hhk08","one_one","1","indirect_first","0","ar06in27","0","25","1","1","3","1","","0","1","0","null","","","<div style=""font-size:60px;"">+</div>","null","","","","","","","","","",""
"","html-keyboard-response","192","526921","0.0-10.0-1.9","w8o67hhk08","one_one","1","indirect_first","0","ar06in27","0","25","1","1","3","1","","0","1","0","null","","","<img src = 'category3/wang.png' width = '100%;'>","null","","","","","","","","","",""
"","html-keyboard-response","193","527175","0.0-10.0-2.9","w8o67hhk08","one_one","1","indirect_first","0","ar06in27","0","25","1","1","3","1","","0","1","0","null","","","<img src = 'targets/23.png' width = '100%;'>","null","","","","","","","","","",""
"","html-keyboard-response","194","527807","0.0-10.0-3.9","w8o67hhk08","one_one","1","indirect_first","0","ar06in27","0","25","1","1","3","1","","0","1","0","631.0000000521541","","","<img src = 'targets/mask.png' width = '100%;'>","75","pos","GS","abstract","3","category3/wang.png","targets/23.png","1","indirect","25",""
"","html-keyboard-response","195","529319","0.0-10.0-0.10","w8o67hhk08","one_one","1","indirect_first","0","ar06in27","0","25","1","1","3","1","","0","1","0","null","","","<div style=""font-size:60px;"">+</div>","null","","","","","","","","","",""
"","html-keyboard-response","196","529413","0.0-10.0-1.10","w8o67hhk08","one_one","1","indirect_first","0","ar06in27","0","25","1","1","3","1","","0","1","0","null","","","<img src = 'category2/GS2.png' width = '100%;'>","null","","","","","","","","","",""
"","html-keyboard-response","197","529665","0.0-10.0-2.10","w8o67hhk08","one_one","1","indirect_first","0","ar06in27","0","25","1","1","3","1","","0","1","0","null","","","<img src = 'targets/36.png' width = '100%;'>","null","","","","","","","","","",""
"","html-keyboard-response","198","530248","0.0-10.0-3.10","w8o67hhk08","one_one","1","indirect_first","0","ar06in27","0","25","1","1","3","1","","0","1","0","582.4700000230223","","","<img src = 'targets/mask.png' width = '100%;'>","68","neg","GS","GSnew","2","category2/GS2.png","targets/36.png","0","indirect","26",""
"","html-keyboard-response","199","531772","0.0-10.0-0.11","w8o67hhk08","one_one","1","indirect_first","0","ar06in27","0","25","1","1","3","1","","0","1","0","null","","","<div style=""font-size:60px;"">+</div>","null","","","","","","","","","",""
"","html-keyboard-response","200","531863","0.0-10.0-1.11","w8o67hhk08","one_one","1","indirect_first","0","ar06in27","0","25","1","1","3","1","","0","1","0","null","","","<img src = 'category3/GS1.png' width = '100%;'>","null","","","","","","","","","",""
"","html-keyboard-response","201","532115","0.0-10.0-2.11","w8o67hhk08","one_one","1","indirect_first","0","ar06in27","0","25","1","1","3","1","","0","1","0","null","","","<img src = 'targets/40.png' width = '100%;'>","null","","","","","","","","","",""
"","html-keyboard-response","202","532830","0.0-10.0-3.11","w8o67hhk08","one_one","1","indirect_first","0","ar06in27","0","25","1","1","3","1","","0","1","0","713.0550001747906","","","<img src = 'targets/mask.png' width = '100%;'>","68","pos","GS","GSnew","3","category3/GS1.png","targets/40.png","0","indirect","27",""
"","html-keyboard-response","203","534349","0.0-10.0-0.12","w8o67hhk08","one_one","1","indirect_first","0","ar06in27","0","25","1","1","3","1","","0","1","0","null","","","<div style=""font-size:60px;"">+</div>","null","","","","","","","","","",""
"","html-keyboard-response","204","534440","0.0-10.0-1.12","w8o67hhk08","one_one","1","indirect_first","0","ar06in27","0","25","1","1","3","1","","0","1","0","null","","","<img src = 'category2/men.png' width = '100%;'>","null","","","","","","","","","",""
"","html-keyboard-response","205","534707","0.0-10.0-2.12","w8o67hhk08","one_one","1","indirect_first","0","ar06in27","0","25","1","1","3","1","","0","1","0","null","","","<img src = 'targets/35.png' width = '100%;'>","null","","","","","","","","","",""
"","html-keyboard-response","206","535528","0.0-10.0-3.12","w8o67hhk08","one_one","1","indirect_first","0","ar06in27","0","25","1","1","3","1","","0","1","0","819.870000006631","","","<img src = 'targets/mask.png' width = '100%;'>","68","neg","GS","abstract","2","category2/men.png","targets/35.png","0","indirect","28",""
"","html-keyboard-response","207","537055","0.0-10.0-0.13","w8o67hhk08","one_one","1","indirect_first","0","ar06in27","0","25","1","1","3","1","","0","1","0","null","","","<div style=""font-size:60px;"">+</div>","null","","","","","","","","","",""
"","html-keyboard-response","208","537147","0.0-10.0-1.13","w8o67hhk08","one_one","1","indirect_first","0","ar06in27","0","25","1","1","3","1","","0","1","0","null","","","<img src = 'category2/GS3.png' width = '100%;'>","null","","","","","","","","","",""
"","html-keyboard-response","209","537398","0.0-10.0-2.13","w8o67hhk08","one_one","1","indirect_first","0","ar06in27","0","25","1","1","3","1","","0","1","0","null","","","<img src = 'targets/3.png' width = '100%;'>","null","","","","","","","","","",""
"","html-keyboard-response","210","538107","0.0-10.0-3.13","w8o67hhk08","one_one","1","indirect_first","0","ar06in27","0","25","1","1","3","1","","0","1","0","707.2900000493973","","","<img src = 'targets/mask.png' width = '100%;'>","75","neg","GS","GSnew","2","category2/GS3.png","targets/3.png","1","indirect","29",""
"","html-keyboard-response","211","539629","0.0-10.0-0.14","w8o67hhk08","one_one","1","indirect_first","0","ar06in27","0","25","1","1","3","1","","0","1","0","null","","","<div style=""font-size:60px;"">+</div>","null","","","","","","","","","",""
"","html-keyboard-response","212","539721","0.0-10.0-1.14","w8o67hhk08","one_one","1","indirect_first","0","ar06in27","0","25","1","1","3","1","","0","1","0","null","","","<img src = 'category2/GS1.png' width = '100%;'>","null","","","","","","","","","",""
"","html-keyboard-response","213","539973","0.0-10.0-2.14","w8o67hhk08","one_one","1","indirect_first","0","ar06in27","0","25","1","1","3","1","","0","1","0","null","","","<img src = 'targets/46.png' width = '100%;'>","null","","","","","","","","","",""
"","html-keyboard-response","214","540649","0.0-10.0-3.14","w8o67hhk08","one_one","1","indirect_first","0","ar06in27","0","25","1","1","3","1","","0","1","0","674.6249999850988","","","<img src = 'targets/mask.png' width = '100%;'>","68","neg","GS","GSnew","2","category2/GS1.png","targets/46.png","0","indirect","30",""
"","html-keyboard-response","215","542162","0.0-10.0-0.15","w8o67hhk08","one_one","1","indirect_first","0","ar06in27","0","25","1","1","3","1","","0","1","0","null","","","<div style=""font-size:60px;"">+</div>","null","","","","","","","","","",""
"","html-keyboard-response","216","542256","0.0-10.0-1.15","w8o67hhk08","one_one","1","indirect_first","0","ar06in27","0","25","1","1","3","1","","0","1","0","null","","","<img src = 'category3/GS2.png' width = '100%;'>","null","","","","","","","","","",""
"","html-keyboard-response","217","542520","0.0-10.0-2.15","w8o67hhk08","one_one","1","indirect_first","0","ar06in27","0","25","1","1","3","1","","0","1","0","null","","","<img src = 'targets/37.png' width = '100%;'>","null","","","","","","","","","",""
"","html-keyboard-response","218","542788","0.0-10.0-3.15","w8o67hhk08","one_one","1","indirect_first","0","ar06in27","0","25","1","1","3","1","","0","1","0","267.3449998255819","","","<img src = 'targets/mask.png' width = '100%;'>","68","pos","GS","GSnew","3","category3/GS2.png","targets/37.png","0","indirect","31",""
"","survey-html-form","219","557844","0.0-11.0","w8o67hhk08","one_one","1","indirect_first","0","ar06in27","0","25","1","1","3","1","","0","1","0","14550.065000075847","","{}","","","","","","","","","","","",""
"","image-slider-response","220","565636","0.0-12.0-0.0","w8o67hhk08","one_one","1","indirect_first","0","ar06in27","0","25","1","1","3","1","","0","1","0","5789.0149999875575","","","","","pos","GS","GSold","3","category3/CS4.png","targets/25.png","","direct","","65"
"","image-slider-response","221","568596","0.0-12.0-0.1","w8o67hhk08","one_one","1","indirect_first","0","ar06in27","0","25","1","1","3","1","","0","1","0","2957.02000008896","","","","","pos","GS","abstract","3","category3/wang.png","targets/23.png","","direct","","100"
"","image-slider-response","222","574019","0.0-12.0-0.2","w8o67hhk08","one_one","1","indirect_first","0","ar06in27","0","25","1","1","3","1","","0","1","0","5422.095000045374","","","","","neg","GS","GSnew","4","category4/GS3.png","targets/15.png","","direct","","-73"
"","image-slider-response","223","577444","0.0-12.0-0.3","w8o67hhk08","one_one","1","indirect_first","0","ar06in27","0","25","1","1","3","1","","0","1","0","3422.224999871105","","","","","pos","GS","GSnew","1","category1/GS1.png","targets/33.png","","direct","","-49"
"","image-slider-response","224","580331","0.0-12.0-0.4","w8o67hhk08","one_one","1","indirect_first","0","ar06in27","0","25","1","1","3","1","","0","1","0","2886.4199998788536","","","","","pos","GS","GSnew","3","category3/GS2.png","targets/37.png","","direct","","25"
"","image-slider-response","225","584355","0.0-12.0-0.5","w8o67hhk08","one_one","1","indirect_first","0","ar06in27","0","25","1","1","3","1","","0","1","0","4022.014999995008","","","","","pos","GS","GSnew","3","category3/GS3.png","targets/6.png","","direct","","55"
"","image-slider-response","226","586979","0.0-12.0-0.6","w8o67hhk08","one_one","1","indirect_first","0","ar06in27","0","25","1","1","3","1","","0","1","0","2622.190000023693","","","","","neg","GS","GSnew","4","category4/GS2.png","targets/41.png","","direct","","-86"
"","image-slider-response","227","589663","0.0-12.0-0.7","w8o67hhk08","one_one","1","indirect_first","0","ar06in27","0","25","1","1","3","1","","0","1","0","2682.505000149831","","","","","pos","GS","GSold","1","category1/CS8.png","targets/18.png","","direct","","-63"
"","image-slider-response","228","594899","0.0-12.0-0.8","w8o67hhk08","one_one","1","indirect_first","0","ar06in27","0","25","1","1","3","1","","0","1","0","5234.605000121519","","","","","neg","GS","abstract","4","category4/lin.png","targets/21.png","","direct","","-2"
"","image-slider-response","229","597867","0.0-12.0-0.9","w8o67hhk08","one_one","1","indirect_first","0","ar06in27","0","25","1","1","3","1","","0","1","0","2966.200000140816","","","","","neg","CS","CS","2","category2/CS10.png","targets/34.png","","direct","","-100"
"","image-slider-response","230","601315","0.0-12.0-0.10","w8o67hhk08","one_one","1","indirect_first","0","ar06in27","0","25","1","1","3","1","","0","1","0","3446.514999959618","","","","","pos","GS","GSold","3","category3/CS10.png","targets/47.png","","direct","","-1"
"","image-slider-response","231","604771","0.0-12.0-0.11","w8o67hhk08","one_one","1","indirect_first","0","ar06in27","0","25","1","1","3","1","","0","1","0","3454.1700000409037","","","","","neg","GS","GSold","2","category2/CS6.png","targets/38.png","","direct","","-36"
"","image-slider-response","232","607283","0.0-12.0-0.12","w8o67hhk08","one_one","1","indirect_first","0","ar06in27","0","25","1","1","3","1","","0","1","0","2510.299999965355","","","","","neg","GS","GSnew","2","category2/GS3.png","targets/3.png","","direct","","-10"
"","image-slider-response","233","611075","0.0-12.0-0.13","w8o67hhk08","one_one","1","indirect_first","0","ar06in27","0","25","1","1","3","1","","0","1","0","3790.525000076741","","","","","pos","GS","GSnew","1","category1/GS2.png","targets/48.png","","direct","","20"
"","image-slider-response","234","613651","0.0-12.0-0.14","w8o67hhk08","one_one","1","indirect_first","0","ar06in27","0","25","1","1","3","1","","0","1","0","2573.6050000414252","","","","","neg","GS","GSold","2","category2/CS5.png","targets/31.png","","direct","","-31"
"","image-slider-response","235","615723","0.0-12.0-0.15","w8o67hhk08","one_one","1","indirect_first","0","ar06in27","0","25","1","1","3","1","","0","1","0","2070.7300000358373","","","","","neg","GS","GSold","4","category4/CS8.png","targets/2.png","","direct","","-36"
"","image-slider-response","236","618155","0.0-12.0-0.16","w8o67hhk08","one_one","1","indirect_first","0","ar06in27","0","25","1","1","3","1","","0","1","0","2430.475000059232","","","","","neg","GS","GSnew","2","category2/GS2.png","targets/36.png","","direct","","-53"
"","image-slider-response","237","620403","0.0-12.0-0.17","w8o67hhk08","one_one","1","indirect_first","0","ar06in27","0","25","1","1","3","1","","0","1","0","2246.365000028163","","","","","pos","GS","GSold","3","category3/CS8.png","targets/5.png","","direct","","78"
"","image-slider-response","238","622531","0.0-12.0-0.18","w8o67hhk08","one_one","1","indirect_first","0","ar06in27","0","25","1","1","3","1","","0","1","0","2126.5549999661744","","","","","neg","GS","GSnew","2","category2/GS1.png","targets/46.png","","direct","","-44"
"","image-slider-response","239","624363","0.0-12.0-0.19","w8o67hhk08","one_one","1","indirect_first","0","ar06in27","0","25","1","1","3","1","","0","1","0","1830.9200000949204","","","","","neg","GS","abstract","2","category2/men.png","targets/35.png","","direct","","-52"
"","image-slider-response","240","626515","0.0-12.0-0.20","w8o67hhk08","one_one","1","indirect_first","0","ar06in27","0","25","1","1","3","1","","0","1","0","2150.510000064969","","","","","neg","GS","GSold","4","category4/CS2.png","targets/9.png","","direct","","-44"
"","image-slider-response","241","629027","0.0-12.0-0.21","w8o67hhk08","one_one","1","indirect_first","0","ar06in27","0","25","1","1","3","1","","0","1","0","2510.7950000092387","","","","","pos","GS","GSold","1","category1/CS2.png","targets/30.png","","direct","","30"
"","image-slider-response","242","632051","0.0-12.0-0.22","w8o67hhk08","one_one","1","indirect_first","0","ar06in27","0","25","1","1","3","1","","0","1","0","3022.5349999964237","","","","","neg","GS","GSold","4","category4/CS10.png","targets/39.png","","direct","","75"
"","image-slider-response","243","634323","0.0-12.0-0.23","w8o67hhk08","one_one","1","indirect_first","0","ar06in27","0","25","1","1","3","1","","0","1","0","2269.255000166595","","","","","pos","GS","GSold","1","category1/CS6.png","targets/12.png","","direct","","25"
"","image-slider-response","244","639851","0.0-12.0-0.24","w8o67hhk08","one_one","1","indirect_first","0","ar06in27","0","25","1","1","3","1","","0","1","0","5526.539999991655","","","","","neg","GS","GSold","2","category2/CS9.png","targets/11.png","","direct","","-66"
"","image-slider-response","245","642099","0.0-12.0-0.25","w8o67hhk08","one_one","1","indirect_first","0","ar06in27","0","25","1","1","3","1","","0","1","0","2246.0449999198318","","","","","neg","GS","GSnew","4","category4/GS1.png","targets/19.png","","direct","","-21"
"","image-slider-response","246","644634","0.0-12.0-0.26","w8o67hhk08","one_one","1","indirect_first","0","ar06in27","0","25","1","1","3","1","","0","1","0","2534.264999907464","","","","","pos","GS","GSnew","1","category1/GS3.png","targets/17.png","","direct","","25"
"","image-slider-response","247","646434","0.0-12.0-0.27","w8o67hhk08","one_one","1","indirect_first","0","ar06in27","0","25","1","1","3","1","","0","1","0","1798.6550000496209","","","","","pos","GS","abstract","1","category1/ma.png","targets/24.png","","direct","","20"
"","image-slider-response","248","648682","0.0-12.0-0.28","w8o67hhk08","one_one","1","indirect_first","0","ar06in27","0","25","1","1","3","1","","0","1","0","2246.5849998407066","","","","","pos","GS","GSnew","3","category3/GS1.png","targets/40.png","","direct","","72"
"","image-slider-response","249","652650","0.0-12.0-0.29","w8o67hhk08","one_one","1","indirect_first","0","ar06in27","0","25","1","1","3","1","","0","1","0","3966.48499998264","","","","","neg","CS","CS","4","category4/CS9.png","targets/22.png","","direct","","-44"
"","image-slider-response","250","655338","0.0-12.0-0.30","w8o67hhk08","one_one","1","indirect_first","0","ar06in27","0","25","1","1","3","1","","0","1","0","2686.31499982439","","","","","pos","CS","CS","1","category1/CS9.png","targets/10.png","","direct","","100"
"","image-slider-response","251","657530","0.0-12.0-0.31","w8o67hhk08","one_one","1","indirect_first","0","ar06in27","0","25","1","1","3","1","","0","1","0","2190.574999898672","","","","","pos","CS","CS","3","category3/CS9.png","targets/8.png","","direct","","100"
"","survey-html-form","252","666754","0.0-13.0","w8o67hhk08","one_one","1","indirect_first","0","ar06in27","0","25","1","1","3","1","","0","1","0","9223.040000069886","","{}","","","","","","","","","","","",""
"","image-slider-response","253","679147","0.0-14.0-0.0","w8o67hhk08","one_one","1","indirect_first","0","ar06in27","0","25","1","1","3","1","","0","1","0","11378.759999992326","","","","","neg","All","all","4","category4/lin_all.png","","","all","","-49"
"","image-slider-response","254","685003","0.0-14.0-0.1","w8o67hhk08","one_one","1","indirect_first","0","ar06in27","0","25","1","1","3","1","","0","1","0","5854.135000146925","","","","","pos","All","all","1","category1/ma_all.png","","","all","","51"
"","image-slider-response","255","687587","0.0-14.0-0.2","w8o67hhk08","one_one","1","indirect_first","0","ar06in27","0","25","1","1","3","1","","0","1","0","2582.4700000230223","","","","","pos","All","all","3","category3/wang_all.png","","","all","","100"
"","image-slider-response","256","690003","0.0-14.0-0.3","w8o67hhk08","one_one","1","indirect_first","0","ar06in27","0","25","1","1","3","1","","0","1","0","2414.3949998542666","","","","","neg","All","all","2","category2/men_all.png","","","all","","-100"
"","survey-text","257","695827","0.0-15.0","w8o67hhk08","one_one","1","indirect_first","0","ar06in27","0","25","1","1","3","1","","0","1","0","5813.069999916479","","{""comment"":""""}","","","","","","","","","","","",""
"","survey-html-form","258","715355","0.0-16.0","w8o67hhk08","one_one","1","indirect_first","0","ar06in27","0","25","1","1","3","1","","0","1","0","19525.124999927357","","{""hinschauen"":""0"",""ablenkung"":""1"",""gewissenhaft"":""0""}","","","","","","","","","","","",""
