"success","trial_type","trial_index","time_elapsed","internal_node_id","subject","condition","condition_code","measure","measure_code","codeword","gender","age","education","chinese","fach","handedness","comment","hinschauen","ablenkung","gewissenhaft","rt","url","responses","stimulus","key_press","val","type","type_specific","category","cs_selected","target","indirect","task","nr_pres","response"
"true","fullscreen","0","6800","0.0-0.0","dga6wrnqb5","many_one","0","indirect_first","0","ld09er07","0","21","1","1","3","1","","0","1","0","","","","","","","","","","","","","","",""
"","external-html","1","32175","0.0-1.0","dga6wrnqb5","many_one","0","indirect_first","0","ld09er07","0","21","1","1","3","1","","0","1","0","25320.840000000007","text/information.html","","","","","","","","","","","","",""
"","external-html","2","64993","0.0-2.0","dga6wrnqb5","many_one","0","indirect_first","0","ld09er07","0","21","1","1","3","1","","0","1","0","32746.915000000023","text/consent.html","","","","","","","","","","","","",""
"","survey-html-form","3","112265","0.0-3.0","dga6wrnqb5","many_one","0","indirect_first","0","ld09er07","0","21","1","1","3","1","","0","1","0","47268.95000000001","","{""codeword_enter"":""ld09er07""}","","","","","","","","","","","",""
"","survey-html-form","4","127762","0.0-4.0","dga6wrnqb5","many_one","0","indirect_first","0","ld09er07","0","21","1","1","3","1","","0","1","0","15489.895000000019","","{""age"":""21"",""education"":""1"",""subject"":""3"",""gender"":""0"",""handedness"":""1"",""chinese"":""1""}","","","","","","","","","","","",""
"","survey-html-form","5","138783","0.0-5.0","dga6wrnqb5","many_one","0","indirect_first","0","ld09er07","0","21","1","1","3","1","","0","1","0","11017.64499999999","","{}","","","","","","","","","","","",""
"","html-keyboard-response","6","142798","0.0-6.0-0.0-0.0","dga6wrnqb5","many_one","0","indirect_first","0","ld09er07","0","21","1","1","3","1","","0","1","0","null","","","<div class = 'row'><div class = 'column'><img src = 'category3/CS2.png' width = '70%;'></div><div class = 'column'><img src = 'usneg/9560.bmp' width = '100%;'></div></div>","null","neg","CS","CS","3","category3/CS2.png","","","","",""
"","html-keyboard-response","7","145310","0.0-6.0-0.0-0.1","dga6wrnqb5","many_one","0","indirect_first","0","ld09er07","0","21","1","1","3","1","","0","1","0","null","","","<div class = 'row'><div class = 'column'><img src = 'uspos/8190.bmp' width = '100%;'></div><div class = 'column'><img src = 'category1/CS2.png' width = '70%;'></div></div>","null","pos","CS","CS","1","category1/CS2.png","","","","",""
"","html-keyboard-response","8","147827","0.0-6.0-0.0-0.2","dga6wrnqb5","many_one","0","indirect_first","0","ld09er07","0","21","1","1","3","1","","0","1","0","null","","","<div class = 'row'><div class = 'column'><img src = 'uspos/5621.bmp' width = '100%;'></div><div class = 'column'><img src = 'category1/CS5.png' width = '70%;'></div></div>","null","pos","CS","CS","1","category1/CS5.png","","","","",""
"","html-keyboard-response","9","150344","0.0-6.0-0.0-0.3","dga6wrnqb5","many_one","0","indirect_first","0","ld09er07","0","21","1","1","3","1","","0","1","0","null","","","<div class = 'row'><div class = 'column'><img src = 'category2/CS3.png' width = '70%;'></div><div class = 'column'><img src = 'uspos/7580.bmp' width = '100%;'></div></div>","null","pos","CS","CS","2","category2/CS3.png","","","","",""
"","html-keyboard-response","10","152860","0.0-6.0-0.0-0.4","dga6wrnqb5","many_one","0","indirect_first","0","ld09er07","0","21","1","1","3","1","","0","1","0","null","","","<div class = 'row'><div class = 'column'><img src = 'category4/CS2.png' width = '70%;'></div><div class = 'column'><img src = 'usneg/6020.bmp' width = '100%;'></div></div>","null","neg","CS","CS","4","category4/CS2.png","","","","",""
"","html-keyboard-response","11","155372","0.0-6.0-0.0-0.5","dga6wrnqb5","many_one","0","indirect_first","0","ld09er07","0","21","1","1","3","1","","0","1","0","null","","","<div class = 'row'><div class = 'column'><img src = 'uspos/2550.bmp' width = '100%;'></div><div class = 'column'><img src = 'category2/CS4.png' width = '70%;'></div></div>","null","pos","CS","CS","2","category2/CS4.png","","","","",""
"","html-keyboard-response","12","157888","0.0-6.0-0.0-0.6","dga6wrnqb5","many_one","0","indirect_first","0","ld09er07","0","21","1","1","3","1","","0","1","0","null","","","<div class = 'row'><div class = 'column'><img src = 'category3/CS8.png' width = '70%;'></div><div class = 'column'><img src = 'usneg/9330.bmp' width = '100%;'></div></div>","null","neg","CS","CS","3","category3/CS8.png","","","","",""
"","html-keyboard-response","13","160405","0.0-6.0-0.0-0.7","dga6wrnqb5","many_one","0","indirect_first","0","ld09er07","0","21","1","1","3","1","","0","1","0","null","","","<div class = 'row'><div class = 'column'><img src = 'uspos/5629.bmp' width = '100%;'></div><div class = 'column'><img src = 'category2/CS6.png' width = '70%;'></div></div>","null","pos","CS","CS","2","category2/CS6.png","","","","",""
"","html-keyboard-response","14","162917","0.0-6.0-0.0-0.8","dga6wrnqb5","many_one","0","indirect_first","0","ld09er07","0","21","1","1","3","1","","0","1","0","null","","","<div class = 'row'><div class = 'column'><img src = 'usneg/6212.bmp' width = '100%;'></div><div class = 'column'><img src = 'category3/CS6.png' width = '70%;'></div></div>","null","neg","CS","CS","3","category3/CS6.png","","","","",""
"","html-keyboard-response","15","165434","0.0-6.0-0.0-0.9","dga6wrnqb5","many_one","0","indirect_first","0","ld09er07","0","21","1","1","3","1","","0","1","0","null","","","<div class = 'row'><div class = 'column'><img src = 'uspos/8461.bmp' width = '100%;'></div><div class = 'column'><img src = 'category1/CS7.png' width = '70%;'></div></div>","null","pos","CS","CS","1","category1/CS7.png","","","","",""
"","html-keyboard-response","16","167952","0.0-6.0-0.0-0.10","dga6wrnqb5","many_one","0","indirect_first","0","ld09er07","0","21","1","1","3","1","","0","1","0","null","","","<div class = 'row'><div class = 'column'><img src = 'category2/CS2.png' width = '70%;'></div><div class = 'column'><img src = 'uspos/2160.bmp' width = '100%;'></div></div>","null","pos","CS","CS","2","category2/CS2.png","","","","",""
"","html-keyboard-response","17","170469","0.0-6.0-0.0-0.11","dga6wrnqb5","many_one","0","indirect_first","0","ld09er07","0","21","1","1","3","1","","0","1","0","null","","","<div class = 'row'><div class = 'column'><img src = 'uspos/2030.bmp' width = '100%;'></div><div class = 'column'><img src = 'category1/CS4.png' width = '70%;'></div></div>","null","pos","CS","CS","1","category1/CS4.png","","","","",""
"","html-keyboard-response","18","172985","0.0-6.0-0.0-0.12","dga6wrnqb5","many_one","0","indirect_first","0","ld09er07","0","21","1","1","3","1","","0","1","0","null","","","<div class = 'row'><div class = 'column'><img src = 'category4/CS1.png' width = '70%;'></div><div class = 'column'><img src = 'usneg/9584.bmp' width = '100%;'></div></div>","null","neg","CS","CS","4","category4/CS1.png","","","","",""
"","html-keyboard-response","19","175502","0.0-6.0-0.0-0.13","dga6wrnqb5","many_one","0","indirect_first","0","ld09er07","0","21","1","1","3","1","","0","1","0","null","","","<div class = 'row'><div class = 'column'><img src = 'uspos/2341.bmp' width = '100%;'></div><div class = 'column'><img src = 'category2/CS1.png' width = '70%;'></div></div>","null","pos","CS","CS","2","category2/CS1.png","","","","",""
"","html-keyboard-response","20","178020","0.0-6.0-0.0-0.14","dga6wrnqb5","many_one","0","indirect_first","0","ld09er07","0","21","1","1","3","1","","0","1","0","null","","","<div class = 'row'><div class = 'column'><img src = 'category1/CS8.png' width = '70%;'></div><div class = 'column'><img src = 'uspos/1710.bmp' width = '100%;'></div></div>","null","pos","CS","CS","1","category1/CS8.png","","","","",""
"","html-keyboard-response","21","180537","0.0-6.0-0.0-0.15","dga6wrnqb5","many_one","0","indirect_first","0","ld09er07","0","21","1","1","3","1","","0","1","0","null","","","<div class = 'row'><div class = 'column'><img src = 'usneg/9561.bmp' width = '100%;'></div><div class = 'column'><img src = 'category4/CS4.png' width = '70%;'></div></div>","null","neg","CS","CS","4","category4/CS4.png","","","","",""
"","html-keyboard-response","22","183055","0.0-6.0-0.0-0.16","dga6wrnqb5","many_one","0","indirect_first","0","ld09er07","0","21","1","1","3","1","","0","1","0","null","","","<div class = 'row'><div class = 'column'><img src = 'category3/CS5.png' width = '70%;'></div><div class = 'column'><img src = 'usneg/9342.bmp' width = '100%;'></div></div>","null","neg","CS","CS","3","category3/CS5.png","","","","",""
"","html-keyboard-response","23","185572","0.0-6.0-0.0-0.17","dga6wrnqb5","many_one","0","indirect_first","0","ld09er07","0","21","1","1","3","1","","0","1","0","null","","","<div class = 'row'><div class = 'column'><img src = 'category4/CS8.png' width = '70%;'></div><div class = 'column'><img src = 'usneg/2141.bmp' width = '100%;'></div></div>","null","neg","CS","CS","4","category4/CS8.png","","","","",""
"","html-keyboard-response","24","188090","0.0-6.0-0.0-0.18","dga6wrnqb5","many_one","0","indirect_first","0","ld09er07","0","21","1","1","3","1","","0","1","0","null","","","<div class = 'row'><div class = 'column'><img src = 'usneg/9435.bmp' width = '100%;'></div><div class = 'column'><img src = 'category3/CS9.png' width = '70%;'></div></div>","null","neg","CS","CS","3","category3/CS9.png","","","","",""
"","html-keyboard-response","25","190606","0.0-6.0-0.0-0.19","dga6wrnqb5","many_one","0","indirect_first","0","ld09er07","0","21","1","1","3","1","","0","1","0","null","","","<div class = 'row'><div class = 'column'><img src = 'usneg/9050.bmp' width = '100%;'></div><div class = 'column'><img src = 'category4/CS3.png' width = '70%;'></div></div>","null","neg","CS","CS","4","category4/CS3.png","","","","",""
"","survey-html-form","26","193518","0.0-6.0-1.0","dga6wrnqb5","many_one","0","indirect_first","0","ld09er07","0","21","1","1","3","1","","0","1","0","2403.314999999973","","{}","","","","","","","","","","","",""
"","html-keyboard-response","27","197530","0.0-6.0-2.0-0.0","dga6wrnqb5","many_one","0","indirect_first","0","ld09er07","0","21","1","1","3","1","","0","1","0","null","","","<div class = 'row'><div class = 'column'><img src = 'usneg/9435.bmp' width = '100%;'></div><div class = 'column'><img src = 'category3/CS9.png' width = '70%;'></div></div>","null","neg","CS","CS","3","category3/CS9.png","","","","",""
"","html-keyboard-response","28","200046","0.0-6.0-2.0-0.1","dga6wrnqb5","many_one","0","indirect_first","0","ld09er07","0","21","1","1","3","1","","0","1","0","null","","","<div class = 'row'><div class = 'column'><img src = 'usneg/9342.bmp' width = '100%;'></div><div class = 'column'><img src = 'category3/CS5.png' width = '70%;'></div></div>","null","neg","CS","CS","3","category3/CS5.png","","","","",""
"","html-keyboard-response","29","202561","0.0-6.0-2.0-0.2","dga6wrnqb5","many_one","0","indirect_first","0","ld09er07","0","21","1","1","3","1","","0","1","0","null","","","<div class = 'row'><div class = 'column'><img src = 'usneg/9561.bmp' width = '100%;'></div><div class = 'column'><img src = 'category4/CS4.png' width = '70%;'></div></div>","null","neg","CS","CS","4","category4/CS4.png","","","","",""
"","html-keyboard-response","30","205077","0.0-6.0-2.0-0.3","dga6wrnqb5","many_one","0","indirect_first","0","ld09er07","0","21","1","1","3","1","","0","1","0","null","","","<div class = 'row'><div class = 'column'><img src = 'usneg/9584.bmp' width = '100%;'></div><div class = 'column'><img src = 'category4/CS1.png' width = '70%;'></div></div>","null","neg","CS","CS","4","category4/CS1.png","","","","",""
"","html-keyboard-response","31","207595","0.0-6.0-2.0-0.4","dga6wrnqb5","many_one","0","indirect_first","0","ld09er07","0","21","1","1","3","1","","0","1","0","null","","","<div class = 'row'><div class = 'column'><img src = 'uspos/5621.bmp' width = '100%;'></div><div class = 'column'><img src = 'category1/CS5.png' width = '70%;'></div></div>","null","pos","CS","CS","1","category1/CS5.png","","","","",""
"","html-keyboard-response","32","210112","0.0-6.0-2.0-0.5","dga6wrnqb5","many_one","0","indirect_first","0","ld09er07","0","21","1","1","3","1","","0","1","0","null","","","<div class = 'row'><div class = 'column'><img src = 'category2/CS6.png' width = '70%;'></div><div class = 'column'><img src = 'uspos/5629.bmp' width = '100%;'></div></div>","null","pos","CS","CS","2","category2/CS6.png","","","","",""
"","html-keyboard-response","33","212630","0.0-6.0-2.0-0.6","dga6wrnqb5","many_one","0","indirect_first","0","ld09er07","0","21","1","1","3","1","","0","1","0","null","","","<div class = 'row'><div class = 'column'><img src = 'category2/CS4.png' width = '70%;'></div><div class = 'column'><img src = 'uspos/2550.bmp' width = '100%;'></div></div>","null","pos","CS","CS","2","category2/CS4.png","","","","",""
"","html-keyboard-response","34","215148","0.0-6.0-2.0-0.7","dga6wrnqb5","many_one","0","indirect_first","0","ld09er07","0","21","1","1","3","1","","0","1","0","null","","","<div class = 'row'><div class = 'column'><img src = 'usneg/9560.bmp' width = '100%;'></div><div class = 'column'><img src = 'category3/CS2.png' width = '70%;'></div></div>","null","neg","CS","CS","3","category3/CS2.png","","","","",""
"","html-keyboard-response","35","217656","0.0-6.0-2.0-0.8","dga6wrnqb5","many_one","0","indirect_first","0","ld09er07","0","21","1","1","3","1","","0","1","0","null","","","<div class = 'row'><div class = 'column'><img src = 'uspos/2160.bmp' width = '100%;'></div><div class = 'column'><img src = 'category2/CS2.png' width = '70%;'></div></div>","null","pos","CS","CS","2","category2/CS2.png","","","","",""
"","html-keyboard-response","36","220174","0.0-6.0-2.0-0.9","dga6wrnqb5","many_one","0","indirect_first","0","ld09er07","0","21","1","1","3","1","","0","1","0","null","","","<div class = 'row'><div class = 'column'><img src = 'uspos/7580.bmp' width = '100%;'></div><div class = 'column'><img src = 'category2/CS3.png' width = '70%;'></div></div>","null","pos","CS","CS","2","category2/CS3.png","","","","",""
"","html-keyboard-response","37","222691","0.0-6.0-2.0-0.10","dga6wrnqb5","many_one","0","indirect_first","0","ld09er07","0","21","1","1","3","1","","0","1","0","null","","","<div class = 'row'><div class = 'column'><img src = 'category1/CS4.png' width = '70%;'></div><div class = 'column'><img src = 'uspos/2030.bmp' width = '100%;'></div></div>","null","pos","CS","CS","1","category1/CS4.png","","","","",""
"","html-keyboard-response","38","225198","0.0-6.0-2.0-0.11","dga6wrnqb5","many_one","0","indirect_first","0","ld09er07","0","21","1","1","3","1","","0","1","0","null","","","<div class = 'row'><div class = 'column'><img src = 'category1/CS7.png' width = '70%;'></div><div class = 'column'><img src = 'uspos/8461.bmp' width = '100%;'></div></div>","null","pos","CS","CS","1","category1/CS7.png","","","","",""
"","html-keyboard-response","39","227700","0.0-6.0-2.0-0.12","dga6wrnqb5","many_one","0","indirect_first","0","ld09er07","0","21","1","1","3","1","","0","1","0","null","","","<div class = 'row'><div class = 'column'><img src = 'usneg/2141.bmp' width = '100%;'></div><div class = 'column'><img src = 'category4/CS8.png' width = '70%;'></div></div>","null","neg","CS","CS","4","category4/CS8.png","","","","",""
"","html-keyboard-response","40","230207","0.0-6.0-2.0-0.13","dga6wrnqb5","many_one","0","indirect_first","0","ld09er07","0","21","1","1","3","1","","0","1","0","null","","","<div class = 'row'><div class = 'column'><img src = 'category4/CS2.png' width = '70%;'></div><div class = 'column'><img src = 'usneg/6020.bmp' width = '100%;'></div></div>","null","neg","CS","CS","4","category4/CS2.png","","","","",""
"","html-keyboard-response","41","232717","0.0-6.0-2.0-0.14","dga6wrnqb5","many_one","0","indirect_first","0","ld09er07","0","21","1","1","3","1","","0","1","0","null","","","<div class = 'row'><div class = 'column'><img src = 'category3/CS8.png' width = '70%;'></div><div class = 'column'><img src = 'usneg/9330.bmp' width = '100%;'></div></div>","null","neg","CS","CS","3","category3/CS8.png","","","","",""
"","html-keyboard-response","42","235230","0.0-6.0-2.0-0.15","dga6wrnqb5","many_one","0","indirect_first","0","ld09er07","0","21","1","1","3","1","","0","1","0","null","","","<div class = 'row'><div class = 'column'><img src = 'category3/CS6.png' width = '70%;'></div><div class = 'column'><img src = 'usneg/6212.bmp' width = '100%;'></div></div>","null","neg","CS","CS","3","category3/CS6.png","","","","",""
"","html-keyboard-response","43","237738","0.0-6.0-2.0-0.16","dga6wrnqb5","many_one","0","indirect_first","0","ld09er07","0","21","1","1","3","1","","0","1","0","null","","","<div class = 'row'><div class = 'column'><img src = 'category1/CS2.png' width = '70%;'></div><div class = 'column'><img src = 'uspos/8190.bmp' width = '100%;'></div></div>","null","pos","CS","CS","1","category1/CS2.png","","","","",""
"","html-keyboard-response","44","240255","0.0-6.0-2.0-0.17","dga6wrnqb5","many_one","0","indirect_first","0","ld09er07","0","21","1","1","3","1","","0","1","0","null","","","<div class = 'row'><div class = 'column'><img src = 'category2/CS1.png' width = '70%;'></div><div class = 'column'><img src = 'uspos/2341.bmp' width = '100%;'></div></div>","null","pos","CS","CS","2","category2/CS1.png","","","","",""
"","html-keyboard-response","45","242772","0.0-6.0-2.0-0.18","dga6wrnqb5","many_one","0","indirect_first","0","ld09er07","0","21","1","1","3","1","","0","1","0","null","","","<div class = 'row'><div class = 'column'><img src = 'uspos/1710.bmp' width = '100%;'></div><div class = 'column'><img src = 'category1/CS8.png' width = '70%;'></div></div>","null","pos","CS","CS","1","category1/CS8.png","","","","",""
"","html-keyboard-response","46","245286","0.0-6.0-2.0-0.19","dga6wrnqb5","many_one","0","indirect_first","0","ld09er07","0","21","1","1","3","1","","0","1","0","null","","","<div class = 'row'><div class = 'column'><img src = 'usneg/9050.bmp' width = '100%;'></div><div class = 'column'><img src = 'category4/CS3.png' width = '70%;'></div></div>","null","neg","CS","CS","4","category4/CS3.png","","","","",""
"","survey-html-form","47","247604","0.0-6.0-3.0","dga6wrnqb5","many_one","0","indirect_first","0","ld09er07","0","21","1","1","3","1","","0","1","0","1810.7599999999802","","{}","","","","","","","","","","","",""
"","html-keyboard-response","48","251616","0.0-6.0-4.0-0.0","dga6wrnqb5","many_one","0","indirect_first","0","ld09er07","0","21","1","1","3","1","","0","1","0","null","","","<div class = 'row'><div class = 'column'><img src = 'category4/CS2.png' width = '70%;'></div><div class = 'column'><img src = 'usneg/6020.bmp' width = '100%;'></div></div>","null","neg","CS","CS","4","category4/CS2.png","","","","",""
"","html-keyboard-response","49","254126","0.0-6.0-4.0-0.1","dga6wrnqb5","many_one","0","indirect_first","0","ld09er07","0","21","1","1","3","1","","0","1","0","null","","","<div class = 'row'><div class = 'column'><img src = 'usneg/9330.bmp' width = '100%;'></div><div class = 'column'><img src = 'category3/CS8.png' width = '70%;'></div></div>","null","neg","CS","CS","3","category3/CS8.png","","","","",""
"","html-keyboard-response","50","256631","0.0-6.0-4.0-0.2","dga6wrnqb5","many_one","0","indirect_first","0","ld09er07","0","21","1","1","3","1","","0","1","0","null","","","<div class = 'row'><div class = 'column'><img src = 'usneg/9050.bmp' width = '100%;'></div><div class = 'column'><img src = 'category4/CS3.png' width = '70%;'></div></div>","null","neg","CS","CS","4","category4/CS3.png","","","","",""
"","html-keyboard-response","51","259149","0.0-6.0-4.0-0.3","dga6wrnqb5","many_one","0","indirect_first","0","ld09er07","0","21","1","1","3","1","","0","1","0","null","","","<div class = 'row'><div class = 'column'><img src = 'category1/CS4.png' width = '70%;'></div><div class = 'column'><img src = 'uspos/2030.bmp' width = '100%;'></div></div>","null","pos","CS","CS","1","category1/CS4.png","","","","",""
"","html-keyboard-response","52","261667","0.0-6.0-4.0-0.4","dga6wrnqb5","many_one","0","indirect_first","0","ld09er07","0","21","1","1","3","1","","0","1","0","null","","","<div class = 'row'><div class = 'column'><img src = 'category3/CS9.png' width = '70%;'></div><div class = 'column'><img src = 'usneg/9435.bmp' width = '100%;'></div></div>","null","neg","CS","CS","3","category3/CS9.png","","","","",""
"","html-keyboard-response","53","264180","0.0-6.0-4.0-0.5","dga6wrnqb5","many_one","0","indirect_first","0","ld09er07","0","21","1","1","3","1","","0","1","0","null","","","<div class = 'row'><div class = 'column'><img src = 'uspos/8461.bmp' width = '100%;'></div><div class = 'column'><img src = 'category1/CS7.png' width = '70%;'></div></div>","null","pos","CS","CS","1","category1/CS7.png","","","","",""
"","html-keyboard-response","54","266696","0.0-6.0-4.0-0.6","dga6wrnqb5","many_one","0","indirect_first","0","ld09er07","0","21","1","1","3","1","","0","1","0","null","","","<div class = 'row'><div class = 'column'><img src = 'category2/CS3.png' width = '70%;'></div><div class = 'column'><img src = 'uspos/7580.bmp' width = '100%;'></div></div>","null","pos","CS","CS","2","category2/CS3.png","","","","",""
"","html-keyboard-response","55","269214","0.0-6.0-4.0-0.7","dga6wrnqb5","many_one","0","indirect_first","0","ld09er07","0","21","1","1","3","1","","0","1","0","null","","","<div class = 'row'><div class = 'column'><img src = 'uspos/5621.bmp' width = '100%;'></div><div class = 'column'><img src = 'category1/CS5.png' width = '70%;'></div></div>","null","pos","CS","CS","1","category1/CS5.png","","","","",""
"","html-keyboard-response","56","271726","0.0-6.0-4.0-0.8","dga6wrnqb5","many_one","0","indirect_first","0","ld09er07","0","21","1","1","3","1","","0","1","0","null","","","<div class = 'row'><div class = 'column'><img src = 'usneg/9584.bmp' width = '100%;'></div><div class = 'column'><img src = 'category4/CS1.png' width = '70%;'></div></div>","null","neg","CS","CS","4","category4/CS1.png","","","","",""
"","html-keyboard-response","57","274241","0.0-6.0-4.0-0.9","dga6wrnqb5","many_one","0","indirect_first","0","ld09er07","0","21","1","1","3","1","","0","1","0","null","","","<div class = 'row'><div class = 'column'><img src = 'uspos/2341.bmp' width = '100%;'></div><div class = 'column'><img src = 'category2/CS1.png' width = '70%;'></div></div>","null","pos","CS","CS","2","category2/CS1.png","","","","",""
"","html-keyboard-response","58","276755","0.0-6.0-4.0-0.10","dga6wrnqb5","many_one","0","indirect_first","0","ld09er07","0","21","1","1","3","1","","0","1","0","null","","","<div class = 'row'><div class = 'column'><img src = 'category2/CS6.png' width = '70%;'></div><div class = 'column'><img src = 'uspos/5629.bmp' width = '100%;'></div></div>","null","pos","CS","CS","2","category2/CS6.png","","","","",""
"","html-keyboard-response","59","279265","0.0-6.0-4.0-0.11","dga6wrnqb5","many_one","0","indirect_first","0","ld09er07","0","21","1","1","3","1","","0","1","0","null","","","<div class = 'row'><div class = 'column'><img src = 'uspos/8190.bmp' width = '100%;'></div><div class = 'column'><img src = 'category1/CS2.png' width = '70%;'></div></div>","null","pos","CS","CS","1","category1/CS2.png","","","","",""
"","html-keyboard-response","60","281774","0.0-6.0-4.0-0.12","dga6wrnqb5","many_one","0","indirect_first","0","ld09er07","0","21","1","1","3","1","","0","1","0","null","","","<div class = 'row'><div class = 'column'><img src = 'uspos/2550.bmp' width = '100%;'></div><div class = 'column'><img src = 'category2/CS4.png' width = '70%;'></div></div>","null","pos","CS","CS","2","category2/CS4.png","","","","",""
"","html-keyboard-response","61","284287","0.0-6.0-4.0-0.13","dga6wrnqb5","many_one","0","indirect_first","0","ld09er07","0","21","1","1","3","1","","0","1","0","null","","","<div class = 'row'><div class = 'column'><img src = 'usneg/6212.bmp' width = '100%;'></div><div class = 'column'><img src = 'category3/CS6.png' width = '70%;'></div></div>","null","neg","CS","CS","3","category3/CS6.png","","","","",""
"","html-keyboard-response","62","286797","0.0-6.0-4.0-0.14","dga6wrnqb5","many_one","0","indirect_first","0","ld09er07","0","21","1","1","3","1","","0","1","0","null","","","<div class = 'row'><div class = 'column'><img src = 'category3/CS2.png' width = '70%;'></div><div class = 'column'><img src = 'usneg/9560.bmp' width = '100%;'></div></div>","null","neg","CS","CS","3","category3/CS2.png","","","","",""
"","html-keyboard-response","63","289315","0.0-6.0-4.0-0.15","dga6wrnqb5","many_one","0","indirect_first","0","ld09er07","0","21","1","1","3","1","","0","1","0","null","","","<div class = 'row'><div class = 'column'><img src = 'category2/CS2.png' width = '70%;'></div><div class = 'column'><img src = 'uspos/2160.bmp' width = '100%;'></div></div>","null","pos","CS","CS","2","category2/CS2.png","","","","",""
"","html-keyboard-response","64","291840","0.0-6.0-4.0-0.16","dga6wrnqb5","many_one","0","indirect_first","0","ld09er07","0","21","1","1","3","1","","0","1","0","null","","","<div class = 'row'><div class = 'column'><img src = 'usneg/9342.bmp' width = '100%;'></div><div class = 'column'><img src = 'category3/CS5.png' width = '70%;'></div></div>","null","neg","CS","CS","3","category3/CS5.png","","","","",""
"","html-keyboard-response","65","294351","0.0-6.0-4.0-0.17","dga6wrnqb5","many_one","0","indirect_first","0","ld09er07","0","21","1","1","3","1","","0","1","0","null","","","<div class = 'row'><div class = 'column'><img src = 'usneg/9561.bmp' width = '100%;'></div><div class = 'column'><img src = 'category4/CS4.png' width = '70%;'></div></div>","null","neg","CS","CS","4","category4/CS4.png","","","","",""
"","html-keyboard-response","66","296856","0.0-6.0-4.0-0.18","dga6wrnqb5","many_one","0","indirect_first","0","ld09er07","0","21","1","1","3","1","","0","1","0","null","","","<div class = 'row'><div class = 'column'><img src = 'uspos/1710.bmp' width = '100%;'></div><div class = 'column'><img src = 'category1/CS8.png' width = '70%;'></div></div>","null","pos","CS","CS","1","category1/CS8.png","","","","",""
"","html-keyboard-response","67","299361","0.0-6.0-4.0-0.19","dga6wrnqb5","many_one","0","indirect_first","0","ld09er07","0","21","1","1","3","1","","0","1","0","null","","","<div class = 'row'><div class = 'column'><img src = 'usneg/2141.bmp' width = '100%;'></div><div class = 'column'><img src = 'category4/CS8.png' width = '70%;'></div></div>","null","neg","CS","CS","4","category4/CS8.png","","","","",""
"","survey-html-form","68","301956","0.0-6.0-5.0","dga6wrnqb5","many_one","0","indirect_first","0","ld09er07","0","21","1","1","3","1","","0","1","0","2092.9400000000023","","{}","","","","","","","","","","","",""
"","html-keyboard-response","69","305965","0.0-6.0-6.0-0.0","dga6wrnqb5","many_one","0","indirect_first","0","ld09er07","0","21","1","1","3","1","","0","1","0","null","","","<div class = 'row'><div class = 'column'><img src = 'category4/CS2.png' width = '70%;'></div><div class = 'column'><img src = 'usneg/6020.bmp' width = '100%;'></div></div>","null","neg","CS","CS","4","category4/CS2.png","","","","",""
"","html-keyboard-response","70","308472","0.0-6.0-6.0-0.1","dga6wrnqb5","many_one","0","indirect_first","0","ld09er07","0","21","1","1","3","1","","0","1","0","null","","","<div class = 'row'><div class = 'column'><img src = 'category1/CS5.png' width = '70%;'></div><div class = 'column'><img src = 'uspos/5621.bmp' width = '100%;'></div></div>","null","pos","CS","CS","1","category1/CS5.png","","","","",""
"","html-keyboard-response","71","310982","0.0-6.0-6.0-0.2","dga6wrnqb5","many_one","0","indirect_first","0","ld09er07","0","21","1","1","3","1","","0","1","0","null","","","<div class = 'row'><div class = 'column'><img src = 'category3/CS8.png' width = '70%;'></div><div class = 'column'><img src = 'usneg/9330.bmp' width = '100%;'></div></div>","null","neg","CS","CS","3","category3/CS8.png","","","","",""
"","html-keyboard-response","72","313489","0.0-6.0-6.0-0.3","dga6wrnqb5","many_one","0","indirect_first","0","ld09er07","0","21","1","1","3","1","","0","1","0","null","","","<div class = 'row'><div class = 'column'><img src = 'category4/CS1.png' width = '70%;'></div><div class = 'column'><img src = 'usneg/9584.bmp' width = '100%;'></div></div>","null","neg","CS","CS","4","category4/CS1.png","","","","",""
"","html-keyboard-response","73","315995","0.0-6.0-6.0-0.4","dga6wrnqb5","many_one","0","indirect_first","0","ld09er07","0","21","1","1","3","1","","0","1","0","null","","","<div class = 'row'><div class = 'column'><img src = 'category1/CS4.png' width = '70%;'></div><div class = 'column'><img src = 'uspos/2030.bmp' width = '100%;'></div></div>","null","pos","CS","CS","1","category1/CS4.png","","","","",""
"","html-keyboard-response","74","318505","0.0-6.0-6.0-0.5","dga6wrnqb5","many_one","0","indirect_first","0","ld09er07","0","21","1","1","3","1","","0","1","0","null","","","<div class = 'row'><div class = 'column'><img src = 'uspos/1710.bmp' width = '100%;'></div><div class = 'column'><img src = 'category1/CS8.png' width = '70%;'></div></div>","null","pos","CS","CS","1","category1/CS8.png","","","","",""
"","html-keyboard-response","75","321018","0.0-6.0-6.0-0.6","dga6wrnqb5","many_one","0","indirect_first","0","ld09er07","0","21","1","1","3","1","","0","1","0","null","","","<div class = 'row'><div class = 'column'><img src = 'category4/CS8.png' width = '70%;'></div><div class = 'column'><img src = 'usneg/2141.bmp' width = '100%;'></div></div>","null","neg","CS","CS","4","category4/CS8.png","","","","",""
"","html-keyboard-response","76","323534","0.0-6.0-6.0-0.7","dga6wrnqb5","many_one","0","indirect_first","0","ld09er07","0","21","1","1","3","1","","0","1","0","null","","","<div class = 'row'><div class = 'column'><img src = 'category3/CS6.png' width = '70%;'></div><div class = 'column'><img src = 'usneg/6212.bmp' width = '100%;'></div></div>","null","neg","CS","CS","3","category3/CS6.png","","","","",""
"","html-keyboard-response","77","326051","0.0-6.0-6.0-0.8","dga6wrnqb5","many_one","0","indirect_first","0","ld09er07","0","21","1","1","3","1","","0","1","0","null","","","<div class = 'row'><div class = 'column'><img src = 'category3/CS2.png' width = '70%;'></div><div class = 'column'><img src = 'usneg/9560.bmp' width = '100%;'></div></div>","null","neg","CS","CS","3","category3/CS2.png","","","","",""
"","html-keyboard-response","78","328562","0.0-6.0-6.0-0.9","dga6wrnqb5","many_one","0","indirect_first","0","ld09er07","0","21","1","1","3","1","","0","1","0","null","","","<div class = 'row'><div class = 'column'><img src = 'usneg/9050.bmp' width = '100%;'></div><div class = 'column'><img src = 'category4/CS3.png' width = '70%;'></div></div>","null","neg","CS","CS","4","category4/CS3.png","","","","",""
"","html-keyboard-response","79","331073","0.0-6.0-6.0-0.10","dga6wrnqb5","many_one","0","indirect_first","0","ld09er07","0","21","1","1","3","1","","0","1","0","null","","","<div class = 'row'><div class = 'column'><img src = 'uspos/2341.bmp' width = '100%;'></div><div class = 'column'><img src = 'category2/CS1.png' width = '70%;'></div></div>","null","pos","CS","CS","2","category2/CS1.png","","","","",""
"","html-keyboard-response","80","333591","0.0-6.0-6.0-0.11","dga6wrnqb5","many_one","0","indirect_first","0","ld09er07","0","21","1","1","3","1","","0","1","0","null","","","<div class = 'row'><div class = 'column'><img src = 'category2/CS4.png' width = '70%;'></div><div class = 'column'><img src = 'uspos/2550.bmp' width = '100%;'></div></div>","null","pos","CS","CS","2","category2/CS4.png","","","","",""
"","html-keyboard-response","81","336108","0.0-6.0-6.0-0.12","dga6wrnqb5","many_one","0","indirect_first","0","ld09er07","0","21","1","1","3","1","","0","1","0","null","","","<div class = 'row'><div class = 'column'><img src = 'category4/CS4.png' width = '70%;'></div><div class = 'column'><img src = 'usneg/9561.bmp' width = '100%;'></div></div>","null","neg","CS","CS","4","category4/CS4.png","","","","",""
"","html-keyboard-response","82","338620","0.0-6.0-6.0-0.13","dga6wrnqb5","many_one","0","indirect_first","0","ld09er07","0","21","1","1","3","1","","0","1","0","null","","","<div class = 'row'><div class = 'column'><img src = 'uspos/2160.bmp' width = '100%;'></div><div class = 'column'><img src = 'category2/CS2.png' width = '70%;'></div></div>","null","pos","CS","CS","2","category2/CS2.png","","","","",""
"","html-keyboard-response","83","341134","0.0-6.0-6.0-0.14","dga6wrnqb5","many_one","0","indirect_first","0","ld09er07","0","21","1","1","3","1","","0","1","0","null","","","<div class = 'row'><div class = 'column'><img src = 'uspos/8190.bmp' width = '100%;'></div><div class = 'column'><img src = 'category1/CS2.png' width = '70%;'></div></div>","null","pos","CS","CS","1","category1/CS2.png","","","","",""
"","html-keyboard-response","84","343651","0.0-6.0-6.0-0.15","dga6wrnqb5","many_one","0","indirect_first","0","ld09er07","0","21","1","1","3","1","","0","1","0","null","","","<div class = 'row'><div class = 'column'><img src = 'category3/CS5.png' width = '70%;'></div><div class = 'column'><img src = 'usneg/9342.bmp' width = '100%;'></div></div>","null","neg","CS","CS","3","category3/CS5.png","","","","",""
"","html-keyboard-response","85","346159","0.0-6.0-6.0-0.16","dga6wrnqb5","many_one","0","indirect_first","0","ld09er07","0","21","1","1","3","1","","0","1","0","null","","","<div class = 'row'><div class = 'column'><img src = 'category2/CS3.png' width = '70%;'></div><div class = 'column'><img src = 'uspos/7580.bmp' width = '100%;'></div></div>","null","pos","CS","CS","2","category2/CS3.png","","","","",""
"","html-keyboard-response","86","348675","0.0-6.0-6.0-0.17","dga6wrnqb5","many_one","0","indirect_first","0","ld09er07","0","21","1","1","3","1","","0","1","0","null","","","<div class = 'row'><div class = 'column'><img src = 'category3/CS9.png' width = '70%;'></div><div class = 'column'><img src = 'usneg/9435.bmp' width = '100%;'></div></div>","null","neg","CS","CS","3","category3/CS9.png","","","","",""
"","html-keyboard-response","87","351193","0.0-6.0-6.0-0.18","dga6wrnqb5","many_one","0","indirect_first","0","ld09er07","0","21","1","1","3","1","","0","1","0","null","","","<div class = 'row'><div class = 'column'><img src = 'category1/CS7.png' width = '70%;'></div><div class = 'column'><img src = 'uspos/8461.bmp' width = '100%;'></div></div>","null","pos","CS","CS","1","category1/CS7.png","","","","",""
"","html-keyboard-response","88","353705","0.0-6.0-6.0-0.19","dga6wrnqb5","many_one","0","indirect_first","0","ld09er07","0","21","1","1","3","1","","0","1","0","null","","","<div class = 'row'><div class = 'column'><img src = 'uspos/5629.bmp' width = '100%;'></div><div class = 'column'><img src = 'category2/CS6.png' width = '70%;'></div></div>","null","pos","CS","CS","2","category2/CS6.png","","","","",""
"","html-keyboard-response","89","398531","0.0-7.0","dga6wrnqb5","many_one","0","indirect_first","0","ld09er07","0","21","1","1","3","1","","0","1","0","44317.290000000095","","","<p>Sie sehen nun die chinesischen Zeichen nur ganz kurz. Danach sehen Sie die jeweilige Aussprache der Zeichen als Silbe auf dem Bildschrim. Ihre Aufgabe ist es, für jede Silbe anzugeben, ob diese etwas angenehmes, oder unangenehmes bedeuten könnte. Verlassen Sie sich hier vor allem auf Ihre Intuition.<br><br>Die Zeichen werden nur zur Orientierung dargestellt, beachten Sie sie deshalb nicht. Konzentrieren Sie sich vor allem auf die Silben. <br>Reagieren Sie mit folgenden zwei Tasten: <br><br><b>'D' </b> wenn die Silbe etwas <b>unangenehmes</b> bedeuten könnte. <br><b>'K'</b> wenn die Silbe etwas <b>angenehmes</b> bedeuten könnte. <br><br>Bitte legen Sie nun den Zeigefinger der linken Hand auf die Taste 'D' und den Zeigefinger der rechten Hand auf die Taste 'K'. <br>Reagieren Sie auf jede Silbe so schnell wie möglich. Uns interessiert Ihre spontane Reaktion. <br> <br> <br>Drücken Sie 'D' oder 'K', um die nächste Aufgabe zu starten. </p>","75","","","","","","","","","",""
"","html-keyboard-response","90","401545","0.0-8.0-0.0","dga6wrnqb5","many_one","0","indirect_first","0","ld09er07","0","21","1","1","3","1","","0","1","0","null","","","<div style=""font-size:60px;"">+</div>","null","","","","","","","","","",""
"","html-keyboard-response","91","401645","0.0-8.0-1.0","dga6wrnqb5","many_one","0","indirect_first","0","ld09er07","0","21","1","1","3","1","","0","1","0","null","","","<img src = 'category2/CS4.png' width = '100%;'>","null","","","","","","","","","",""
"","html-keyboard-response","92","401908","0.0-8.0-2.0","dga6wrnqb5","many_one","0","indirect_first","0","ld09er07","0","21","1","1","3","1","","0","1","0","null","","","<img src = 'targets/17.png' width = '100%;'>","null","","","","","","","","","",""
"","html-keyboard-response","93","409997","0.0-8.0-3.0","dga6wrnqb5","many_one","0","indirect_first","0","ld09er07","0","21","1","1","3","1","","0","1","0","8087.6500000000815","","","<img src = 'targets/mask.png' width = '100%;'>","75","pos","CS","CS","2","category2/CS4.png","targets/17.png","1","indirect","0",""
"","html-keyboard-response","94","411501","0.0-8.0-0.1","dga6wrnqb5","many_one","0","indirect_first","0","ld09er07","0","21","1","1","3","1","","0","1","0","null","","","<div style=""font-size:60px;"">+</div>","null","","","","","","","","","",""
"","html-keyboard-response","95","411594","0.0-8.0-1.1","dga6wrnqb5","many_one","0","indirect_first","0","ld09er07","0","21","1","1","3","1","","0","1","0","null","","","<img src = 'category2/CS3.png' width = '100%;'>","null","","","","","","","","","",""
"","html-keyboard-response","96","411849","0.0-8.0-2.1","dga6wrnqb5","many_one","0","indirect_first","0","ld09er07","0","21","1","1","3","1","","0","1","0","null","","","<img src = 'targets/42.png' width = '100%;'>","null","","","","","","","","","",""
"","html-keyboard-response","97","414270","0.0-8.0-3.1","dga6wrnqb5","many_one","0","indirect_first","0","ld09er07","0","21","1","1","3","1","","0","1","0","2419.054999999993","","","<img src = 'targets/mask.png' width = '100%;'>","68","pos","CS","CS","2","category2/CS3.png","targets/42.png","0","indirect","1",""
"","html-keyboard-response","98","415775","0.0-8.0-0.2","dga6wrnqb5","many_one","0","indirect_first","0","ld09er07","0","21","1","1","3","1","","0","1","0","null","","","<div style=""font-size:60px;"">+</div>","null","","","","","","","","","",""
"","html-keyboard-response","99","415872","0.0-8.0-1.2","dga6wrnqb5","many_one","0","indirect_first","0","ld09er07","0","21","1","1","3","1","","0","1","0","null","","","<img src = 'category4/CS4.png' width = '100%;'>","null","","","","","","","","","",""
"","html-keyboard-response","100","416130","0.0-8.0-2.2","dga6wrnqb5","many_one","0","indirect_first","0","ld09er07","0","21","1","1","3","1","","0","1","0","null","","","<img src = 'targets/41.png' width = '100%;'>","null","","","","","","","","","",""
"","html-keyboard-response","101","417473","0.0-8.0-3.2","dga6wrnqb5","many_one","0","indirect_first","0","ld09er07","0","21","1","1","3","1","","0","1","0","1340.0599999999977","","","<img src = 'targets/mask.png' width = '100%;'>","68","neg","CS","CS","4","category4/CS4.png","targets/41.png","0","indirect","2",""
"","html-keyboard-response","102","418976","0.0-8.0-0.3","dga6wrnqb5","many_one","0","indirect_first","0","ld09er07","0","21","1","1","3","1","","0","1","0","null","","","<div style=""font-size:60px;"">+</div>","null","","","","","","","","","",""
"","html-keyboard-response","103","419070","0.0-8.0-1.3","dga6wrnqb5","many_one","0","indirect_first","0","ld09er07","0","21","1","1","3","1","","0","1","0","null","","","<img src = 'category4/CS2.png' width = '100%;'>","null","","","","","","","","","",""
"","html-keyboard-response","104","419323","0.0-8.0-2.3","dga6wrnqb5","many_one","0","indirect_first","0","ld09er07","0","21","1","1","3","1","","0","1","0","null","","","<img src = 'targets/20.png' width = '100%;'>","null","","","","","","","","","",""
"","html-keyboard-response","105","420800","0.0-8.0-3.3","dga6wrnqb5","many_one","0","indirect_first","0","ld09er07","0","21","1","1","3","1","","0","1","0","1474.7799999999697","","","<img src = 'targets/mask.png' width = '100%;'>","68","neg","CS","CS","4","category4/CS2.png","targets/20.png","0","indirect","3",""
"","html-keyboard-response","106","422305","0.0-8.0-0.4","dga6wrnqb5","many_one","0","indirect_first","0","ld09er07","0","21","1","1","3","1","","0","1","0","null","","","<div style=""font-size:60px;"">+</div>","null","","","","","","","","","",""
"","html-keyboard-response","107","422400","0.0-8.0-1.4","dga6wrnqb5","many_one","0","indirect_first","0","ld09er07","0","21","1","1","3","1","","0","1","0","null","","","<img src = 'category2/CS1.png' width = '100%;'>","null","","","","","","","","","",""
"","html-keyboard-response","108","422656","0.0-8.0-2.4","dga6wrnqb5","many_one","0","indirect_first","0","ld09er07","0","21","1","1","3","1","","0","1","0","null","","","<img src = 'targets/6.png' width = '100%;'>","null","","","","","","","","","",""
"","html-keyboard-response","109","423993","0.0-8.0-3.4","dga6wrnqb5","many_one","0","indirect_first","0","ld09er07","0","21","1","1","3","1","","0","1","0","1333.7649999999558","","","<img src = 'targets/mask.png' width = '100%;'>","75","pos","CS","CS","2","category2/CS1.png","targets/6.png","1","indirect","4",""
"","html-keyboard-response","110","425497","0.0-8.0-0.5","dga6wrnqb5","many_one","0","indirect_first","0","ld09er07","0","21","1","1","3","1","","0","1","0","null","","","<div style=""font-size:60px;"">+</div>","null","","","","","","","","","",""
"","html-keyboard-response","111","425592","0.0-8.0-1.5","dga6wrnqb5","many_one","0","indirect_first","0","ld09er07","0","21","1","1","3","1","","0","1","0","null","","","<img src = 'category4/CS7.png' width = '100%;'>","null","","","","","","","","","",""
"","html-keyboard-response","112","425846","0.0-8.0-2.5","dga6wrnqb5","many_one","0","indirect_first","0","ld09er07","0","21","1","1","3","1","","0","1","0","null","","","<img src = 'targets/32.png' width = '100%;'>","null","","","","","","","","","",""
"","html-keyboard-response","113","426940","0.0-8.0-3.5","dga6wrnqb5","many_one","0","indirect_first","0","ld09er07","0","21","1","1","3","1","","0","1","0","1092.719999999972","","","<img src = 'targets/mask.png' width = '100%;'>","68","neg","GS","GSold","4","category4/CS7.png","targets/32.png","0","indirect","5",""
"","html-keyboard-response","114","428444","0.0-8.0-0.6","dga6wrnqb5","many_one","0","indirect_first","0","ld09er07","0","21","1","1","3","1","","0","1","0","null","","","<div style=""font-size:60px;"">+</div>","null","","","","","","","","","",""
"","html-keyboard-response","115","428536","0.0-8.0-1.6","dga6wrnqb5","many_one","0","indirect_first","0","ld09er07","0","21","1","1","3","1","","0","1","0","null","","","<img src = 'category3/CS8.png' width = '100%;'>","null","","","","","","","","","",""
"","html-keyboard-response","116","428788","0.0-8.0-2.6","dga6wrnqb5","many_one","0","indirect_first","0","ld09er07","0","21","1","1","3","1","","0","1","0","null","","","<img src = 'targets/3.png' width = '100%;'>","null","","","","","","","","","",""
"","html-keyboard-response","117","430378","0.0-8.0-3.6","dga6wrnqb5","many_one","0","indirect_first","0","ld09er07","0","21","1","1","3","1","","0","1","0","1586.679999999993","","","<img src = 'targets/mask.png' width = '100%;'>","68","neg","CS","CS","3","category3/CS8.png","targets/3.png","0","indirect","6",""
"","html-keyboard-response","118","431882","0.0-8.0-0.7","dga6wrnqb5","many_one","0","indirect_first","0","ld09er07","0","21","1","1","3","1","","0","1","0","null","","","<div style=""font-size:60px;"">+</div>","null","","","","","","","","","",""
"","html-keyboard-response","119","431974","0.0-8.0-1.7","dga6wrnqb5","many_one","0","indirect_first","0","ld09er07","0","21","1","1","3","1","","0","1","0","null","","","<img src = 'category4/CS8.png' width = '100%;'>","null","","","","","","","","","",""
"","html-keyboard-response","120","432227","0.0-8.0-2.7","dga6wrnqb5","many_one","0","indirect_first","0","ld09er07","0","21","1","1","3","1","","0","1","0","null","","","<img src = 'targets/10.png' width = '100%;'>","null","","","","","","","","","",""
"","html-keyboard-response","121","433593","0.0-8.0-3.7","dga6wrnqb5","many_one","0","indirect_first","0","ld09er07","0","21","1","1","3","1","","0","1","0","1363.8699999999371","","","<img src = 'targets/mask.png' width = '100%;'>","68","neg","CS","CS","4","category4/CS8.png","targets/10.png","0","indirect","7",""
"","html-keyboard-response","122","435094","0.0-8.0-0.8","dga6wrnqb5","many_one","0","indirect_first","0","ld09er07","0","21","1","1","3","1","","0","1","0","null","","","<div style=""font-size:60px;"">+</div>","null","","","","","","","","","",""
"","html-keyboard-response","123","435186","0.0-8.0-1.8","dga6wrnqb5","many_one","0","indirect_first","0","ld09er07","0","21","1","1","3","1","","0","1","0","null","","","<img src = 'category4/CS1.png' width = '100%;'>","null","","","","","","","","","",""
"","html-keyboard-response","124","435438","0.0-8.0-2.8","dga6wrnqb5","many_one","0","indirect_first","0","ld09er07","0","21","1","1","3","1","","0","1","0","null","","","<img src = 'targets/48.png' width = '100%;'>","null","","","","","","","","","",""
"","html-keyboard-response","125","436725","0.0-8.0-3.8","dga6wrnqb5","many_one","0","indirect_first","0","ld09er07","0","21","1","1","3","1","","0","1","0","1285.6849999999395","","","<img src = 'targets/mask.png' width = '100%;'>","68","neg","CS","CS","4","category4/CS1.png","targets/48.png","0","indirect","8",""
"","html-keyboard-response","126","438233","0.0-8.0-0.9","dga6wrnqb5","many_one","0","indirect_first","0","ld09er07","0","21","1","1","3","1","","0","1","0","null","","","<div style=""font-size:60px;"">+</div>","null","","","","","","","","","",""
"","html-keyboard-response","127","438328","0.0-8.0-1.9","dga6wrnqb5","many_one","0","indirect_first","0","ld09er07","0","21","1","1","3","1","","0","1","0","null","","","<img src = 'category4/CS10.png' width = '100%;'>","null","","","","","","","","","",""
"","html-keyboard-response","128","438590","0.0-8.0-2.9","dga6wrnqb5","many_one","0","indirect_first","0","ld09er07","0","21","1","1","3","1","","0","1","0","null","","","<img src = 'targets/38.png' width = '100%;'>","null","","","","","","","","","",""
"","html-keyboard-response","129","440032","0.0-8.0-3.9","dga6wrnqb5","many_one","0","indirect_first","0","ld09er07","0","21","1","1","3","1","","0","1","0","1439.2999999999884","","","<img src = 'targets/mask.png' width = '100%;'>","68","neg","GS","GSold","4","category4/CS10.png","targets/38.png","0","indirect","9",""
"","html-keyboard-response","130","441538","0.0-8.0-0.10","dga6wrnqb5","many_one","0","indirect_first","0","ld09er07","0","21","1","1","3","1","","0","1","0","null","","","<div style=""font-size:60px;"">+</div>","null","","","","","","","","","",""
"","html-keyboard-response","131","441630","0.0-8.0-1.10","dga6wrnqb5","many_one","0","indirect_first","0","ld09er07","0","21","1","1","3","1","","0","1","0","null","","","<img src = 'category2/CS5.png' width = '100%;'>","null","","","","","","","","","",""
"","html-keyboard-response","132","441883","0.0-8.0-2.10","dga6wrnqb5","many_one","0","indirect_first","0","ld09er07","0","21","1","1","3","1","","0","1","0","null","","","<img src = 'targets/16.png' width = '100%;'>","null","","","","","","","","","",""
"","html-keyboard-response","133","442974","0.0-8.0-3.10","dga6wrnqb5","many_one","0","indirect_first","0","ld09er07","0","21","1","1","3","1","","0","1","0","1089.5199999999604","","","<img src = 'targets/mask.png' width = '100%;'>","75","pos","GS","GSold","2","category2/CS5.png","targets/16.png","1","indirect","10",""
"","html-keyboard-response","134","444480","0.0-8.0-0.11","dga6wrnqb5","many_one","0","indirect_first","0","ld09er07","0","21","1","1","3","1","","0","1","0","null","","","<div style=""font-size:60px;"">+</div>","null","","","","","","","","","",""
"","html-keyboard-response","135","444576","0.0-8.0-1.11","dga6wrnqb5","many_one","0","indirect_first","0","ld09er07","0","21","1","1","3","1","","0","1","0","null","","","<img src = 'category1/CS8.png' width = '100%;'>","null","","","","","","","","","",""
"","html-keyboard-response","136","444831","0.0-8.0-2.11","dga6wrnqb5","many_one","0","indirect_first","0","ld09er07","0","21","1","1","3","1","","0","1","0","null","","","<img src = 'targets/13.png' width = '100%;'>","null","","","","","","","","","",""
"","html-keyboard-response","137","446007","0.0-8.0-3.11","dga6wrnqb5","many_one","0","indirect_first","0","ld09er07","0","21","1","1","3","1","","0","1","0","1173.2849999999162","","","<img src = 'targets/mask.png' width = '100%;'>","75","pos","CS","CS","1","category1/CS8.png","targets/13.png","1","indirect","11",""
"","html-keyboard-response","138","447518","0.0-8.0-0.12","dga6wrnqb5","many_one","0","indirect_first","0","ld09er07","0","21","1","1","3","1","","0","1","0","null","","","<div style=""font-size:60px;"">+</div>","null","","","","","","","","","",""
"","html-keyboard-response","139","447620","0.0-8.0-1.12","dga6wrnqb5","many_one","0","indirect_first","0","ld09er07","0","21","1","1","3","1","","0","1","0","null","","","<img src = 'category1/CS5.png' width = '100%;'>","null","","","","","","","","","",""
"","html-keyboard-response","140","447880","0.0-8.0-2.12","dga6wrnqb5","many_one","0","indirect_first","0","ld09er07","0","21","1","1","3","1","","0","1","0","null","","","<img src = 'targets/31.png' width = '100%;'>","null","","","","","","","","","",""
"","html-keyboard-response","141","448957","0.0-8.0-3.12","dga6wrnqb5","many_one","0","indirect_first","0","ld09er07","0","21","1","1","3","1","","0","1","0","1075.259999999951","","","<img src = 'targets/mask.png' width = '100%;'>","75","pos","CS","CS","1","category1/CS5.png","targets/31.png","1","indirect","12",""
"","html-keyboard-response","142","450468","0.0-8.0-0.13","dga6wrnqb5","many_one","0","indirect_first","0","ld09er07","0","21","1","1","3","1","","0","1","0","null","","","<div style=""font-size:60px;"">+</div>","null","","","","","","","","","",""
"","html-keyboard-response","143","450567","0.0-8.0-1.13","dga6wrnqb5","many_one","0","indirect_first","0","ld09er07","0","21","1","1","3","1","","0","1","0","null","","","<img src = 'category1/CS7.png' width = '100%;'>","null","","","","","","","","","",""
"","html-keyboard-response","144","450833","0.0-8.0-2.13","dga6wrnqb5","many_one","0","indirect_first","0","ld09er07","0","21","1","1","3","1","","0","1","0","null","","","<img src = 'targets/25.png' width = '100%;'>","null","","","","","","","","","",""
"","html-keyboard-response","145","451544","0.0-8.0-3.13","dga6wrnqb5","many_one","0","indirect_first","0","ld09er07","0","21","1","1","3","1","","0","1","0","708.5250000000233","","","<img src = 'targets/mask.png' width = '100%;'>","75","pos","CS","CS","1","category1/CS7.png","targets/25.png","1","indirect","13",""
"","html-keyboard-response","146","453057","0.0-8.0-0.14","dga6wrnqb5","many_one","0","indirect_first","0","ld09er07","0","21","1","1","3","1","","0","1","0","null","","","<div style=""font-size:60px;"">+</div>","null","","","","","","","","","",""
"","html-keyboard-response","147","453155","0.0-8.0-1.14","dga6wrnqb5","many_one","0","indirect_first","0","ld09er07","0","21","1","1","3","1","","0","1","0","null","","","<img src = 'category3/CS5.png' width = '100%;'>","null","","","","","","","","","",""
"","html-keyboard-response","148","453415","0.0-8.0-2.14","dga6wrnqb5","many_one","0","indirect_first","0","ld09er07","0","21","1","1","3","1","","0","1","0","null","","","<img src = 'targets/30.png' width = '100%;'>","null","","","","","","","","","",""
"","html-keyboard-response","149","454391","0.0-8.0-3.14","dga6wrnqb5","many_one","0","indirect_first","0","ld09er07","0","21","1","1","3","1","","0","1","0","973.4749999999767","","","<img src = 'targets/mask.png' width = '100%;'>","68","neg","CS","CS","3","category3/CS5.png","targets/30.png","0","indirect","14",""
"","html-keyboard-response","150","455894","0.0-8.0-0.15","dga6wrnqb5","many_one","0","indirect_first","0","ld09er07","0","21","1","1","3","1","","0","1","0","null","","","<div style=""font-size:60px;"">+</div>","null","","","","","","","","","",""
"","html-keyboard-response","151","455988","0.0-8.0-1.15","dga6wrnqb5","many_one","0","indirect_first","0","ld09er07","0","21","1","1","3","1","","0","1","0","null","","","<img src = 'category2/CS6.png' width = '100%;'>","null","","","","","","","","","",""
"","html-keyboard-response","152","456246","0.0-8.0-2.15","dga6wrnqb5","many_one","0","indirect_first","0","ld09er07","0","21","1","1","3","1","","0","1","0","null","","","<img src = 'targets/47.png' width = '100%;'>","null","","","","","","","","","",""
"","html-keyboard-response","153","457337","0.0-8.0-3.15","dga6wrnqb5","many_one","0","indirect_first","0","ld09er07","0","21","1","1","3","1","","0","1","0","1090.0400000000373","","","<img src = 'targets/mask.png' width = '100%;'>","75","pos","CS","CS","2","category2/CS6.png","targets/47.png","1","indirect","15",""
"","html-keyboard-response","154","458848","0.0-8.0-0.16","dga6wrnqb5","many_one","0","indirect_first","0","ld09er07","0","21","1","1","3","1","","0","1","0","null","","","<div style=""font-size:60px;"">+</div>","null","","","","","","","","","",""
"","html-keyboard-response","155","458945","0.0-8.0-1.16","dga6wrnqb5","many_one","0","indirect_first","0","ld09er07","0","21","1","1","3","1","","0","1","0","null","","","<img src = 'category4/CS5.png' width = '100%;'>","null","","","","","","","","","",""
"","html-keyboard-response","156","459203","0.0-8.0-2.16","dga6wrnqb5","many_one","0","indirect_first","0","ld09er07","0","21","1","1","3","1","","0","1","0","null","","","<img src = 'targets/22.png' width = '100%;'>","null","","","","","","","","","",""
"","html-keyboard-response","157","460149","0.0-8.0-3.16","dga6wrnqb5","many_one","0","indirect_first","0","ld09er07","0","21","1","1","3","1","","0","1","0","943.9650000000256","","","<img src = 'targets/mask.png' width = '100%;'>","75","neg","GS","GSold","4","category4/CS5.png","targets/22.png","1","indirect","16",""
"","html-keyboard-response","158","461665","0.0-8.0-0.17","dga6wrnqb5","many_one","0","indirect_first","0","ld09er07","0","21","1","1","3","1","","0","1","0","null","","","<div style=""font-size:60px;"">+</div>","null","","","","","","","","","",""
"","html-keyboard-response","159","461762","0.0-8.0-1.17","dga6wrnqb5","many_one","0","indirect_first","0","ld09er07","0","21","1","1","3","1","","0","1","0","null","","","<img src = 'category3/CS2.png' width = '100%;'>","null","","","","","","","","","",""
"","html-keyboard-response","160","462018","0.0-8.0-2.17","dga6wrnqb5","many_one","0","indirect_first","0","ld09er07","0","21","1","1","3","1","","0","1","0","null","","","<img src = 'targets/23.png' width = '100%;'>","null","","","","","","","","","",""
"","html-keyboard-response","161","463046","0.0-8.0-3.17","dga6wrnqb5","many_one","0","indirect_first","0","ld09er07","0","21","1","1","3","1","","0","1","0","1026.3800000000629","","","<img src = 'targets/mask.png' width = '100%;'>","68","neg","CS","CS","3","category3/CS2.png","targets/23.png","0","indirect","17",""
"","html-keyboard-response","162","464554","0.0-8.0-0.18","dga6wrnqb5","many_one","0","indirect_first","0","ld09er07","0","21","1","1","3","1","","0","1","0","null","","","<div style=""font-size:60px;"">+</div>","null","","","","","","","","","",""
"","html-keyboard-response","163","464649","0.0-8.0-1.18","dga6wrnqb5","many_one","0","indirect_first","0","ld09er07","0","21","1","1","3","1","","0","1","0","null","","","<img src = 'category2/CS2.png' width = '100%;'>","null","","","","","","","","","",""
"","html-keyboard-response","164","464914","0.0-8.0-2.18","dga6wrnqb5","many_one","0","indirect_first","0","ld09er07","0","21","1","1","3","1","","0","1","0","null","","","<img src = 'targets/26.png' width = '100%;'>","null","","","","","","","","","",""
"","html-keyboard-response","165","465951","0.0-8.0-3.18","dga6wrnqb5","many_one","0","indirect_first","0","ld09er07","0","21","1","1","3","1","","0","1","0","1034.9300000000512","","","<img src = 'targets/mask.png' width = '100%;'>","75","pos","CS","CS","2","category2/CS2.png","targets/26.png","1","indirect","18",""
"","html-keyboard-response","166","467466","0.0-8.0-0.19","dga6wrnqb5","many_one","0","indirect_first","0","ld09er07","0","21","1","1","3","1","","0","1","0","null","","","<div style=""font-size:60px;"">+</div>","null","","","","","","","","","",""
"","html-keyboard-response","167","467565","0.0-8.0-1.19","dga6wrnqb5","many_one","0","indirect_first","0","ld09er07","0","21","1","1","3","1","","0","1","0","null","","","<img src = 'category3/CS9.png' width = '100%;'>","null","","","","","","","","","",""
"","html-keyboard-response","168","467819","0.0-8.0-2.19","dga6wrnqb5","many_one","0","indirect_first","0","ld09er07","0","21","1","1","3","1","","0","1","0","null","","","<img src = 'targets/35.png' width = '100%;'>","null","","","","","","","","","",""
"","html-keyboard-response","169","468899","0.0-8.0-3.19","dga6wrnqb5","many_one","0","indirect_first","0","ld09er07","0","21","1","1","3","1","","0","1","0","1078.844999999972","","","<img src = 'targets/mask.png' width = '100%;'>","68","neg","CS","CS","3","category3/CS9.png","targets/35.png","0","indirect","19",""
"","html-keyboard-response","170","470410","0.0-8.0-0.20","dga6wrnqb5","many_one","0","indirect_first","0","ld09er07","0","21","1","1","3","1","","0","1","0","null","","","<div style=""font-size:60px;"">+</div>","null","","","","","","","","","",""
"","html-keyboard-response","171","470504","0.0-8.0-1.20","dga6wrnqb5","many_one","0","indirect_first","0","ld09er07","0","21","1","1","3","1","","0","1","0","null","","","<img src = 'category1/CS2.png' width = '100%;'>","null","","","","","","","","","",""
"","html-keyboard-response","172","470764","0.0-8.0-2.20","dga6wrnqb5","many_one","0","indirect_first","0","ld09er07","0","21","1","1","3","1","","0","1","0","null","","","<img src = 'targets/45.png' width = '100%;'>","null","","","","","","","","","",""
"","html-keyboard-response","173","471545","0.0-8.0-3.20","dga6wrnqb5","many_one","0","indirect_first","0","ld09er07","0","21","1","1","3","1","","0","1","0","778.1150000000489","","","<img src = 'targets/mask.png' width = '100%;'>","75","pos","CS","CS","1","category1/CS2.png","targets/45.png","1","indirect","20",""
"","html-keyboard-response","174","473050","0.0-8.0-0.21","dga6wrnqb5","many_one","0","indirect_first","0","ld09er07","0","21","1","1","3","1","","0","1","0","null","","","<div style=""font-size:60px;"">+</div>","null","","","","","","","","","",""
"","html-keyboard-response","175","473147","0.0-8.0-1.21","dga6wrnqb5","many_one","0","indirect_first","0","ld09er07","0","21","1","1","3","1","","0","1","0","null","","","<img src = 'category4/CS3.png' width = '100%;'>","null","","","","","","","","","",""
"","html-keyboard-response","176","473406","0.0-8.0-2.21","dga6wrnqb5","many_one","0","indirect_first","0","ld09er07","0","21","1","1","3","1","","0","1","0","null","","","<img src = 'targets/27.png' width = '100%;'>","null","","","","","","","","","",""
"","html-keyboard-response","177","474164","0.0-8.0-3.21","dga6wrnqb5","many_one","0","indirect_first","0","ld09er07","0","21","1","1","3","1","","0","1","0","756.3000000000466","","","<img src = 'targets/mask.png' width = '100%;'>","68","neg","CS","CS","4","category4/CS3.png","targets/27.png","0","indirect","21",""
"","html-keyboard-response","178","475668","0.0-8.0-0.22","dga6wrnqb5","many_one","0","indirect_first","0","ld09er07","0","21","1","1","3","1","","0","1","0","null","","","<div style=""font-size:60px;"">+</div>","null","","","","","","","","","",""
"","html-keyboard-response","179","475765","0.0-8.0-1.22","dga6wrnqb5","many_one","0","indirect_first","0","ld09er07","0","21","1","1","3","1","","0","1","0","null","","","<img src = 'category3/CS6.png' width = '100%;'>","null","","","","","","","","","",""
"","html-keyboard-response","180","476021","0.0-8.0-2.22","dga6wrnqb5","many_one","0","indirect_first","0","ld09er07","0","21","1","1","3","1","","0","1","0","null","","","<img src = 'targets/44.png' width = '100%;'>","null","","","","","","","","","",""
"","html-keyboard-response","181","476690","0.0-8.0-3.22","dga6wrnqb5","many_one","0","indirect_first","0","ld09er07","0","21","1","1","3","1","","0","1","0","666.2800000000279","","","<img src = 'targets/mask.png' width = '100%;'>","75","neg","CS","CS","3","category3/CS6.png","targets/44.png","1","indirect","22",""
"","html-keyboard-response","182","478191","0.0-8.0-0.23","dga6wrnqb5","many_one","0","indirect_first","0","ld09er07","0","21","1","1","3","1","","0","1","0","null","","","<div style=""font-size:60px;"">+</div>","null","","","","","","","","","",""
"","html-keyboard-response","183","478285","0.0-8.0-1.23","dga6wrnqb5","many_one","0","indirect_first","0","ld09er07","0","21","1","1","3","1","","0","1","0","null","","","<img src = 'category1/CS4.png' width = '100%;'>","null","","","","","","","","","",""
"","html-keyboard-response","184","478548","0.0-8.0-2.23","dga6wrnqb5","many_one","0","indirect_first","0","ld09er07","0","21","1","1","3","1","","0","1","0","null","","","<img src = 'targets/21.png' width = '100%;'>","null","","","","","","","","","",""
"","html-keyboard-response","185","479327","0.0-8.0-3.23","dga6wrnqb5","many_one","0","indirect_first","0","ld09er07","0","21","1","1","3","1","","0","1","0","777.5000000000582","","","<img src = 'targets/mask.png' width = '100%;'>","75","pos","CS","CS","1","category1/CS4.png","targets/21.png","1","indirect","23",""
"","survey-html-form","186","483246","0.0-9.0","dga6wrnqb5","many_one","0","indirect_first","0","ld09er07","0","21","1","1","3","1","","0","1","0","3416.765000000072","","{}","","","","","","","","","","","",""
"","html-keyboard-response","187","486254","0.0-10.0-0.0","dga6wrnqb5","many_one","0","indirect_first","0","ld09er07","0","21","1","1","3","1","","0","1","0","null","","","<div style=""font-size:60px;"">+</div>","null","","","","","","","","","",""
"","html-keyboard-response","188","486346","0.0-10.0-1.0","dga6wrnqb5","many_one","0","indirect_first","0","ld09er07","0","21","1","1","3","1","","0","1","0","null","","","<img src = 'category4/lin.png' width = '100%;'>","null","","","","","","","","","",""
"","html-keyboard-response","189","486606","0.0-10.0-2.0","dga6wrnqb5","many_one","0","indirect_first","0","ld09er07","0","21","1","1","3","1","","0","1","0","null","","","<img src = 'targets/15.png' width = '100%;'>","null","","","","","","","","","",""
"","html-keyboard-response","190","487183","0.0-10.0-3.0","dga6wrnqb5","many_one","0","indirect_first","0","ld09er07","0","21","1","1","3","1","","0","1","0","574.1400000000722","","","<img src = 'targets/mask.png' width = '100%;'>","75","neg","GS","abstract","4","category4/lin.png","targets/15.png","1","indirect","24",""
"","html-keyboard-response","191","488693","0.0-10.0-0.1","dga6wrnqb5","many_one","0","indirect_first","0","ld09er07","0","21","1","1","3","1","","0","1","0","null","","","<div style=""font-size:60px;"">+</div>","null","","","","","","","","","",""
"","html-keyboard-response","192","488791","0.0-10.0-1.1","dga6wrnqb5","many_one","0","indirect_first","0","ld09er07","0","21","1","1","3","1","","0","1","0","null","","","<img src = 'category4/GS3.png' width = '100%;'>","null","","","","","","","","","",""
"","html-keyboard-response","193","489050","0.0-10.0-2.1","dga6wrnqb5","many_one","0","indirect_first","0","ld09er07","0","21","1","1","3","1","","0","1","0","null","","","<img src = 'targets/19.png' width = '100%;'>","null","","","","","","","","","",""
"","html-keyboard-response","194","489649","0.0-10.0-3.1","dga6wrnqb5","many_one","0","indirect_first","0","ld09er07","0","21","1","1","3","1","","0","1","0","597.8799999998882","","","<img src = 'targets/mask.png' width = '100%;'>","75","neg","GS","GSnew","4","category4/GS3.png","targets/19.png","1","indirect","25",""
"","html-keyboard-response","195","491159","0.0-10.0-0.2","dga6wrnqb5","many_one","0","indirect_first","0","ld09er07","0","21","1","1","3","1","","0","1","0","null","","","<div style=""font-size:60px;"">+</div>","null","","","","","","","","","",""
"","html-keyboard-response","196","491256","0.0-10.0-1.2","dga6wrnqb5","many_one","0","indirect_first","0","ld09er07","0","21","1","1","3","1","","0","1","0","null","","","<img src = 'category2/GS1.png' width = '100%;'>","null","","","","","","","","","",""
"","html-keyboard-response","197","491513","0.0-10.0-2.2","dga6wrnqb5","many_one","0","indirect_first","0","ld09er07","0","21","1","1","3","1","","0","1","0","null","","","<img src = 'targets/36.png' width = '100%;'>","null","","","","","","","","","",""
"","html-keyboard-response","198","492158","0.0-10.0-3.2","dga6wrnqb5","many_one","0","indirect_first","0","ld09er07","0","21","1","1","3","1","","0","1","0","643.6600000000908","","","<img src = 'targets/mask.png' width = '100%;'>","68","pos","GS","GSnew","2","category2/GS1.png","targets/36.png","0","indirect","26",""
"","html-keyboard-response","199","493668","0.0-10.0-0.3","dga6wrnqb5","many_one","0","indirect_first","0","ld09er07","0","21","1","1","3","1","","0","1","0","null","","","<div style=""font-size:60px;"">+</div>","null","","","","","","","","","",""
"","html-keyboard-response","200","493761","0.0-10.0-1.3","dga6wrnqb5","many_one","0","indirect_first","0","ld09er07","0","21","1","1","3","1","","0","1","0","null","","","<img src = 'category1/ma.png' width = '100%;'>","null","","","","","","","","","",""
"","html-keyboard-response","201","494025","0.0-10.0-2.3","dga6wrnqb5","many_one","0","indirect_first","0","ld09er07","0","21","1","1","3","1","","0","1","0","null","","","<img src = 'targets/29.png' width = '100%;'>","null","","","","","","","","","",""
"","html-keyboard-response","202","494974","0.0-10.0-3.3","dga6wrnqb5","many_one","0","indirect_first","0","ld09er07","0","21","1","1","3","1","","0","1","0","947.1700000000419","","","<img src = 'targets/mask.png' width = '100%;'>","68","pos","GS","abstract","1","category1/ma.png","targets/29.png","0","indirect","27",""
"","html-keyboard-response","203","496486","0.0-10.0-0.4","dga6wrnqb5","many_one","0","indirect_first","0","ld09er07","0","21","1","1","3","1","","0","1","0","null","","","<div style=""font-size:60px;"">+</div>","null","","","","","","","","","",""
"","html-keyboard-response","204","496581","0.0-10.0-1.4","dga6wrnqb5","many_one","0","indirect_first","0","ld09er07","0","21","1","1","3","1","","0","1","0","null","","","<img src = 'category3/GS2.png' width = '100%;'>","null","","","","","","","","","",""
"","html-keyboard-response","205","496839","0.0-10.0-2.4","dga6wrnqb5","many_one","0","indirect_first","0","ld09er07","0","21","1","1","3","1","","0","1","0","null","","","<img src = 'targets/11.png' width = '100%;'>","null","","","","","","","","","",""
"","html-keyboard-response","206","497648","0.0-10.0-3.4","dga6wrnqb5","many_one","0","indirect_first","0","ld09er07","0","21","1","1","3","1","","0","1","0","806.3149999998859","","","<img src = 'targets/mask.png' width = '100%;'>","75","neg","GS","GSnew","3","category3/GS2.png","targets/11.png","1","indirect","28",""
"","html-keyboard-response","207","499161","0.0-10.0-0.5","dga6wrnqb5","many_one","0","indirect_first","0","ld09er07","0","21","1","1","3","1","","0","1","0","null","","","<div style=""font-size:60px;"">+</div>","null","","","","","","","","","",""
"","html-keyboard-response","208","499258","0.0-10.0-1.5","dga6wrnqb5","many_one","0","indirect_first","0","ld09er07","0","21","1","1","3","1","","0","1","0","null","","","<img src = 'category3/CS10.png' width = '100%;'>","null","","","","","","","","","",""
"","html-keyboard-response","209","499513","0.0-10.0-2.5","dga6wrnqb5","many_one","0","indirect_first","0","ld09er07","0","21","1","1","3","1","","0","1","0","null","","","<img src = 'targets/24.png' width = '100%;'>","null","","","","","","","","","",""
"","html-keyboard-response","210","500615","0.0-10.0-3.5","dga6wrnqb5","many_one","0","indirect_first","0","ld09er07","0","21","1","1","3","1","","0","1","0","1100.3799999999464","","","<img src = 'targets/mask.png' width = '100%;'>","75","neg","GS","GSold","3","category3/CS10.png","targets/24.png","1","indirect","29",""
"","html-keyboard-response","211","502122","0.0-10.0-0.6","dga6wrnqb5","many_one","0","indirect_first","0","ld09er07","0","21","1","1","3","1","","0","1","0","null","","","<div style=""font-size:60px;"">+</div>","null","","","","","","","","","",""
"","html-keyboard-response","212","502216","0.0-10.0-1.6","dga6wrnqb5","many_one","0","indirect_first","0","ld09er07","0","21","1","1","3","1","","0","1","0","null","","","<img src = 'category2/CS7.png' width = '100%;'>","null","","","","","","","","","",""
"","html-keyboard-response","213","502480","0.0-10.0-2.6","dga6wrnqb5","many_one","0","indirect_first","0","ld09er07","0","21","1","1","3","1","","0","1","0","null","","","<img src = 'targets/39.png' width = '100%;'>","null","","","","","","","","","",""
"","html-keyboard-response","214","503141","0.0-10.0-3.6","dga6wrnqb5","many_one","0","indirect_first","0","ld09er07","0","21","1","1","3","1","","0","1","0","658.9849999999278","","","<img src = 'targets/mask.png' width = '100%;'>","75","pos","GS","GSold","2","category2/CS7.png","targets/39.png","1","indirect","30",""
"","html-keyboard-response","215","504644","0.0-10.0-0.7","dga6wrnqb5","many_one","0","indirect_first","0","ld09er07","0","21","1","1","3","1","","0","1","0","null","","","<div style=""font-size:60px;"">+</div>","null","","","","","","","","","",""
"","html-keyboard-response","216","504736","0.0-10.0-1.7","dga6wrnqb5","many_one","0","indirect_first","0","ld09er07","0","21","1","1","3","1","","0","1","0","null","","","<img src = 'category2/CS10.png' width = '100%;'>","null","","","","","","","","","",""
"","html-keyboard-response","217","504993","0.0-10.0-2.7","dga6wrnqb5","many_one","0","indirect_first","0","ld09er07","0","21","1","1","3","1","","0","1","0","null","","","<img src = 'targets/18.png' width = '100%;'>","null","","","","","","","","","",""
"","html-keyboard-response","218","505734","0.0-10.0-3.7","dga6wrnqb5","many_one","0","indirect_first","0","ld09er07","0","21","1","1","3","1","","0","1","0","739.9450000000652","","","<img src = 'targets/mask.png' width = '100%;'>","75","pos","GS","GSold","2","category2/CS10.png","targets/18.png","1","indirect","31",""
"","html-keyboard-response","219","507242","0.0-10.0-0.8","dga6wrnqb5","many_one","0","indirect_first","0","ld09er07","0","21","1","1","3","1","","0","1","0","null","","","<div style=""font-size:60px;"">+</div>","null","","","","","","","","","",""
"","html-keyboard-response","220","507334","0.0-10.0-1.8","dga6wrnqb5","many_one","0","indirect_first","0","ld09er07","0","21","1","1","3","1","","0","1","0","null","","","<img src = 'category2/men.png' width = '100%;'>","null","","","","","","","","","",""
"","html-keyboard-response","221","507594","0.0-10.0-2.8","dga6wrnqb5","many_one","0","indirect_first","0","ld09er07","0","21","1","1","3","1","","0","1","0","null","","","<img src = 'targets/4.png' width = '100%;'>","null","","","","","","","","","",""
"","html-keyboard-response","222","508213","0.0-10.0-3.8","dga6wrnqb5","many_one","0","indirect_first","0","ld09er07","0","21","1","1","3","1","","0","1","0","617.2699999999604","","","<img src = 'targets/mask.png' width = '100%;'>","75","pos","GS","abstract","2","category2/men.png","targets/4.png","1","indirect","32",""
"","html-keyboard-response","223","509724","0.0-10.0-0.9","dga6wrnqb5","many_one","0","indirect_first","0","ld09er07","0","21","1","1","3","1","","0","1","0","null","","","<div style=""font-size:60px;"">+</div>","null","","","","","","","","","",""
"","html-keyboard-response","224","509823","0.0-10.0-1.9","dga6wrnqb5","many_one","0","indirect_first","0","ld09er07","0","21","1","1","3","1","","0","1","0","null","","","<img src = 'category1/CS6.png' width = '100%;'>","null","","","","","","","","","",""
"","html-keyboard-response","225","510087","0.0-10.0-2.9","dga6wrnqb5","many_one","0","indirect_first","0","ld09er07","0","21","1","1","3","1","","0","1","0","null","","","<img src = 'targets/7.png' width = '100%;'>","null","","","","","","","","","",""
"","html-keyboard-response","226","511022","0.0-10.0-3.9","dga6wrnqb5","many_one","0","indirect_first","0","ld09er07","0","21","1","1","3","1","","0","1","0","933.0250000000233","","","<img src = 'targets/mask.png' width = '100%;'>","75","pos","GS","GSold","1","category1/CS6.png","targets/7.png","1","indirect","33",""
"","html-keyboard-response","227","512532","0.0-10.0-0.10","dga6wrnqb5","many_one","0","indirect_first","0","ld09er07","0","21","1","1","3","1","","0","1","0","null","","","<div style=""font-size:60px;"">+</div>","null","","","","","","","","","",""
"","html-keyboard-response","228","512631","0.0-10.0-1.10","dga6wrnqb5","many_one","0","indirect_first","0","ld09er07","0","21","1","1","3","1","","0","1","0","null","","","<img src = 'category3/GS3.png' width = '100%;'>","null","","","","","","","","","",""
"","html-keyboard-response","229","512896","0.0-10.0-2.10","dga6wrnqb5","many_one","0","indirect_first","0","ld09er07","0","21","1","1","3","1","","0","1","0","null","","","<img src = 'targets/12.png' width = '100%;'>","null","","","","","","","","","",""
"","html-keyboard-response","230","513457","0.0-10.0-3.10","dga6wrnqb5","many_one","0","indirect_first","0","ld09er07","0","21","1","1","3","1","","0","1","0","558.0699999999488","","","<img src = 'targets/mask.png' width = '100%;'>","68","neg","GS","GSnew","3","category3/GS3.png","targets/12.png","0","indirect","34",""
"","html-keyboard-response","231","514959","0.0-10.0-0.11","dga6wrnqb5","many_one","0","indirect_first","0","ld09er07","0","21","1","1","3","1","","0","1","0","null","","","<div style=""font-size:60px;"">+</div>","null","","","","","","","","","",""
"","html-keyboard-response","232","515055","0.0-10.0-1.11","dga6wrnqb5","many_one","0","indirect_first","0","ld09er07","0","21","1","1","3","1","","0","1","0","null","","","<img src = 'category3/wang.png' width = '100%;'>","null","","","","","","","","","",""
"","html-keyboard-response","233","515313","0.0-10.0-2.11","dga6wrnqb5","many_one","0","indirect_first","0","ld09er07","0","21","1","1","3","1","","0","1","0","null","","","<img src = 'targets/28.png' width = '100%;'>","null","","","","","","","","","",""
"","html-keyboard-response","234","516018","0.0-10.0-3.11","dga6wrnqb5","many_one","0","indirect_first","0","ld09er07","0","21","1","1","3","1","","0","1","0","703.6600000000326","","","<img src = 'targets/mask.png' width = '100%;'>","68","neg","GS","abstract","3","category3/wang.png","targets/28.png","0","indirect","35",""
"","html-keyboard-response","235","517528","0.0-10.0-0.12","dga6wrnqb5","many_one","0","indirect_first","0","ld09er07","0","21","1","1","3","1","","0","1","0","null","","","<div style=""font-size:60px;"">+</div>","null","","","","","","","","","",""
"","html-keyboard-response","236","517625","0.0-10.0-1.12","dga6wrnqb5","many_one","0","indirect_first","0","ld09er07","0","21","1","1","3","1","","0","1","0","null","","","<img src = 'category3/CS7.png' width = '100%;'>","null","","","","","","","","","",""
"","html-keyboard-response","237","517889","0.0-10.0-2.12","dga6wrnqb5","many_one","0","indirect_first","0","ld09er07","0","21","1","1","3","1","","0","1","0","null","","","<img src = 'targets/46.png' width = '100%;'>","null","","","","","","","","","",""
"","html-keyboard-response","238","518408","0.0-10.0-3.12","dga6wrnqb5","many_one","0","indirect_first","0","ld09er07","0","21","1","1","3","1","","0","1","0","516.5449999999255","","","<img src = 'targets/mask.png' width = '100%;'>","68","neg","GS","GSold","3","category3/CS7.png","targets/46.png","0","indirect","36",""
"","html-keyboard-response","239","519917","0.0-10.0-0.13","dga6wrnqb5","many_one","0","indirect_first","0","ld09er07","0","21","1","1","3","1","","0","1","0","null","","","<div style=""font-size:60px;"">+</div>","null","","","","","","","","","",""
"","html-keyboard-response","240","520013","0.0-10.0-1.13","dga6wrnqb5","many_one","0","indirect_first","0","ld09er07","0","21","1","1","3","1","","0","1","0","null","","","<img src = 'category4/GS2.png' width = '100%;'>","null","","","","","","","","","",""
"","html-keyboard-response","241","520270","0.0-10.0-2.13","dga6wrnqb5","many_one","0","indirect_first","0","ld09er07","0","21","1","1","3","1","","0","1","0","null","","","<img src = 'targets/1.png' width = '100%;'>","null","","","","","","","","","",""
"","html-keyboard-response","242","520816","0.0-10.0-3.13","dga6wrnqb5","many_one","0","indirect_first","0","ld09er07","0","21","1","1","3","1","","0","1","0","544.6450000000186","","","<img src = 'targets/mask.png' width = '100%;'>","75","neg","GS","GSnew","4","category4/GS2.png","targets/1.png","1","indirect","37",""
"","html-keyboard-response","243","522322","0.0-10.0-0.14","dga6wrnqb5","many_one","0","indirect_first","0","ld09er07","0","21","1","1","3","1","","0","1","0","null","","","<div style=""font-size:60px;"">+</div>","null","","","","","","","","","",""
"","html-keyboard-response","244","522416","0.0-10.0-1.14","dga6wrnqb5","many_one","0","indirect_first","0","ld09er07","0","21","1","1","3","1","","0","1","0","null","","","<img src = 'category1/GS3.png' width = '100%;'>","null","","","","","","","","","",""
"","html-keyboard-response","245","522672","0.0-10.0-2.14","dga6wrnqb5","many_one","0","indirect_first","0","ld09er07","0","21","1","1","3","1","","0","1","0","null","","","<img src = 'targets/5.png' width = '100%;'>","null","","","","","","","","","",""
"","html-keyboard-response","246","523405","0.0-10.0-3.14","dga6wrnqb5","many_one","0","indirect_first","0","ld09er07","0","21","1","1","3","1","","0","1","0","731.2099999999627","","","<img src = 'targets/mask.png' width = '100%;'>","75","pos","GS","GSnew","1","category1/GS3.png","targets/5.png","1","indirect","38",""
"","html-keyboard-response","247","524921","0.0-10.0-0.15","dga6wrnqb5","many_one","0","indirect_first","0","ld09er07","0","21","1","1","3","1","","0","1","0","null","","","<div style=""font-size:60px;"">+</div>","null","","","","","","","","","",""
"","html-keyboard-response","248","525020","0.0-10.0-1.15","dga6wrnqb5","many_one","0","indirect_first","0","ld09er07","0","21","1","1","3","1","","0","1","0","null","","","<img src = 'category1/CS9.png' width = '100%;'>","null","","","","","","","","","",""
"","html-keyboard-response","249","525278","0.0-10.0-2.15","dga6wrnqb5","many_one","0","indirect_first","0","ld09er07","0","21","1","1","3","1","","0","1","0","null","","","<img src = 'targets/43.png' width = '100%;'>","null","","","","","","","","","",""
"","html-keyboard-response","250","525816","0.0-10.0-3.15","dga6wrnqb5","many_one","0","indirect_first","0","ld09er07","0","21","1","1","3","1","","0","1","0","534.7399999999907","","","<img src = 'targets/mask.png' width = '100%;'>","75","pos","GS","GSold","1","category1/CS9.png","targets/43.png","1","indirect","39",""
"","html-keyboard-response","251","527325","0.0-10.0-0.16","dga6wrnqb5","many_one","0","indirect_first","0","ld09er07","0","21","1","1","3","1","","0","1","0","null","","","<div style=""font-size:60px;"">+</div>","null","","","","","","","","","",""
"","html-keyboard-response","252","527420","0.0-10.0-1.16","dga6wrnqb5","many_one","0","indirect_first","0","ld09er07","0","21","1","1","3","1","","0","1","0","null","","","<img src = 'category2/GS3.png' width = '100%;'>","null","","","","","","","","","",""
"","html-keyboard-response","253","527677","0.0-10.0-2.16","dga6wrnqb5","many_one","0","indirect_first","0","ld09er07","0","21","1","1","3","1","","0","1","0","null","","","<img src = 'targets/40.png' width = '100%;'>","null","","","","","","","","","",""
"","html-keyboard-response","254","528226","0.0-10.0-3.16","dga6wrnqb5","many_one","0","indirect_first","0","ld09er07","0","21","1","1","3","1","","0","1","0","547.2900000000373","","","<img src = 'targets/mask.png' width = '100%;'>","68","pos","GS","GSnew","2","category2/GS3.png","targets/40.png","0","indirect","40",""
"","html-keyboard-response","255","529728","0.0-10.0-0.17","dga6wrnqb5","many_one","0","indirect_first","0","ld09er07","0","21","1","1","3","1","","0","1","0","null","","","<div style=""font-size:60px;"">+</div>","null","","","","","","","","","",""
"","html-keyboard-response","256","529824","0.0-10.0-1.17","dga6wrnqb5","many_one","0","indirect_first","0","ld09er07","0","21","1","1","3","1","","0","1","0","null","","","<img src = 'category1/GS2.png' width = '100%;'>","null","","","","","","","","","",""
"","html-keyboard-response","257","530084","0.0-10.0-2.17","dga6wrnqb5","many_one","0","indirect_first","0","ld09er07","0","21","1","1","3","1","","0","1","0","null","","","<img src = 'targets/9.png' width = '100%;'>","null","","","","","","","","","",""
"","html-keyboard-response","258","531048","0.0-10.0-3.17","dga6wrnqb5","many_one","0","indirect_first","0","ld09er07","0","21","1","1","3","1","","0","1","0","961.9749999998603","","","<img src = 'targets/mask.png' width = '100%;'>","68","pos","GS","GSnew","1","category1/GS2.png","targets/9.png","0","indirect","41",""
"","html-keyboard-response","259","532563","0.0-10.0-0.18","dga6wrnqb5","many_one","0","indirect_first","0","ld09er07","0","21","1","1","3","1","","0","1","0","null","","","<div style=""font-size:60px;"">+</div>","null","","","","","","","","","",""
"","html-keyboard-response","260","532662","0.0-10.0-1.18","dga6wrnqb5","many_one","0","indirect_first","0","ld09er07","0","21","1","1","3","1","","0","1","0","null","","","<img src = 'category3/GS1.png' width = '100%;'>","null","","","","","","","","","",""
"","html-keyboard-response","261","532922","0.0-10.0-2.18","dga6wrnqb5","many_one","0","indirect_first","0","ld09er07","0","21","1","1","3","1","","0","1","0","null","","","<img src = 'targets/33.png' width = '100%;'>","null","","","","","","","","","",""
"","html-keyboard-response","262","533416","0.0-10.0-3.18","dga6wrnqb5","many_one","0","indirect_first","0","ld09er07","0","21","1","1","3","1","","0","1","0","491.0150000001304","","","<img src = 'targets/mask.png' width = '100%;'>","68","neg","GS","GSnew","3","category3/GS1.png","targets/33.png","0","indirect","42",""
"","html-keyboard-response","263","534929","0.0-10.0-0.19","dga6wrnqb5","many_one","0","indirect_first","0","ld09er07","0","21","1","1","3","1","","0","1","0","null","","","<div style=""font-size:60px;"">+</div>","null","","","","","","","","","",""
"","html-keyboard-response","264","535025","0.0-10.0-1.19","dga6wrnqb5","many_one","0","indirect_first","0","ld09er07","0","21","1","1","3","1","","0","1","0","null","","","<img src = 'category3/CS4.png' width = '100%;'>","null","","","","","","","","","",""
"","html-keyboard-response","265","535291","0.0-10.0-2.19","dga6wrnqb5","many_one","0","indirect_first","0","ld09er07","0","21","1","1","3","1","","0","1","0","null","","","<img src = 'targets/14.png' width = '100%;'>","null","","","","","","","","","",""
"","html-keyboard-response","266","535774","0.0-10.0-3.19","dga6wrnqb5","many_one","0","indirect_first","0","ld09er07","0","21","1","1","3","1","","0","1","0","482.1099999998696","","","<img src = 'targets/mask.png' width = '100%;'>","75","neg","GS","GSold","3","category3/CS4.png","targets/14.png","1","indirect","43",""
"","html-keyboard-response","267","537284","0.0-10.0-0.20","dga6wrnqb5","many_one","0","indirect_first","0","ld09er07","0","21","1","1","3","1","","0","1","0","null","","","<div style=""font-size:60px;"">+</div>","null","","","","","","","","","",""
"","html-keyboard-response","268","537383","0.0-10.0-1.20","dga6wrnqb5","many_one","0","indirect_first","0","ld09er07","0","21","1","1","3","1","","0","1","0","null","","","<img src = 'category1/CS1.png' width = '100%;'>","null","","","","","","","","","",""
"","html-keyboard-response","269","537643","0.0-10.0-2.20","dga6wrnqb5","many_one","0","indirect_first","0","ld09er07","0","21","1","1","3","1","","0","1","0","null","","","<img src = 'targets/8.png' width = '100%;'>","null","","","","","","","","","",""
"","html-keyboard-response","270","538117","0.0-10.0-3.20","dga6wrnqb5","many_one","0","indirect_first","0","ld09er07","0","21","1","1","3","1","","0","1","0","472.01500000001397","","","<img src = 'targets/mask.png' width = '100%;'>","75","pos","GS","GSold","1","category1/CS1.png","targets/8.png","1","indirect","44",""
"","html-keyboard-response","271","539630","0.0-10.0-0.21","dga6wrnqb5","many_one","0","indirect_first","0","ld09er07","0","21","1","1","3","1","","0","1","0","null","","","<div style=""font-size:60px;"">+</div>","null","","","","","","","","","",""
"","html-keyboard-response","272","539722","0.0-10.0-1.21","dga6wrnqb5","many_one","0","indirect_first","0","ld09er07","0","21","1","1","3","1","","0","1","0","null","","","<img src = 'category4/GS1.png' width = '100%;'>","null","","","","","","","","","",""
"","html-keyboard-response","273","539985","0.0-10.0-2.21","dga6wrnqb5","many_one","0","indirect_first","0","ld09er07","0","21","1","1","3","1","","0","1","0","null","","","<img src = 'targets/37.png' width = '100%;'>","null","","","","","","","","","",""
"","html-keyboard-response","274","540639","0.0-10.0-3.21","dga6wrnqb5","many_one","0","indirect_first","0","ld09er07","0","21","1","1","3","1","","0","1","0","651.9000000000233","","","<img src = 'targets/mask.png' width = '100%;'>","75","neg","GS","GSnew","4","category4/GS1.png","targets/37.png","1","indirect","45",""
"","html-keyboard-response","275","542154","0.0-10.0-0.22","dga6wrnqb5","many_one","0","indirect_first","0","ld09er07","0","21","1","1","3","1","","0","1","0","null","","","<div style=""font-size:60px;"">+</div>","null","","","","","","","","","",""
"","html-keyboard-response","276","542251","0.0-10.0-1.22","dga6wrnqb5","many_one","0","indirect_first","0","ld09er07","0","21","1","1","3","1","","0","1","0","null","","","<img src = 'category2/GS2.png' width = '100%;'>","null","","","","","","","","","",""
"","html-keyboard-response","277","542511","0.0-10.0-2.22","dga6wrnqb5","many_one","0","indirect_first","0","ld09er07","0","21","1","1","3","1","","0","1","0","null","","","<img src = 'targets/34.png' width = '100%;'>","null","","","","","","","","","",""
"","html-keyboard-response","278","543071","0.0-10.0-3.22","dga6wrnqb5","many_one","0","indirect_first","0","ld09er07","0","21","1","1","3","1","","0","1","0","558.3399999999674","","","<img src = 'targets/mask.png' width = '100%;'>","75","pos","GS","GSnew","2","category2/GS2.png","targets/34.png","1","indirect","46",""
"","html-keyboard-response","279","544586","0.0-10.0-0.23","dga6wrnqb5","many_one","0","indirect_first","0","ld09er07","0","21","1","1","3","1","","0","1","0","null","","","<div style=""font-size:60px;"">+</div>","null","","","","","","","","","",""
"","html-keyboard-response","280","544680","0.0-10.0-1.23","dga6wrnqb5","many_one","0","indirect_first","0","ld09er07","0","21","1","1","3","1","","0","1","0","null","","","<img src = 'category1/GS1.png' width = '100%;'>","null","","","","","","","","","",""
"","html-keyboard-response","281","544946","0.0-10.0-2.23","dga6wrnqb5","many_one","0","indirect_first","0","ld09er07","0","21","1","1","3","1","","0","1","0","null","","","<img src = 'targets/2.png' width = '100%;'>","null","","","","","","","","","",""
"","html-keyboard-response","282","545609","0.0-10.0-3.23","dga6wrnqb5","many_one","0","indirect_first","0","ld09er07","0","21","1","1","3","1","","0","1","0","660.5250000000233","","","<img src = 'targets/mask.png' width = '100%;'>","75","pos","GS","GSnew","1","category1/GS1.png","targets/2.png","1","indirect","47",""
"","survey-html-form","283","554624","0.0-11.0","dga6wrnqb5","many_one","0","indirect_first","0","ld09er07","0","21","1","1","3","1","","0","1","0","8512.945000000065","","{}","","","","","","","","","","","",""
"","image-slider-response","284","565132","0.0-12.0-0.0","dga6wrnqb5","many_one","0","indirect_first","0","ld09er07","0","21","1","1","3","1","","0","1","0","8497.25","","","","","neg","GS","GSold","4","category4/CS10.png","targets/38.png","","direct","","-40"
"","image-slider-response","285","569826","0.0-12.0-0.1","dga6wrnqb5","many_one","0","indirect_first","0","ld09er07","0","21","1","1","3","1","","0","1","0","4690.07500000007","","","","","pos","GS","GSold","1","category1/CS1.png","targets/8.png","","direct","","69"
"","image-slider-response","286","573544","0.0-12.0-0.2","dga6wrnqb5","many_one","0","indirect_first","0","ld09er07","0","21","1","1","3","1","","0","1","0","3714.6299999998882","","","","","neg","CS","CS","3","category3/CS5.png","targets/30.png","","direct","","-96"
"","image-slider-response","287","577035","0.0-12.0-0.3","dga6wrnqb5","many_one","0","indirect_first","0","ld09er07","0","21","1","1","3","1","","0","1","0","3488.4349999999395","","","","","neg","GS","GSnew","3","category3/GS3.png","targets/12.png","","direct","","-66"
"","image-slider-response","288","580962","0.0-12.0-0.4","dga6wrnqb5","many_one","0","indirect_first","0","ld09er07","0","21","1","1","3","1","","0","1","0","3924.9199999999255","","","","","neg","GS","GSnew","4","category4/GS3.png","targets/19.png","","direct","","64"
"","image-slider-response","289","584319","0.0-12.0-0.5","dga6wrnqb5","many_one","0","indirect_first","0","ld09er07","0","21","1","1","3","1","","0","1","0","3354.3099999999395","","","","","neg","CS","CS","3","category3/CS2.png","targets/23.png","","direct","","-75"
"","image-slider-response","290","588085","0.0-12.0-0.6","dga6wrnqb5","many_one","0","indirect_first","0","ld09er07","0","21","1","1","3","1","","0","1","0","3762.930000000051","","","","","pos","GS","GSnew","1","category1/GS3.png","targets/5.png","","direct","","31"
"","image-slider-response","291","591212","0.0-12.0-0.7","dga6wrnqb5","many_one","0","indirect_first","0","ld09er07","0","21","1","1","3","1","","0","1","0","3124.4250000000466","","","","","neg","CS","CS","4","category4/CS2.png","targets/20.png","","direct","","-68"
"","image-slider-response","292","594865","0.0-12.0-0.8","dga6wrnqb5","many_one","0","indirect_first","0","ld09er07","0","21","1","1","3","1","","0","1","0","3649.484999999986","","","","","neg","GS","GSold","3","category3/CS10.png","targets/24.png","","direct","","-54"
"","image-slider-response","293","598301","0.0-12.0-0.9","dga6wrnqb5","many_one","0","indirect_first","0","ld09er07","0","21","1","1","3","1","","0","1","0","3434.1549999999115","","","","","neg","GS","GSold","3","category3/CS7.png","targets/46.png","","direct","","-53"
"","image-slider-response","294","603711","0.0-12.0-0.10","dga6wrnqb5","many_one","0","indirect_first","0","ld09er07","0","21","1","1","3","1","","0","1","0","5407.239999999991","","","","","pos","GS","GSold","1","category1/CS6.png","targets/7.png","","direct","","-47"
"","image-slider-response","295","607543","0.0-12.0-0.11","dga6wrnqb5","many_one","0","indirect_first","0","ld09er07","0","21","1","1","3","1","","0","1","0","3829.390000000014","","","","","pos","GS","GSnew","1","category1/GS1.png","targets/2.png","","direct","","-24"
"","image-slider-response","296","611220","0.0-12.0-0.12","dga6wrnqb5","many_one","0","indirect_first","0","ld09er07","0","21","1","1","3","1","","0","1","0","3674.7550000000047","","","","","pos","CS","CS","1","category1/CS4.png","targets/21.png","","direct","","79"
"","image-slider-response","297","614420","0.0-12.0-0.13","dga6wrnqb5","many_one","0","indirect_first","0","ld09er07","0","21","1","1","3","1","","0","1","0","3196.8649999999907","","","","","pos","CS","CS","2","category2/CS1.png","targets/6.png","","direct","","65"
"","image-slider-response","298","617547","0.0-12.0-0.14","dga6wrnqb5","many_one","0","indirect_first","0","ld09er07","0","21","1","1","3","1","","0","1","0","3125.4250000000466","","","","","pos","CS","CS","2","category2/CS2.png","targets/26.png","","direct","","62"
"","image-slider-response","299","620691","0.0-12.0-0.15","dga6wrnqb5","many_one","0","indirect_first","0","ld09er07","0","21","1","1","3","1","","0","1","0","3140.929999999935","","","","","neg","CS","CS","3","category3/CS8.png","targets/3.png","","direct","","-89"
"","image-slider-response","300","623325","0.0-12.0-0.16","dga6wrnqb5","many_one","0","indirect_first","0","ld09er07","0","21","1","1","3","1","","0","1","0","2632.1500000000233","","","","","neg","GS","GSnew","4","category4/GS2.png","targets/1.png","","direct","","69"
"","image-slider-response","301","625977","0.0-12.0-0.17","dga6wrnqb5","many_one","0","indirect_first","0","ld09er07","0","21","1","1","3","1","","0","1","0","2647.930000000051","","","","","pos","GS","GSold","2","category2/CS10.png","targets/18.png","","direct","","70"
"","image-slider-response","302","631571","0.0-12.0-0.18","dga6wrnqb5","many_one","0","indirect_first","0","ld09er07","0","21","1","1","3","1","","0","1","0","5591.900000000023","","","","","neg","GS","GSnew","3","category3/GS2.png","targets/11.png","","direct","","50"
"","image-slider-response","303","634406","0.0-12.0-0.19","dga6wrnqb5","many_one","0","indirect_first","0","ld09er07","0","21","1","1","3","1","","0","1","0","2832.1750000000466","","","","","neg","CS","CS","4","category4/CS4.png","targets/41.png","","direct","","-71"
"","image-slider-response","304","637810","0.0-12.0-0.20","dga6wrnqb5","many_one","0","indirect_first","0","ld09er07","0","21","1","1","3","1","","0","1","0","3402.289999999921","","","","","neg","CS","CS","4","category4/CS1.png","targets/48.png","","direct","","-74"
"","image-slider-response","305","640782","0.0-12.0-0.21","dga6wrnqb5","many_one","0","indirect_first","0","ld09er07","0","21","1","1","3","1","","0","1","0","2969.329999999958","","","","","pos","GS","GSnew","2","category2/GS1.png","targets/36.png","","direct","","22"
"","image-slider-response","306","643523","0.0-12.0-0.22","dga6wrnqb5","many_one","0","indirect_first","0","ld09er07","0","21","1","1","3","1","","0","1","0","2739.140000000014","","","","","pos","CS","CS","2","category2/CS4.png","targets/17.png","","direct","","72"
"","image-slider-response","307","646615","0.0-12.0-0.23","dga6wrnqb5","many_one","0","indirect_first","0","ld09er07","0","21","1","1","3","1","","0","1","0","3089.469999999972","","","","","neg","CS","CS","3","category3/CS6.png","targets/44.png","","direct","","-54"
"","image-slider-response","308","649734","0.0-12.0-0.24","dga6wrnqb5","many_one","0","indirect_first","0","ld09er07","0","21","1","1","3","1","","0","1","0","3117.069999999949","","","","","pos","GS","GSnew","2","category2/GS2.png","targets/34.png","","direct","","44"
"","image-slider-response","309","652379","0.0-12.0-0.25","dga6wrnqb5","many_one","0","indirect_first","0","ld09er07","0","21","1","1","3","1","","0","1","0","2641.539999999921","","","","","pos","GS","GSnew","1","category1/GS2.png","targets/9.png","","direct","","41"
"","image-slider-response","310","655310","0.0-12.0-0.26","dga6wrnqb5","many_one","0","indirect_first","0","ld09er07","0","21","1","1","3","1","","0","1","0","2928.935000000056","","","","","pos","CS","CS","2","category2/CS6.png","targets/47.png","","direct","","55"
"","image-slider-response","311","658237","0.0-12.0-0.27","dga6wrnqb5","many_one","0","indirect_first","0","ld09er07","0","21","1","1","3","1","","0","1","0","2924.335000000079","","","","","neg","CS","CS","3","category3/CS9.png","targets/35.png","","direct","","-74"
"","image-slider-response","312","661291","0.0-12.0-0.28","dga6wrnqb5","many_one","0","indirect_first","0","ld09er07","0","21","1","1","3","1","","0","1","0","3052.6100000001024","","","","","neg","CS","CS","4","category4/CS8.png","targets/10.png","","direct","","-91"
"","image-slider-response","313","664991","0.0-12.0-0.29","dga6wrnqb5","many_one","0","indirect_first","0","ld09er07","0","21","1","1","3","1","","0","1","0","3696.670000000042","","","","","pos","CS","CS","1","category1/CS7.png","targets/25.png","","direct","","73"
"","image-slider-response","314","668233","0.0-12.0-0.30","dga6wrnqb5","many_one","0","indirect_first","0","ld09er07","0","21","1","1","3","1","","0","1","0","3240.394999999902","","","","","pos","GS","GSold","1","category1/CS9.png","targets/43.png","","direct","","61"
"","image-slider-response","315","670948","0.0-12.0-0.31","dga6wrnqb5","many_one","0","indirect_first","0","ld09er07","0","21","1","1","3","1","","0","1","0","2712.394999999902","","","","","neg","GS","GSold","4","category4/CS5.png","targets/22.png","","direct","","32"
"","image-slider-response","316","673720","0.0-12.0-0.32","dga6wrnqb5","many_one","0","indirect_first","0","ld09er07","0","21","1","1","3","1","","0","1","0","2769.695000000065","","","","","pos","GS","GSnew","2","category2/GS3.png","targets/40.png","","direct","","29"
"","image-slider-response","317","676362","0.0-12.0-0.33","dga6wrnqb5","many_one","0","indirect_first","0","ld09er07","0","21","1","1","3","1","","0","1","0","2639.2149999999674","","","","","neg","GS","GSnew","4","category4/GS1.png","targets/37.png","","direct","","23"
"","image-slider-response","318","678963","0.0-12.0-0.34","dga6wrnqb5","many_one","0","indirect_first","0","ld09er07","0","21","1","1","3","1","","0","1","0","2599.3599999998696","","","","","neg","GS","GSold","4","category4/CS7.png","targets/32.png","","direct","","29"
"","image-slider-response","319","683909","0.0-12.0-0.35","dga6wrnqb5","many_one","0","indirect_first","0","ld09er07","0","21","1","1","3","1","","0","1","0","4943.755000000005","","","","","neg","GS","abstract","3","category3/wang.png","targets/28.png","","direct","","-97"
"","image-slider-response","320","686556","0.0-12.0-0.36","dga6wrnqb5","many_one","0","indirect_first","0","ld09er07","0","21","1","1","3","1","","0","1","0","2644.054999999935","","","","","pos","CS","CS","2","category2/CS3.png","targets/42.png","","direct","","65"
"","image-slider-response","321","688875","0.0-12.0-0.37","dga6wrnqb5","many_one","0","indirect_first","0","ld09er07","0","21","1","1","3","1","","0","1","0","2317.0050000000047","","","","","pos","CS","CS","1","category1/CS5.png","targets/31.png","","direct","","53"
"","image-slider-response","322","691566","0.0-12.0-0.38","dga6wrnqb5","many_one","0","indirect_first","0","ld09er07","0","21","1","1","3","1","","0","1","0","2688.909999999916","","","","","pos","GS","GSold","2","category2/CS5.png","targets/16.png","","direct","","45"
"","image-slider-response","323","694125","0.0-12.0-0.39","dga6wrnqb5","many_one","0","indirect_first","0","ld09er07","0","21","1","1","3","1","","0","1","0","2557.1999999999534","","","","","pos","CS","CS","1","category1/CS8.png","targets/13.png","","direct","","56"
"","image-slider-response","324","696568","0.0-12.0-0.40","dga6wrnqb5","many_one","0","indirect_first","0","ld09er07","0","21","1","1","3","1","","0","1","0","2440.375","","","","","neg","GS","GSold","3","category3/CS4.png","targets/14.png","","direct","","-56"
