"success","trial_type","trial_index","time_elapsed","internal_node_id","subject","condition","condition_code","measure","measure_code","codeword","gender","age","education","chinese","fach","handedness","comment","hinschauen","ablenkung","gewissenhaft","rt","url","responses","stimulus","key_press","val","type","type_specific","category","cs_selected","response","target","task","indirect","nr_pres"
"true","fullscreen","0","110450","0.0-0.0","bo98z23204","one_one","1","direct_first","1","el04ns02","0","24","1","1","3","1","","0","1","0","","","","","","","","","","","","","","",""
"","external-html","1","193861","0.0-1.0","bo98z23204","one_one","1","direct_first","1","el04ns02","0","24","1","1","3","1","","0","1","0","83316","text/information.html","","","","","","","","","","","","",""
"","external-html","2","205398","0.0-2.0","bo98z23204","one_one","1","direct_first","1","el04ns02","0","24","1","1","3","1","","0","1","0","11410","text/consent.html","","","","","","","","","","","","",""
"","survey-html-form","3","274666","0.0-3.0","bo98z23204","one_one","1","direct_first","1","el04ns02","0","24","1","1","3","1","","0","1","0","69262","","{""codeword_enter"":""el04ns02""}","","","","","","","","","","","",""
"","survey-html-form","4","300773","0.0-4.0","bo98z23204","one_one","1","direct_first","1","el04ns02","0","24","1","1","3","1","","0","1","0","26099","","{""age"":""24"",""education"":""1"",""subject"":""3"",""gender"":""0"",""handedness"":""1"",""chinese"":""1""}","","","","","","","","","","","",""
"","survey-html-form","5","306290","0.0-5.0","bo98z23204","one_one","1","direct_first","1","el04ns02","0","24","1","1","3","1","","0","1","0","5515","","{}","","","","","","","","","","","",""
"","html-keyboard-response","6","310311","0.0-6.0-0.0-0.0","bo98z23204","one_one","1","direct_first","1","el04ns02","0","24","1","1","3","1","","0","1","0","null","","","<div class = 'row'><div class = 'column'><img src = 'usneg/6570.1.bmp' width = '100%;'></div><div class = 'column'><img src = 'category4/CS3.png' width = '70%;'></div></div>","null","neg","CS","CS","4","category4/CS3.png","","","","",""
"","html-keyboard-response","7","312833","0.0-6.0-0.0-0.1","bo98z23204","one_one","1","direct_first","1","el04ns02","0","24","1","1","3","1","","0","1","0","null","","","<div class = 'row'><div class = 'column'><img src = 'uspos/4625.bmp' width = '100%;'></div><div class = 'column'><img src = 'category2/CS5.png' width = '70%;'></div></div>","null","pos","CS","CS","2","category2/CS5.png","","","","",""
"","html-keyboard-response","8","315352","0.0-6.0-0.0-0.2","bo98z23204","one_one","1","direct_first","1","el04ns02","0","24","1","1","3","1","","0","1","0","null","","","<div class = 'row'><div class = 'column'><img src = 'usneg/6570.1.bmp' width = '100%;'></div><div class = 'column'><img src = 'category4/CS3.png' width = '70%;'></div></div>","null","neg","CS","CS","4","category4/CS3.png","","","","",""
"","html-keyboard-response","9","317867","0.0-6.0-0.0-0.3","bo98z23204","one_one","1","direct_first","1","el04ns02","0","24","1","1","3","1","","0","1","0","null","","","<div class = 'row'><div class = 'column'><img src = 'category3/CS5.png' width = '70%;'></div><div class = 'column'><img src = 'usneg/9404.bmp' width = '100%;'></div></div>","null","neg","CS","CS","3","category3/CS5.png","","","","",""
"","html-keyboard-response","10","320394","0.0-6.0-0.0-0.4","bo98z23204","one_one","1","direct_first","1","el04ns02","0","24","1","1","3","1","","0","1","0","null","","","<div class = 'row'><div class = 'column'><img src = 'category4/CS3.png' width = '70%;'></div><div class = 'column'><img src = 'usneg/6570.1.bmp' width = '100%;'></div></div>","null","neg","CS","CS","4","category4/CS3.png","","","","",""
"","html-keyboard-response","11","322918","0.0-6.0-0.0-0.5","bo98z23204","one_one","1","direct_first","1","el04ns02","0","24","1","1","3","1","","0","1","0","null","","","<div class = 'row'><div class = 'column'><img src = 'category2/CS5.png' width = '70%;'></div><div class = 'column'><img src = 'uspos/4625.bmp' width = '100%;'></div></div>","null","pos","CS","CS","2","category2/CS5.png","","","","",""
"","html-keyboard-response","12","325444","0.0-6.0-0.0-0.6","bo98z23204","one_one","1","direct_first","1","el04ns02","0","24","1","1","3","1","","0","1","0","null","","","<div class = 'row'><div class = 'column'><img src = 'category1/CS3.png' width = '70%;'></div><div class = 'column'><img src = 'uspos/5831.bmp' width = '100%;'></div></div>","null","pos","CS","CS","1","category1/CS3.png","","","","",""
"","html-keyboard-response","13","327958","0.0-6.0-0.0-0.7","bo98z23204","one_one","1","direct_first","1","el04ns02","0","24","1","1","3","1","","0","1","0","null","","","<div class = 'row'><div class = 'column'><img src = 'uspos/4625.bmp' width = '100%;'></div><div class = 'column'><img src = 'category2/CS5.png' width = '70%;'></div></div>","null","pos","CS","CS","2","category2/CS5.png","","","","",""
"","html-keyboard-response","14","330477","0.0-6.0-0.0-0.8","bo98z23204","one_one","1","direct_first","1","el04ns02","0","24","1","1","3","1","","0","1","0","null","","","<div class = 'row'><div class = 'column'><img src = 'uspos/5831.bmp' width = '100%;'></div><div class = 'column'><img src = 'category1/CS3.png' width = '70%;'></div></div>","null","pos","CS","CS","1","category1/CS3.png","","","","",""
"","html-keyboard-response","15","333001","0.0-6.0-0.0-0.9","bo98z23204","one_one","1","direct_first","1","el04ns02","0","24","1","1","3","1","","0","1","0","null","","","<div class = 'row'><div class = 'column'><img src = 'category3/CS5.png' width = '70%;'></div><div class = 'column'><img src = 'usneg/9404.bmp' width = '100%;'></div></div>","null","neg","CS","CS","3","category3/CS5.png","","","","",""
"","html-keyboard-response","16","335514","0.0-6.0-0.0-0.10","bo98z23204","one_one","1","direct_first","1","el04ns02","0","24","1","1","3","1","","0","1","0","null","","","<div class = 'row'><div class = 'column'><img src = 'usneg/6570.1.bmp' width = '100%;'></div><div class = 'column'><img src = 'category4/CS3.png' width = '70%;'></div></div>","null","neg","CS","CS","4","category4/CS3.png","","","","",""
"","html-keyboard-response","17","338021","0.0-6.0-0.0-0.11","bo98z23204","one_one","1","direct_first","1","el04ns02","0","24","1","1","3","1","","0","1","0","null","","","<div class = 'row'><div class = 'column'><img src = 'category3/CS5.png' width = '70%;'></div><div class = 'column'><img src = 'usneg/9404.bmp' width = '100%;'></div></div>","null","neg","CS","CS","3","category3/CS5.png","","","","",""
"","html-keyboard-response","18","340537","0.0-6.0-0.0-0.12","bo98z23204","one_one","1","direct_first","1","el04ns02","0","24","1","1","3","1","","0","1","0","null","","","<div class = 'row'><div class = 'column'><img src = 'category4/CS3.png' width = '70%;'></div><div class = 'column'><img src = 'usneg/6570.1.bmp' width = '100%;'></div></div>","null","neg","CS","CS","4","category4/CS3.png","","","","",""
"","html-keyboard-response","19","343063","0.0-6.0-0.0-0.13","bo98z23204","one_one","1","direct_first","1","el04ns02","0","24","1","1","3","1","","0","1","0","null","","","<div class = 'row'><div class = 'column'><img src = 'uspos/4625.bmp' width = '100%;'></div><div class = 'column'><img src = 'category2/CS5.png' width = '70%;'></div></div>","null","pos","CS","CS","2","category2/CS5.png","","","","",""
"","html-keyboard-response","20","345581","0.0-6.0-0.0-0.14","bo98z23204","one_one","1","direct_first","1","el04ns02","0","24","1","1","3","1","","0","1","0","null","","","<div class = 'row'><div class = 'column'><img src = 'category1/CS3.png' width = '70%;'></div><div class = 'column'><img src = 'uspos/5831.bmp' width = '100%;'></div></div>","null","pos","CS","CS","1","category1/CS3.png","","","","",""
"","html-keyboard-response","21","348099","0.0-6.0-0.0-0.15","bo98z23204","one_one","1","direct_first","1","el04ns02","0","24","1","1","3","1","","0","1","0","null","","","<div class = 'row'><div class = 'column'><img src = 'usneg/9404.bmp' width = '100%;'></div><div class = 'column'><img src = 'category3/CS5.png' width = '70%;'></div></div>","null","neg","CS","CS","3","category3/CS5.png","","","","",""
"","html-keyboard-response","22","350611","0.0-6.0-0.0-0.16","bo98z23204","one_one","1","direct_first","1","el04ns02","0","24","1","1","3","1","","0","1","0","null","","","<div class = 'row'><div class = 'column'><img src = 'uspos/4625.bmp' width = '100%;'></div><div class = 'column'><img src = 'category2/CS5.png' width = '70%;'></div></div>","null","pos","CS","CS","2","category2/CS5.png","","","","",""
"","html-keyboard-response","23","353126","0.0-6.0-0.0-0.17","bo98z23204","one_one","1","direct_first","1","el04ns02","0","24","1","1","3","1","","0","1","0","null","","","<div class = 'row'><div class = 'column'><img src = 'category1/CS3.png' width = '70%;'></div><div class = 'column'><img src = 'uspos/5831.bmp' width = '100%;'></div></div>","null","pos","CS","CS","1","category1/CS3.png","","","","",""
"","html-keyboard-response","24","355648","0.0-6.0-0.0-0.18","bo98z23204","one_one","1","direct_first","1","el04ns02","0","24","1","1","3","1","","0","1","0","null","","","<div class = 'row'><div class = 'column'><img src = 'usneg/9404.bmp' width = '100%;'></div><div class = 'column'><img src = 'category3/CS5.png' width = '70%;'></div></div>","null","neg","CS","CS","3","category3/CS5.png","","","","",""
"","html-keyboard-response","25","358167","0.0-6.0-0.0-0.19","bo98z23204","one_one","1","direct_first","1","el04ns02","0","24","1","1","3","1","","0","1","0","null","","","<div class = 'row'><div class = 'column'><img src = 'uspos/5831.bmp' width = '100%;'></div><div class = 'column'><img src = 'category1/CS3.png' width = '70%;'></div></div>","null","pos","CS","CS","1","category1/CS3.png","","","","",""
"","survey-html-form","26","361352","0.0-6.0-1.0","bo98z23204","one_one","1","direct_first","1","el04ns02","0","24","1","1","3","1","","0","1","0","2679","","{}","","","","","","","","","","","",""
"","html-keyboard-response","27","365372","0.0-6.0-2.0-0.0","bo98z23204","one_one","1","direct_first","1","el04ns02","0","24","1","1","3","1","","0","1","0","null","","","<div class = 'row'><div class = 'column'><img src = 'uspos/4625.bmp' width = '100%;'></div><div class = 'column'><img src = 'category2/CS5.png' width = '70%;'></div></div>","null","pos","CS","CS","2","category2/CS5.png","","","","",""
"","html-keyboard-response","28","367890","0.0-6.0-2.0-0.1","bo98z23204","one_one","1","direct_first","1","el04ns02","0","24","1","1","3","1","","0","1","0","null","","","<div class = 'row'><div class = 'column'><img src = 'usneg/9404.bmp' width = '100%;'></div><div class = 'column'><img src = 'category3/CS5.png' width = '70%;'></div></div>","null","neg","CS","CS","3","category3/CS5.png","","","","",""
"","html-keyboard-response","29","370408","0.0-6.0-2.0-0.2","bo98z23204","one_one","1","direct_first","1","el04ns02","0","24","1","1","3","1","","0","1","0","null","","","<div class = 'row'><div class = 'column'><img src = 'uspos/5831.bmp' width = '100%;'></div><div class = 'column'><img src = 'category1/CS3.png' width = '70%;'></div></div>","null","pos","CS","CS","1","category1/CS3.png","","","","",""
"","html-keyboard-response","30","372933","0.0-6.0-2.0-0.3","bo98z23204","one_one","1","direct_first","1","el04ns02","0","24","1","1","3","1","","0","1","0","null","","","<div class = 'row'><div class = 'column'><img src = 'usneg/6570.1.bmp' width = '100%;'></div><div class = 'column'><img src = 'category4/CS3.png' width = '70%;'></div></div>","null","neg","CS","CS","4","category4/CS3.png","","","","",""
"","html-keyboard-response","31","375457","0.0-6.0-2.0-0.4","bo98z23204","one_one","1","direct_first","1","el04ns02","0","24","1","1","3","1","","0","1","0","null","","","<div class = 'row'><div class = 'column'><img src = 'uspos/4625.bmp' width = '100%;'></div><div class = 'column'><img src = 'category2/CS5.png' width = '70%;'></div></div>","null","pos","CS","CS","2","category2/CS5.png","","","","",""
"","html-keyboard-response","32","377977","0.0-6.0-2.0-0.5","bo98z23204","one_one","1","direct_first","1","el04ns02","0","24","1","1","3","1","","0","1","0","null","","","<div class = 'row'><div class = 'column'><img src = 'usneg/9404.bmp' width = '100%;'></div><div class = 'column'><img src = 'category3/CS5.png' width = '70%;'></div></div>","null","neg","CS","CS","3","category3/CS5.png","","","","",""
"","html-keyboard-response","33","380490","0.0-6.0-2.0-0.6","bo98z23204","one_one","1","direct_first","1","el04ns02","0","24","1","1","3","1","","0","1","0","null","","","<div class = 'row'><div class = 'column'><img src = 'category1/CS3.png' width = '70%;'></div><div class = 'column'><img src = 'uspos/5831.bmp' width = '100%;'></div></div>","null","pos","CS","CS","1","category1/CS3.png","","","","",""
"","html-keyboard-response","34","382997","0.0-6.0-2.0-0.7","bo98z23204","one_one","1","direct_first","1","el04ns02","0","24","1","1","3","1","","0","1","0","null","","","<div class = 'row'><div class = 'column'><img src = 'usneg/9404.bmp' width = '100%;'></div><div class = 'column'><img src = 'category3/CS5.png' width = '70%;'></div></div>","null","neg","CS","CS","3","category3/CS5.png","","","","",""
"","html-keyboard-response","35","385513","0.0-6.0-2.0-0.8","bo98z23204","one_one","1","direct_first","1","el04ns02","0","24","1","1","3","1","","0","1","0","null","","","<div class = 'row'><div class = 'column'><img src = 'uspos/5831.bmp' width = '100%;'></div><div class = 'column'><img src = 'category1/CS3.png' width = '70%;'></div></div>","null","pos","CS","CS","1","category1/CS3.png","","","","",""
"","html-keyboard-response","36","388028","0.0-6.0-2.0-0.9","bo98z23204","one_one","1","direct_first","1","el04ns02","0","24","1","1","3","1","","0","1","0","null","","","<div class = 'row'><div class = 'column'><img src = 'usneg/6570.1.bmp' width = '100%;'></div><div class = 'column'><img src = 'category4/CS3.png' width = '70%;'></div></div>","null","neg","CS","CS","4","category4/CS3.png","","","","",""
"","html-keyboard-response","37","390551","0.0-6.0-2.0-0.10","bo98z23204","one_one","1","direct_first","1","el04ns02","0","24","1","1","3","1","","0","1","0","null","","","<div class = 'row'><div class = 'column'><img src = 'usneg/9404.bmp' width = '100%;'></div><div class = 'column'><img src = 'category3/CS5.png' width = '70%;'></div></div>","null","neg","CS","CS","3","category3/CS5.png","","","","",""
"","html-keyboard-response","38","393078","0.0-6.0-2.0-0.11","bo98z23204","one_one","1","direct_first","1","el04ns02","0","24","1","1","3","1","","0","1","0","null","","","<div class = 'row'><div class = 'column'><img src = 'uspos/4625.bmp' width = '100%;'></div><div class = 'column'><img src = 'category2/CS5.png' width = '70%;'></div></div>","null","pos","CS","CS","2","category2/CS5.png","","","","",""
"","html-keyboard-response","39","395583","0.0-6.0-2.0-0.12","bo98z23204","one_one","1","direct_first","1","el04ns02","0","24","1","1","3","1","","0","1","0","null","","","<div class = 'row'><div class = 'column'><img src = 'category4/CS3.png' width = '70%;'></div><div class = 'column'><img src = 'usneg/6570.1.bmp' width = '100%;'></div></div>","null","neg","CS","CS","4","category4/CS3.png","","","","",""
"","html-keyboard-response","40","398102","0.0-6.0-2.0-0.13","bo98z23204","one_one","1","direct_first","1","el04ns02","0","24","1","1","3","1","","0","1","0","null","","","<div class = 'row'><div class = 'column'><img src = 'category2/CS5.png' width = '70%;'></div><div class = 'column'><img src = 'uspos/4625.bmp' width = '100%;'></div></div>","null","pos","CS","CS","2","category2/CS5.png","","","","",""
"","html-keyboard-response","41","400617","0.0-6.0-2.0-0.14","bo98z23204","one_one","1","direct_first","1","el04ns02","0","24","1","1","3","1","","0","1","0","null","","","<div class = 'row'><div class = 'column'><img src = 'uspos/5831.bmp' width = '100%;'></div><div class = 'column'><img src = 'category1/CS3.png' width = '70%;'></div></div>","null","pos","CS","CS","1","category1/CS3.png","","","","",""
"","html-keyboard-response","42","403138","0.0-6.0-2.0-0.15","bo98z23204","one_one","1","direct_first","1","el04ns02","0","24","1","1","3","1","","0","1","0","null","","","<div class = 'row'><div class = 'column'><img src = 'usneg/6570.1.bmp' width = '100%;'></div><div class = 'column'><img src = 'category4/CS3.png' width = '70%;'></div></div>","null","neg","CS","CS","4","category4/CS3.png","","","","",""
"","html-keyboard-response","43","405661","0.0-6.0-2.0-0.16","bo98z23204","one_one","1","direct_first","1","el04ns02","0","24","1","1","3","1","","0","1","0","null","","","<div class = 'row'><div class = 'column'><img src = 'category3/CS5.png' width = '70%;'></div><div class = 'column'><img src = 'usneg/9404.bmp' width = '100%;'></div></div>","null","neg","CS","CS","3","category3/CS5.png","","","","",""
"","html-keyboard-response","44","408172","0.0-6.0-2.0-0.17","bo98z23204","one_one","1","direct_first","1","el04ns02","0","24","1","1","3","1","","0","1","0","null","","","<div class = 'row'><div class = 'column'><img src = 'uspos/4625.bmp' width = '100%;'></div><div class = 'column'><img src = 'category2/CS5.png' width = '70%;'></div></div>","null","pos","CS","CS","2","category2/CS5.png","","","","",""
"","html-keyboard-response","45","410700","0.0-6.0-2.0-0.18","bo98z23204","one_one","1","direct_first","1","el04ns02","0","24","1","1","3","1","","0","1","0","null","","","<div class = 'row'><div class = 'column'><img src = 'usneg/6570.1.bmp' width = '100%;'></div><div class = 'column'><img src = 'category4/CS3.png' width = '70%;'></div></div>","null","neg","CS","CS","4","category4/CS3.png","","","","",""
"","html-keyboard-response","46","413221","0.0-6.0-2.0-0.19","bo98z23204","one_one","1","direct_first","1","el04ns02","0","24","1","1","3","1","","0","1","0","null","","","<div class = 'row'><div class = 'column'><img src = 'category1/CS3.png' width = '70%;'></div><div class = 'column'><img src = 'uspos/5831.bmp' width = '100%;'></div></div>","null","pos","CS","CS","1","category1/CS3.png","","","","",""
"","survey-html-form","47","417682","0.0-6.0-3.0","bo98z23204","one_one","1","direct_first","1","el04ns02","0","24","1","1","3","1","","0","1","0","3950","","{}","","","","","","","","","","","",""
"","html-keyboard-response","48","421703","0.0-6.0-4.0-0.0","bo98z23204","one_one","1","direct_first","1","el04ns02","0","24","1","1","3","1","","0","1","0","null","","","<div class = 'row'><div class = 'column'><img src = 'usneg/6570.1.bmp' width = '100%;'></div><div class = 'column'><img src = 'category4/CS3.png' width = '70%;'></div></div>","null","neg","CS","CS","4","category4/CS3.png","","","","",""
"","html-keyboard-response","49","424227","0.0-6.0-4.0-0.1","bo98z23204","one_one","1","direct_first","1","el04ns02","0","24","1","1","3","1","","0","1","0","null","","","<div class = 'row'><div class = 'column'><img src = 'category3/CS5.png' width = '70%;'></div><div class = 'column'><img src = 'usneg/9404.bmp' width = '100%;'></div></div>","null","neg","CS","CS","3","category3/CS5.png","","","","",""
"","html-keyboard-response","50","426738","0.0-6.0-4.0-0.2","bo98z23204","one_one","1","direct_first","1","el04ns02","0","24","1","1","3","1","","0","1","0","null","","","<div class = 'row'><div class = 'column'><img src = 'uspos/5831.bmp' width = '100%;'></div><div class = 'column'><img src = 'category1/CS3.png' width = '70%;'></div></div>","null","pos","CS","CS","1","category1/CS3.png","","","","",""
"","html-keyboard-response","51","429247","0.0-6.0-4.0-0.3","bo98z23204","one_one","1","direct_first","1","el04ns02","0","24","1","1","3","1","","0","1","0","null","","","<div class = 'row'><div class = 'column'><img src = 'usneg/6570.1.bmp' width = '100%;'></div><div class = 'column'><img src = 'category4/CS3.png' width = '70%;'></div></div>","null","neg","CS","CS","4","category4/CS3.png","","","","",""
"","html-keyboard-response","52","431777","0.0-6.0-4.0-0.4","bo98z23204","one_one","1","direct_first","1","el04ns02","0","24","1","1","3","1","","0","1","0","null","","","<div class = 'row'><div class = 'column'><img src = 'category1/CS3.png' width = '70%;'></div><div class = 'column'><img src = 'uspos/5831.bmp' width = '100%;'></div></div>","null","pos","CS","CS","1","category1/CS3.png","","","","",""
"","html-keyboard-response","53","434291","0.0-6.0-4.0-0.5","bo98z23204","one_one","1","direct_first","1","el04ns02","0","24","1","1","3","1","","0","1","0","null","","","<div class = 'row'><div class = 'column'><img src = 'category2/CS5.png' width = '70%;'></div><div class = 'column'><img src = 'uspos/4625.bmp' width = '100%;'></div></div>","null","pos","CS","CS","2","category2/CS5.png","","","","",""
"","html-keyboard-response","54","436812","0.0-6.0-4.0-0.6","bo98z23204","one_one","1","direct_first","1","el04ns02","0","24","1","1","3","1","","0","1","0","null","","","<div class = 'row'><div class = 'column'><img src = 'category3/CS5.png' width = '70%;'></div><div class = 'column'><img src = 'usneg/9404.bmp' width = '100%;'></div></div>","null","neg","CS","CS","3","category3/CS5.png","","","","",""
"","html-keyboard-response","55","439317","0.0-6.0-4.0-0.7","bo98z23204","one_one","1","direct_first","1","el04ns02","0","24","1","1","3","1","","0","1","0","null","","","<div class = 'row'><div class = 'column'><img src = 'usneg/6570.1.bmp' width = '100%;'></div><div class = 'column'><img src = 'category4/CS3.png' width = '70%;'></div></div>","null","neg","CS","CS","4","category4/CS3.png","","","","",""
"","html-keyboard-response","56","441833","0.0-6.0-4.0-0.8","bo98z23204","one_one","1","direct_first","1","el04ns02","0","24","1","1","3","1","","0","1","0","null","","","<div class = 'row'><div class = 'column'><img src = 'category3/CS5.png' width = '70%;'></div><div class = 'column'><img src = 'usneg/9404.bmp' width = '100%;'></div></div>","null","neg","CS","CS","3","category3/CS5.png","","","","",""
"","html-keyboard-response","57","444353","0.0-6.0-4.0-0.9","bo98z23204","one_one","1","direct_first","1","el04ns02","0","24","1","1","3","1","","0","1","0","null","","","<div class = 'row'><div class = 'column'><img src = 'uspos/4625.bmp' width = '100%;'></div><div class = 'column'><img src = 'category2/CS5.png' width = '70%;'></div></div>","null","pos","CS","CS","2","category2/CS5.png","","","","",""
"","html-keyboard-response","58","446861","0.0-6.0-4.0-0.10","bo98z23204","one_one","1","direct_first","1","el04ns02","0","24","1","1","3","1","","0","1","0","null","","","<div class = 'row'><div class = 'column'><img src = 'usneg/9404.bmp' width = '100%;'></div><div class = 'column'><img src = 'category3/CS5.png' width = '70%;'></div></div>","null","neg","CS","CS","3","category3/CS5.png","","","","",""
"","html-keyboard-response","59","449387","0.0-6.0-4.0-0.11","bo98z23204","one_one","1","direct_first","1","el04ns02","0","24","1","1","3","1","","0","1","0","null","","","<div class = 'row'><div class = 'column'><img src = 'uspos/5831.bmp' width = '100%;'></div><div class = 'column'><img src = 'category1/CS3.png' width = '70%;'></div></div>","null","pos","CS","CS","1","category1/CS3.png","","","","",""
"","html-keyboard-response","60","451903","0.0-6.0-4.0-0.12","bo98z23204","one_one","1","direct_first","1","el04ns02","0","24","1","1","3","1","","0","1","0","null","","","<div class = 'row'><div class = 'column'><img src = 'category4/CS3.png' width = '70%;'></div><div class = 'column'><img src = 'usneg/6570.1.bmp' width = '100%;'></div></div>","null","neg","CS","CS","4","category4/CS3.png","","","","",""
"","html-keyboard-response","61","454413","0.0-6.0-4.0-0.13","bo98z23204","one_one","1","direct_first","1","el04ns02","0","24","1","1","3","1","","0","1","0","null","","","<div class = 'row'><div class = 'column'><img src = 'category2/CS5.png' width = '70%;'></div><div class = 'column'><img src = 'uspos/4625.bmp' width = '100%;'></div></div>","null","pos","CS","CS","2","category2/CS5.png","","","","",""
"","html-keyboard-response","62","456943","0.0-6.0-4.0-0.14","bo98z23204","one_one","1","direct_first","1","el04ns02","0","24","1","1","3","1","","0","1","0","null","","","<div class = 'row'><div class = 'column'><img src = 'usneg/6570.1.bmp' width = '100%;'></div><div class = 'column'><img src = 'category4/CS3.png' width = '70%;'></div></div>","null","neg","CS","CS","4","category4/CS3.png","","","","",""
"","html-keyboard-response","63","459450","0.0-6.0-4.0-0.15","bo98z23204","one_one","1","direct_first","1","el04ns02","0","24","1","1","3","1","","0","1","0","null","","","<div class = 'row'><div class = 'column'><img src = 'category1/CS3.png' width = '70%;'></div><div class = 'column'><img src = 'uspos/5831.bmp' width = '100%;'></div></div>","null","pos","CS","CS","1","category1/CS3.png","","","","",""
"","html-keyboard-response","64","461968","0.0-6.0-4.0-0.16","bo98z23204","one_one","1","direct_first","1","el04ns02","0","24","1","1","3","1","","0","1","0","null","","","<div class = 'row'><div class = 'column'><img src = 'category2/CS5.png' width = '70%;'></div><div class = 'column'><img src = 'uspos/4625.bmp' width = '100%;'></div></div>","null","pos","CS","CS","2","category2/CS5.png","","","","",""
"","html-keyboard-response","65","464497","0.0-6.0-4.0-0.17","bo98z23204","one_one","1","direct_first","1","el04ns02","0","24","1","1","3","1","","0","1","0","null","","","<div class = 'row'><div class = 'column'><img src = 'usneg/9404.bmp' width = '100%;'></div><div class = 'column'><img src = 'category3/CS5.png' width = '70%;'></div></div>","null","neg","CS","CS","3","category3/CS5.png","","","","",""
"","html-keyboard-response","66","467024","0.0-6.0-4.0-0.18","bo98z23204","one_one","1","direct_first","1","el04ns02","0","24","1","1","3","1","","0","1","0","null","","","<div class = 'row'><div class = 'column'><img src = 'category2/CS5.png' width = '70%;'></div><div class = 'column'><img src = 'uspos/4625.bmp' width = '100%;'></div></div>","null","pos","CS","CS","2","category2/CS5.png","","","","",""
"","html-keyboard-response","67","469547","0.0-6.0-4.0-0.19","bo98z23204","one_one","1","direct_first","1","el04ns02","0","24","1","1","3","1","","0","1","0","null","","","<div class = 'row'><div class = 'column'><img src = 'uspos/5831.bmp' width = '100%;'></div><div class = 'column'><img src = 'category1/CS3.png' width = '70%;'></div></div>","null","pos","CS","CS","1","category1/CS3.png","","","","",""
"","survey-html-form","68","476488","0.0-6.0-5.0","bo98z23204","one_one","1","direct_first","1","el04ns02","0","24","1","1","3","1","","0","1","0","6429","","{}","","","","","","","","","","","",""
"","html-keyboard-response","69","480513","0.0-6.0-6.0-0.0","bo98z23204","one_one","1","direct_first","1","el04ns02","0","24","1","1","3","1","","0","1","0","null","","","<div class = 'row'><div class = 'column'><img src = 'category2/CS5.png' width = '70%;'></div><div class = 'column'><img src = 'uspos/4625.bmp' width = '100%;'></div></div>","null","pos","CS","CS","2","category2/CS5.png","","","","",""
"","html-keyboard-response","70","483026","0.0-6.0-6.0-0.1","bo98z23204","one_one","1","direct_first","1","el04ns02","0","24","1","1","3","1","","0","1","0","null","","","<div class = 'row'><div class = 'column'><img src = 'usneg/9404.bmp' width = '100%;'></div><div class = 'column'><img src = 'category3/CS5.png' width = '70%;'></div></div>","null","neg","CS","CS","3","category3/CS5.png","","","","",""
"","html-keyboard-response","71","485542","0.0-6.0-6.0-0.2","bo98z23204","one_one","1","direct_first","1","el04ns02","0","24","1","1","3","1","","0","1","0","null","","","<div class = 'row'><div class = 'column'><img src = 'category4/CS3.png' width = '70%;'></div><div class = 'column'><img src = 'usneg/6570.1.bmp' width = '100%;'></div></div>","null","neg","CS","CS","4","category4/CS3.png","","","","",""
"","html-keyboard-response","72","488056","0.0-6.0-6.0-0.3","bo98z23204","one_one","1","direct_first","1","el04ns02","0","24","1","1","3","1","","0","1","0","null","","","<div class = 'row'><div class = 'column'><img src = 'category3/CS5.png' width = '70%;'></div><div class = 'column'><img src = 'usneg/9404.bmp' width = '100%;'></div></div>","null","neg","CS","CS","3","category3/CS5.png","","","","",""
"","html-keyboard-response","73","490572","0.0-6.0-6.0-0.4","bo98z23204","one_one","1","direct_first","1","el04ns02","0","24","1","1","3","1","","0","1","0","null","","","<div class = 'row'><div class = 'column'><img src = 'category1/CS3.png' width = '70%;'></div><div class = 'column'><img src = 'uspos/5831.bmp' width = '100%;'></div></div>","null","pos","CS","CS","1","category1/CS3.png","","","","",""
"","html-keyboard-response","74","493099","0.0-6.0-6.0-0.5","bo98z23204","one_one","1","direct_first","1","el04ns02","0","24","1","1","3","1","","0","1","0","null","","","<div class = 'row'><div class = 'column'><img src = 'usneg/6570.1.bmp' width = '100%;'></div><div class = 'column'><img src = 'category4/CS3.png' width = '70%;'></div></div>","null","neg","CS","CS","4","category4/CS3.png","","","","",""
"","html-keyboard-response","75","495624","0.0-6.0-6.0-0.6","bo98z23204","one_one","1","direct_first","1","el04ns02","0","24","1","1","3","1","","0","1","0","null","","","<div class = 'row'><div class = 'column'><img src = 'uspos/4625.bmp' width = '100%;'></div><div class = 'column'><img src = 'category2/CS5.png' width = '70%;'></div></div>","null","pos","CS","CS","2","category2/CS5.png","","","","",""
"","html-keyboard-response","76","498148","0.0-6.0-6.0-0.7","bo98z23204","one_one","1","direct_first","1","el04ns02","0","24","1","1","3","1","","0","1","0","null","","","<div class = 'row'><div class = 'column'><img src = 'usneg/9404.bmp' width = '100%;'></div><div class = 'column'><img src = 'category3/CS5.png' width = '70%;'></div></div>","null","neg","CS","CS","3","category3/CS5.png","","","","",""
"","html-keyboard-response","77","500665","0.0-6.0-6.0-0.8","bo98z23204","one_one","1","direct_first","1","el04ns02","0","24","1","1","3","1","","0","1","0","null","","","<div class = 'row'><div class = 'column'><img src = 'uspos/5831.bmp' width = '100%;'></div><div class = 'column'><img src = 'category1/CS3.png' width = '70%;'></div></div>","null","pos","CS","CS","1","category1/CS3.png","","","","",""
"","html-keyboard-response","78","503183","0.0-6.0-6.0-0.9","bo98z23204","one_one","1","direct_first","1","el04ns02","0","24","1","1","3","1","","0","1","0","null","","","<div class = 'row'><div class = 'column'><img src = 'category3/CS5.png' width = '70%;'></div><div class = 'column'><img src = 'usneg/9404.bmp' width = '100%;'></div></div>","null","neg","CS","CS","3","category3/CS5.png","","","","",""
"","html-keyboard-response","79","505713","0.0-6.0-6.0-0.10","bo98z23204","one_one","1","direct_first","1","el04ns02","0","24","1","1","3","1","","0","1","0","null","","","<div class = 'row'><div class = 'column'><img src = 'uspos/5831.bmp' width = '100%;'></div><div class = 'column'><img src = 'category1/CS3.png' width = '70%;'></div></div>","null","pos","CS","CS","1","category1/CS3.png","","","","",""
"","html-keyboard-response","80","508236","0.0-6.0-6.0-0.11","bo98z23204","one_one","1","direct_first","1","el04ns02","0","24","1","1","3","1","","0","1","0","null","","","<div class = 'row'><div class = 'column'><img src = 'category2/CS5.png' width = '70%;'></div><div class = 'column'><img src = 'uspos/4625.bmp' width = '100%;'></div></div>","null","pos","CS","CS","2","category2/CS5.png","","","","",""
"","html-keyboard-response","81","510757","0.0-6.0-6.0-0.12","bo98z23204","one_one","1","direct_first","1","el04ns02","0","24","1","1","3","1","","0","1","0","null","","","<div class = 'row'><div class = 'column'><img src = 'category4/CS3.png' width = '70%;'></div><div class = 'column'><img src = 'usneg/6570.1.bmp' width = '100%;'></div></div>","null","neg","CS","CS","4","category4/CS3.png","","","","",""
"","html-keyboard-response","82","513282","0.0-6.0-6.0-0.13","bo98z23204","one_one","1","direct_first","1","el04ns02","0","24","1","1","3","1","","0","1","0","null","","","<div class = 'row'><div class = 'column'><img src = 'category2/CS5.png' width = '70%;'></div><div class = 'column'><img src = 'uspos/4625.bmp' width = '100%;'></div></div>","null","pos","CS","CS","2","category2/CS5.png","","","","",""
"","html-keyboard-response","83","515796","0.0-6.0-6.0-0.14","bo98z23204","one_one","1","direct_first","1","el04ns02","0","24","1","1","3","1","","0","1","0","null","","","<div class = 'row'><div class = 'column'><img src = 'usneg/6570.1.bmp' width = '100%;'></div><div class = 'column'><img src = 'category4/CS3.png' width = '70%;'></div></div>","null","neg","CS","CS","4","category4/CS3.png","","","","",""
"","html-keyboard-response","84","518309","0.0-6.0-6.0-0.15","bo98z23204","one_one","1","direct_first","1","el04ns02","0","24","1","1","3","1","","0","1","0","null","","","<div class = 'row'><div class = 'column'><img src = 'category2/CS5.png' width = '70%;'></div><div class = 'column'><img src = 'uspos/4625.bmp' width = '100%;'></div></div>","null","pos","CS","CS","2","category2/CS5.png","","","","",""
"","html-keyboard-response","85","520832","0.0-6.0-6.0-0.16","bo98z23204","one_one","1","direct_first","1","el04ns02","0","24","1","1","3","1","","0","1","0","null","","","<div class = 'row'><div class = 'column'><img src = 'category3/CS5.png' width = '70%;'></div><div class = 'column'><img src = 'usneg/9404.bmp' width = '100%;'></div></div>","null","neg","CS","CS","3","category3/CS5.png","","","","",""
"","html-keyboard-response","86","523348","0.0-6.0-6.0-0.17","bo98z23204","one_one","1","direct_first","1","el04ns02","0","24","1","1","3","1","","0","1","0","null","","","<div class = 'row'><div class = 'column'><img src = 'category1/CS3.png' width = '70%;'></div><div class = 'column'><img src = 'uspos/5831.bmp' width = '100%;'></div></div>","null","pos","CS","CS","1","category1/CS3.png","","","","",""
"","html-keyboard-response","87","525868","0.0-6.0-6.0-0.18","bo98z23204","one_one","1","direct_first","1","el04ns02","0","24","1","1","3","1","","0","1","0","null","","","<div class = 'row'><div class = 'column'><img src = 'usneg/6570.1.bmp' width = '100%;'></div><div class = 'column'><img src = 'category4/CS3.png' width = '70%;'></div></div>","null","neg","CS","CS","4","category4/CS3.png","","","","",""
"","html-keyboard-response","88","528397","0.0-6.0-6.0-0.19","bo98z23204","one_one","1","direct_first","1","el04ns02","0","24","1","1","3","1","","0","1","0","null","","","<div class = 'row'><div class = 'column'><img src = 'category1/CS3.png' width = '70%;'></div><div class = 'column'><img src = 'uspos/5831.bmp' width = '100%;'></div></div>","null","pos","CS","CS","1","category1/CS3.png","","","","",""
"","survey-html-form","89","538868","0.0-7.0","bo98z23204","one_one","1","direct_first","1","el04ns02","0","24","1","1","3","1","","0","1","0","9957","","{}","","","","","","","","","","","",""
"","image-slider-response","90","549621","0.0-8.0-0.0","bo98z23204","one_one","1","direct_first","1","el04ns02","0","24","1","1","3","1","","0","1","0","8725","","","","","neg","GS","GSnew","4","category4/GS2.png","-45","targets/27.png","direct","",""
"","image-slider-response","91","560096","0.0-8.0-0.1","bo98z23204","one_one","1","direct_first","1","el04ns02","0","24","1","1","3","1","","0","1","0","10468","","","","","pos","GS","GSnew","1","category1/GS3.png","-3","targets/6.png","direct","",""
"","image-slider-response","92","566706","0.0-8.0-0.2","bo98z23204","one_one","1","direct_first","1","el04ns02","0","24","1","1","3","1","","0","1","0","6601","","","","","pos","GS","abstract","2","category2/men.png","43","targets/37.png","direct","",""
"","image-slider-response","93","573292","0.0-8.0-0.3","bo98z23204","one_one","1","direct_first","1","el04ns02","0","24","1","1","3","1","","0","1","0","6579","","","","","neg","GS","GSold","3","category3/CS9.png","-26","targets/38.png","direct","",""
"","image-slider-response","94","580733","0.0-8.0-0.4","bo98z23204","one_one","1","direct_first","1","el04ns02","0","24","1","1","3","1","","0","1","0","7436","","","","","neg","GS","GSold","3","category3/CS6.png","-48","targets/26.png","direct","",""
"","image-slider-response","95","590462","0.0-8.0-0.5","bo98z23204","one_one","1","direct_first","1","el04ns02","0","24","1","1","3","1","","0","1","0","9721","","","","","pos","GS","abstract","1","category1/ma.png","1","targets/41.png","direct","",""
"","image-slider-response","96","597923","0.0-8.0-0.6","bo98z23204","one_one","1","direct_first","1","el04ns02","0","24","1","1","3","1","","0","1","0","7453","","","","","neg","GS","GSold","3","category3/CS1.png","-1","targets/20.png","direct","",""
"","image-slider-response","97","603753","0.0-8.0-0.7","bo98z23204","one_one","1","direct_first","1","el04ns02","0","24","1","1","3","1","","0","1","0","5819","","","","","neg","GS","abstract","4","category4/lin.png","31","targets/42.png","direct","",""
"","image-slider-response","98","608227","0.0-8.0-0.8","bo98z23204","one_one","1","direct_first","1","el04ns02","0","24","1","1","3","1","","0","1","0","4468","","","","","pos","GS","GSnew","2","category2/GS2.png","38","targets/46.png","direct","",""
"","image-slider-response","99","617437","0.0-8.0-0.9","bo98z23204","one_one","1","direct_first","1","el04ns02","0","24","1","1","3","1","","0","1","0","9204","","","","","neg","GS","GSnew","4","category4/GS3.png","-19","targets/22.png","direct","",""
"","image-slider-response","100","623722","0.0-8.0-0.10","bo98z23204","one_one","1","direct_first","1","el04ns02","0","24","1","1","3","1","","0","1","0","6276","","","","","pos","GS","GSold","2","category2/CS1.png","24","targets/32.png","direct","",""
"","image-slider-response","101","630907","0.0-8.0-0.11","bo98z23204","one_one","1","direct_first","1","el04ns02","0","24","1","1","3","1","","0","1","0","7177","","","","","pos","GS","GSnew","1","category1/GS1.png","-2","targets/5.png","direct","",""
"","image-slider-response","102","637761","0.0-8.0-0.12","bo98z23204","one_one","1","direct_first","1","el04ns02","0","24","1","1","3","1","","0","1","0","6845","","","","","neg","CS","CS","4","category4/CS3.png","7","targets/48.png","direct","",""
"","image-slider-response","103","642411","0.0-8.0-0.13","bo98z23204","one_one","1","direct_first","1","el04ns02","0","24","1","1","3","1","","0","1","0","4642","","","","","pos","GS","GSold","2","category2/CS4.png","-5","targets/25.png","direct","",""
"","image-slider-response","104","647490","0.0-8.0-0.14","bo98z23204","one_one","1","direct_first","1","el04ns02","0","24","1","1","3","1","","0","1","0","5071","","","","","pos","GS","GSold","1","category1/CS8.png","-12","targets/16.png","direct","",""
"","image-slider-response","105","656878","0.0-8.0-0.15","bo98z23204","one_one","1","direct_first","1","el04ns02","0","24","1","1","3","1","","0","1","0","9386","","","","","pos","GS","GSnew","1","category1/GS2.png","0","targets/47.png","direct","",""
"","image-slider-response","106","663427","0.0-8.0-0.16","bo98z23204","one_one","1","direct_first","1","el04ns02","0","24","1","1","3","1","","0","1","0","6543","","","","","pos","GS","GSold","1","category1/CS2.png","-10","targets/17.png","direct","",""
"","image-slider-response","107","670379","0.0-8.0-0.17","bo98z23204","one_one","1","direct_first","1","el04ns02","0","24","1","1","3","1","","0","1","0","6946","","","","","neg","GS","GSnew","3","category3/GS3.png","-3","targets/9.png","direct","",""
"","image-slider-response","108","674023","0.0-8.0-0.18","bo98z23204","one_one","1","direct_first","1","el04ns02","0","24","1","1","3","1","","0","1","0","3638","","","","","neg","GS","GSold","4","category4/CS1.png","14","targets/29.png","direct","",""
"","image-slider-response","109","678055","0.0-8.0-0.19","bo98z23204","one_one","1","direct_first","1","el04ns02","0","24","1","1","3","1","","0","1","0","4024","","","","","pos","GS","GSnew","2","category2/GS3.png","21","targets/11.png","direct","",""
"","image-slider-response","110","684618","0.0-8.0-0.20","bo98z23204","one_one","1","direct_first","1","el04ns02","0","24","1","1","3","1","","0","1","0","6556","","","","","neg","GS","GSnew","3","category3/GS2.png","-27","targets/10.png","direct","",""
"","image-slider-response","111","688352","0.0-8.0-0.21","bo98z23204","one_one","1","direct_first","1","el04ns02","0","24","1","1","3","1","","0","1","0","3728","","","","","neg","CS","CS","3","category3/CS5.png","-8","targets/28.png","direct","",""
"","image-slider-response","112","691661","0.0-8.0-0.22","bo98z23204","one_one","1","direct_first","1","el04ns02","0","24","1","1","3","1","","0","1","0","3302","","","","","neg","GS","abstract","3","category3/wang.png","15","targets/18.png","direct","",""
"","image-slider-response","113","694982","0.0-8.0-0.23","bo98z23204","one_one","1","direct_first","1","el04ns02","0","24","1","1","3","1","","0","1","0","3315","","","","","neg","GS","GSnew","4","category4/GS1.png","20","targets/2.png","direct","",""
"","image-slider-response","114","701451","0.0-8.0-0.24","bo98z23204","one_one","1","direct_first","1","el04ns02","0","24","1","1","3","1","","0","1","0","6461","","","","","pos","CS","CS","2","category2/CS5.png","-7","targets/4.png","direct","",""
"","image-slider-response","115","706366","0.0-8.0-0.25","bo98z23204","one_one","1","direct_first","1","el04ns02","0","24","1","1","3","1","","0","1","0","4907","","","","","neg","GS","GSold","4","category4/CS6.png","4","targets/19.png","direct","",""
"","image-slider-response","116","709783","0.0-8.0-0.26","bo98z23204","one_one","1","direct_first","1","el04ns02","0","24","1","1","3","1","","0","1","0","3413","","","","","pos","GS","GSold","1","category1/CS4.png","-5","targets/36.png","direct","",""
"","image-slider-response","117","714022","0.0-8.0-0.27","bo98z23204","one_one","1","direct_first","1","el04ns02","0","24","1","1","3","1","","0","1","0","4233","","","","","pos","GS","GSold","2","category2/CS7.png","14","targets/45.png","direct","",""
"","image-slider-response","118","717416","0.0-8.0-0.28","bo98z23204","one_one","1","direct_first","1","el04ns02","0","24","1","1","3","1","","0","1","0","3385","","","","","pos","CS","CS","1","category1/CS3.png","-9","targets/1.png","direct","",""
"","image-slider-response","119","720847","0.0-8.0-0.29","bo98z23204","one_one","1","direct_first","1","el04ns02","0","24","1","1","3","1","","0","1","0","3426","","","","","neg","GS","GSnew","3","category3/GS1.png","-18","targets/40.png","direct","",""
"","image-slider-response","120","724039","0.0-8.0-0.30","bo98z23204","one_one","1","direct_first","1","el04ns02","0","24","1","1","3","1","","0","1","0","3185","","","","","pos","GS","GSnew","2","category2/GS1.png","-14","targets/23.png","direct","",""
"","image-slider-response","121","727523","0.0-8.0-0.31","bo98z23204","one_one","1","direct_first","1","el04ns02","0","24","1","1","3","1","","0","1","0","3478","","","","","neg","GS","GSold","4","category4/CS9.png","11","targets/14.png","direct","",""
"","html-keyboard-response","122","761832","0.0-9.0","bo98z23204","one_one","1","direct_first","1","el04ns02","0","24","1","1","3","1","","0","1","0","34306","","","<p>Sie sehen nun die chinesischen Zeichen nur ganz kurz. Danach sehen Sie die jeweilige Aussprache der Zeichen als Silbe auf dem Bildschrim. Ihre Aufgabe ist es, für jede Silbe anzugeben, ob diese etwas angenehmes, oder unangenehmes bedeuten könnte. Verlassen Sie sich hier vor allem auf Ihre Intuition.<br><br>Die Zeichen werden nur zur Orientierung dargestellt, beachten Sie sie deshalb nicht. Konzentrieren Sie sich vor allem auf die Silben. <br>Reagieren Sie mit folgenden zwei Tasten: <br><br><b>'D' </b> wenn die Silbe etwas <b>unangenehmes</b> bedeuten könnte. <br><b>'K'</b> wenn die Silbe etwas <b>angenehmes</b> bedeuten könnte. <br><br>Bitte legen Sie nun den Zeigefinger der linken Hand auf die Taste 'D' und den Zeigefinger der rechten Hand auf die Taste 'K'. <br>Reagieren Sie auf jede Silbe so schnell wie möglich. Uns interessiert Ihre spontane Reaktion. <br> <br> <br>Drücken Sie 'D' oder 'K', um die nächste Aufgabe zu starten. </p>","75","","","","","","","","","",""
"","html-keyboard-response","123","764843","0.0-10.0-0.0","bo98z23204","one_one","1","direct_first","1","el04ns02","0","24","1","1","3","1","","0","1","0","null","","","<div style=""font-size:60px;"">+</div>","null","","","","","","","","","",""
"","html-keyboard-response","124","764947","0.0-10.0-1.0","bo98z23204","one_one","1","direct_first","1","el04ns02","0","24","1","1","3","1","","0","1","0","null","","","<img src = 'category1/CS4.png' width = '100%;'>","null","","","","","","","","","",""
"","html-keyboard-response","125","765218","0.0-10.0-2.0","bo98z23204","one_one","1","direct_first","1","el04ns02","0","24","1","1","3","1","","0","1","0","null","","","<img src = 'targets/36.png' width = '100%;'>","null","","","","","","","","","",""
"","html-keyboard-response","126","767530","0.0-10.0-3.0","bo98z23204","one_one","1","direct_first","1","el04ns02","0","24","1","1","3","1","","0","1","0","2308","","","<img src = 'targets/mask.png' width = '100%;'>","75","pos","GS","GSold","1","category1/CS4.png","","targets/36.png","indirect","1","0"
"","html-keyboard-response","127","769043","0.0-10.0-0.1","bo98z23204","one_one","1","direct_first","1","el04ns02","0","24","1","1","3","1","","0","1","0","null","","","<div style=""font-size:60px;"">+</div>","null","","","","","","","","","",""
"","html-keyboard-response","128","769135","0.0-10.0-1.1","bo98z23204","one_one","1","direct_first","1","el04ns02","0","24","1","1","3","1","","0","1","0","null","","","<img src = 'category4/CS6.png' width = '100%;'>","null","","","","","","","","","",""
"","html-keyboard-response","129","769402","0.0-10.0-2.1","bo98z23204","one_one","1","direct_first","1","el04ns02","0","24","1","1","3","1","","0","1","0","null","","","<img src = 'targets/19.png' width = '100%;'>","null","","","","","","","","","",""
"","html-keyboard-response","130","773360","0.0-10.0-3.1","bo98z23204","one_one","1","direct_first","1","el04ns02","0","24","1","1","3","1","","0","1","0","3956","","","<img src = 'targets/mask.png' width = '100%;'>","75","neg","GS","GSold","4","category4/CS6.png","","targets/19.png","indirect","1","1"
"","html-keyboard-response","131","774882","0.0-10.0-0.2","bo98z23204","one_one","1","direct_first","1","el04ns02","0","24","1","1","3","1","","0","1","0","null","","","<div style=""font-size:60px;"">+</div>","null","","","","","","","","","",""
"","html-keyboard-response","132","774983","0.0-10.0-1.2","bo98z23204","one_one","1","direct_first","1","el04ns02","0","24","1","1","3","1","","0","1","0","null","","","<img src = 'category1/CS8.png' width = '100%;'>","null","","","","","","","","","",""
"","html-keyboard-response","133","775244","0.0-10.0-2.2","bo98z23204","one_one","1","direct_first","1","el04ns02","0","24","1","1","3","1","","0","1","0","null","","","<img src = 'targets/16.png' width = '100%;'>","null","","","","","","","","","",""
"","html-keyboard-response","134","777239","0.0-10.0-3.2","bo98z23204","one_one","1","direct_first","1","el04ns02","0","24","1","1","3","1","","0","1","0","1993","","","<img src = 'targets/mask.png' width = '100%;'>","75","pos","GS","GSold","1","category1/CS8.png","","targets/16.png","indirect","1","2"
"","html-keyboard-response","135","778763","0.0-10.0-0.3","bo98z23204","one_one","1","direct_first","1","el04ns02","0","24","1","1","3","1","","0","1","0","null","","","<div style=""font-size:60px;"">+</div>","null","","","","","","","","","",""
"","html-keyboard-response","136","778860","0.0-10.0-1.3","bo98z23204","one_one","1","direct_first","1","el04ns02","0","24","1","1","3","1","","0","1","0","null","","","<img src = 'category3/CS1.png' width = '100%;'>","null","","","","","","","","","",""
"","html-keyboard-response","137","779128","0.0-10.0-2.3","bo98z23204","one_one","1","direct_first","1","el04ns02","0","24","1","1","3","1","","0","1","0","null","","","<img src = 'targets/20.png' width = '100%;'>","null","","","","","","","","","",""
"","html-keyboard-response","138","779969","0.0-10.0-3.3","bo98z23204","one_one","1","direct_first","1","el04ns02","0","24","1","1","3","1","","0","1","0","839","","","<img src = 'targets/mask.png' width = '100%;'>","68","neg","GS","GSold","3","category3/CS1.png","","targets/20.png","indirect","0","3"
"","html-keyboard-response","139","781483","0.0-10.0-0.4","bo98z23204","one_one","1","direct_first","1","el04ns02","0","24","1","1","3","1","","0","1","0","null","","","<div style=""font-size:60px;"">+</div>","null","","","","","","","","","",""
"","html-keyboard-response","140","781583","0.0-10.0-1.4","bo98z23204","one_one","1","direct_first","1","el04ns02","0","24","1","1","3","1","","0","1","0","null","","","<img src = 'category2/CS5.png' width = '100%;'>","null","","","","","","","","","",""
"","html-keyboard-response","141","781848","0.0-10.0-2.4","bo98z23204","one_one","1","direct_first","1","el04ns02","0","24","1","1","3","1","","0","1","0","null","","","<img src = 'targets/4.png' width = '100%;'>","null","","","","","","","","","",""
"","html-keyboard-response","142","782870","0.0-10.0-3.4","bo98z23204","one_one","1","direct_first","1","el04ns02","0","24","1","1","3","1","","0","1","0","1021","","","<img src = 'targets/mask.png' width = '100%;'>","75","pos","CS","CS","2","category2/CS5.png","","targets/4.png","indirect","1","4"
"","html-keyboard-response","143","784391","0.0-10.0-0.5","bo98z23204","one_one","1","direct_first","1","el04ns02","0","24","1","1","3","1","","0","1","0","null","","","<div style=""font-size:60px;"">+</div>","null","","","","","","","","","",""
"","html-keyboard-response","144","784487","0.0-10.0-1.5","bo98z23204","one_one","1","direct_first","1","el04ns02","0","24","1","1","3","1","","0","1","0","null","","","<img src = 'category2/CS4.png' width = '100%;'>","null","","","","","","","","","",""
"","html-keyboard-response","145","784754","0.0-10.0-2.5","bo98z23204","one_one","1","direct_first","1","el04ns02","0","24","1","1","3","1","","0","1","0","null","","","<img src = 'targets/25.png' width = '100%;'>","null","","","","","","","","","",""
"","html-keyboard-response","146","785398","0.0-10.0-3.5","bo98z23204","one_one","1","direct_first","1","el04ns02","0","24","1","1","3","1","","0","1","0","643","","","<img src = 'targets/mask.png' width = '100%;'>","75","pos","GS","GSold","2","category2/CS4.png","","targets/25.png","indirect","1","5"
"","html-keyboard-response","147","786923","0.0-10.0-0.6","bo98z23204","one_one","1","direct_first","1","el04ns02","0","24","1","1","3","1","","0","1","0","null","","","<div style=""font-size:60px;"">+</div>","null","","","","","","","","","",""
"","html-keyboard-response","148","787021","0.0-10.0-1.6","bo98z23204","one_one","1","direct_first","1","el04ns02","0","24","1","1","3","1","","0","1","0","null","","","<img src = 'category1/CS2.png' width = '100%;'>","null","","","","","","","","","",""
"","html-keyboard-response","149","787277","0.0-10.0-2.6","bo98z23204","one_one","1","direct_first","1","el04ns02","0","24","1","1","3","1","","0","1","0","null","","","<img src = 'targets/17.png' width = '100%;'>","null","","","","","","","","","",""
"","html-keyboard-response","150","789022","0.0-10.0-3.6","bo98z23204","one_one","1","direct_first","1","el04ns02","0","24","1","1","3","1","","0","1","0","1742","","","<img src = 'targets/mask.png' width = '100%;'>","68","pos","GS","GSold","1","category1/CS2.png","","targets/17.png","indirect","0","6"
"","html-keyboard-response","151","790548","0.0-10.0-0.7","bo98z23204","one_one","1","direct_first","1","el04ns02","0","24","1","1","3","1","","0","1","0","null","","","<div style=""font-size:60px;"">+</div>","null","","","","","","","","","",""
"","html-keyboard-response","152","790643","0.0-10.0-1.7","bo98z23204","one_one","1","direct_first","1","el04ns02","0","24","1","1","3","1","","0","1","0","null","","","<img src = 'category4/CS1.png' width = '100%;'>","null","","","","","","","","","",""
"","html-keyboard-response","153","790917","0.0-10.0-2.7","bo98z23204","one_one","1","direct_first","1","el04ns02","0","24","1","1","3","1","","0","1","0","null","","","<img src = 'targets/29.png' width = '100%;'>","null","","","","","","","","","",""
"","html-keyboard-response","154","792598","0.0-10.0-3.7","bo98z23204","one_one","1","direct_first","1","el04ns02","0","24","1","1","3","1","","0","1","0","1678","","","<img src = 'targets/mask.png' width = '100%;'>","75","neg","GS","GSold","4","category4/CS1.png","","targets/29.png","indirect","1","7"
"","html-keyboard-response","155","794117","0.0-10.0-0.8","bo98z23204","one_one","1","direct_first","1","el04ns02","0","24","1","1","3","1","","0","1","0","null","","","<div style=""font-size:60px;"">+</div>","null","","","","","","","","","",""
"","html-keyboard-response","156","794214","0.0-10.0-1.8","bo98z23204","one_one","1","direct_first","1","el04ns02","0","24","1","1","3","1","","0","1","0","null","","","<img src = 'category2/CS1.png' width = '100%;'>","null","","","","","","","","","",""
"","html-keyboard-response","157","794482","0.0-10.0-2.8","bo98z23204","one_one","1","direct_first","1","el04ns02","0","24","1","1","3","1","","0","1","0","null","","","<img src = 'targets/32.png' width = '100%;'>","null","","","","","","","","","",""
"","html-keyboard-response","158","796885","0.0-10.0-3.8","bo98z23204","one_one","1","direct_first","1","el04ns02","0","24","1","1","3","1","","0","1","0","2401","","","<img src = 'targets/mask.png' width = '100%;'>","68","pos","GS","GSold","2","category2/CS1.png","","targets/32.png","indirect","0","8"
"","html-keyboard-response","159","798413","0.0-10.0-0.9","bo98z23204","one_one","1","direct_first","1","el04ns02","0","24","1","1","3","1","","0","1","0","null","","","<div style=""font-size:60px;"">+</div>","null","","","","","","","","","",""
"","html-keyboard-response","160","798508","0.0-10.0-1.9","bo98z23204","one_one","1","direct_first","1","el04ns02","0","24","1","1","3","1","","0","1","0","null","","","<img src = 'category3/CS9.png' width = '100%;'>","null","","","","","","","","","",""
"","html-keyboard-response","161","798781","0.0-10.0-2.9","bo98z23204","one_one","1","direct_first","1","el04ns02","0","24","1","1","3","1","","0","1","0","null","","","<img src = 'targets/38.png' width = '100%;'>","null","","","","","","","","","",""
"","html-keyboard-response","162","799838","0.0-10.0-3.9","bo98z23204","one_one","1","direct_first","1","el04ns02","0","24","1","1","3","1","","0","1","0","1055","","","<img src = 'targets/mask.png' width = '100%;'>","75","neg","GS","GSold","3","category3/CS9.png","","targets/38.png","indirect","1","9"
"","html-keyboard-response","163","801358","0.0-10.0-0.10","bo98z23204","one_one","1","direct_first","1","el04ns02","0","24","1","1","3","1","","0","1","0","null","","","<div style=""font-size:60px;"">+</div>","null","","","","","","","","","",""
"","html-keyboard-response","164","801453","0.0-10.0-1.10","bo98z23204","one_one","1","direct_first","1","el04ns02","0","24","1","1","3","1","","0","1","0","null","","","<img src = 'category2/CS7.png' width = '100%;'>","null","","","","","","","","","",""
"","html-keyboard-response","165","801708","0.0-10.0-2.10","bo98z23204","one_one","1","direct_first","1","el04ns02","0","24","1","1","3","1","","0","1","0","null","","","<img src = 'targets/45.png' width = '100%;'>","null","","","","","","","","","",""
"","html-keyboard-response","166","802920","0.0-10.0-3.10","bo98z23204","one_one","1","direct_first","1","el04ns02","0","24","1","1","3","1","","0","1","0","1211","","","<img src = 'targets/mask.png' width = '100%;'>","75","pos","GS","GSold","2","category2/CS7.png","","targets/45.png","indirect","1","10"
"","html-keyboard-response","167","804427","0.0-10.0-0.11","bo98z23204","one_one","1","direct_first","1","el04ns02","0","24","1","1","3","1","","0","1","0","null","","","<div style=""font-size:60px;"">+</div>","null","","","","","","","","","",""
"","html-keyboard-response","168","804528","0.0-10.0-1.11","bo98z23204","one_one","1","direct_first","1","el04ns02","0","24","1","1","3","1","","0","1","0","null","","","<img src = 'category4/CS9.png' width = '100%;'>","null","","","","","","","","","",""
"","html-keyboard-response","169","804808","0.0-10.0-2.11","bo98z23204","one_one","1","direct_first","1","el04ns02","0","24","1","1","3","1","","0","1","0","null","","","<img src = 'targets/14.png' width = '100%;'>","null","","","","","","","","","",""
"","html-keyboard-response","170","805637","0.0-10.0-3.11","bo98z23204","one_one","1","direct_first","1","el04ns02","0","24","1","1","3","1","","0","1","0","828","","","<img src = 'targets/mask.png' width = '100%;'>","68","neg","GS","GSold","4","category4/CS9.png","","targets/14.png","indirect","0","11"
"","html-keyboard-response","171","807150","0.0-10.0-0.12","bo98z23204","one_one","1","direct_first","1","el04ns02","0","24","1","1","3","1","","0","1","0","null","","","<div style=""font-size:60px;"">+</div>","null","","","","","","","","","",""
"","html-keyboard-response","172","807242","0.0-10.0-1.12","bo98z23204","one_one","1","direct_first","1","el04ns02","0","24","1","1","3","1","","0","1","0","null","","","<img src = 'category1/CS3.png' width = '100%;'>","null","","","","","","","","","",""
"","html-keyboard-response","173","807500","0.0-10.0-2.12","bo98z23204","one_one","1","direct_first","1","el04ns02","0","24","1","1","3","1","","0","1","0","null","","","<img src = 'targets/1.png' width = '100%;'>","null","","","","","","","","","",""
"","html-keyboard-response","174","808717","0.0-10.0-3.12","bo98z23204","one_one","1","direct_first","1","el04ns02","0","24","1","1","3","1","","0","1","0","1215","","","<img src = 'targets/mask.png' width = '100%;'>","68","pos","CS","CS","1","category1/CS3.png","","targets/1.png","indirect","0","12"
"","html-keyboard-response","175","810242","0.0-10.0-0.13","bo98z23204","one_one","1","direct_first","1","el04ns02","0","24","1","1","3","1","","0","1","0","null","","","<div style=""font-size:60px;"">+</div>","null","","","","","","","","","",""
"","html-keyboard-response","176","810343","0.0-10.0-1.13","bo98z23204","one_one","1","direct_first","1","el04ns02","0","24","1","1","3","1","","0","1","0","null","","","<img src = 'category3/CS6.png' width = '100%;'>","null","","","","","","","","","",""
"","html-keyboard-response","177","810608","0.0-10.0-2.13","bo98z23204","one_one","1","direct_first","1","el04ns02","0","24","1","1","3","1","","0","1","0","null","","","<img src = 'targets/26.png' width = '100%;'>","null","","","","","","","","","",""
"","html-keyboard-response","178","811441","0.0-10.0-3.13","bo98z23204","one_one","1","direct_first","1","el04ns02","0","24","1","1","3","1","","0","1","0","831","","","<img src = 'targets/mask.png' width = '100%;'>","68","neg","GS","GSold","3","category3/CS6.png","","targets/26.png","indirect","0","13"
"","html-keyboard-response","179","812955","0.0-10.0-0.14","bo98z23204","one_one","1","direct_first","1","el04ns02","0","24","1","1","3","1","","0","1","0","null","","","<div style=""font-size:60px;"">+</div>","null","","","","","","","","","",""
"","html-keyboard-response","180","813048","0.0-10.0-1.14","bo98z23204","one_one","1","direct_first","1","el04ns02","0","24","1","1","3","1","","0","1","0","null","","","<img src = 'category3/CS5.png' width = '100%;'>","null","","","","","","","","","",""
"","html-keyboard-response","181","813314","0.0-10.0-2.14","bo98z23204","one_one","1","direct_first","1","el04ns02","0","24","1","1","3","1","","0","1","0","null","","","<img src = 'targets/28.png' width = '100%;'>","null","","","","","","","","","",""
"","html-keyboard-response","182","814144","0.0-10.0-3.14","bo98z23204","one_one","1","direct_first","1","el04ns02","0","24","1","1","3","1","","0","1","0","827","","","<img src = 'targets/mask.png' width = '100%;'>","68","neg","CS","CS","3","category3/CS5.png","","targets/28.png","indirect","0","14"
"","html-keyboard-response","183","815670","0.0-10.0-0.15","bo98z23204","one_one","1","direct_first","1","el04ns02","0","24","1","1","3","1","","0","1","0","null","","","<div style=""font-size:60px;"">+</div>","null","","","","","","","","","",""
"","html-keyboard-response","184","815770","0.0-10.0-1.15","bo98z23204","one_one","1","direct_first","1","el04ns02","0","24","1","1","3","1","","0","1","0","null","","","<img src = 'category4/CS3.png' width = '100%;'>","null","","","","","","","","","",""
"","html-keyboard-response","185","816032","0.0-10.0-2.15","bo98z23204","one_one","1","direct_first","1","el04ns02","0","24","1","1","3","1","","0","1","0","null","","","<img src = 'targets/48.png' width = '100%;'>","null","","","","","","","","","",""
"","html-keyboard-response","186","816903","0.0-10.0-3.15","bo98z23204","one_one","1","direct_first","1","el04ns02","0","24","1","1","3","1","","0","1","0","870","","","<img src = 'targets/mask.png' width = '100%;'>","75","neg","CS","CS","4","category4/CS3.png","","targets/48.png","indirect","1","15"
"","survey-html-form","187","819977","0.0-11.0","bo98z23204","one_one","1","direct_first","1","el04ns02","0","24","1","1","3","1","","0","1","0","2556","","{}","","","","","","","","","","","",""
"","html-keyboard-response","188","822989","0.0-12.0-0.0","bo98z23204","one_one","1","direct_first","1","el04ns02","0","24","1","1","3","1","","0","1","0","null","","","<div style=""font-size:60px;"">+</div>","null","","","","","","","","","",""
"","html-keyboard-response","189","823091","0.0-12.0-1.0","bo98z23204","one_one","1","direct_first","1","el04ns02","0","24","1","1","3","1","","0","1","0","null","","","<img src = 'category4/lin.png' width = '100%;'>","null","","","","","","","","","",""
"","html-keyboard-response","190","823357","0.0-12.0-2.0","bo98z23204","one_one","1","direct_first","1","el04ns02","0","24","1","1","3","1","","0","1","0","null","","","<img src = 'targets/42.png' width = '100%;'>","null","","","","","","","","","",""
"","html-keyboard-response","191","825475","0.0-12.0-3.0","bo98z23204","one_one","1","direct_first","1","el04ns02","0","24","1","1","3","1","","0","1","0","2115","","","<img src = 'targets/mask.png' width = '100%;'>","75","neg","GS","abstract","4","category4/lin.png","","targets/42.png","indirect","1","16"
"","html-keyboard-response","192","826988","0.0-12.0-0.1","bo98z23204","one_one","1","direct_first","1","el04ns02","0","24","1","1","3","1","","0","1","0","null","","","<div style=""font-size:60px;"">+</div>","null","","","","","","","","","",""
"","html-keyboard-response","193","827084","0.0-12.0-1.1","bo98z23204","one_one","1","direct_first","1","el04ns02","0","24","1","1","3","1","","0","1","0","null","","","<img src = 'category4/GS3.png' width = '100%;'>","null","","","","","","","","","",""
"","html-keyboard-response","194","827352","0.0-12.0-2.1","bo98z23204","one_one","1","direct_first","1","el04ns02","0","24","1","1","3","1","","0","1","0","null","","","<img src = 'targets/22.png' width = '100%;'>","null","","","","","","","","","",""
"","html-keyboard-response","195","828572","0.0-12.0-3.1","bo98z23204","one_one","1","direct_first","1","el04ns02","0","24","1","1","3","1","","0","1","0","1218","","","<img src = 'targets/mask.png' width = '100%;'>","75","neg","GS","GSnew","4","category4/GS3.png","","targets/22.png","indirect","1","17"
"","html-keyboard-response","196","830097","0.0-12.0-0.2","bo98z23204","one_one","1","direct_first","1","el04ns02","0","24","1","1","3","1","","0","1","0","null","","","<div style=""font-size:60px;"">+</div>","null","","","","","","","","","",""
"","html-keyboard-response","197","830198","0.0-12.0-1.2","bo98z23204","one_one","1","direct_first","1","el04ns02","0","24","1","1","3","1","","0","1","0","null","","","<img src = 'category2/GS3.png' width = '100%;'>","null","","","","","","","","","",""
"","html-keyboard-response","198","830453","0.0-12.0-2.2","bo98z23204","one_one","1","direct_first","1","el04ns02","0","24","1","1","3","1","","0","1","0","null","","","<img src = 'targets/11.png' width = '100%;'>","null","","","","","","","","","",""
"","html-keyboard-response","199","831184","0.0-12.0-3.2","bo98z23204","one_one","1","direct_first","1","el04ns02","0","24","1","1","3","1","","0","1","0","729","","","<img src = 'targets/mask.png' width = '100%;'>","75","pos","GS","GSnew","2","category2/GS3.png","","targets/11.png","indirect","1","18"
"","html-keyboard-response","200","832710","0.0-12.0-0.3","bo98z23204","one_one","1","direct_first","1","el04ns02","0","24","1","1","3","1","","0","1","0","null","","","<div style=""font-size:60px;"">+</div>","null","","","","","","","","","",""
"","html-keyboard-response","201","832810","0.0-12.0-1.3","bo98z23204","one_one","1","direct_first","1","el04ns02","0","24","1","1","3","1","","0","1","0","null","","","<img src = 'category2/men.png' width = '100%;'>","null","","","","","","","","","",""
"","html-keyboard-response","202","833080","0.0-12.0-2.3","bo98z23204","one_one","1","direct_first","1","el04ns02","0","24","1","1","3","1","","0","1","0","null","","","<img src = 'targets/37.png' width = '100%;'>","null","","","","","","","","","",""
"","html-keyboard-response","203","834214","0.0-12.0-3.3","bo98z23204","one_one","1","direct_first","1","el04ns02","0","24","1","1","3","1","","0","1","0","1132","","","<img src = 'targets/mask.png' width = '100%;'>","75","pos","GS","abstract","2","category2/men.png","","targets/37.png","indirect","1","19"
"","html-keyboard-response","204","835733","0.0-12.0-0.4","bo98z23204","one_one","1","direct_first","1","el04ns02","0","24","1","1","3","1","","0","1","0","null","","","<div style=""font-size:60px;"">+</div>","null","","","","","","","","","",""
"","html-keyboard-response","205","835833","0.0-12.0-1.4","bo98z23204","one_one","1","direct_first","1","el04ns02","0","24","1","1","3","1","","0","1","0","null","","","<img src = 'category1/GS2.png' width = '100%;'>","null","","","","","","","","","",""
"","html-keyboard-response","206","836107","0.0-12.0-2.4","bo98z23204","one_one","1","direct_first","1","el04ns02","0","24","1","1","3","1","","0","1","0","null","","","<img src = 'targets/47.png' width = '100%;'>","null","","","","","","","","","",""
"","html-keyboard-response","207","836933","0.0-12.0-3.4","bo98z23204","one_one","1","direct_first","1","el04ns02","0","24","1","1","3","1","","0","1","0","825","","","<img src = 'targets/mask.png' width = '100%;'>","75","pos","GS","GSnew","1","category1/GS2.png","","targets/47.png","indirect","1","20"
"","html-keyboard-response","208","838450","0.0-12.0-0.5","bo98z23204","one_one","1","direct_first","1","el04ns02","0","24","1","1","3","1","","0","1","0","null","","","<div style=""font-size:60px;"">+</div>","null","","","","","","","","","",""
"","html-keyboard-response","209","838550","0.0-12.0-1.5","bo98z23204","one_one","1","direct_first","1","el04ns02","0","24","1","1","3","1","","0","1","0","null","","","<img src = 'category3/GS2.png' width = '100%;'>","null","","","","","","","","","",""
"","html-keyboard-response","210","838818","0.0-12.0-2.5","bo98z23204","one_one","1","direct_first","1","el04ns02","0","24","1","1","3","1","","0","1","0","null","","","<img src = 'targets/10.png' width = '100%;'>","null","","","","","","","","","",""
"","html-keyboard-response","211","839832","0.0-12.0-3.5","bo98z23204","one_one","1","direct_first","1","el04ns02","0","24","1","1","3","1","","0","1","0","1013","","","<img src = 'targets/mask.png' width = '100%;'>","68","neg","GS","GSnew","3","category3/GS2.png","","targets/10.png","indirect","0","21"
"","html-keyboard-response","212","841350","0.0-12.0-0.6","bo98z23204","one_one","1","direct_first","1","el04ns02","0","24","1","1","3","1","","0","1","0","null","","","<div style=""font-size:60px;"">+</div>","null","","","","","","","","","",""
"","html-keyboard-response","213","841450","0.0-12.0-1.6","bo98z23204","one_one","1","direct_first","1","el04ns02","0","24","1","1","3","1","","0","1","0","null","","","<img src = 'category4/GS1.png' width = '100%;'>","null","","","","","","","","","",""
"","html-keyboard-response","214","841717","0.0-12.0-2.6","bo98z23204","one_one","1","direct_first","1","el04ns02","0","24","1","1","3","1","","0","1","0","null","","","<img src = 'targets/2.png' width = '100%;'>","null","","","","","","","","","",""
"","html-keyboard-response","215","842537","0.0-12.0-3.6","bo98z23204","one_one","1","direct_first","1","el04ns02","0","24","1","1","3","1","","0","1","0","818","","","<img src = 'targets/mask.png' width = '100%;'>","68","neg","GS","GSnew","4","category4/GS1.png","","targets/2.png","indirect","0","22"
"","html-keyboard-response","216","844047","0.0-12.0-0.7","bo98z23204","one_one","1","direct_first","1","el04ns02","0","24","1","1","3","1","","0","1","0","null","","","<div style=""font-size:60px;"">+</div>","null","","","","","","","","","",""
"","html-keyboard-response","217","844142","0.0-12.0-1.7","bo98z23204","one_one","1","direct_first","1","el04ns02","0","24","1","1","3","1","","0","1","0","null","","","<img src = 'category2/GS2.png' width = '100%;'>","null","","","","","","","","","",""
"","html-keyboard-response","218","844403","0.0-12.0-2.7","bo98z23204","one_one","1","direct_first","1","el04ns02","0","24","1","1","3","1","","0","1","0","null","","","<img src = 'targets/46.png' width = '100%;'>","null","","","","","","","","","",""
"","html-keyboard-response","219","845081","0.0-12.0-3.7","bo98z23204","one_one","1","direct_first","1","el04ns02","0","24","1","1","3","1","","0","1","0","676","","","<img src = 'targets/mask.png' width = '100%;'>","68","pos","GS","GSnew","2","category2/GS2.png","","targets/46.png","indirect","0","23"
"","html-keyboard-response","220","846587","0.0-12.0-0.8","bo98z23204","one_one","1","direct_first","1","el04ns02","0","24","1","1","3","1","","0","1","0","null","","","<div style=""font-size:60px;"">+</div>","null","","","","","","","","","",""
"","html-keyboard-response","221","846682","0.0-12.0-1.8","bo98z23204","one_one","1","direct_first","1","el04ns02","0","24","1","1","3","1","","0","1","0","null","","","<img src = 'category4/GS2.png' width = '100%;'>","null","","","","","","","","","",""
"","html-keyboard-response","222","846948","0.0-12.0-2.8","bo98z23204","one_one","1","direct_first","1","el04ns02","0","24","1","1","3","1","","0","1","0","null","","","<img src = 'targets/27.png' width = '100%;'>","null","","","","","","","","","",""
"","html-keyboard-response","223","847600","0.0-12.0-3.8","bo98z23204","one_one","1","direct_first","1","el04ns02","0","24","1","1","3","1","","0","1","0","650","","","<img src = 'targets/mask.png' width = '100%;'>","68","neg","GS","GSnew","4","category4/GS2.png","","targets/27.png","indirect","0","24"
"","html-keyboard-response","224","849108","0.0-12.0-0.9","bo98z23204","one_one","1","direct_first","1","el04ns02","0","24","1","1","3","1","","0","1","0","null","","","<div style=""font-size:60px;"">+</div>","null","","","","","","","","","",""
"","html-keyboard-response","225","849213","0.0-12.0-1.9","bo98z23204","one_one","1","direct_first","1","el04ns02","0","24","1","1","3","1","","0","1","0","null","","","<img src = 'category3/GS3.png' width = '100%;'>","null","","","","","","","","","",""
"","html-keyboard-response","226","849488","0.0-12.0-2.9","bo98z23204","one_one","1","direct_first","1","el04ns02","0","24","1","1","3","1","","0","1","0","null","","","<img src = 'targets/9.png' width = '100%;'>","null","","","","","","","","","",""
"","html-keyboard-response","227","850370","0.0-12.0-3.9","bo98z23204","one_one","1","direct_first","1","el04ns02","0","24","1","1","3","1","","0","1","0","881","","","<img src = 'targets/mask.png' width = '100%;'>","75","neg","GS","GSnew","3","category3/GS3.png","","targets/9.png","indirect","1","25"
"","html-keyboard-response","228","851897","0.0-12.0-0.10","bo98z23204","one_one","1","direct_first","1","el04ns02","0","24","1","1","3","1","","0","1","0","null","","","<div style=""font-size:60px;"">+</div>","null","","","","","","","","","",""
"","html-keyboard-response","229","851993","0.0-12.0-1.10","bo98z23204","one_one","1","direct_first","1","el04ns02","0","24","1","1","3","1","","0","1","0","null","","","<img src = 'category2/GS1.png' width = '100%;'>","null","","","","","","","","","",""
"","html-keyboard-response","230","852254","0.0-12.0-2.10","bo98z23204","one_one","1","direct_first","1","el04ns02","0","24","1","1","3","1","","0","1","0","null","","","<img src = 'targets/23.png' width = '100%;'>","null","","","","","","","","","",""
"","html-keyboard-response","231","853133","0.0-12.0-3.10","bo98z23204","one_one","1","direct_first","1","el04ns02","0","24","1","1","3","1","","0","1","0","877","","","<img src = 'targets/mask.png' width = '100%;'>","75","pos","GS","GSnew","2","category2/GS1.png","","targets/23.png","indirect","1","26"
"","html-keyboard-response","232","854652","0.0-12.0-0.11","bo98z23204","one_one","1","direct_first","1","el04ns02","0","24","1","1","3","1","","0","1","0","null","","","<div style=""font-size:60px;"">+</div>","null","","","","","","","","","",""
"","html-keyboard-response","233","854752","0.0-12.0-1.11","bo98z23204","one_one","1","direct_first","1","el04ns02","0","24","1","1","3","1","","0","1","0","null","","","<img src = 'category1/ma.png' width = '100%;'>","null","","","","","","","","","",""
"","html-keyboard-response","234","855018","0.0-12.0-2.11","bo98z23204","one_one","1","direct_first","1","el04ns02","0","24","1","1","3","1","","0","1","0","null","","","<img src = 'targets/41.png' width = '100%;'>","null","","","","","","","","","",""
"","html-keyboard-response","235","855840","0.0-12.0-3.11","bo98z23204","one_one","1","direct_first","1","el04ns02","0","24","1","1","3","1","","0","1","0","821","","","<img src = 'targets/mask.png' width = '100%;'>","68","pos","GS","abstract","1","category1/ma.png","","targets/41.png","indirect","0","27"
"","html-keyboard-response","236","857352","0.0-12.0-0.12","bo98z23204","one_one","1","direct_first","1","el04ns02","0","24","1","1","3","1","","0","1","0","null","","","<div style=""font-size:60px;"">+</div>","null","","","","","","","","","",""
"","html-keyboard-response","237","857448","0.0-12.0-1.12","bo98z23204","one_one","1","direct_first","1","el04ns02","0","24","1","1","3","1","","0","1","0","null","","","<img src = 'category1/GS3.png' width = '100%;'>","null","","","","","","","","","",""
"","html-keyboard-response","238","857708","0.0-12.0-2.12","bo98z23204","one_one","1","direct_first","1","el04ns02","0","24","1","1","3","1","","0","1","0","null","","","<img src = 'targets/6.png' width = '100%;'>","null","","","","","","","","","",""
"","html-keyboard-response","239","858430","0.0-12.0-3.12","bo98z23204","one_one","1","direct_first","1","el04ns02","0","24","1","1","3","1","","0","1","0","721","","","<img src = 'targets/mask.png' width = '100%;'>","68","pos","GS","GSnew","1","category1/GS3.png","","targets/6.png","indirect","0","28"
"","html-keyboard-response","240","859948","0.0-12.0-0.13","bo98z23204","one_one","1","direct_first","1","el04ns02","0","24","1","1","3","1","","0","1","0","null","","","<div style=""font-size:60px;"">+</div>","null","","","","","","","","","",""
"","html-keyboard-response","241","860044","0.0-12.0-1.13","bo98z23204","one_one","1","direct_first","1","el04ns02","0","24","1","1","3","1","","0","1","0","null","","","<img src = 'category3/wang.png' width = '100%;'>","null","","","","","","","","","",""
"","html-keyboard-response","242","860304","0.0-12.0-2.13","bo98z23204","one_one","1","direct_first","1","el04ns02","0","24","1","1","3","1","","0","1","0","null","","","<img src = 'targets/18.png' width = '100%;'>","null","","","","","","","","","",""
"","html-keyboard-response","243","861648","0.0-12.0-3.13","bo98z23204","one_one","1","direct_first","1","el04ns02","0","24","1","1","3","1","","0","1","0","1342","","","<img src = 'targets/mask.png' width = '100%;'>","68","neg","GS","abstract","3","category3/wang.png","","targets/18.png","indirect","0","29"
"","html-keyboard-response","244","863178","0.0-12.0-0.14","bo98z23204","one_one","1","direct_first","1","el04ns02","0","24","1","1","3","1","","0","1","0","null","","","<div style=""font-size:60px;"">+</div>","null","","","","","","","","","",""
"","html-keyboard-response","245","863274","0.0-12.0-1.14","bo98z23204","one_one","1","direct_first","1","el04ns02","0","24","1","1","3","1","","0","1","0","null","","","<img src = 'category3/GS1.png' width = '100%;'>","null","","","","","","","","","",""
"","html-keyboard-response","246","863539","0.0-12.0-2.14","bo98z23204","one_one","1","direct_first","1","el04ns02","0","24","1","1","3","1","","0","1","0","null","","","<img src = 'targets/40.png' width = '100%;'>","null","","","","","","","","","",""
"","html-keyboard-response","247","864206","0.0-12.0-3.14","bo98z23204","one_one","1","direct_first","1","el04ns02","0","24","1","1","3","1","","0","1","0","666","","","<img src = 'targets/mask.png' width = '100%;'>","68","neg","GS","GSnew","3","category3/GS1.png","","targets/40.png","indirect","0","30"
"","html-keyboard-response","248","865718","0.0-12.0-0.15","bo98z23204","one_one","1","direct_first","1","el04ns02","0","24","1","1","3","1","","0","1","0","null","","","<div style=""font-size:60px;"">+</div>","null","","","","","","","","","",""
"","html-keyboard-response","249","865814","0.0-12.0-1.15","bo98z23204","one_one","1","direct_first","1","el04ns02","0","24","1","1","3","1","","0","1","0","null","","","<img src = 'category1/GS1.png' width = '100%;'>","null","","","","","","","","","",""
"","html-keyboard-response","250","866078","0.0-12.0-2.15","bo98z23204","one_one","1","direct_first","1","el04ns02","0","24","1","1","3","1","","0","1","0","null","","","<img src = 'targets/5.png' width = '100%;'>","null","","","","","","","","","",""
"","html-keyboard-response","251","866957","0.0-12.0-3.15","bo98z23204","one_one","1","direct_first","1","el04ns02","0","24","1","1","3","1","","0","1","0","877","","","<img src = 'targets/mask.png' width = '100%;'>","75","pos","GS","GSnew","1","category1/GS1.png","","targets/5.png","indirect","1","31"
"","survey-html-form","252","873174","0.0-13.0","bo98z23204","one_one","1","direct_first","1","el04ns02","0","24","1","1","3","1","","0","1","0","5709","","{}","","","","","","","","","","","",""
"","image-slider-response","253","879388","0.0-14.0-0.0","bo98z23204","one_one","1","direct_first","1","el04ns02","0","24","1","1","3","1","","0","1","0","5201","","","","","neg","All","all","4","category4/lin_all.png","14","","all","",""
"","image-slider-response","254","886134","0.0-14.0-0.1","bo98z23204","one_one","1","direct_first","1","el04ns02","0","24","1","1","3","1","","0","1","0","6738","","","","","neg","All","all","3","category3/wang_all.png","-26","","all","",""
"","image-slider-response","255","889796","0.0-14.0-0.2","bo98z23204","one_one","1","direct_first","1","el04ns02","0","24","1","1","3","1","","0","1","0","3654","","","","","pos","All","all","1","category1/ma_all.png","-32","","all","",""
"","image-slider-response","256","894791","0.0-14.0-0.3","bo98z23204","one_one","1","direct_first","1","el04ns02","0","24","1","1","3","1","","0","1","0","4988","","","","","pos","All","all","2","category2/men_all.png","-22","","all","",""
"","survey-text","257","901567","0.0-15.0","bo98z23204","one_one","1","direct_first","1","el04ns02","0","24","1","1","3","1","","0","1","0","6756","","{""comment"":""""}","","","","","","","","","","","",""
"","survey-html-form","258","920251","0.0-16.0","bo98z23204","one_one","1","direct_first","1","el04ns02","0","24","1","1","3","1","","0","1","0","18678","","{""hinschauen"":""0"",""ablenkung"":""1"",""gewissenhaft"":""0""}","","","","","","","","","","","",""
