"success","trial_type","trial_index","time_elapsed","internal_node_id","subject","condition","condition_code","measure","measure_code","codeword","gender","age","education","chinese","fach","handedness","comment","hinschauen","ablenkung","gewissenhaft","rt","url","responses","stimulus","key_press","val","type","type_specific","category","cs_selected","target","indirect","task","nr_pres","response"
"true","fullscreen","0","14029","0.0-0.0","qn0rom26n0","many_one","0","indirect_first","0","er06lf04","0","23","1","1","3","1","Die Studie hat Spaß gemacht","0","1","0","","","","","","","","","","","","","","",""
"","external-html","1","79029","0.0-1.0","qn0rom26n0","many_one","0","indirect_first","0","er06lf04","0","23","1","1","3","1","Die Studie hat Spaß gemacht","0","1","0","64793","text/information.html","","","","","","","","","","","","",""
"","external-html","2","138221","0.0-2.0","qn0rom26n0","many_one","0","indirect_first","0","er06lf04","0","23","1","1","3","1","Die Studie hat Spaß gemacht","0","1","0","59012","text/consent.html","","","","","","","","","","","","",""
"","survey-html-form","3","206140","0.0-3.0","qn0rom26n0","many_one","0","indirect_first","0","er06lf04","0","23","1","1","3","1","Die Studie hat Spaß gemacht","0","1","0","67902","","{""codeword_enter"":""er06lf04""}","","","","","","","","","","","",""
"","survey-html-form","4","234991","0.0-4.0","qn0rom26n0","many_one","0","indirect_first","0","er06lf04","0","23","1","1","3","1","Die Studie hat Spaß gemacht","0","1","0","28836","","{""age"":""23"",""education"":""1"",""subject"":""3"",""gender"":""0"",""handedness"":""1"",""chinese"":""1""}","","","","","","","","","","","",""
"","survey-html-form","5","321243","0.0-5.0","qn0rom26n0","many_one","0","indirect_first","0","er06lf04","0","23","1","1","3","1","Die Studie hat Spaß gemacht","0","1","0","86238","","{}","","","","","","","","","","","",""
"","html-keyboard-response","6","325281","0.0-6.0-0.0-0.0","qn0rom26n0","many_one","0","indirect_first","0","er06lf04","0","23","1","1","3","1","Die Studie hat Spaß gemacht","0","1","0","null","","","<div class = 'row'><div class = 'column'><img src = 'category3/CS5.png' width = '70%;'></div><div class = 'column'><img src = 'usneg/9220.bmp' width = '100%;'></div></div>","null","neg","CS","CS","3","category3/CS5.png","","","","",""
"","html-keyboard-response","7","327819","0.0-6.0-0.0-0.1","qn0rom26n0","many_one","0","indirect_first","0","er06lf04","0","23","1","1","3","1","Die Studie hat Spaß gemacht","0","1","0","null","","","<div class = 'row'><div class = 'column'><img src = 'usneg/3300.bmp' width = '100%;'></div><div class = 'column'><img src = 'category3/CS1.png' width = '70%;'></div></div>","null","neg","CS","CS","3","category3/CS1.png","","","","",""
"","html-keyboard-response","8","330338","0.0-6.0-0.0-0.2","qn0rom26n0","many_one","0","indirect_first","0","er06lf04","0","23","1","1","3","1","Die Studie hat Spaß gemacht","0","1","0","null","","","<div class = 'row'><div class = 'column'><img src = 'category4/CS5.png' width = '70%;'></div><div class = 'column'><img src = 'uspos/1710.bmp' width = '100%;'></div></div>","null","pos","CS","CS","4","category4/CS5.png","","","","",""
"","html-keyboard-response","9","332878","0.0-6.0-0.0-0.3","qn0rom26n0","many_one","0","indirect_first","0","er06lf04","0","23","1","1","3","1","Die Studie hat Spaß gemacht","0","1","0","null","","","<div class = 'row'><div class = 'column'><img src = 'usneg/2141.bmp' width = '100%;'></div><div class = 'column'><img src = 'category1/CS8.png' width = '70%;'></div></div>","null","neg","CS","CS","1","category1/CS8.png","","","","",""
"","html-keyboard-response","10","335409","0.0-6.0-0.0-0.4","qn0rom26n0","many_one","0","indirect_first","0","er06lf04","0","23","1","1","3","1","Die Studie hat Spaß gemacht","0","1","0","null","","","<div class = 'row'><div class = 'column'><img src = 'uspos/5831.bmp' width = '100%;'></div><div class = 'column'><img src = 'category2/CS7.png' width = '70%;'></div></div>","null","pos","CS","CS","2","category2/CS7.png","","","","",""
"","html-keyboard-response","11","337949","0.0-6.0-0.0-0.5","qn0rom26n0","many_one","0","indirect_first","0","er06lf04","0","23","1","1","3","1","Die Studie hat Spaß gemacht","0","1","0","null","","","<div class = 'row'><div class = 'column'><img src = 'uspos/5830.bmp' width = '100%;'></div><div class = 'column'><img src = 'category2/CS9.png' width = '70%;'></div></div>","null","pos","CS","CS","2","category2/CS9.png","","","","",""
"","html-keyboard-response","12","340478","0.0-6.0-0.0-0.6","qn0rom26n0","many_one","0","indirect_first","0","er06lf04","0","23","1","1","3","1","Die Studie hat Spaß gemacht","0","1","0","null","","","<div class = 'row'><div class = 'column'><img src = 'category1/CS6.png' width = '70%;'></div><div class = 'column'><img src = 'usneg/9041.bmp' width = '100%;'></div></div>","null","neg","CS","CS","1","category1/CS6.png","","","","",""
"","html-keyboard-response","13","342999","0.0-6.0-0.0-0.7","qn0rom26n0","many_one","0","indirect_first","0","er06lf04","0","23","1","1","3","1","Die Studie hat Spaß gemacht","0","1","0","null","","","<div class = 'row'><div class = 'column'><img src = 'category3/CS6.png' width = '70%;'></div><div class = 'column'><img src = 'usneg/6838.bmp' width = '100%;'></div></div>","null","neg","CS","CS","3","category3/CS6.png","","","","",""
"","html-keyboard-response","14","345529","0.0-6.0-0.0-0.8","qn0rom26n0","many_one","0","indirect_first","0","er06lf04","0","23","1","1","3","1","Die Studie hat Spaß gemacht","0","1","0","null","","","<div class = 'row'><div class = 'column'><img src = 'uspos/2530.bmp' width = '100%;'></div><div class = 'column'><img src = 'category2/CS5.png' width = '70%;'></div></div>","null","pos","CS","CS","2","category2/CS5.png","","","","",""
"","html-keyboard-response","15","348068","0.0-6.0-0.0-0.9","qn0rom26n0","many_one","0","indirect_first","0","er06lf04","0","23","1","1","3","1","Die Studie hat Spaß gemacht","0","1","0","null","","","<div class = 'row'><div class = 'column'><img src = 'category4/CS9.png' width = '70%;'></div><div class = 'column'><img src = 'uspos/2340.bmp' width = '100%;'></div></div>","null","pos","CS","CS","4","category4/CS9.png","","","","",""
"","html-keyboard-response","16","350589","0.0-6.0-0.0-0.10","qn0rom26n0","many_one","0","indirect_first","0","er06lf04","0","23","1","1","3","1","Die Studie hat Spaß gemacht","0","1","0","null","","","<div class = 'row'><div class = 'column'><img src = 'uspos/8540.bmp' width = '100%;'></div><div class = 'column'><img src = 'category4/CS4.png' width = '70%;'></div></div>","null","pos","CS","CS","4","category4/CS4.png","","","","",""
"","html-keyboard-response","17","353099","0.0-6.0-0.0-0.11","qn0rom26n0","many_one","0","indirect_first","0","er06lf04","0","23","1","1","3","1","Die Studie hat Spaß gemacht","0","1","0","null","","","<div class = 'row'><div class = 'column'><img src = 'category4/CS2.png' width = '70%;'></div><div class = 'column'><img src = 'uspos/5470.bmp' width = '100%;'></div></div>","null","pos","CS","CS","4","category4/CS2.png","","","","",""
"","html-keyboard-response","18","355618","0.0-6.0-0.0-0.12","qn0rom26n0","many_one","0","indirect_first","0","er06lf04","0","23","1","1","3","1","Die Studie hat Spaß gemacht","0","1","0","null","","","<div class = 'row'><div class = 'column'><img src = 'category1/CS1.png' width = '70%;'></div><div class = 'column'><img src = 'usneg/3160.bmp' width = '100%;'></div></div>","null","neg","CS","CS","1","category1/CS1.png","","","","",""
"","html-keyboard-response","19","358149","0.0-6.0-0.0-0.13","qn0rom26n0","many_one","0","indirect_first","0","er06lf04","0","23","1","1","3","1","Die Studie hat Spaß gemacht","0","1","0","null","","","<div class = 'row'><div class = 'column'><img src = 'category4/CS8.png' width = '70%;'></div><div class = 'column'><img src = 'uspos/8080.bmp' width = '100%;'></div></div>","null","pos","CS","CS","4","category4/CS8.png","","","","",""
"","html-keyboard-response","20","360673","0.0-6.0-0.0-0.14","qn0rom26n0","many_one","0","indirect_first","0","er06lf04","0","23","1","1","3","1","Die Studie hat Spaß gemacht","0","1","0","null","","","<div class = 'row'><div class = 'column'><img src = 'usneg/9584.bmp' width = '100%;'></div><div class = 'column'><img src = 'category1/CS4.png' width = '70%;'></div></div>","null","neg","CS","CS","1","category1/CS4.png","","","","",""
"","html-keyboard-response","21","363199","0.0-6.0-0.0-0.15","qn0rom26n0","many_one","0","indirect_first","0","er06lf04","0","23","1","1","3","1","Die Studie hat Spaß gemacht","0","1","0","null","","","<div class = 'row'><div class = 'column'><img src = 'usneg/6212.bmp' width = '100%;'></div><div class = 'column'><img src = 'category3/CS9.png' width = '70%;'></div></div>","null","neg","CS","CS","3","category3/CS9.png","","","","",""
"","html-keyboard-response","22","365728","0.0-6.0-0.0-0.16","qn0rom26n0","many_one","0","indirect_first","0","er06lf04","0","23","1","1","3","1","Die Studie hat Spaß gemacht","0","1","0","null","","","<div class = 'row'><div class = 'column'><img src = 'usneg/9000.bmp' width = '100%;'></div><div class = 'column'><img src = 'category1/CS9.png' width = '70%;'></div></div>","null","neg","CS","CS","1","category1/CS9.png","","","","",""
"","html-keyboard-response","23","368257","0.0-6.0-0.0-0.17","qn0rom26n0","many_one","0","indirect_first","0","er06lf04","0","23","1","1","3","1","Die Studie hat Spaß gemacht","0","1","0","null","","","<div class = 'row'><div class = 'column'><img src = 'uspos/8190.bmp' width = '100%;'></div><div class = 'column'><img src = 'category2/CS6.png' width = '70%;'></div></div>","null","pos","CS","CS","2","category2/CS6.png","","","","",""
"","html-keyboard-response","24","370778","0.0-6.0-0.0-0.18","qn0rom26n0","many_one","0","indirect_first","0","er06lf04","0","23","1","1","3","1","Die Studie hat Spaß gemacht","0","1","0","null","","","<div class = 'row'><div class = 'column'><img src = 'category3/CS2.png' width = '70%;'></div><div class = 'column'><img src = 'usneg/2205.bmp' width = '100%;'></div></div>","null","neg","CS","CS","3","category3/CS2.png","","","","",""
"","html-keyboard-response","25","373308","0.0-6.0-0.0-0.19","qn0rom26n0","many_one","0","indirect_first","0","er06lf04","0","23","1","1","3","1","Die Studie hat Spaß gemacht","0","1","0","null","","","<div class = 'row'><div class = 'column'><img src = 'uspos/2900.2.bmp' width = '100%;'></div><div class = 'column'><img src = 'category2/CS10.png' width = '70%;'></div></div>","null","pos","CS","CS","2","category2/CS10.png","","","","",""
"","survey-html-form","26","380149","0.0-6.0-1.0","qn0rom26n0","many_one","0","indirect_first","0","er06lf04","0","23","1","1","3","1","Die Studie hat Spaß gemacht","0","1","0","6330","","{}","","","","","","","","","","","",""
"","html-keyboard-response","27","384190","0.0-6.0-2.0-0.0","qn0rom26n0","many_one","0","indirect_first","0","er06lf04","0","23","1","1","3","1","Die Studie hat Spaß gemacht","0","1","0","null","","","<div class = 'row'><div class = 'column'><img src = 'usneg/9041.bmp' width = '100%;'></div><div class = 'column'><img src = 'category1/CS6.png' width = '70%;'></div></div>","null","neg","CS","CS","1","category1/CS6.png","","","","",""
"","html-keyboard-response","28","386727","0.0-6.0-2.0-0.1","qn0rom26n0","many_one","0","indirect_first","0","er06lf04","0","23","1","1","3","1","Die Studie hat Spaß gemacht","0","1","0","null","","","<div class = 'row'><div class = 'column'><img src = 'category1/CS4.png' width = '70%;'></div><div class = 'column'><img src = 'usneg/9584.bmp' width = '100%;'></div></div>","null","neg","CS","CS","1","category1/CS4.png","","","","",""
"","html-keyboard-response","29","389259","0.0-6.0-2.0-0.2","qn0rom26n0","many_one","0","indirect_first","0","er06lf04","0","23","1","1","3","1","Die Studie hat Spaß gemacht","0","1","0","null","","","<div class = 'row'><div class = 'column'><img src = 'category1/CS8.png' width = '70%;'></div><div class = 'column'><img src = 'usneg/2141.bmp' width = '100%;'></div></div>","null","neg","CS","CS","1","category1/CS8.png","","","","",""
"","html-keyboard-response","30","391798","0.0-6.0-2.0-0.3","qn0rom26n0","many_one","0","indirect_first","0","er06lf04","0","23","1","1","3","1","Die Studie hat Spaß gemacht","0","1","0","null","","","<div class = 'row'><div class = 'column'><img src = 'usneg/3160.bmp' width = '100%;'></div><div class = 'column'><img src = 'category1/CS1.png' width = '70%;'></div></div>","null","neg","CS","CS","1","category1/CS1.png","","","","",""
"","html-keyboard-response","31","394339","0.0-6.0-2.0-0.4","qn0rom26n0","many_one","0","indirect_first","0","er06lf04","0","23","1","1","3","1","Die Studie hat Spaß gemacht","0","1","0","null","","","<div class = 'row'><div class = 'column'><img src = 'uspos/8540.bmp' width = '100%;'></div><div class = 'column'><img src = 'category4/CS4.png' width = '70%;'></div></div>","null","pos","CS","CS","4","category4/CS4.png","","","","",""
"","html-keyboard-response","32","396868","0.0-6.0-2.0-0.5","qn0rom26n0","many_one","0","indirect_first","0","er06lf04","0","23","1","1","3","1","Die Studie hat Spaß gemacht","0","1","0","null","","","<div class = 'row'><div class = 'column'><img src = 'uspos/2530.bmp' width = '100%;'></div><div class = 'column'><img src = 'category2/CS5.png' width = '70%;'></div></div>","null","pos","CS","CS","2","category2/CS5.png","","","","",""
"","html-keyboard-response","33","399399","0.0-6.0-2.0-0.6","qn0rom26n0","many_one","0","indirect_first","0","er06lf04","0","23","1","1","3","1","Die Studie hat Spaß gemacht","0","1","0","null","","","<div class = 'row'><div class = 'column'><img src = 'uspos/8190.bmp' width = '100%;'></div><div class = 'column'><img src = 'category2/CS6.png' width = '70%;'></div></div>","null","pos","CS","CS","2","category2/CS6.png","","","","",""
"","html-keyboard-response","34","401928","0.0-6.0-2.0-0.7","qn0rom26n0","many_one","0","indirect_first","0","er06lf04","0","23","1","1","3","1","Die Studie hat Spaß gemacht","0","1","0","null","","","<div class = 'row'><div class = 'column'><img src = 'usneg/6838.bmp' width = '100%;'></div><div class = 'column'><img src = 'category3/CS6.png' width = '70%;'></div></div>","null","neg","CS","CS","3","category3/CS6.png","","","","",""
"","html-keyboard-response","35","404444","0.0-6.0-2.0-0.8","qn0rom26n0","many_one","0","indirect_first","0","er06lf04","0","23","1","1","3","1","Die Studie hat Spaß gemacht","0","1","0","null","","","<div class = 'row'><div class = 'column'><img src = 'uspos/2340.bmp' width = '100%;'></div><div class = 'column'><img src = 'category4/CS9.png' width = '70%;'></div></div>","null","pos","CS","CS","4","category4/CS9.png","","","","",""
"","html-keyboard-response","36","406968","0.0-6.0-2.0-0.9","qn0rom26n0","many_one","0","indirect_first","0","er06lf04","0","23","1","1","3","1","Die Studie hat Spaß gemacht","0","1","0","null","","","<div class = 'row'><div class = 'column'><img src = 'usneg/9000.bmp' width = '100%;'></div><div class = 'column'><img src = 'category1/CS9.png' width = '70%;'></div></div>","null","neg","CS","CS","1","category1/CS9.png","","","","",""
"","html-keyboard-response","37","409497","0.0-6.0-2.0-0.10","qn0rom26n0","many_one","0","indirect_first","0","er06lf04","0","23","1","1","3","1","Die Studie hat Spaß gemacht","0","1","0","null","","","<div class = 'row'><div class = 'column'><img src = 'uspos/5830.bmp' width = '100%;'></div><div class = 'column'><img src = 'category2/CS9.png' width = '70%;'></div></div>","null","pos","CS","CS","2","category2/CS9.png","","","","",""
"","html-keyboard-response","38","412018","0.0-6.0-2.0-0.11","qn0rom26n0","many_one","0","indirect_first","0","er06lf04","0","23","1","1","3","1","Die Studie hat Spaß gemacht","0","1","0","null","","","<div class = 'row'><div class = 'column'><img src = 'usneg/6212.bmp' width = '100%;'></div><div class = 'column'><img src = 'category3/CS9.png' width = '70%;'></div></div>","null","neg","CS","CS","3","category3/CS9.png","","","","",""
"","html-keyboard-response","39","414549","0.0-6.0-2.0-0.12","qn0rom26n0","many_one","0","indirect_first","0","er06lf04","0","23","1","1","3","1","Die Studie hat Spaß gemacht","0","1","0","null","","","<div class = 'row'><div class = 'column'><img src = 'category2/CS10.png' width = '70%;'></div><div class = 'column'><img src = 'uspos/2900.2.bmp' width = '100%;'></div></div>","null","pos","CS","CS","2","category2/CS10.png","","","","",""
"","html-keyboard-response","40","417077","0.0-6.0-2.0-0.13","qn0rom26n0","many_one","0","indirect_first","0","er06lf04","0","23","1","1","3","1","Die Studie hat Spaß gemacht","0","1","0","null","","","<div class = 'row'><div class = 'column'><img src = 'usneg/9220.bmp' width = '100%;'></div><div class = 'column'><img src = 'category3/CS5.png' width = '70%;'></div></div>","null","neg","CS","CS","3","category3/CS5.png","","","","",""
"","html-keyboard-response","41","419599","0.0-6.0-2.0-0.14","qn0rom26n0","many_one","0","indirect_first","0","er06lf04","0","23","1","1","3","1","Die Studie hat Spaß gemacht","0","1","0","null","","","<div class = 'row'><div class = 'column'><img src = 'usneg/3300.bmp' width = '100%;'></div><div class = 'column'><img src = 'category3/CS1.png' width = '70%;'></div></div>","null","neg","CS","CS","3","category3/CS1.png","","","","",""
"","html-keyboard-response","42","422127","0.0-6.0-2.0-0.15","qn0rom26n0","many_one","0","indirect_first","0","er06lf04","0","23","1","1","3","1","Die Studie hat Spaß gemacht","0","1","0","null","","","<div class = 'row'><div class = 'column'><img src = 'category4/CS5.png' width = '70%;'></div><div class = 'column'><img src = 'uspos/1710.bmp' width = '100%;'></div></div>","null","pos","CS","CS","4","category4/CS5.png","","","","",""
"","html-keyboard-response","43","424648","0.0-6.0-2.0-0.16","qn0rom26n0","many_one","0","indirect_first","0","er06lf04","0","23","1","1","3","1","Die Studie hat Spaß gemacht","0","1","0","null","","","<div class = 'row'><div class = 'column'><img src = 'uspos/5470.bmp' width = '100%;'></div><div class = 'column'><img src = 'category4/CS2.png' width = '70%;'></div></div>","null","pos","CS","CS","4","category4/CS2.png","","","","",""
"","html-keyboard-response","44","427178","0.0-6.0-2.0-0.17","qn0rom26n0","many_one","0","indirect_first","0","er06lf04","0","23","1","1","3","1","Die Studie hat Spaß gemacht","0","1","0","null","","","<div class = 'row'><div class = 'column'><img src = 'category2/CS7.png' width = '70%;'></div><div class = 'column'><img src = 'uspos/5831.bmp' width = '100%;'></div></div>","null","pos","CS","CS","2","category2/CS7.png","","","","",""
"","html-keyboard-response","45","429718","0.0-6.0-2.0-0.18","qn0rom26n0","many_one","0","indirect_first","0","er06lf04","0","23","1","1","3","1","Die Studie hat Spaß gemacht","0","1","0","null","","","<div class = 'row'><div class = 'column'><img src = 'category3/CS2.png' width = '70%;'></div><div class = 'column'><img src = 'usneg/2205.bmp' width = '100%;'></div></div>","null","neg","CS","CS","3","category3/CS2.png","","","","",""
"","html-keyboard-response","46","432247","0.0-6.0-2.0-0.19","qn0rom26n0","many_one","0","indirect_first","0","er06lf04","0","23","1","1","3","1","Die Studie hat Spaß gemacht","0","1","0","null","","","<div class = 'row'><div class = 'column'><img src = 'category4/CS8.png' width = '70%;'></div><div class = 'column'><img src = 'uspos/8080.bmp' width = '100%;'></div></div>","null","pos","CS","CS","4","category4/CS8.png","","","","",""
"","survey-html-form","47","445877","0.0-6.0-3.0","qn0rom26n0","many_one","0","indirect_first","0","er06lf04","0","23","1","1","3","1","Die Studie hat Spaß gemacht","0","1","0","13118","","{}","","","","","","","","","","","",""
"","html-keyboard-response","48","449909","0.0-6.0-4.0-0.0","qn0rom26n0","many_one","0","indirect_first","0","er06lf04","0","23","1","1","3","1","Die Studie hat Spaß gemacht","0","1","0","null","","","<div class = 'row'><div class = 'column'><img src = 'uspos/8190.bmp' width = '100%;'></div><div class = 'column'><img src = 'category2/CS6.png' width = '70%;'></div></div>","null","pos","CS","CS","2","category2/CS6.png","","","","",""
"","html-keyboard-response","49","452449","0.0-6.0-4.0-0.1","qn0rom26n0","many_one","0","indirect_first","0","er06lf04","0","23","1","1","3","1","Die Studie hat Spaß gemacht","0","1","0","null","","","<div class = 'row'><div class = 'column'><img src = 'category3/CS2.png' width = '70%;'></div><div class = 'column'><img src = 'usneg/2205.bmp' width = '100%;'></div></div>","null","neg","CS","CS","3","category3/CS2.png","","","","",""
"","html-keyboard-response","50","454968","0.0-6.0-4.0-0.2","qn0rom26n0","many_one","0","indirect_first","0","er06lf04","0","23","1","1","3","1","Die Studie hat Spaß gemacht","0","1","0","null","","","<div class = 'row'><div class = 'column'><img src = 'uspos/5830.bmp' width = '100%;'></div><div class = 'column'><img src = 'category2/CS9.png' width = '70%;'></div></div>","null","pos","CS","CS","2","category2/CS9.png","","","","",""
"","html-keyboard-response","51","457487","0.0-6.0-4.0-0.3","qn0rom26n0","many_one","0","indirect_first","0","er06lf04","0","23","1","1","3","1","Die Studie hat Spaß gemacht","0","1","0","null","","","<div class = 'row'><div class = 'column'><img src = 'usneg/9041.bmp' width = '100%;'></div><div class = 'column'><img src = 'category1/CS6.png' width = '70%;'></div></div>","null","neg","CS","CS","1","category1/CS6.png","","","","",""
"","html-keyboard-response","52","460019","0.0-6.0-4.0-0.4","qn0rom26n0","many_one","0","indirect_first","0","er06lf04","0","23","1","1","3","1","Die Studie hat Spaß gemacht","0","1","0","null","","","<div class = 'row'><div class = 'column'><img src = 'category1/CS9.png' width = '70%;'></div><div class = 'column'><img src = 'usneg/9000.bmp' width = '100%;'></div></div>","null","neg","CS","CS","1","category1/CS9.png","","","","",""
"","html-keyboard-response","53","462557","0.0-6.0-4.0-0.5","qn0rom26n0","many_one","0","indirect_first","0","er06lf04","0","23","1","1","3","1","Die Studie hat Spaß gemacht","0","1","0","null","","","<div class = 'row'><div class = 'column'><img src = 'category4/CS8.png' width = '70%;'></div><div class = 'column'><img src = 'uspos/8080.bmp' width = '100%;'></div></div>","null","pos","CS","CS","4","category4/CS8.png","","","","",""
"","html-keyboard-response","54","465089","0.0-6.0-4.0-0.6","qn0rom26n0","many_one","0","indirect_first","0","er06lf04","0","23","1","1","3","1","Die Studie hat Spaß gemacht","0","1","0","null","","","<div class = 'row'><div class = 'column'><img src = 'category2/CS7.png' width = '70%;'></div><div class = 'column'><img src = 'uspos/5831.bmp' width = '100%;'></div></div>","null","pos","CS","CS","2","category2/CS7.png","","","","",""
"","html-keyboard-response","55","467628","0.0-6.0-4.0-0.7","qn0rom26n0","many_one","0","indirect_first","0","er06lf04","0","23","1","1","3","1","Die Studie hat Spaß gemacht","0","1","0","null","","","<div class = 'row'><div class = 'column'><img src = 'usneg/6838.bmp' width = '100%;'></div><div class = 'column'><img src = 'category3/CS6.png' width = '70%;'></div></div>","null","neg","CS","CS","3","category3/CS6.png","","","","",""
"","html-keyboard-response","56","470158","0.0-6.0-4.0-0.8","qn0rom26n0","many_one","0","indirect_first","0","er06lf04","0","23","1","1","3","1","Die Studie hat Spaß gemacht","0","1","0","null","","","<div class = 'row'><div class = 'column'><img src = 'usneg/9220.bmp' width = '100%;'></div><div class = 'column'><img src = 'category3/CS5.png' width = '70%;'></div></div>","null","neg","CS","CS","3","category3/CS5.png","","","","",""
"","html-keyboard-response","57","472687","0.0-6.0-4.0-0.9","qn0rom26n0","many_one","0","indirect_first","0","er06lf04","0","23","1","1","3","1","Die Studie hat Spaß gemacht","0","1","0","null","","","<div class = 'row'><div class = 'column'><img src = 'usneg/3300.bmp' width = '100%;'></div><div class = 'column'><img src = 'category3/CS1.png' width = '70%;'></div></div>","null","neg","CS","CS","3","category3/CS1.png","","","","",""
"","html-keyboard-response","58","475208","0.0-6.0-4.0-0.10","qn0rom26n0","many_one","0","indirect_first","0","er06lf04","0","23","1","1","3","1","Die Studie hat Spaß gemacht","0","1","0","null","","","<div class = 'row'><div class = 'column'><img src = 'usneg/2141.bmp' width = '100%;'></div><div class = 'column'><img src = 'category1/CS8.png' width = '70%;'></div></div>","null","neg","CS","CS","1","category1/CS8.png","","","","",""
"","html-keyboard-response","59","477739","0.0-6.0-4.0-0.11","qn0rom26n0","many_one","0","indirect_first","0","er06lf04","0","23","1","1","3","1","Die Studie hat Spaß gemacht","0","1","0","null","","","<div class = 'row'><div class = 'column'><img src = 'uspos/5470.bmp' width = '100%;'></div><div class = 'column'><img src = 'category4/CS2.png' width = '70%;'></div></div>","null","pos","CS","CS","4","category4/CS2.png","","","","",""
"","html-keyboard-response","60","480267","0.0-6.0-4.0-0.12","qn0rom26n0","many_one","0","indirect_first","0","er06lf04","0","23","1","1","3","1","Die Studie hat Spaß gemacht","0","1","0","null","","","<div class = 'row'><div class = 'column'><img src = 'category4/CS5.png' width = '70%;'></div><div class = 'column'><img src = 'uspos/1710.bmp' width = '100%;'></div></div>","null","pos","CS","CS","4","category4/CS5.png","","","","",""
"","html-keyboard-response","61","482788","0.0-6.0-4.0-0.13","qn0rom26n0","many_one","0","indirect_first","0","er06lf04","0","23","1","1","3","1","Die Studie hat Spaß gemacht","0","1","0","null","","","<div class = 'row'><div class = 'column'><img src = 'usneg/6212.bmp' width = '100%;'></div><div class = 'column'><img src = 'category3/CS9.png' width = '70%;'></div></div>","null","neg","CS","CS","3","category3/CS9.png","","","","",""
"","html-keyboard-response","62","485327","0.0-6.0-4.0-0.14","qn0rom26n0","many_one","0","indirect_first","0","er06lf04","0","23","1","1","3","1","Die Studie hat Spaß gemacht","0","1","0","null","","","<div class = 'row'><div class = 'column'><img src = 'category2/CS10.png' width = '70%;'></div><div class = 'column'><img src = 'uspos/2900.2.bmp' width = '100%;'></div></div>","null","pos","CS","CS","2","category2/CS10.png","","","","",""
"","html-keyboard-response","63","487857","0.0-6.0-4.0-0.15","qn0rom26n0","many_one","0","indirect_first","0","er06lf04","0","23","1","1","3","1","Die Studie hat Spaß gemacht","0","1","0","null","","","<div class = 'row'><div class = 'column'><img src = 'uspos/8540.bmp' width = '100%;'></div><div class = 'column'><img src = 'category4/CS4.png' width = '70%;'></div></div>","null","pos","CS","CS","4","category4/CS4.png","","","","",""
"","html-keyboard-response","64","490398","0.0-6.0-4.0-0.16","qn0rom26n0","many_one","0","indirect_first","0","er06lf04","0","23","1","1","3","1","Die Studie hat Spaß gemacht","0","1","0","null","","","<div class = 'row'><div class = 'column'><img src = 'usneg/3160.bmp' width = '100%;'></div><div class = 'column'><img src = 'category1/CS1.png' width = '70%;'></div></div>","null","neg","CS","CS","1","category1/CS1.png","","","","",""
"","html-keyboard-response","65","492939","0.0-6.0-4.0-0.17","qn0rom26n0","many_one","0","indirect_first","0","er06lf04","0","23","1","1","3","1","Die Studie hat Spaß gemacht","0","1","0","null","","","<div class = 'row'><div class = 'column'><img src = 'category1/CS4.png' width = '70%;'></div><div class = 'column'><img src = 'usneg/9584.bmp' width = '100%;'></div></div>","null","neg","CS","CS","1","category1/CS4.png","","","","",""
"","html-keyboard-response","66","495467","0.0-6.0-4.0-0.18","qn0rom26n0","many_one","0","indirect_first","0","er06lf04","0","23","1","1","3","1","Die Studie hat Spaß gemacht","0","1","0","null","","","<div class = 'row'><div class = 'column'><img src = 'category2/CS5.png' width = '70%;'></div><div class = 'column'><img src = 'uspos/2530.bmp' width = '100%;'></div></div>","null","pos","CS","CS","2","category2/CS5.png","","","","",""
"","html-keyboard-response","67","497998","0.0-6.0-4.0-0.19","qn0rom26n0","many_one","0","indirect_first","0","er06lf04","0","23","1","1","3","1","Die Studie hat Spaß gemacht","0","1","0","null","","","<div class = 'row'><div class = 'column'><img src = 'category4/CS9.png' width = '70%;'></div><div class = 'column'><img src = 'uspos/2340.bmp' width = '100%;'></div></div>","null","pos","CS","CS","4","category4/CS9.png","","","","",""
"","survey-html-form","68","511998","0.0-6.0-5.0","qn0rom26n0","many_one","0","indirect_first","0","er06lf04","0","23","1","1","3","1","Die Studie hat Spaß gemacht","0","1","0","13479","","{}","","","","","","","","","","","",""
"","html-keyboard-response","69","516029","0.0-6.0-6.0-0.0","qn0rom26n0","many_one","0","indirect_first","0","er06lf04","0","23","1","1","3","1","Die Studie hat Spaß gemacht","0","1","0","null","","","<div class = 'row'><div class = 'column'><img src = 'usneg/6838.bmp' width = '100%;'></div><div class = 'column'><img src = 'category3/CS6.png' width = '70%;'></div></div>","null","neg","CS","CS","3","category3/CS6.png","","","","",""
"","html-keyboard-response","70","518569","0.0-6.0-6.0-0.1","qn0rom26n0","many_one","0","indirect_first","0","er06lf04","0","23","1","1","3","1","Die Studie hat Spaß gemacht","0","1","0","null","","","<div class = 'row'><div class = 'column'><img src = 'category1/CS8.png' width = '70%;'></div><div class = 'column'><img src = 'usneg/2141.bmp' width = '100%;'></div></div>","null","neg","CS","CS","1","category1/CS8.png","","","","",""
"","html-keyboard-response","71","521098","0.0-6.0-6.0-0.2","qn0rom26n0","many_one","0","indirect_first","0","er06lf04","0","23","1","1","3","1","Die Studie hat Spaß gemacht","0","1","0","null","","","<div class = 'row'><div class = 'column'><img src = 'usneg/3160.bmp' width = '100%;'></div><div class = 'column'><img src = 'category1/CS1.png' width = '70%;'></div></div>","null","neg","CS","CS","1","category1/CS1.png","","","","",""
"","html-keyboard-response","72","523628","0.0-6.0-6.0-0.3","qn0rom26n0","many_one","0","indirect_first","0","er06lf04","0","23","1","1","3","1","Die Studie hat Spaß gemacht","0","1","0","null","","","<div class = 'row'><div class = 'column'><img src = 'category2/CS9.png' width = '70%;'></div><div class = 'column'><img src = 'uspos/5830.bmp' width = '100%;'></div></div>","null","pos","CS","CS","2","category2/CS9.png","","","","",""
"","html-keyboard-response","73","526152","0.0-6.0-6.0-0.4","qn0rom26n0","many_one","0","indirect_first","0","er06lf04","0","23","1","1","3","1","Die Studie hat Spaß gemacht","0","1","0","null","","","<div class = 'row'><div class = 'column'><img src = 'category3/CS9.png' width = '70%;'></div><div class = 'column'><img src = 'usneg/6212.bmp' width = '100%;'></div></div>","null","neg","CS","CS","3","category3/CS9.png","","","","",""
"","html-keyboard-response","74","528668","0.0-6.0-6.0-0.5","qn0rom26n0","many_one","0","indirect_first","0","er06lf04","0","23","1","1","3","1","Die Studie hat Spaß gemacht","0","1","0","null","","","<div class = 'row'><div class = 'column'><img src = 'category2/CS6.png' width = '70%;'></div><div class = 'column'><img src = 'uspos/8190.bmp' width = '100%;'></div></div>","null","pos","CS","CS","2","category2/CS6.png","","","","",""
"","html-keyboard-response","75","531198","0.0-6.0-6.0-0.6","qn0rom26n0","many_one","0","indirect_first","0","er06lf04","0","23","1","1","3","1","Die Studie hat Spaß gemacht","0","1","0","null","","","<div class = 'row'><div class = 'column'><img src = 'uspos/8080.bmp' width = '100%;'></div><div class = 'column'><img src = 'category4/CS8.png' width = '70%;'></div></div>","null","pos","CS","CS","4","category4/CS8.png","","","","",""
"","html-keyboard-response","76","533720","0.0-6.0-6.0-0.7","qn0rom26n0","many_one","0","indirect_first","0","er06lf04","0","23","1","1","3","1","Die Studie hat Spaß gemacht","0","1","0","null","","","<div class = 'row'><div class = 'column'><img src = 'usneg/3300.bmp' width = '100%;'></div><div class = 'column'><img src = 'category3/CS1.png' width = '70%;'></div></div>","null","neg","CS","CS","3","category3/CS1.png","","","","",""
"","html-keyboard-response","77","536259","0.0-6.0-6.0-0.8","qn0rom26n0","many_one","0","indirect_first","0","er06lf04","0","23","1","1","3","1","Die Studie hat Spaß gemacht","0","1","0","null","","","<div class = 'row'><div class = 'column'><img src = 'category4/CS5.png' width = '70%;'></div><div class = 'column'><img src = 'uspos/1710.bmp' width = '100%;'></div></div>","null","pos","CS","CS","4","category4/CS5.png","","","","",""
"","html-keyboard-response","78","538788","0.0-6.0-6.0-0.9","qn0rom26n0","many_one","0","indirect_first","0","er06lf04","0","23","1","1","3","1","Die Studie hat Spaß gemacht","0","1","0","null","","","<div class = 'row'><div class = 'column'><img src = 'category4/CS2.png' width = '70%;'></div><div class = 'column'><img src = 'uspos/5470.bmp' width = '100%;'></div></div>","null","pos","CS","CS","4","category4/CS2.png","","","","",""
"","html-keyboard-response","79","541318","0.0-6.0-6.0-0.10","qn0rom26n0","many_one","0","indirect_first","0","er06lf04","0","23","1","1","3","1","Die Studie hat Spaß gemacht","0","1","0","null","","","<div class = 'row'><div class = 'column'><img src = 'category4/CS4.png' width = '70%;'></div><div class = 'column'><img src = 'uspos/8540.bmp' width = '100%;'></div></div>","null","pos","CS","CS","4","category4/CS4.png","","","","",""
"","html-keyboard-response","80","543846","0.0-6.0-6.0-0.11","qn0rom26n0","many_one","0","indirect_first","0","er06lf04","0","23","1","1","3","1","Die Studie hat Spaß gemacht","0","1","0","null","","","<div class = 'row'><div class = 'column'><img src = 'category3/CS5.png' width = '70%;'></div><div class = 'column'><img src = 'usneg/9220.bmp' width = '100%;'></div></div>","null","neg","CS","CS","3","category3/CS5.png","","","","",""
"","html-keyboard-response","81","546368","0.0-6.0-6.0-0.12","qn0rom26n0","many_one","0","indirect_first","0","er06lf04","0","23","1","1","3","1","Die Studie hat Spaß gemacht","0","1","0","null","","","<div class = 'row'><div class = 'column'><img src = 'uspos/2900.2.bmp' width = '100%;'></div><div class = 'column'><img src = 'category2/CS10.png' width = '70%;'></div></div>","null","pos","CS","CS","2","category2/CS10.png","","","","",""
"","html-keyboard-response","82","548908","0.0-6.0-6.0-0.13","qn0rom26n0","many_one","0","indirect_first","0","er06lf04","0","23","1","1","3","1","Die Studie hat Spaß gemacht","0","1","0","null","","","<div class = 'row'><div class = 'column'><img src = 'category1/CS9.png' width = '70%;'></div><div class = 'column'><img src = 'usneg/9000.bmp' width = '100%;'></div></div>","null","neg","CS","CS","1","category1/CS9.png","","","","",""
"","html-keyboard-response","83","551429","0.0-6.0-6.0-0.14","qn0rom26n0","many_one","0","indirect_first","0","er06lf04","0","23","1","1","3","1","Die Studie hat Spaß gemacht","0","1","0","null","","","<div class = 'row'><div class = 'column'><img src = 'usneg/2205.bmp' width = '100%;'></div><div class = 'column'><img src = 'category3/CS2.png' width = '70%;'></div></div>","null","neg","CS","CS","3","category3/CS2.png","","","","",""
"","html-keyboard-response","84","553958","0.0-6.0-6.0-0.15","qn0rom26n0","many_one","0","indirect_first","0","er06lf04","0","23","1","1","3","1","Die Studie hat Spaß gemacht","0","1","0","null","","","<div class = 'row'><div class = 'column'><img src = 'usneg/9041.bmp' width = '100%;'></div><div class = 'column'><img src = 'category1/CS6.png' width = '70%;'></div></div>","null","neg","CS","CS","1","category1/CS6.png","","","","",""
"","html-keyboard-response","85","556478","0.0-6.0-6.0-0.16","qn0rom26n0","many_one","0","indirect_first","0","er06lf04","0","23","1","1","3","1","Die Studie hat Spaß gemacht","0","1","0","null","","","<div class = 'row'><div class = 'column'><img src = 'uspos/5831.bmp' width = '100%;'></div><div class = 'column'><img src = 'category2/CS7.png' width = '70%;'></div></div>","null","pos","CS","CS","2","category2/CS7.png","","","","",""
"","html-keyboard-response","86","559009","0.0-6.0-6.0-0.17","qn0rom26n0","many_one","0","indirect_first","0","er06lf04","0","23","1","1","3","1","Die Studie hat Spaß gemacht","0","1","0","null","","","<div class = 'row'><div class = 'column'><img src = 'uspos/2530.bmp' width = '100%;'></div><div class = 'column'><img src = 'category2/CS5.png' width = '70%;'></div></div>","null","pos","CS","CS","2","category2/CS5.png","","","","",""
"","html-keyboard-response","87","561528","0.0-6.0-6.0-0.18","qn0rom26n0","many_one","0","indirect_first","0","er06lf04","0","23","1","1","3","1","Die Studie hat Spaß gemacht","0","1","0","null","","","<div class = 'row'><div class = 'column'><img src = 'uspos/2340.bmp' width = '100%;'></div><div class = 'column'><img src = 'category4/CS9.png' width = '70%;'></div></div>","null","pos","CS","CS","4","category4/CS9.png","","","","",""
"","html-keyboard-response","88","564058","0.0-6.0-6.0-0.19","qn0rom26n0","many_one","0","indirect_first","0","er06lf04","0","23","1","1","3","1","Die Studie hat Spaß gemacht","0","1","0","null","","","<div class = 'row'><div class = 'column'><img src = 'category1/CS4.png' width = '70%;'></div><div class = 'column'><img src = 'usneg/9584.bmp' width = '100%;'></div></div>","null","neg","CS","CS","1","category1/CS4.png","","","","",""
"","html-keyboard-response","89","661197","0.0-7.0","qn0rom26n0","many_one","0","indirect_first","0","er06lf04","0","23","1","1","3","1","Die Studie hat Spaß gemacht","0","1","0","96616","","","<p>Sie sehen nun die chinesischen Zeichen nur ganz kurz. Danach sehen Sie die jeweilige Aussprache der Zeichen als Silbe auf dem Bildschrim. Ihre Aufgabe ist es, für jede Silbe anzugeben, ob diese etwas angenehmes, oder unangenehmes bedeuten könnte. Verlassen Sie sich hier vor allem auf Ihre Intuition.<br><br>Die Zeichen werden nur zur Orientierung dargestellt, beachten Sie sie deshalb nicht. Konzentrieren Sie sich vor allem auf die Silben. <br>Reagieren Sie mit folgenden zwei Tasten: <br><br><b>'D' </b> wenn die Silbe etwas <b>unangenehmes</b> bedeuten könnte. <br><b>'K'</b> wenn die Silbe etwas <b>angenehmes</b> bedeuten könnte. <br><br>Bitte legen Sie nun den Zeigefinger der linken Hand auf die Taste 'D' und den Zeigefinger der rechten Hand auf die Taste 'K'. <br>Reagieren Sie auf jede Silbe so schnell wie möglich. Uns interessiert Ihre spontane Reaktion. <br> <br> <br>Drücken Sie 'D' oder 'K', um die nächste Aufgabe zu starten. </p>","75","","","","","","","","","",""
"","html-keyboard-response","90","664229","0.0-8.0-0.0","qn0rom26n0","many_one","0","indirect_first","0","er06lf04","0","23","1","1","3","1","Die Studie hat Spaß gemacht","0","1","0","null","","","<div style=""font-size:60px;"">+</div>","null","","","","","","","","","",""
"","html-keyboard-response","91","664337","0.0-8.0-1.0","qn0rom26n0","many_one","0","indirect_first","0","er06lf04","0","23","1","1","3","1","Die Studie hat Spaß gemacht","0","1","0","null","","","<img src = 'category1/CS3.png' width = '100%;'>","null","","","","","","","","","",""
"","html-keyboard-response","92","664604","0.0-8.0-2.0","qn0rom26n0","many_one","0","indirect_first","0","er06lf04","0","23","1","1","3","1","Die Studie hat Spaß gemacht","0","1","0","null","","","<img src = 'targets/12.png' width = '100%;'>","null","","","","","","","","","",""
"","html-keyboard-response","93","666971","0.0-8.0-3.0","qn0rom26n0","many_one","0","indirect_first","0","er06lf04","0","23","1","1","3","1","Die Studie hat Spaß gemacht","0","1","0","2367","","","<img src = 'targets/mask.png' width = '100%;'>","75","neg","GS","GSold","1","category1/CS3.png","targets/12.png","1","indirect","0",""
"","html-keyboard-response","94","668508","0.0-8.0-0.1","qn0rom26n0","many_one","0","indirect_first","0","er06lf04","0","23","1","1","3","1","Die Studie hat Spaß gemacht","0","1","0","null","","","<div style=""font-size:60px;"">+</div>","null","","","","","","","","","",""
"","html-keyboard-response","95","668603","0.0-8.0-1.1","qn0rom26n0","many_one","0","indirect_first","0","er06lf04","0","23","1","1","3","1","Die Studie hat Spaß gemacht","0","1","0","null","","","<img src = 'category2/CS10.png' width = '100%;'>","null","","","","","","","","","",""
"","html-keyboard-response","96","668870","0.0-8.0-2.1","qn0rom26n0","many_one","0","indirect_first","0","er06lf04","0","23","1","1","3","1","Die Studie hat Spaß gemacht","0","1","0","null","","","<img src = 'targets/40.png' width = '100%;'>","null","","","","","","","","","",""
"","html-keyboard-response","97","670757","0.0-8.0-3.1","qn0rom26n0","many_one","0","indirect_first","0","er06lf04","0","23","1","1","3","1","Die Studie hat Spaß gemacht","0","1","0","1885","","","<img src = 'targets/mask.png' width = '100%;'>","75","pos","CS","CS","2","category2/CS10.png","targets/40.png","1","indirect","1",""
"","html-keyboard-response","98","672288","0.0-8.0-0.2","qn0rom26n0","many_one","0","indirect_first","0","er06lf04","0","23","1","1","3","1","Die Studie hat Spaß gemacht","0","1","0","null","","","<div style=""font-size:60px;"">+</div>","null","","","","","","","","","",""
"","html-keyboard-response","99","672396","0.0-8.0-1.2","qn0rom26n0","many_one","0","indirect_first","0","er06lf04","0","23","1","1","3","1","Die Studie hat Spaß gemacht","0","1","0","null","","","<img src = 'category4/CS9.png' width = '100%;'>","null","","","","","","","","","",""
"","html-keyboard-response","100","672660","0.0-8.0-2.2","qn0rom26n0","many_one","0","indirect_first","0","er06lf04","0","23","1","1","3","1","Die Studie hat Spaß gemacht","0","1","0","null","","","<img src = 'targets/13.png' width = '100%;'>","null","","","","","","","","","",""
"","html-keyboard-response","101","673518","0.0-8.0-3.2","qn0rom26n0","many_one","0","indirect_first","0","er06lf04","0","23","1","1","3","1","Die Studie hat Spaß gemacht","0","1","0","856","","","<img src = 'targets/mask.png' width = '100%;'>","68","pos","CS","CS","4","category4/CS9.png","targets/13.png","0","indirect","2",""
"","html-keyboard-response","102","675048","0.0-8.0-0.3","qn0rom26n0","many_one","0","indirect_first","0","er06lf04","0","23","1","1","3","1","Die Studie hat Spaß gemacht","0","1","0","null","","","<div style=""font-size:60px;"">+</div>","null","","","","","","","","","",""
"","html-keyboard-response","103","675153","0.0-8.0-1.3","qn0rom26n0","many_one","0","indirect_first","0","er06lf04","0","23","1","1","3","1","Die Studie hat Spaß gemacht","0","1","0","null","","","<img src = 'category2/CS6.png' width = '100%;'>","null","","","","","","","","","",""
"","html-keyboard-response","104","675420","0.0-8.0-2.3","qn0rom26n0","many_one","0","indirect_first","0","er06lf04","0","23","1","1","3","1","Die Studie hat Spaß gemacht","0","1","0","null","","","<img src = 'targets/48.png' width = '100%;'>","null","","","","","","","","","",""
"","html-keyboard-response","105","676140","0.0-8.0-3.3","qn0rom26n0","many_one","0","indirect_first","0","er06lf04","0","23","1","1","3","1","Die Studie hat Spaß gemacht","0","1","0","719","","","<img src = 'targets/mask.png' width = '100%;'>","75","pos","CS","CS","2","category2/CS6.png","targets/48.png","1","indirect","3",""
"","html-keyboard-response","106","677657","0.0-8.0-0.4","qn0rom26n0","many_one","0","indirect_first","0","er06lf04","0","23","1","1","3","1","Die Studie hat Spaß gemacht","0","1","0","null","","","<div style=""font-size:60px;"">+</div>","null","","","","","","","","","",""
"","html-keyboard-response","107","677753","0.0-8.0-1.4","qn0rom26n0","many_one","0","indirect_first","0","er06lf04","0","23","1","1","3","1","Die Studie hat Spaß gemacht","0","1","0","null","","","<img src = 'category3/CS1.png' width = '100%;'>","null","","","","","","","","","",""
"","html-keyboard-response","108","678019","0.0-8.0-2.4","qn0rom26n0","many_one","0","indirect_first","0","er06lf04","0","23","1","1","3","1","Die Studie hat Spaß gemacht","0","1","0","null","","","<img src = 'targets/22.png' width = '100%;'>","null","","","","","","","","","",""
"","html-keyboard-response","109","678510","0.0-8.0-3.4","qn0rom26n0","many_one","0","indirect_first","0","er06lf04","0","23","1","1","3","1","Die Studie hat Spaß gemacht","0","1","0","488","","","<img src = 'targets/mask.png' width = '100%;'>","68","neg","CS","CS","3","category3/CS1.png","targets/22.png","0","indirect","4",""
"","html-keyboard-response","110","680038","0.0-8.0-0.5","qn0rom26n0","many_one","0","indirect_first","0","er06lf04","0","23","1","1","3","1","Die Studie hat Spaß gemacht","0","1","0","null","","","<div style=""font-size:60px;"">+</div>","null","","","","","","","","","",""
"","html-keyboard-response","111","680145","0.0-8.0-1.5","qn0rom26n0","many_one","0","indirect_first","0","er06lf04","0","23","1","1","3","1","Die Studie hat Spaß gemacht","0","1","0","null","","","<img src = 'category2/CS5.png' width = '100%;'>","null","","","","","","","","","",""
"","html-keyboard-response","112","680410","0.0-8.0-2.5","qn0rom26n0","many_one","0","indirect_first","0","er06lf04","0","23","1","1","3","1","Die Studie hat Spaß gemacht","0","1","0","null","","","<img src = 'targets/19.png' width = '100%;'>","null","","","","","","","","","",""
"","html-keyboard-response","113","681430","0.0-8.0-3.5","qn0rom26n0","many_one","0","indirect_first","0","er06lf04","0","23","1","1","3","1","Die Studie hat Spaß gemacht","0","1","0","1018","","","<img src = 'targets/mask.png' width = '100%;'>","68","pos","CS","CS","2","category2/CS5.png","targets/19.png","0","indirect","5",""
"","html-keyboard-response","114","682958","0.0-8.0-0.6","qn0rom26n0","many_one","0","indirect_first","0","er06lf04","0","23","1","1","3","1","Die Studie hat Spaß gemacht","0","1","0","null","","","<div style=""font-size:60px;"">+</div>","null","","","","","","","","","",""
"","html-keyboard-response","115","683061","0.0-8.0-1.6","qn0rom26n0","many_one","0","indirect_first","0","er06lf04","0","23","1","1","3","1","Die Studie hat Spaß gemacht","0","1","0","null","","","<img src = 'category1/CS6.png' width = '100%;'>","null","","","","","","","","","",""
"","html-keyboard-response","116","683327","0.0-8.0-2.6","qn0rom26n0","many_one","0","indirect_first","0","er06lf04","0","23","1","1","3","1","Die Studie hat Spaß gemacht","0","1","0","null","","","<img src = 'targets/35.png' width = '100%;'>","null","","","","","","","","","",""
"","html-keyboard-response","117","684027","0.0-8.0-3.6","qn0rom26n0","many_one","0","indirect_first","0","er06lf04","0","23","1","1","3","1","Die Studie hat Spaß gemacht","0","1","0","697","","","<img src = 'targets/mask.png' width = '100%;'>","75","neg","CS","CS","1","category1/CS6.png","targets/35.png","1","indirect","6",""
"","html-keyboard-response","118","685536","0.0-8.0-0.7","qn0rom26n0","many_one","0","indirect_first","0","er06lf04","0","23","1","1","3","1","Die Studie hat Spaß gemacht","0","1","0","null","","","<div style=""font-size:60px;"">+</div>","null","","","","","","","","","",""
"","html-keyboard-response","119","685636","0.0-8.0-1.7","qn0rom26n0","many_one","0","indirect_first","0","er06lf04","0","23","1","1","3","1","Die Studie hat Spaß gemacht","0","1","0","null","","","<img src = 'category1/CS9.png' width = '100%;'>","null","","","","","","","","","",""
"","html-keyboard-response","120","685903","0.0-8.0-2.7","qn0rom26n0","many_one","0","indirect_first","0","er06lf04","0","23","1","1","3","1","Die Studie hat Spaß gemacht","0","1","0","null","","","<img src = 'targets/27.png' width = '100%;'>","null","","","","","","","","","",""
"","html-keyboard-response","121","686530","0.0-8.0-3.7","qn0rom26n0","many_one","0","indirect_first","0","er06lf04","0","23","1","1","3","1","Die Studie hat Spaß gemacht","0","1","0","624","","","<img src = 'targets/mask.png' width = '100%;'>","68","neg","CS","CS","1","category1/CS9.png","targets/27.png","0","indirect","7",""
"","html-keyboard-response","122","688058","0.0-8.0-0.8","qn0rom26n0","many_one","0","indirect_first","0","er06lf04","0","23","1","1","3","1","Die Studie hat Spaß gemacht","0","1","0","null","","","<div style=""font-size:60px;"">+</div>","null","","","","","","","","","",""
"","html-keyboard-response","123","688161","0.0-8.0-1.8","qn0rom26n0","many_one","0","indirect_first","0","er06lf04","0","23","1","1","3","1","Die Studie hat Spaß gemacht","0","1","0","null","","","<img src = 'category4/CS5.png' width = '100%;'>","null","","","","","","","","","",""
"","html-keyboard-response","124","688435","0.0-8.0-2.8","qn0rom26n0","many_one","0","indirect_first","0","er06lf04","0","23","1","1","3","1","Die Studie hat Spaß gemacht","0","1","0","null","","","<img src = 'targets/26.png' width = '100%;'>","null","","","","","","","","","",""
"","html-keyboard-response","125","689090","0.0-8.0-3.8","qn0rom26n0","many_one","0","indirect_first","0","er06lf04","0","23","1","1","3","1","Die Studie hat Spaß gemacht","0","1","0","654","","","<img src = 'targets/mask.png' width = '100%;'>","75","pos","CS","CS","4","category4/CS5.png","targets/26.png","1","indirect","8",""
"","html-keyboard-response","126","690617","0.0-8.0-0.9","qn0rom26n0","many_one","0","indirect_first","0","er06lf04","0","23","1","1","3","1","Die Studie hat Spaß gemacht","0","1","0","null","","","<div style=""font-size:60px;"">+</div>","null","","","","","","","","","",""
"","html-keyboard-response","127","690710","0.0-8.0-1.9","qn0rom26n0","many_one","0","indirect_first","0","er06lf04","0","23","1","1","3","1","Die Studie hat Spaß gemacht","0","1","0","null","","","<img src = 'category1/CS8.png' width = '100%;'>","null","","","","","","","","","",""
"","html-keyboard-response","128","690978","0.0-8.0-2.9","qn0rom26n0","many_one","0","indirect_first","0","er06lf04","0","23","1","1","3","1","Die Studie hat Spaß gemacht","0","1","0","null","","","<img src = 'targets/44.png' width = '100%;'>","null","","","","","","","","","",""
"","html-keyboard-response","129","692046","0.0-8.0-3.9","qn0rom26n0","many_one","0","indirect_first","0","er06lf04","0","23","1","1","3","1","Die Studie hat Spaß gemacht","0","1","0","1065","","","<img src = 'targets/mask.png' width = '100%;'>","68","neg","CS","CS","1","category1/CS8.png","targets/44.png","0","indirect","9",""
"","html-keyboard-response","130","693558","0.0-8.0-0.10","qn0rom26n0","many_one","0","indirect_first","0","er06lf04","0","23","1","1","3","1","Die Studie hat Spaß gemacht","0","1","0","null","","","<div style=""font-size:60px;"">+</div>","null","","","","","","","","","",""
"","html-keyboard-response","131","693661","0.0-8.0-1.10","qn0rom26n0","many_one","0","indirect_first","0","er06lf04","0","23","1","1","3","1","Die Studie hat Spaß gemacht","0","1","0","null","","","<img src = 'category3/CS6.png' width = '100%;'>","null","","","","","","","","","",""
"","html-keyboard-response","132","693928","0.0-8.0-2.10","qn0rom26n0","many_one","0","indirect_first","0","er06lf04","0","23","1","1","3","1","Die Studie hat Spaß gemacht","0","1","0","null","","","<img src = 'targets/24.png' width = '100%;'>","null","","","","","","","","","",""
"","html-keyboard-response","133","694905","0.0-8.0-3.10","qn0rom26n0","many_one","0","indirect_first","0","er06lf04","0","23","1","1","3","1","Die Studie hat Spaß gemacht","0","1","0","976","","","<img src = 'targets/mask.png' width = '100%;'>","68","neg","CS","CS","3","category3/CS6.png","targets/24.png","0","indirect","10",""
"","html-keyboard-response","134","696428","0.0-8.0-0.11","qn0rom26n0","many_one","0","indirect_first","0","er06lf04","0","23","1","1","3","1","Die Studie hat Spaß gemacht","0","1","0","null","","","<div style=""font-size:60px;"">+</div>","null","","","","","","","","","",""
"","html-keyboard-response","135","696536","0.0-8.0-1.11","qn0rom26n0","many_one","0","indirect_first","0","er06lf04","0","23","1","1","3","1","Die Studie hat Spaß gemacht","0","1","0","null","","","<img src = 'category2/CS9.png' width = '100%;'>","null","","","","","","","","","",""
"","html-keyboard-response","136","696803","0.0-8.0-2.11","qn0rom26n0","many_one","0","indirect_first","0","er06lf04","0","23","1","1","3","1","Die Studie hat Spaß gemacht","0","1","0","null","","","<img src = 'targets/36.png' width = '100%;'>","null","","","","","","","","","",""
"","html-keyboard-response","137","697415","0.0-8.0-3.11","qn0rom26n0","many_one","0","indirect_first","0","er06lf04","0","23","1","1","3","1","Die Studie hat Spaß gemacht","0","1","0","612","","","<img src = 'targets/mask.png' width = '100%;'>","75","pos","CS","CS","2","category2/CS9.png","targets/36.png","1","indirect","11",""
"","html-keyboard-response","138","698938","0.0-8.0-0.12","qn0rom26n0","many_one","0","indirect_first","0","er06lf04","0","23","1","1","3","1","Die Studie hat Spaß gemacht","0","1","0","null","","","<div style=""font-size:60px;"">+</div>","null","","","","","","","","","",""
"","html-keyboard-response","139","699048","0.0-8.0-1.12","qn0rom26n0","many_one","0","indirect_first","0","er06lf04","0","23","1","1","3","1","Die Studie hat Spaß gemacht","0","1","0","null","","","<img src = 'category3/CS2.png' width = '100%;'>","null","","","","","","","","","",""
"","html-keyboard-response","140","699319","0.0-8.0-2.12","qn0rom26n0","many_one","0","indirect_first","0","er06lf04","0","23","1","1","3","1","Die Studie hat Spaß gemacht","0","1","0","null","","","<img src = 'targets/29.png' width = '100%;'>","null","","","","","","","","","",""
"","html-keyboard-response","141","700121","0.0-8.0-3.12","qn0rom26n0","many_one","0","indirect_first","0","er06lf04","0","23","1","1","3","1","Die Studie hat Spaß gemacht","0","1","0","799","","","<img src = 'targets/mask.png' width = '100%;'>","75","neg","CS","CS","3","category3/CS2.png","targets/29.png","1","indirect","12",""
"","html-keyboard-response","142","701629","0.0-8.0-0.13","qn0rom26n0","many_one","0","indirect_first","0","er06lf04","0","23","1","1","3","1","Die Studie hat Spaß gemacht","0","1","0","null","","","<div style=""font-size:60px;"">+</div>","null","","","","","","","","","",""
"","html-keyboard-response","143","701728","0.0-8.0-1.13","qn0rom26n0","many_one","0","indirect_first","0","er06lf04","0","23","1","1","3","1","Die Studie hat Spaß gemacht","0","1","0","null","","","<img src = 'category4/CS8.png' width = '100%;'>","null","","","","","","","","","",""
"","html-keyboard-response","144","701994","0.0-8.0-2.13","qn0rom26n0","many_one","0","indirect_first","0","er06lf04","0","23","1","1","3","1","Die Studie hat Spaß gemacht","0","1","0","null","","","<img src = 'targets/23.png' width = '100%;'>","null","","","","","","","","","",""
"","html-keyboard-response","145","703007","0.0-8.0-3.13","qn0rom26n0","many_one","0","indirect_first","0","er06lf04","0","23","1","1","3","1","Die Studie hat Spaß gemacht","0","1","0","1011","","","<img src = 'targets/mask.png' width = '100%;'>","75","pos","CS","CS","4","category4/CS8.png","targets/23.png","1","indirect","13",""
"","html-keyboard-response","146","704528","0.0-8.0-0.14","qn0rom26n0","many_one","0","indirect_first","0","er06lf04","0","23","1","1","3","1","Die Studie hat Spaß gemacht","0","1","0","null","","","<div style=""font-size:60px;"">+</div>","null","","","","","","","","","",""
"","html-keyboard-response","147","704623","0.0-8.0-1.14","qn0rom26n0","many_one","0","indirect_first","0","er06lf04","0","23","1","1","3","1","Die Studie hat Spaß gemacht","0","1","0","null","","","<img src = 'category4/CS4.png' width = '100%;'>","null","","","","","","","","","",""
"","html-keyboard-response","148","704887","0.0-8.0-2.14","qn0rom26n0","many_one","0","indirect_first","0","er06lf04","0","23","1","1","3","1","Die Studie hat Spaß gemacht","0","1","0","null","","","<img src = 'targets/2.png' width = '100%;'>","null","","","","","","","","","",""
"","html-keyboard-response","149","705369","0.0-8.0-3.14","qn0rom26n0","many_one","0","indirect_first","0","er06lf04","0","23","1","1","3","1","Die Studie hat Spaß gemacht","0","1","0","481","","","<img src = 'targets/mask.png' width = '100%;'>","68","pos","CS","CS","4","category4/CS4.png","targets/2.png","0","indirect","14",""
"","html-keyboard-response","150","706901","0.0-8.0-0.15","qn0rom26n0","many_one","0","indirect_first","0","er06lf04","0","23","1","1","3","1","Die Studie hat Spaß gemacht","0","1","0","null","","","<div style=""font-size:60px;"">+</div>","null","","","","","","","","","",""
"","html-keyboard-response","151","706994","0.0-8.0-1.15","qn0rom26n0","many_one","0","indirect_first","0","er06lf04","0","23","1","1","3","1","Die Studie hat Spaß gemacht","0","1","0","null","","","<img src = 'category1/CS7.png' width = '100%;'>","null","","","","","","","","","",""
"","html-keyboard-response","152","707261","0.0-8.0-2.15","qn0rom26n0","many_one","0","indirect_first","0","er06lf04","0","23","1","1","3","1","Die Studie hat Spaß gemacht","0","1","0","null","","","<img src = 'targets/20.png' width = '100%;'>","null","","","","","","","","","",""
"","html-keyboard-response","153","707729","0.0-8.0-3.15","qn0rom26n0","many_one","0","indirect_first","0","er06lf04","0","23","1","1","3","1","Die Studie hat Spaß gemacht","0","1","0","468","","","<img src = 'targets/mask.png' width = '100%;'>","68","neg","GS","GSold","1","category1/CS7.png","targets/20.png","0","indirect","15",""
"","html-keyboard-response","154","709247","0.0-8.0-0.16","qn0rom26n0","many_one","0","indirect_first","0","er06lf04","0","23","1","1","3","1","Die Studie hat Spaß gemacht","0","1","0","null","","","<div style=""font-size:60px;"">+</div>","null","","","","","","","","","",""
"","html-keyboard-response","155","709352","0.0-8.0-1.16","qn0rom26n0","many_one","0","indirect_first","0","er06lf04","0","23","1","1","3","1","Die Studie hat Spaß gemacht","0","1","0","null","","","<img src = 'category2/CS2.png' width = '100%;'>","null","","","","","","","","","",""
"","html-keyboard-response","156","709619","0.0-8.0-2.16","qn0rom26n0","many_one","0","indirect_first","0","er06lf04","0","23","1","1","3","1","Die Studie hat Spaß gemacht","0","1","0","null","","","<img src = 'targets/37.png' width = '100%;'>","null","","","","","","","","","",""
"","html-keyboard-response","157","710259","0.0-8.0-3.16","qn0rom26n0","many_one","0","indirect_first","0","er06lf04","0","23","1","1","3","1","Die Studie hat Spaß gemacht","0","1","0","639","","","<img src = 'targets/mask.png' width = '100%;'>","68","pos","GS","GSold","2","category2/CS2.png","targets/37.png","0","indirect","16",""
"","html-keyboard-response","158","711768","0.0-8.0-0.17","qn0rom26n0","many_one","0","indirect_first","0","er06lf04","0","23","1","1","3","1","Die Studie hat Spaß gemacht","0","1","0","null","","","<div style=""font-size:60px;"">+</div>","null","","","","","","","","","",""
"","html-keyboard-response","159","711861","0.0-8.0-1.17","qn0rom26n0","many_one","0","indirect_first","0","er06lf04","0","23","1","1","3","1","Die Studie hat Spaß gemacht","0","1","0","null","","","<img src = 'category1/CS4.png' width = '100%;'>","null","","","","","","","","","",""
"","html-keyboard-response","160","712128","0.0-8.0-2.17","qn0rom26n0","many_one","0","indirect_first","0","er06lf04","0","23","1","1","3","1","Die Studie hat Spaß gemacht","0","1","0","null","","","<img src = 'targets/5.png' width = '100%;'>","null","","","","","","","","","",""
"","html-keyboard-response","161","712890","0.0-8.0-3.17","qn0rom26n0","many_one","0","indirect_first","0","er06lf04","0","23","1","1","3","1","Die Studie hat Spaß gemacht","0","1","0","760","","","<img src = 'targets/mask.png' width = '100%;'>","68","neg","CS","CS","1","category1/CS4.png","targets/5.png","0","indirect","17",""
"","html-keyboard-response","162","714408","0.0-8.0-0.18","qn0rom26n0","many_one","0","indirect_first","0","er06lf04","0","23","1","1","3","1","Die Studie hat Spaß gemacht","0","1","0","null","","","<div style=""font-size:60px;"">+</div>","null","","","","","","","","","",""
"","html-keyboard-response","163","714510","0.0-8.0-1.18","qn0rom26n0","many_one","0","indirect_first","0","er06lf04","0","23","1","1","3","1","Die Studie hat Spaß gemacht","0","1","0","null","","","<img src = 'category1/CS5.png' width = '100%;'>","null","","","","","","","","","",""
"","html-keyboard-response","164","714778","0.0-8.0-2.18","qn0rom26n0","many_one","0","indirect_first","0","er06lf04","0","23","1","1","3","1","Die Studie hat Spaß gemacht","0","1","0","null","","","<img src = 'targets/45.png' width = '100%;'>","null","","","","","","","","","",""
"","html-keyboard-response","165","715323","0.0-8.0-3.18","qn0rom26n0","many_one","0","indirect_first","0","er06lf04","0","23","1","1","3","1","Die Studie hat Spaß gemacht","0","1","0","543","","","<img src = 'targets/mask.png' width = '100%;'>","68","neg","GS","GSold","1","category1/CS5.png","targets/45.png","0","indirect","18",""
"","html-keyboard-response","166","716837","0.0-8.0-0.19","qn0rom26n0","many_one","0","indirect_first","0","er06lf04","0","23","1","1","3","1","Die Studie hat Spaß gemacht","0","1","0","null","","","<div style=""font-size:60px;"">+</div>","null","","","","","","","","","",""
"","html-keyboard-response","167","716944","0.0-8.0-1.19","qn0rom26n0","many_one","0","indirect_first","0","er06lf04","0","23","1","1","3","1","Die Studie hat Spaß gemacht","0","1","0","null","","","<img src = 'category2/CS7.png' width = '100%;'>","null","","","","","","","","","",""
"","html-keyboard-response","168","717211","0.0-8.0-2.19","qn0rom26n0","many_one","0","indirect_first","0","er06lf04","0","23","1","1","3","1","Die Studie hat Spaß gemacht","0","1","0","null","","","<img src = 'targets/4.png' width = '100%;'>","null","","","","","","","","","",""
"","html-keyboard-response","169","717660","0.0-8.0-3.19","qn0rom26n0","many_one","0","indirect_first","0","er06lf04","0","23","1","1","3","1","Die Studie hat Spaß gemacht","0","1","0","449","","","<img src = 'targets/mask.png' width = '100%;'>","75","pos","CS","CS","2","category2/CS7.png","targets/4.png","1","indirect","19",""
"","html-keyboard-response","170","719178","0.0-8.0-0.20","qn0rom26n0","many_one","0","indirect_first","0","er06lf04","0","23","1","1","3","1","Die Studie hat Spaß gemacht","0","1","0","null","","","<div style=""font-size:60px;"">+</div>","null","","","","","","","","","",""
"","html-keyboard-response","171","719288","0.0-8.0-1.20","qn0rom26n0","many_one","0","indirect_first","0","er06lf04","0","23","1","1","3","1","Die Studie hat Spaß gemacht","0","1","0","null","","","<img src = 'category3/CS9.png' width = '100%;'>","null","","","","","","","","","",""
"","html-keyboard-response","172","719560","0.0-8.0-2.20","qn0rom26n0","many_one","0","indirect_first","0","er06lf04","0","23","1","1","3","1","Die Studie hat Spaß gemacht","0","1","0","null","","","<img src = 'targets/46.png' width = '100%;'>","null","","","","","","","","","",""
"","html-keyboard-response","173","720074","0.0-8.0-3.20","qn0rom26n0","many_one","0","indirect_first","0","er06lf04","0","23","1","1","3","1","Die Studie hat Spaß gemacht","0","1","0","514","","","<img src = 'targets/mask.png' width = '100%;'>","68","neg","CS","CS","3","category3/CS9.png","targets/46.png","0","indirect","20",""
"","html-keyboard-response","174","721597","0.0-8.0-0.21","qn0rom26n0","many_one","0","indirect_first","0","er06lf04","0","23","1","1","3","1","Die Studie hat Spaß gemacht","0","1","0","null","","","<div style=""font-size:60px;"">+</div>","null","","","","","","","","","",""
"","html-keyboard-response","175","721702","0.0-8.0-1.21","qn0rom26n0","many_one","0","indirect_first","0","er06lf04","0","23","1","1","3","1","Die Studie hat Spaß gemacht","0","1","0","null","","","<img src = 'category1/CS1.png' width = '100%;'>","null","","","","","","","","","",""
"","html-keyboard-response","176","721969","0.0-8.0-2.21","qn0rom26n0","many_one","0","indirect_first","0","er06lf04","0","23","1","1","3","1","Die Studie hat Spaß gemacht","0","1","0","null","","","<img src = 'targets/6.png' width = '100%;'>","null","","","","","","","","","",""
"","html-keyboard-response","177","722780","0.0-8.0-3.21","qn0rom26n0","many_one","0","indirect_first","0","er06lf04","0","23","1","1","3","1","Die Studie hat Spaß gemacht","0","1","0","809","","","<img src = 'targets/mask.png' width = '100%;'>","68","neg","CS","CS","1","category1/CS1.png","targets/6.png","0","indirect","21",""
"","html-keyboard-response","178","724307","0.0-8.0-0.22","qn0rom26n0","many_one","0","indirect_first","0","er06lf04","0","23","1","1","3","1","Die Studie hat Spaß gemacht","0","1","0","null","","","<div style=""font-size:60px;"">+</div>","null","","","","","","","","","",""
"","html-keyboard-response","179","724417","0.0-8.0-1.22","qn0rom26n0","many_one","0","indirect_first","0","er06lf04","0","23","1","1","3","1","Die Studie hat Spaß gemacht","0","1","0","null","","","<img src = 'category3/CS5.png' width = '100%;'>","null","","","","","","","","","",""
"","html-keyboard-response","180","724686","0.0-8.0-2.22","qn0rom26n0","many_one","0","indirect_first","0","er06lf04","0","23","1","1","3","1","Die Studie hat Spaß gemacht","0","1","0","null","","","<img src = 'targets/33.png' width = '100%;'>","null","","","","","","","","","",""
"","html-keyboard-response","181","725237","0.0-8.0-3.22","qn0rom26n0","many_one","0","indirect_first","0","er06lf04","0","23","1","1","3","1","Die Studie hat Spaß gemacht","0","1","0","549","","","<img src = 'targets/mask.png' width = '100%;'>","75","neg","CS","CS","3","category3/CS5.png","targets/33.png","1","indirect","22",""
"","html-keyboard-response","182","726768","0.0-8.0-0.23","qn0rom26n0","many_one","0","indirect_first","0","er06lf04","0","23","1","1","3","1","Die Studie hat Spaß gemacht","0","1","0","null","","","<div style=""font-size:60px;"">+</div>","null","","","","","","","","","",""
"","html-keyboard-response","183","726860","0.0-8.0-1.23","qn0rom26n0","many_one","0","indirect_first","0","er06lf04","0","23","1","1","3","1","Die Studie hat Spaß gemacht","0","1","0","null","","","<img src = 'category4/CS2.png' width = '100%;'>","null","","","","","","","","","",""
"","html-keyboard-response","184","727127","0.0-8.0-2.23","qn0rom26n0","many_one","0","indirect_first","0","er06lf04","0","23","1","1","3","1","Die Studie hat Spaß gemacht","0","1","0","null","","","<img src = 'targets/1.png' width = '100%;'>","null","","","","","","","","","",""
"","html-keyboard-response","185","727538","0.0-8.0-3.23","qn0rom26n0","many_one","0","indirect_first","0","er06lf04","0","23","1","1","3","1","Die Studie hat Spaß gemacht","0","1","0","409","","","<img src = 'targets/mask.png' width = '100%;'>","75","pos","CS","CS","4","category4/CS2.png","targets/1.png","1","indirect","23",""
"","survey-html-form","186","732373","0.0-9.0","qn0rom26n0","many_one","0","indirect_first","0","er06lf04","0","23","1","1","3","1","Die Studie hat Spaß gemacht","0","1","0","4313","","{}","","","","","","","","","","","",""
"","html-keyboard-response","187","735408","0.0-10.0-0.0","qn0rom26n0","many_one","0","indirect_first","0","er06lf04","0","23","1","1","3","1","Die Studie hat Spaß gemacht","0","1","0","null","","","<div style=""font-size:60px;"">+</div>","null","","","","","","","","","",""
"","html-keyboard-response","188","735502","0.0-10.0-1.0","qn0rom26n0","many_one","0","indirect_first","0","er06lf04","0","23","1","1","3","1","Die Studie hat Spaß gemacht","0","1","0","null","","","<img src = 'category3/GS2.png' width = '100%;'>","null","","","","","","","","","",""
"","html-keyboard-response","189","735767","0.0-10.0-2.0","qn0rom26n0","many_one","0","indirect_first","0","er06lf04","0","23","1","1","3","1","Die Studie hat Spaß gemacht","0","1","0","null","","","<img src = 'targets/11.png' width = '100%;'>","null","","","","","","","","","",""
"","html-keyboard-response","190","736246","0.0-10.0-3.0","qn0rom26n0","many_one","0","indirect_first","0","er06lf04","0","23","1","1","3","1","Die Studie hat Spaß gemacht","0","1","0","477","","","<img src = 'targets/mask.png' width = '100%;'>","75","neg","GS","GSnew","3","category3/GS2.png","targets/11.png","1","indirect","24",""
"","html-keyboard-response","191","737760","0.0-10.0-0.1","qn0rom26n0","many_one","0","indirect_first","0","er06lf04","0","23","1","1","3","1","Die Studie hat Spaß gemacht","0","1","0","null","","","<div style=""font-size:60px;"">+</div>","null","","","","","","","","","",""
"","html-keyboard-response","192","737859","0.0-10.0-1.1","qn0rom26n0","many_one","0","indirect_first","0","er06lf04","0","23","1","1","3","1","Die Studie hat Spaß gemacht","0","1","0","null","","","<img src = 'category1/GS1.png' width = '100%;'>","null","","","","","","","","","",""
"","html-keyboard-response","193","738128","0.0-10.0-2.1","qn0rom26n0","many_one","0","indirect_first","0","er06lf04","0","23","1","1","3","1","Die Studie hat Spaß gemacht","0","1","0","null","","","<img src = 'targets/34.png' width = '100%;'>","null","","","","","","","","","",""
"","html-keyboard-response","194","738613","0.0-10.0-3.1","qn0rom26n0","many_one","0","indirect_first","0","er06lf04","0","23","1","1","3","1","Die Studie hat Spaß gemacht","0","1","0","484","","","<img src = 'targets/mask.png' width = '100%;'>","75","neg","GS","GSnew","1","category1/GS1.png","targets/34.png","1","indirect","25",""
"","html-keyboard-response","195","740138","0.0-10.0-0.2","qn0rom26n0","many_one","0","indirect_first","0","er06lf04","0","23","1","1","3","1","Die Studie hat Spaß gemacht","0","1","0","null","","","<div style=""font-size:60px;"">+</div>","null","","","","","","","","","",""
"","html-keyboard-response","196","740235","0.0-10.0-1.2","qn0rom26n0","many_one","0","indirect_first","0","er06lf04","0","23","1","1","3","1","Die Studie hat Spaß gemacht","0","1","0","null","","","<img src = 'category1/GS2.png' width = '100%;'>","null","","","","","","","","","",""
"","html-keyboard-response","197","740502","0.0-10.0-2.2","qn0rom26n0","many_one","0","indirect_first","0","er06lf04","0","23","1","1","3","1","Die Studie hat Spaß gemacht","0","1","0","null","","","<img src = 'targets/21.png' width = '100%;'>","null","","","","","","","","","",""
"","html-keyboard-response","198","741097","0.0-10.0-3.2","qn0rom26n0","many_one","0","indirect_first","0","er06lf04","0","23","1","1","3","1","Die Studie hat Spaß gemacht","0","1","0","594","","","<img src = 'targets/mask.png' width = '100%;'>","75","neg","GS","GSnew","1","category1/GS2.png","targets/21.png","1","indirect","26",""
"","html-keyboard-response","199","742627","0.0-10.0-0.3","qn0rom26n0","many_one","0","indirect_first","0","er06lf04","0","23","1","1","3","1","Die Studie hat Spaß gemacht","0","1","0","null","","","<div style=""font-size:60px;"">+</div>","null","","","","","","","","","",""
"","html-keyboard-response","200","742733","0.0-10.0-1.3","qn0rom26n0","many_one","0","indirect_first","0","er06lf04","0","23","1","1","3","1","Die Studie hat Spaß gemacht","0","1","0","null","","","<img src = 'category4/GS1.png' width = '100%;'>","null","","","","","","","","","",""
"","html-keyboard-response","201","743002","0.0-10.0-2.3","qn0rom26n0","many_one","0","indirect_first","0","er06lf04","0","23","1","1","3","1","Die Studie hat Spaß gemacht","0","1","0","null","","","<img src = 'targets/25.png' width = '100%;'>","null","","","","","","","","","",""
"","html-keyboard-response","202","743509","0.0-10.0-3.3","qn0rom26n0","many_one","0","indirect_first","0","er06lf04","0","23","1","1","3","1","Die Studie hat Spaß gemacht","0","1","0","505","","","<img src = 'targets/mask.png' width = '100%;'>","68","pos","GS","GSnew","4","category4/GS1.png","targets/25.png","0","indirect","27",""
"","html-keyboard-response","203","745048","0.0-10.0-0.4","qn0rom26n0","many_one","0","indirect_first","0","er06lf04","0","23","1","1","3","1","Die Studie hat Spaß gemacht","0","1","0","null","","","<div style=""font-size:60px;"">+</div>","null","","","","","","","","","",""
"","html-keyboard-response","204","745152","0.0-10.0-1.4","qn0rom26n0","many_one","0","indirect_first","0","er06lf04","0","23","1","1","3","1","Die Studie hat Spaß gemacht","0","1","0","null","","","<img src = 'category4/CS3.png' width = '100%;'>","null","","","","","","","","","",""
"","html-keyboard-response","205","745419","0.0-10.0-2.4","qn0rom26n0","many_one","0","indirect_first","0","er06lf04","0","23","1","1","3","1","Die Studie hat Spaß gemacht","0","1","0","null","","","<img src = 'targets/38.png' width = '100%;'>","null","","","","","","","","","",""
"","html-keyboard-response","206","746058","0.0-10.0-3.4","qn0rom26n0","many_one","0","indirect_first","0","er06lf04","0","23","1","1","3","1","Die Studie hat Spaß gemacht","0","1","0","639","","","<img src = 'targets/mask.png' width = '100%;'>","68","pos","GS","GSold","4","category4/CS3.png","targets/38.png","0","indirect","28",""
"","html-keyboard-response","207","747597","0.0-10.0-0.5","qn0rom26n0","many_one","0","indirect_first","0","er06lf04","0","23","1","1","3","1","Die Studie hat Spaß gemacht","0","1","0","null","","","<div style=""font-size:60px;"">+</div>","null","","","","","","","","","",""
"","html-keyboard-response","208","747701","0.0-10.0-1.5","qn0rom26n0","many_one","0","indirect_first","0","er06lf04","0","23","1","1","3","1","Die Studie hat Spaß gemacht","0","1","0","null","","","<img src = 'category2/CS8.png' width = '100%;'>","null","","","","","","","","","",""
"","html-keyboard-response","209","747968","0.0-10.0-2.5","qn0rom26n0","many_one","0","indirect_first","0","er06lf04","0","23","1","1","3","1","Die Studie hat Spaß gemacht","0","1","0","null","","","<img src = 'targets/43.png' width = '100%;'>","null","","","","","","","","","",""
"","html-keyboard-response","210","748469","0.0-10.0-3.5","qn0rom26n0","many_one","0","indirect_first","0","er06lf04","0","23","1","1","3","1","Die Studie hat Spaß gemacht","0","1","0","500","","","<img src = 'targets/mask.png' width = '100%;'>","68","pos","GS","GSold","2","category2/CS8.png","targets/43.png","0","indirect","29",""
"","html-keyboard-response","211","749997","0.0-10.0-0.6","qn0rom26n0","many_one","0","indirect_first","0","er06lf04","0","23","1","1","3","1","Die Studie hat Spaß gemacht","0","1","0","null","","","<div style=""font-size:60px;"">+</div>","null","","","","","","","","","",""
"","html-keyboard-response","212","750103","0.0-10.0-1.6","qn0rom26n0","many_one","0","indirect_first","0","er06lf04","0","23","1","1","3","1","Die Studie hat Spaß gemacht","0","1","0","null","","","<img src = 'category1/GS3.png' width = '100%;'>","null","","","","","","","","","",""
"","html-keyboard-response","213","750368","0.0-10.0-2.6","qn0rom26n0","many_one","0","indirect_first","0","er06lf04","0","23","1","1","3","1","Die Studie hat Spaß gemacht","0","1","0","null","","","<img src = 'targets/18.png' width = '100%;'>","null","","","","","","","","","",""
"","html-keyboard-response","214","750792","0.0-10.0-3.6","qn0rom26n0","many_one","0","indirect_first","0","er06lf04","0","23","1","1","3","1","Die Studie hat Spaß gemacht","0","1","0","423","","","<img src = 'targets/mask.png' width = '100%;'>","68","neg","GS","GSnew","1","category1/GS3.png","targets/18.png","0","indirect","30",""
"","html-keyboard-response","215","752307","0.0-10.0-0.7","qn0rom26n0","many_one","0","indirect_first","0","er06lf04","0","23","1","1","3","1","Die Studie hat Spaß gemacht","0","1","0","null","","","<div style=""font-size:60px;"">+</div>","null","","","","","","","","","",""
"","html-keyboard-response","216","752408","0.0-10.0-1.7","qn0rom26n0","many_one","0","indirect_first","0","er06lf04","0","23","1","1","3","1","Die Studie hat Spaß gemacht","0","1","0","null","","","<img src = 'category1/ma.png' width = '100%;'>","null","","","","","","","","","",""
"","html-keyboard-response","217","752676","0.0-10.0-2.7","qn0rom26n0","many_one","0","indirect_first","0","er06lf04","0","23","1","1","3","1","Die Studie hat Spaß gemacht","0","1","0","null","","","<img src = 'targets/28.png' width = '100%;'>","null","","","","","","","","","",""
"","html-keyboard-response","218","753326","0.0-10.0-3.7","qn0rom26n0","many_one","0","indirect_first","0","er06lf04","0","23","1","1","3","1","Die Studie hat Spaß gemacht","0","1","0","647","","","<img src = 'targets/mask.png' width = '100%;'>","68","neg","GS","abstract","1","category1/ma.png","targets/28.png","0","indirect","31",""
"","html-keyboard-response","219","754848","0.0-10.0-0.8","qn0rom26n0","many_one","0","indirect_first","0","er06lf04","0","23","1","1","3","1","Die Studie hat Spaß gemacht","0","1","0","null","","","<div style=""font-size:60px;"">+</div>","null","","","","","","","","","",""
"","html-keyboard-response","220","754952","0.0-10.0-1.8","qn0rom26n0","many_one","0","indirect_first","0","er06lf04","0","23","1","1","3","1","Die Studie hat Spaß gemacht","0","1","0","null","","","<img src = 'category3/GS3.png' width = '100%;'>","null","","","","","","","","","",""
"","html-keyboard-response","221","755218","0.0-10.0-2.8","qn0rom26n0","many_one","0","indirect_first","0","er06lf04","0","23","1","1","3","1","Die Studie hat Spaß gemacht","0","1","0","null","","","<img src = 'targets/31.png' width = '100%;'>","null","","","","","","","","","",""
"","html-keyboard-response","222","755627","0.0-10.0-3.8","qn0rom26n0","many_one","0","indirect_first","0","er06lf04","0","23","1","1","3","1","Die Studie hat Spaß gemacht","0","1","0","408","","","<img src = 'targets/mask.png' width = '100%;'>","68","neg","GS","GSnew","3","category3/GS3.png","targets/31.png","0","indirect","32",""
"","html-keyboard-response","223","757158","0.0-10.0-0.9","qn0rom26n0","many_one","0","indirect_first","0","er06lf04","0","23","1","1","3","1","Die Studie hat Spaß gemacht","0","1","0","null","","","<div style=""font-size:60px;"">+</div>","null","","","","","","","","","",""
"","html-keyboard-response","224","757259","0.0-10.0-1.9","qn0rom26n0","many_one","0","indirect_first","0","er06lf04","0","23","1","1","3","1","Die Studie hat Spaß gemacht","0","1","0","null","","","<img src = 'category4/CS6.png' width = '100%;'>","null","","","","","","","","","",""
"","html-keyboard-response","225","757527","0.0-10.0-2.9","qn0rom26n0","many_one","0","indirect_first","0","er06lf04","0","23","1","1","3","1","Die Studie hat Spaß gemacht","0","1","0","null","","","<img src = 'targets/7.png' width = '100%;'>","null","","","","","","","","","",""
"","html-keyboard-response","226","758327","0.0-10.0-3.9","qn0rom26n0","many_one","0","indirect_first","0","er06lf04","0","23","1","1","3","1","Die Studie hat Spaß gemacht","0","1","0","800","","","<img src = 'targets/mask.png' width = '100%;'>","68","pos","GS","GSold","4","category4/CS6.png","targets/7.png","0","indirect","33",""
"","html-keyboard-response","227","759848","0.0-10.0-0.10","qn0rom26n0","many_one","0","indirect_first","0","er06lf04","0","23","1","1","3","1","Die Studie hat Spaß gemacht","0","1","0","null","","","<div style=""font-size:60px;"">+</div>","null","","","","","","","","","",""
"","html-keyboard-response","228","759952","0.0-10.0-1.10","qn0rom26n0","many_one","0","indirect_first","0","er06lf04","0","23","1","1","3","1","Die Studie hat Spaß gemacht","0","1","0","null","","","<img src = 'category2/CS3.png' width = '100%;'>","null","","","","","","","","","",""
"","html-keyboard-response","229","760218","0.0-10.0-2.10","qn0rom26n0","many_one","0","indirect_first","0","er06lf04","0","23","1","1","3","1","Die Studie hat Spaß gemacht","0","1","0","null","","","<img src = 'targets/9.png' width = '100%;'>","null","","","","","","","","","",""
"","html-keyboard-response","230","760905","0.0-10.0-3.10","qn0rom26n0","many_one","0","indirect_first","0","er06lf04","0","23","1","1","3","1","Die Studie hat Spaß gemacht","0","1","0","686","","","<img src = 'targets/mask.png' width = '100%;'>","68","pos","GS","GSold","2","category2/CS3.png","targets/9.png","0","indirect","34",""
"","html-keyboard-response","231","762427","0.0-10.0-0.11","qn0rom26n0","many_one","0","indirect_first","0","er06lf04","0","23","1","1","3","1","Die Studie hat Spaß gemacht","0","1","0","null","","","<div style=""font-size:60px;"">+</div>","null","","","","","","","","","",""
"","html-keyboard-response","232","762535","0.0-10.0-1.11","qn0rom26n0","many_one","0","indirect_first","0","er06lf04","0","23","1","1","3","1","Die Studie hat Spaß gemacht","0","1","0","null","","","<img src = 'category2/GS3.png' width = '100%;'>","null","","","","","","","","","",""
"","html-keyboard-response","233","762801","0.0-10.0-2.11","qn0rom26n0","many_one","0","indirect_first","0","er06lf04","0","23","1","1","3","1","Die Studie hat Spaß gemacht","0","1","0","null","","","<img src = 'targets/8.png' width = '100%;'>","null","","","","","","","","","",""
"","html-keyboard-response","234","763416","0.0-10.0-3.11","qn0rom26n0","many_one","0","indirect_first","0","er06lf04","0","23","1","1","3","1","Die Studie hat Spaß gemacht","0","1","0","614","","","<img src = 'targets/mask.png' width = '100%;'>","68","pos","GS","GSnew","2","category2/GS3.png","targets/8.png","0","indirect","35",""
"","html-keyboard-response","235","764939","0.0-10.0-0.12","qn0rom26n0","many_one","0","indirect_first","0","er06lf04","0","23","1","1","3","1","Die Studie hat Spaß gemacht","0","1","0","null","","","<div style=""font-size:60px;"">+</div>","null","","","","","","","","","",""
"","html-keyboard-response","236","765038","0.0-10.0-1.12","qn0rom26n0","many_one","0","indirect_first","0","er06lf04","0","23","1","1","3","1","Die Studie hat Spaß gemacht","0","1","0","null","","","<img src = 'category3/wang.png' width = '100%;'>","null","","","","","","","","","",""
"","html-keyboard-response","237","765310","0.0-10.0-2.12","qn0rom26n0","many_one","0","indirect_first","0","er06lf04","0","23","1","1","3","1","Die Studie hat Spaß gemacht","0","1","0","null","","","<img src = 'targets/42.png' width = '100%;'>","null","","","","","","","","","",""
"","html-keyboard-response","238","765801","0.0-10.0-3.12","qn0rom26n0","many_one","0","indirect_first","0","er06lf04","0","23","1","1","3","1","Die Studie hat Spaß gemacht","0","1","0","488","","","<img src = 'targets/mask.png' width = '100%;'>","75","neg","GS","abstract","3","category3/wang.png","targets/42.png","1","indirect","36",""
"","html-keyboard-response","239","767328","0.0-10.0-0.13","qn0rom26n0","many_one","0","indirect_first","0","er06lf04","0","23","1","1","3","1","Die Studie hat Spaß gemacht","0","1","0","null","","","<div style=""font-size:60px;"">+</div>","null","","","","","","","","","",""
"","html-keyboard-response","240","767434","0.0-10.0-1.13","qn0rom26n0","many_one","0","indirect_first","0","er06lf04","0","23","1","1","3","1","Die Studie hat Spaß gemacht","0","1","0","null","","","<img src = 'category2/GS2.png' width = '100%;'>","null","","","","","","","","","",""
"","html-keyboard-response","241","767700","0.0-10.0-2.13","qn0rom26n0","many_one","0","indirect_first","0","er06lf04","0","23","1","1","3","1","Die Studie hat Spaß gemacht","0","1","0","null","","","<img src = 'targets/39.png' width = '100%;'>","null","","","","","","","","","",""
"","html-keyboard-response","242","768251","0.0-10.0-3.13","qn0rom26n0","many_one","0","indirect_first","0","er06lf04","0","23","1","1","3","1","Die Studie hat Spaß gemacht","0","1","0","549","","","<img src = 'targets/mask.png' width = '100%;'>","68","pos","GS","GSnew","2","category2/GS2.png","targets/39.png","0","indirect","37",""
"","html-keyboard-response","243","769778","0.0-10.0-0.14","qn0rom26n0","many_one","0","indirect_first","0","er06lf04","0","23","1","1","3","1","Die Studie hat Spaß gemacht","0","1","0","null","","","<div style=""font-size:60px;"">+</div>","null","","","","","","","","","",""
"","html-keyboard-response","244","769884","0.0-10.0-1.14","qn0rom26n0","many_one","0","indirect_first","0","er06lf04","0","23","1","1","3","1","Die Studie hat Spaß gemacht","0","1","0","null","","","<img src = 'category2/men.png' width = '100%;'>","null","","","","","","","","","",""
"","html-keyboard-response","245","770150","0.0-10.0-2.14","qn0rom26n0","many_one","0","indirect_first","0","er06lf04","0","23","1","1","3","1","Die Studie hat Spaß gemacht","0","1","0","null","","","<img src = 'targets/16.png' width = '100%;'>","null","","","","","","","","","",""
"","html-keyboard-response","246","771022","0.0-10.0-3.14","qn0rom26n0","many_one","0","indirect_first","0","er06lf04","0","23","1","1","3","1","Die Studie hat Spaß gemacht","0","1","0","870","","","<img src = 'targets/mask.png' width = '100%;'>","75","pos","GS","abstract","2","category2/men.png","targets/16.png","1","indirect","38",""
"","html-keyboard-response","247","772538","0.0-10.0-0.15","qn0rom26n0","many_one","0","indirect_first","0","er06lf04","0","23","1","1","3","1","Die Studie hat Spaß gemacht","0","1","0","null","","","<div style=""font-size:60px;"">+</div>","null","","","","","","","","","",""
"","html-keyboard-response","248","772640","0.0-10.0-1.15","qn0rom26n0","many_one","0","indirect_first","0","er06lf04","0","23","1","1","3","1","Die Studie hat Spaß gemacht","0","1","0","null","","","<img src = 'category4/GS3.png' width = '100%;'>","null","","","","","","","","","",""
"","html-keyboard-response","249","772909","0.0-10.0-2.15","qn0rom26n0","many_one","0","indirect_first","0","er06lf04","0","23","1","1","3","1","Die Studie hat Spaß gemacht","0","1","0","null","","","<img src = 'targets/15.png' width = '100%;'>","null","","","","","","","","","",""
"","html-keyboard-response","250","773418","0.0-10.0-3.15","qn0rom26n0","many_one","0","indirect_first","0","er06lf04","0","23","1","1","3","1","Die Studie hat Spaß gemacht","0","1","0","508","","","<img src = 'targets/mask.png' width = '100%;'>","75","pos","GS","GSnew","4","category4/GS3.png","targets/15.png","1","indirect","39",""
"","html-keyboard-response","251","774958","0.0-10.0-0.16","qn0rom26n0","many_one","0","indirect_first","0","er06lf04","0","23","1","1","3","1","Die Studie hat Spaß gemacht","0","1","0","null","","","<div style=""font-size:60px;"">+</div>","null","","","","","","","","","",""
"","html-keyboard-response","252","775059","0.0-10.0-1.16","qn0rom26n0","many_one","0","indirect_first","0","er06lf04","0","23","1","1","3","1","Die Studie hat Spaß gemacht","0","1","0","null","","","<img src = 'category3/CS8.png' width = '100%;'>","null","","","","","","","","","",""
"","html-keyboard-response","253","775326","0.0-10.0-2.16","qn0rom26n0","many_one","0","indirect_first","0","er06lf04","0","23","1","1","3","1","Die Studie hat Spaß gemacht","0","1","0","null","","","<img src = 'targets/14.png' width = '100%;'>","null","","","","","","","","","",""
"","html-keyboard-response","254","776133","0.0-10.0-3.16","qn0rom26n0","many_one","0","indirect_first","0","er06lf04","0","23","1","1","3","1","Die Studie hat Spaß gemacht","0","1","0","804","","","<img src = 'targets/mask.png' width = '100%;'>","68","neg","GS","GSold","3","category3/CS8.png","targets/14.png","0","indirect","40",""
"","html-keyboard-response","255","777668","0.0-10.0-0.17","qn0rom26n0","many_one","0","indirect_first","0","er06lf04","0","23","1","1","3","1","Die Studie hat Spaß gemacht","0","1","0","null","","","<div style=""font-size:60px;"">+</div>","null","","","","","","","","","",""
"","html-keyboard-response","256","777776","0.0-10.0-1.17","qn0rom26n0","many_one","0","indirect_first","0","er06lf04","0","23","1","1","3","1","Die Studie hat Spaß gemacht","0","1","0","null","","","<img src = 'category3/CS3.png' width = '100%;'>","null","","","","","","","","","",""
"","html-keyboard-response","257","778043","0.0-10.0-2.17","qn0rom26n0","many_one","0","indirect_first","0","er06lf04","0","23","1","1","3","1","Die Studie hat Spaß gemacht","0","1","0","null","","","<img src = 'targets/47.png' width = '100%;'>","null","","","","","","","","","",""
"","html-keyboard-response","258","778751","0.0-10.0-3.17","qn0rom26n0","many_one","0","indirect_first","0","er06lf04","0","23","1","1","3","1","Die Studie hat Spaß gemacht","0","1","0","706","","","<img src = 'targets/mask.png' width = '100%;'>","68","neg","GS","GSold","3","category3/CS3.png","targets/47.png","0","indirect","41",""
"","html-keyboard-response","259","780267","0.0-10.0-0.18","qn0rom26n0","many_one","0","indirect_first","0","er06lf04","0","23","1","1","3","1","Die Studie hat Spaß gemacht","0","1","0","null","","","<div style=""font-size:60px;"">+</div>","null","","","","","","","","","",""
"","html-keyboard-response","260","780365","0.0-10.0-1.18","qn0rom26n0","many_one","0","indirect_first","0","er06lf04","0","23","1","1","3","1","Die Studie hat Spaß gemacht","0","1","0","null","","","<img src = 'category4/lin.png' width = '100%;'>","null","","","","","","","","","",""
"","html-keyboard-response","261","780626","0.0-10.0-2.18","qn0rom26n0","many_one","0","indirect_first","0","er06lf04","0","23","1","1","3","1","Die Studie hat Spaß gemacht","0","1","0","null","","","<img src = 'targets/32.png' width = '100%;'>","null","","","","","","","","","",""
"","html-keyboard-response","262","781172","0.0-10.0-3.18","qn0rom26n0","many_one","0","indirect_first","0","er06lf04","0","23","1","1","3","1","Die Studie hat Spaß gemacht","0","1","0","544","","","<img src = 'targets/mask.png' width = '100%;'>","68","pos","GS","abstract","4","category4/lin.png","targets/32.png","0","indirect","42",""
"","html-keyboard-response","263","782697","0.0-10.0-0.19","qn0rom26n0","many_one","0","indirect_first","0","er06lf04","0","23","1","1","3","1","Die Studie hat Spaß gemacht","0","1","0","null","","","<div style=""font-size:60px;"">+</div>","null","","","","","","","","","",""
"","html-keyboard-response","264","782800","0.0-10.0-1.19","qn0rom26n0","many_one","0","indirect_first","0","er06lf04","0","23","1","1","3","1","Die Studie hat Spaß gemacht","0","1","0","null","","","<img src = 'category2/GS1.png' width = '100%;'>","null","","","","","","","","","",""
"","html-keyboard-response","265","783068","0.0-10.0-2.19","qn0rom26n0","many_one","0","indirect_first","0","er06lf04","0","23","1","1","3","1","Die Studie hat Spaß gemacht","0","1","0","null","","","<img src = 'targets/41.png' width = '100%;'>","null","","","","","","","","","",""
"","html-keyboard-response","266","783757","0.0-10.0-3.19","qn0rom26n0","many_one","0","indirect_first","0","er06lf04","0","23","1","1","3","1","Die Studie hat Spaß gemacht","0","1","0","687","","","<img src = 'targets/mask.png' width = '100%;'>","75","pos","GS","GSnew","2","category2/GS1.png","targets/41.png","1","indirect","43",""
"","html-keyboard-response","267","785288","0.0-10.0-0.20","qn0rom26n0","many_one","0","indirect_first","0","er06lf04","0","23","1","1","3","1","Die Studie hat Spaß gemacht","0","1","0","null","","","<div style=""font-size:60px;"">+</div>","null","","","","","","","","","",""
"","html-keyboard-response","268","785393","0.0-10.0-1.20","qn0rom26n0","many_one","0","indirect_first","0","er06lf04","0","23","1","1","3","1","Die Studie hat Spaß gemacht","0","1","0","null","","","<img src = 'category4/GS2.png' width = '100%;'>","null","","","","","","","","","",""
"","html-keyboard-response","269","785658","0.0-10.0-2.20","qn0rom26n0","many_one","0","indirect_first","0","er06lf04","0","23","1","1","3","1","Die Studie hat Spaß gemacht","0","1","0","null","","","<img src = 'targets/17.png' width = '100%;'>","null","","","","","","","","","",""
"","html-keyboard-response","270","786226","0.0-10.0-3.20","qn0rom26n0","many_one","0","indirect_first","0","er06lf04","0","23","1","1","3","1","Die Studie hat Spaß gemacht","0","1","0","566","","","<img src = 'targets/mask.png' width = '100%;'>","68","pos","GS","GSnew","4","category4/GS2.png","targets/17.png","0","indirect","44",""
"","html-keyboard-response","271","787738","0.0-10.0-0.21","qn0rom26n0","many_one","0","indirect_first","0","er06lf04","0","23","1","1","3","1","Die Studie hat Spaß gemacht","0","1","0","null","","","<div style=""font-size:60px;"">+</div>","null","","","","","","","","","",""
"","html-keyboard-response","272","787843","0.0-10.0-1.21","qn0rom26n0","many_one","0","indirect_first","0","er06lf04","0","23","1","1","3","1","Die Studie hat Spaß gemacht","0","1","0","null","","","<img src = 'category4/CS1.png' width = '100%;'>","null","","","","","","","","","",""
"","html-keyboard-response","273","788110","0.0-10.0-2.21","qn0rom26n0","many_one","0","indirect_first","0","er06lf04","0","23","1","1","3","1","Die Studie hat Spaß gemacht","0","1","0","null","","","<img src = 'targets/10.png' width = '100%;'>","null","","","","","","","","","",""
"","html-keyboard-response","274","789111","0.0-10.0-3.21","qn0rom26n0","many_one","0","indirect_first","0","er06lf04","0","23","1","1","3","1","Die Studie hat Spaß gemacht","0","1","0","999","","","<img src = 'targets/mask.png' width = '100%;'>","68","pos","GS","GSold","4","category4/CS1.png","targets/10.png","0","indirect","45",""
"","html-keyboard-response","275","790628","0.0-10.0-0.22","qn0rom26n0","many_one","0","indirect_first","0","er06lf04","0","23","1","1","3","1","Die Studie hat Spaß gemacht","0","1","0","null","","","<div style=""font-size:60px;"">+</div>","null","","","","","","","","","",""
"","html-keyboard-response","276","790735","0.0-10.0-1.22","qn0rom26n0","many_one","0","indirect_first","0","er06lf04","0","23","1","1","3","1","Die Studie hat Spaß gemacht","0","1","0","null","","","<img src = 'category3/CS4.png' width = '100%;'>","null","","","","","","","","","",""
"","html-keyboard-response","277","791000","0.0-10.0-2.22","qn0rom26n0","many_one","0","indirect_first","0","er06lf04","0","23","1","1","3","1","Die Studie hat Spaß gemacht","0","1","0","null","","","<img src = 'targets/30.png' width = '100%;'>","null","","","","","","","","","",""
"","html-keyboard-response","278","791590","0.0-10.0-3.22","qn0rom26n0","many_one","0","indirect_first","0","er06lf04","0","23","1","1","3","1","Die Studie hat Spaß gemacht","0","1","0","588","","","<img src = 'targets/mask.png' width = '100%;'>","75","neg","GS","GSold","3","category3/CS4.png","targets/30.png","1","indirect","46",""
"","html-keyboard-response","279","793128","0.0-10.0-0.23","qn0rom26n0","many_one","0","indirect_first","0","er06lf04","0","23","1","1","3","1","Die Studie hat Spaß gemacht","0","1","0","null","","","<div style=""font-size:60px;"">+</div>","null","","","","","","","","","",""
"","html-keyboard-response","280","793234","0.0-10.0-1.23","qn0rom26n0","many_one","0","indirect_first","0","er06lf04","0","23","1","1","3","1","Die Studie hat Spaß gemacht","0","1","0","null","","","<img src = 'category3/GS1.png' width = '100%;'>","null","","","","","","","","","",""
"","html-keyboard-response","281","793501","0.0-10.0-2.23","qn0rom26n0","many_one","0","indirect_first","0","er06lf04","0","23","1","1","3","1","Die Studie hat Spaß gemacht","0","1","0","null","","","<img src = 'targets/3.png' width = '100%;'>","null","","","","","","","","","",""
"","html-keyboard-response","282","794211","0.0-10.0-3.23","qn0rom26n0","many_one","0","indirect_first","0","er06lf04","0","23","1","1","3","1","Die Studie hat Spaß gemacht","0","1","0","710","","","<img src = 'targets/mask.png' width = '100%;'>","68","neg","GS","GSnew","3","category3/GS1.png","targets/3.png","0","indirect","47",""
"","survey-html-form","283","807141","0.0-11.0","qn0rom26n0","many_one","0","indirect_first","0","er06lf04","0","23","1","1","3","1","Die Studie hat Spaß gemacht","0","1","0","12412","","{}","","","","","","","","","","","",""
"","image-slider-response","284","815107","0.0-12.0-0.0","qn0rom26n0","many_one","0","indirect_first","0","er06lf04","0","23","1","1","3","1","Die Studie hat Spaß gemacht","0","1","0","5952","","","","","neg","CS","CS","1","category1/CS1.png","targets/6.png","","direct","","-36"
"","image-slider-response","285","819073","0.0-12.0-0.1","qn0rom26n0","many_one","0","indirect_first","0","er06lf04","0","23","1","1","3","1","Die Studie hat Spaß gemacht","0","1","0","3963","","","","","neg","CS","CS","1","category1/CS8.png","targets/44.png","","direct","","17"
"","image-slider-response","286","821878","0.0-12.0-0.2","qn0rom26n0","many_one","0","indirect_first","0","er06lf04","0","23","1","1","3","1","Die Studie hat Spaß gemacht","0","1","0","2802","","","","","pos","GS","GSold","2","category2/CS3.png","targets/9.png","","direct","","44"
"","image-slider-response","287","826077","0.0-12.0-0.3","qn0rom26n0","many_one","0","indirect_first","0","er06lf04","0","23","1","1","3","1","Die Studie hat Spaß gemacht","0","1","0","4197","","","","","neg","GS","GSnew","3","category3/GS2.png","targets/11.png","","direct","","49"
"","image-slider-response","288","830430","0.0-12.0-0.4","qn0rom26n0","many_one","0","indirect_first","0","er06lf04","0","23","1","1","3","1","Die Studie hat Spaß gemacht","0","1","0","4349","","","","","pos","GS","GSnew","4","category4/GS2.png","targets/17.png","","direct","","60"
"","image-slider-response","289","834384","0.0-12.0-0.5","qn0rom26n0","many_one","0","indirect_first","0","er06lf04","0","23","1","1","3","1","Die Studie hat Spaß gemacht","0","1","0","3951","","","","","pos","GS","GSold","2","category2/CS2.png","targets/37.png","","direct","","58"
"","image-slider-response","290","839388","0.0-12.0-0.6","qn0rom26n0","many_one","0","indirect_first","0","er06lf04","0","23","1","1","3","1","Die Studie hat Spaß gemacht","0","1","0","5001","","","","","neg","CS","CS","3","category3/CS2.png","targets/29.png","","direct","","-56"
"","image-slider-response","291","844707","0.0-12.0-0.7","qn0rom26n0","many_one","0","indirect_first","0","er06lf04","0","23","1","1","3","1","Die Studie hat Spaß gemacht","0","1","0","5317","","","","","neg","CS","CS","1","category1/CS4.png","targets/5.png","","direct","","-53"
"","image-slider-response","292","852053","0.0-12.0-0.8","qn0rom26n0","many_one","0","indirect_first","0","er06lf04","0","23","1","1","3","1","Die Studie hat Spaß gemacht","0","1","0","7343","","","","","pos","GS","GSnew","4","category4/GS1.png","targets/25.png","","direct","","53"
"","image-slider-response","293","855130","0.0-12.0-0.9","qn0rom26n0","many_one","0","indirect_first","0","er06lf04","0","23","1","1","3","1","Die Studie hat Spaß gemacht","0","1","0","3074","","","","","pos","CS","CS","2","category2/CS5.png","targets/19.png","","direct","","58"
"","image-slider-response","294","859256","0.0-12.0-0.10","qn0rom26n0","many_one","0","indirect_first","0","er06lf04","0","23","1","1","3","1","Die Studie hat Spaß gemacht","0","1","0","4123","","","","","pos","CS","CS","4","category4/CS5.png","targets/26.png","","direct","","77"
"","image-slider-response","295","863045","0.0-12.0-0.11","qn0rom26n0","many_one","0","indirect_first","0","er06lf04","0","23","1","1","3","1","Die Studie hat Spaß gemacht","0","1","0","3787","","","","","neg","GS","GSold","3","category3/CS4.png","targets/30.png","","direct","","-66"
"","image-slider-response","296","866469","0.0-12.0-0.12","qn0rom26n0","many_one","0","indirect_first","0","er06lf04","0","23","1","1","3","1","Die Studie hat Spaß gemacht","0","1","0","3421","","","","","neg","CS","CS","3","category3/CS9.png","targets/46.png","","direct","","28"
"","image-slider-response","297","871144","0.0-12.0-0.13","qn0rom26n0","many_one","0","indirect_first","0","er06lf04","0","23","1","1","3","1","Die Studie hat Spaß gemacht","0","1","0","4673","","","","","pos","GS","GSnew","2","category2/GS1.png","targets/41.png","","direct","","32"
"","image-slider-response","298","874882","0.0-12.0-0.14","qn0rom26n0","many_one","0","indirect_first","0","er06lf04","0","23","1","1","3","1","Die Studie hat Spaß gemacht","0","1","0","3736","","","","","neg","GS","GSold","1","category1/CS3.png","targets/12.png","","direct","","-36"
