"success","trial_type","trial_index","time_elapsed","internal_node_id","subject","condition","condition_code","measure","measure_code","codeword","gender","age","education","chinese","fach","handedness","comment","hinschauen","ablenkung","gewissenhaft","rt","url","responses","stimulus","key_press","val","type","type_specific","category","cs_selected","target","indirect","task","nr_pres","response"
"true","fullscreen","0","7497","0.0-0.0","10evoqdku4","one_one","1","indirect_first","0","af06nz03","0","20","1","1","3","1","","0","1","0","","","","","","","","","","","","","","",""
"","external-html","1","72099","0.0-1.0","10evoqdku4","one_one","1","indirect_first","0","af06nz03","0","20","1","1","3","1","","0","1","0","64558","text/information.html","","","","","","","","","","","","",""
"","external-html","2","82552","0.0-2.0","10evoqdku4","one_one","1","indirect_first","0","af06nz03","0","20","1","1","3","1","","0","1","0","10369","text/consent.html","","","","","","","","","","","","",""
"","survey-html-form","3","137971","0.0-3.0","10evoqdku4","one_one","1","indirect_first","0","af06nz03","0","20","1","1","3","1","","0","1","0","55415","","{""codeword_enter"":""af06nz03""}","","","","","","","","","","","",""
"","survey-html-form","4","169056","0.0-4.0","10evoqdku4","one_one","1","indirect_first","0","af06nz03","0","20","1","1","3","1","","0","1","0","31081.00000000003","","{""age"":""20"",""education"":""1"",""subject"":""3"",""gender"":""0"",""handedness"":""1"",""chinese"":""1""}","","","","","","","","","","","",""
"","survey-html-form","5","186154","0.0-5.0","10evoqdku4","one_one","1","indirect_first","0","af06nz03","0","20","1","1","3","1","","0","1","0","17096","","{}","","","","","","","","","","","",""
"","html-keyboard-response","6","190160","0.0-6.0-0.0-0.0","10evoqdku4","one_one","1","indirect_first","0","af06nz03","0","20","1","1","3","1","","0","1","0","null","","","<div class = 'row'><div class = 'column'><img src = 'category4/CS9.png' width = '70%;'></div><div class = 'column'><img src = 'usneg/6838.bmp' width = '100%;'></div></div>","null","neg","CS","CS","4","category4/CS9.png","","","","",""
"","html-keyboard-response","7","192665","0.0-6.0-0.0-0.1","10evoqdku4","one_one","1","indirect_first","0","af06nz03","0","20","1","1","3","1","","0","1","0","null","","","<div class = 'row'><div class = 'column'><img src = 'category2/CS2.png' width = '70%;'></div><div class = 'column'><img src = 'uspos/2150.bmp' width = '100%;'></div></div>","null","pos","CS","CS","2","category2/CS2.png","","","","",""
"","html-keyboard-response","8","195169","0.0-6.0-0.0-0.2","10evoqdku4","one_one","1","indirect_first","0","af06nz03","0","20","1","1","3","1","","0","1","0","null","","","<div class = 'row'><div class = 'column'><img src = 'uspos/7580.bmp' width = '100%;'></div><div class = 'column'><img src = 'category1/CS6.png' width = '70%;'></div></div>","null","pos","CS","CS","1","category1/CS6.png","","","","",""
"","html-keyboard-response","9","197673","0.0-6.0-0.0-0.3","10evoqdku4","one_one","1","indirect_first","0","af06nz03","0","20","1","1","3","1","","0","1","0","null","","","<div class = 'row'><div class = 'column'><img src = 'category3/CS4.png' width = '70%;'></div><div class = 'column'><img src = 'usneg/9342.bmp' width = '100%;'></div></div>","null","neg","CS","CS","3","category3/CS4.png","","","","",""
"","html-keyboard-response","10","200176","0.0-6.0-0.0-0.4","10evoqdku4","one_one","1","indirect_first","0","af06nz03","0","20","1","1","3","1","","0","1","0","null","","","<div class = 'row'><div class = 'column'><img src = 'usneg/6838.bmp' width = '100%;'></div><div class = 'column'><img src = 'category4/CS9.png' width = '70%;'></div></div>","null","neg","CS","CS","4","category4/CS9.png","","","","",""
"","html-keyboard-response","11","202681","0.0-6.0-0.0-0.5","10evoqdku4","one_one","1","indirect_first","0","af06nz03","0","20","1","1","3","1","","0","1","0","null","","","<div class = 'row'><div class = 'column'><img src = 'uspos/2150.bmp' width = '100%;'></div><div class = 'column'><img src = 'category2/CS2.png' width = '70%;'></div></div>","null","pos","CS","CS","2","category2/CS2.png","","","","",""
"","html-keyboard-response","12","205186","0.0-6.0-0.0-0.6","10evoqdku4","one_one","1","indirect_first","0","af06nz03","0","20","1","1","3","1","","0","1","0","null","","","<div class = 'row'><div class = 'column'><img src = 'usneg/9342.bmp' width = '100%;'></div><div class = 'column'><img src = 'category3/CS4.png' width = '70%;'></div></div>","null","neg","CS","CS","3","category3/CS4.png","","","","",""
"","html-keyboard-response","13","207693","0.0-6.0-0.0-0.7","10evoqdku4","one_one","1","indirect_first","0","af06nz03","0","20","1","1","3","1","","0","1","0","null","","","<div class = 'row'><div class = 'column'><img src = 'uspos/2150.bmp' width = '100%;'></div><div class = 'column'><img src = 'category2/CS2.png' width = '70%;'></div></div>","null","pos","CS","CS","2","category2/CS2.png","","","","",""
"","html-keyboard-response","14","210199","0.0-6.0-0.0-0.8","10evoqdku4","one_one","1","indirect_first","0","af06nz03","0","20","1","1","3","1","","0","1","0","null","","","<div class = 'row'><div class = 'column'><img src = 'category1/CS6.png' width = '70%;'></div><div class = 'column'><img src = 'uspos/7580.bmp' width = '100%;'></div></div>","null","pos","CS","CS","1","category1/CS6.png","","","","",""
"","html-keyboard-response","15","212703","0.0-6.0-0.0-0.9","10evoqdku4","one_one","1","indirect_first","0","af06nz03","0","20","1","1","3","1","","0","1","0","null","","","<div class = 'row'><div class = 'column'><img src = 'category4/CS9.png' width = '70%;'></div><div class = 'column'><img src = 'usneg/6838.bmp' width = '100%;'></div></div>","null","neg","CS","CS","4","category4/CS9.png","","","","",""
"","html-keyboard-response","16","215209","0.0-6.0-0.0-0.10","10evoqdku4","one_one","1","indirect_first","0","af06nz03","0","20","1","1","3","1","","0","1","0","null","","","<div class = 'row'><div class = 'column'><img src = 'category1/CS6.png' width = '70%;'></div><div class = 'column'><img src = 'uspos/7580.bmp' width = '100%;'></div></div>","null","pos","CS","CS","1","category1/CS6.png","","","","",""
"","html-keyboard-response","17","217714","0.0-6.0-0.0-0.11","10evoqdku4","one_one","1","indirect_first","0","af06nz03","0","20","1","1","3","1","","0","1","0","null","","","<div class = 'row'><div class = 'column'><img src = 'category3/CS4.png' width = '70%;'></div><div class = 'column'><img src = 'usneg/9342.bmp' width = '100%;'></div></div>","null","neg","CS","CS","3","category3/CS4.png","","","","",""
"","html-keyboard-response","18","220218","0.0-6.0-0.0-0.12","10evoqdku4","one_one","1","indirect_first","0","af06nz03","0","20","1","1","3","1","","0","1","0","null","","","<div class = 'row'><div class = 'column'><img src = 'uspos/7580.bmp' width = '100%;'></div><div class = 'column'><img src = 'category1/CS6.png' width = '70%;'></div></div>","null","pos","CS","CS","1","category1/CS6.png","","","","",""
"","html-keyboard-response","19","222722","0.0-6.0-0.0-0.13","10evoqdku4","one_one","1","indirect_first","0","af06nz03","0","20","1","1","3","1","","0","1","0","null","","","<div class = 'row'><div class = 'column'><img src = 'uspos/2150.bmp' width = '100%;'></div><div class = 'column'><img src = 'category2/CS2.png' width = '70%;'></div></div>","null","pos","CS","CS","2","category2/CS2.png","","","","",""
"","html-keyboard-response","20","225226","0.0-6.0-0.0-0.14","10evoqdku4","one_one","1","indirect_first","0","af06nz03","0","20","1","1","3","1","","0","1","0","null","","","<div class = 'row'><div class = 'column'><img src = 'usneg/6838.bmp' width = '100%;'></div><div class = 'column'><img src = 'category4/CS9.png' width = '70%;'></div></div>","null","neg","CS","CS","4","category4/CS9.png","","","","",""
"","html-keyboard-response","21","227731","0.0-6.0-0.0-0.15","10evoqdku4","one_one","1","indirect_first","0","af06nz03","0","20","1","1","3","1","","0","1","0","null","","","<div class = 'row'><div class = 'column'><img src = 'category3/CS4.png' width = '70%;'></div><div class = 'column'><img src = 'usneg/9342.bmp' width = '100%;'></div></div>","null","neg","CS","CS","3","category3/CS4.png","","","","",""
"","html-keyboard-response","22","230234","0.0-6.0-0.0-0.16","10evoqdku4","one_one","1","indirect_first","0","af06nz03","0","20","1","1","3","1","","0","1","0","null","","","<div class = 'row'><div class = 'column'><img src = 'category1/CS6.png' width = '70%;'></div><div class = 'column'><img src = 'uspos/7580.bmp' width = '100%;'></div></div>","null","pos","CS","CS","1","category1/CS6.png","","","","",""
"","html-keyboard-response","23","232741","0.0-6.0-0.0-0.17","10evoqdku4","one_one","1","indirect_first","0","af06nz03","0","20","1","1","3","1","","0","1","0","null","","","<div class = 'row'><div class = 'column'><img src = 'category2/CS2.png' width = '70%;'></div><div class = 'column'><img src = 'uspos/2150.bmp' width = '100%;'></div></div>","null","pos","CS","CS","2","category2/CS2.png","","","","",""
"","html-keyboard-response","24","235246","0.0-6.0-0.0-0.18","10evoqdku4","one_one","1","indirect_first","0","af06nz03","0","20","1","1","3","1","","0","1","0","null","","","<div class = 'row'><div class = 'column'><img src = 'category3/CS4.png' width = '70%;'></div><div class = 'column'><img src = 'usneg/9342.bmp' width = '100%;'></div></div>","null","neg","CS","CS","3","category3/CS4.png","","","","",""
"","html-keyboard-response","25","237750","0.0-6.0-0.0-0.19","10evoqdku4","one_one","1","indirect_first","0","af06nz03","0","20","1","1","3","1","","0","1","0","null","","","<div class = 'row'><div class = 'column'><img src = 'category4/CS9.png' width = '70%;'></div><div class = 'column'><img src = 'usneg/6838.bmp' width = '100%;'></div></div>","null","neg","CS","CS","4","category4/CS9.png","","","","",""
"","survey-html-form","26","241916","0.0-6.0-1.0","10evoqdku4","one_one","1","indirect_first","0","af06nz03","0","20","1","1","3","1","","0","1","0","3664","","{}","","","","","","","","","","","",""
"","html-keyboard-response","27","245921","0.0-6.0-2.0-0.0","10evoqdku4","one_one","1","indirect_first","0","af06nz03","0","20","1","1","3","1","","0","1","0","null","","","<div class = 'row'><div class = 'column'><img src = 'category1/CS6.png' width = '70%;'></div><div class = 'column'><img src = 'uspos/7580.bmp' width = '100%;'></div></div>","null","pos","CS","CS","1","category1/CS6.png","","","","",""
"","html-keyboard-response","28","248426","0.0-6.0-2.0-0.1","10evoqdku4","one_one","1","indirect_first","0","af06nz03","0","20","1","1","3","1","","0","1","0","null","","","<div class = 'row'><div class = 'column'><img src = 'usneg/9342.bmp' width = '100%;'></div><div class = 'column'><img src = 'category3/CS4.png' width = '70%;'></div></div>","null","neg","CS","CS","3","category3/CS4.png","","","","",""
"","html-keyboard-response","29","250930","0.0-6.0-2.0-0.2","10evoqdku4","one_one","1","indirect_first","0","af06nz03","0","20","1","1","3","1","","0","1","0","null","","","<div class = 'row'><div class = 'column'><img src = 'usneg/6838.bmp' width = '100%;'></div><div class = 'column'><img src = 'category4/CS9.png' width = '70%;'></div></div>","null","neg","CS","CS","4","category4/CS9.png","","","","",""
"","html-keyboard-response","30","253435","0.0-6.0-2.0-0.3","10evoqdku4","one_one","1","indirect_first","0","af06nz03","0","20","1","1","3","1","","0","1","0","null","","","<div class = 'row'><div class = 'column'><img src = 'uspos/2150.bmp' width = '100%;'></div><div class = 'column'><img src = 'category2/CS2.png' width = '70%;'></div></div>","null","pos","CS","CS","2","category2/CS2.png","","","","",""
"","html-keyboard-response","31","255940","0.0-6.0-2.0-0.4","10evoqdku4","one_one","1","indirect_first","0","af06nz03","0","20","1","1","3","1","","0","1","0","null","","","<div class = 'row'><div class = 'column'><img src = 'usneg/6838.bmp' width = '100%;'></div><div class = 'column'><img src = 'category4/CS9.png' width = '70%;'></div></div>","null","neg","CS","CS","4","category4/CS9.png","","","","",""
"","html-keyboard-response","32","258444","0.0-6.0-2.0-0.5","10evoqdku4","one_one","1","indirect_first","0","af06nz03","0","20","1","1","3","1","","0","1","0","null","","","<div class = 'row'><div class = 'column'><img src = 'usneg/9342.bmp' width = '100%;'></div><div class = 'column'><img src = 'category3/CS4.png' width = '70%;'></div></div>","null","neg","CS","CS","3","category3/CS4.png","","","","",""
"","html-keyboard-response","33","260949","0.0-6.0-2.0-0.6","10evoqdku4","one_one","1","indirect_first","0","af06nz03","0","20","1","1","3","1","","0","1","0","null","","","<div class = 'row'><div class = 'column'><img src = 'uspos/2150.bmp' width = '100%;'></div><div class = 'column'><img src = 'category2/CS2.png' width = '70%;'></div></div>","null","pos","CS","CS","2","category2/CS2.png","","","","",""
"","html-keyboard-response","34","263453","0.0-6.0-2.0-0.7","10evoqdku4","one_one","1","indirect_first","0","af06nz03","0","20","1","1","3","1","","0","1","0","null","","","<div class = 'row'><div class = 'column'><img src = 'uspos/7580.bmp' width = '100%;'></div><div class = 'column'><img src = 'category1/CS6.png' width = '70%;'></div></div>","null","pos","CS","CS","1","category1/CS6.png","","","","",""
"","html-keyboard-response","35","265957","0.0-6.0-2.0-0.8","10evoqdku4","one_one","1","indirect_first","0","af06nz03","0","20","1","1","3","1","","0","1","0","null","","","<div class = 'row'><div class = 'column'><img src = 'category4/CS9.png' width = '70%;'></div><div class = 'column'><img src = 'usneg/6838.bmp' width = '100%;'></div></div>","null","neg","CS","CS","4","category4/CS9.png","","","","",""
"","html-keyboard-response","36","268461","0.0-6.0-2.0-0.9","10evoqdku4","one_one","1","indirect_first","0","af06nz03","0","20","1","1","3","1","","0","1","0","null","","","<div class = 'row'><div class = 'column'><img src = 'category3/CS4.png' width = '70%;'></div><div class = 'column'><img src = 'usneg/9342.bmp' width = '100%;'></div></div>","null","neg","CS","CS","3","category3/CS4.png","","","","",""
"","html-keyboard-response","37","270966","0.0-6.0-2.0-0.10","10evoqdku4","one_one","1","indirect_first","0","af06nz03","0","20","1","1","3","1","","0","1","0","null","","","<div class = 'row'><div class = 'column'><img src = 'uspos/7580.bmp' width = '100%;'></div><div class = 'column'><img src = 'category1/CS6.png' width = '70%;'></div></div>","null","pos","CS","CS","1","category1/CS6.png","","","","",""
"","html-keyboard-response","38","273473","0.0-6.0-2.0-0.11","10evoqdku4","one_one","1","indirect_first","0","af06nz03","0","20","1","1","3","1","","0","1","0","null","","","<div class = 'row'><div class = 'column'><img src = 'category2/CS2.png' width = '70%;'></div><div class = 'column'><img src = 'uspos/2150.bmp' width = '100%;'></div></div>","null","pos","CS","CS","2","category2/CS2.png","","","","",""
"","html-keyboard-response","39","275977","0.0-6.0-2.0-0.12","10evoqdku4","one_one","1","indirect_first","0","af06nz03","0","20","1","1","3","1","","0","1","0","null","","","<div class = 'row'><div class = 'column'><img src = 'category3/CS4.png' width = '70%;'></div><div class = 'column'><img src = 'usneg/9342.bmp' width = '100%;'></div></div>","null","neg","CS","CS","3","category3/CS4.png","","","","",""
"","html-keyboard-response","40","278485","0.0-6.0-2.0-0.13","10evoqdku4","one_one","1","indirect_first","0","af06nz03","0","20","1","1","3","1","","0","1","0","null","","","<div class = 'row'><div class = 'column'><img src = 'category4/CS9.png' width = '70%;'></div><div class = 'column'><img src = 'usneg/6838.bmp' width = '100%;'></div></div>","null","neg","CS","CS","4","category4/CS9.png","","","","",""
"","html-keyboard-response","41","280989","0.0-6.0-2.0-0.14","10evoqdku4","one_one","1","indirect_first","0","af06nz03","0","20","1","1","3","1","","0","1","0","null","","","<div class = 'row'><div class = 'column'><img src = 'category1/CS6.png' width = '70%;'></div><div class = 'column'><img src = 'uspos/7580.bmp' width = '100%;'></div></div>","null","pos","CS","CS","1","category1/CS6.png","","","","",""
"","html-keyboard-response","42","283493","0.0-6.0-2.0-0.15","10evoqdku4","one_one","1","indirect_first","0","af06nz03","0","20","1","1","3","1","","0","1","0","null","","","<div class = 'row'><div class = 'column'><img src = 'category2/CS2.png' width = '70%;'></div><div class = 'column'><img src = 'uspos/2150.bmp' width = '100%;'></div></div>","null","pos","CS","CS","2","category2/CS2.png","","","","",""
"","html-keyboard-response","43","285999","0.0-6.0-2.0-0.16","10evoqdku4","one_one","1","indirect_first","0","af06nz03","0","20","1","1","3","1","","0","1","0","null","","","<div class = 'row'><div class = 'column'><img src = 'usneg/9342.bmp' width = '100%;'></div><div class = 'column'><img src = 'category3/CS4.png' width = '70%;'></div></div>","null","neg","CS","CS","3","category3/CS4.png","","","","",""
"","html-keyboard-response","44","288504","0.0-6.0-2.0-0.17","10evoqdku4","one_one","1","indirect_first","0","af06nz03","0","20","1","1","3","1","","0","1","0","null","","","<div class = 'row'><div class = 'column'><img src = 'uspos/7580.bmp' width = '100%;'></div><div class = 'column'><img src = 'category1/CS6.png' width = '70%;'></div></div>","null","pos","CS","CS","1","category1/CS6.png","","","","",""
"","html-keyboard-response","45","291013","0.0-6.0-2.0-0.18","10evoqdku4","one_one","1","indirect_first","0","af06nz03","0","20","1","1","3","1","","0","1","0","null","","","<div class = 'row'><div class = 'column'><img src = 'category2/CS2.png' width = '70%;'></div><div class = 'column'><img src = 'uspos/2150.bmp' width = '100%;'></div></div>","null","pos","CS","CS","2","category2/CS2.png","","","","",""
"","html-keyboard-response","46","293517","0.0-6.0-2.0-0.19","10evoqdku4","one_one","1","indirect_first","0","af06nz03","0","20","1","1","3","1","","0","1","0","null","","","<div class = 'row'><div class = 'column'><img src = 'usneg/6838.bmp' width = '100%;'></div><div class = 'column'><img src = 'category4/CS9.png' width = '70%;'></div></div>","null","neg","CS","CS","4","category4/CS9.png","","","","",""
"","survey-html-form","47","295821","0.0-6.0-3.0","10evoqdku4","one_one","1","indirect_first","0","af06nz03","0","20","1","1","3","1","","0","1","0","1802","","{}","","","","","","","","","","","",""
"","html-keyboard-response","48","299825","0.0-6.0-4.0-0.0","10evoqdku4","one_one","1","indirect_first","0","af06nz03","0","20","1","1","3","1","","0","1","0","null","","","<div class = 'row'><div class = 'column'><img src = 'category2/CS2.png' width = '70%;'></div><div class = 'column'><img src = 'uspos/2150.bmp' width = '100%;'></div></div>","null","pos","CS","CS","2","category2/CS2.png","","","","",""
"","html-keyboard-response","49","302328","0.0-6.0-4.0-0.1","10evoqdku4","one_one","1","indirect_first","0","af06nz03","0","20","1","1","3","1","","0","1","0","null","","","<div class = 'row'><div class = 'column'><img src = 'category1/CS6.png' width = '70%;'></div><div class = 'column'><img src = 'uspos/7580.bmp' width = '100%;'></div></div>","null","pos","CS","CS","1","category1/CS6.png","","","","",""
"","html-keyboard-response","50","304832","0.0-6.0-4.0-0.2","10evoqdku4","one_one","1","indirect_first","0","af06nz03","0","20","1","1","3","1","","0","1","0","null","","","<div class = 'row'><div class = 'column'><img src = 'category2/CS2.png' width = '70%;'></div><div class = 'column'><img src = 'uspos/2150.bmp' width = '100%;'></div></div>","null","pos","CS","CS","2","category2/CS2.png","","","","",""
"","html-keyboard-response","51","307336","0.0-6.0-4.0-0.3","10evoqdku4","one_one","1","indirect_first","0","af06nz03","0","20","1","1","3","1","","0","1","0","null","","","<div class = 'row'><div class = 'column'><img src = 'uspos/7580.bmp' width = '100%;'></div><div class = 'column'><img src = 'category1/CS6.png' width = '70%;'></div></div>","null","pos","CS","CS","1","category1/CS6.png","","","","",""
"","html-keyboard-response","52","309839","0.0-6.0-4.0-0.4","10evoqdku4","one_one","1","indirect_first","0","af06nz03","0","20","1","1","3","1","","0","1","0","null","","","<div class = 'row'><div class = 'column'><img src = 'usneg/9342.bmp' width = '100%;'></div><div class = 'column'><img src = 'category3/CS4.png' width = '70%;'></div></div>","null","neg","CS","CS","3","category3/CS4.png","","","","",""
"","html-keyboard-response","53","312344","0.0-6.0-4.0-0.5","10evoqdku4","one_one","1","indirect_first","0","af06nz03","0","20","1","1","3","1","","0","1","0","null","","","<div class = 'row'><div class = 'column'><img src = 'category2/CS2.png' width = '70%;'></div><div class = 'column'><img src = 'uspos/2150.bmp' width = '100%;'></div></div>","null","pos","CS","CS","2","category2/CS2.png","","","","",""
"","html-keyboard-response","54","314851","0.0-6.0-4.0-0.6","10evoqdku4","one_one","1","indirect_first","0","af06nz03","0","20","1","1","3","1","","0","1","0","null","","","<div class = 'row'><div class = 'column'><img src = 'usneg/6838.bmp' width = '100%;'></div><div class = 'column'><img src = 'category4/CS9.png' width = '70%;'></div></div>","null","neg","CS","CS","4","category4/CS9.png","","","","",""
"","html-keyboard-response","55","317357","0.0-6.0-4.0-0.7","10evoqdku4","one_one","1","indirect_first","0","af06nz03","0","20","1","1","3","1","","0","1","0","null","","","<div class = 'row'><div class = 'column'><img src = 'category2/CS2.png' width = '70%;'></div><div class = 'column'><img src = 'uspos/2150.bmp' width = '100%;'></div></div>","null","pos","CS","CS","2","category2/CS2.png","","","","",""
"","html-keyboard-response","56","319861","0.0-6.0-4.0-0.8","10evoqdku4","one_one","1","indirect_first","0","af06nz03","0","20","1","1","3","1","","0","1","0","null","","","<div class = 'row'><div class = 'column'><img src = 'category1/CS6.png' width = '70%;'></div><div class = 'column'><img src = 'uspos/7580.bmp' width = '100%;'></div></div>","null","pos","CS","CS","1","category1/CS6.png","","","","",""
"","html-keyboard-response","57","322365","0.0-6.0-4.0-0.9","10evoqdku4","one_one","1","indirect_first","0","af06nz03","0","20","1","1","3","1","","0","1","0","null","","","<div class = 'row'><div class = 'column'><img src = 'usneg/6838.bmp' width = '100%;'></div><div class = 'column'><img src = 'category4/CS9.png' width = '70%;'></div></div>","null","neg","CS","CS","4","category4/CS9.png","","","","",""
"","html-keyboard-response","58","324871","0.0-6.0-4.0-0.10","10evoqdku4","one_one","1","indirect_first","0","af06nz03","0","20","1","1","3","1","","0","1","0","null","","","<div class = 'row'><div class = 'column'><img src = 'category1/CS6.png' width = '70%;'></div><div class = 'column'><img src = 'uspos/7580.bmp' width = '100%;'></div></div>","null","pos","CS","CS","1","category1/CS6.png","","","","",""
"","html-keyboard-response","59","327374","0.0-6.0-4.0-0.11","10evoqdku4","one_one","1","indirect_first","0","af06nz03","0","20","1","1","3","1","","0","1","0","null","","","<div class = 'row'><div class = 'column'><img src = 'usneg/9342.bmp' width = '100%;'></div><div class = 'column'><img src = 'category3/CS4.png' width = '70%;'></div></div>","null","neg","CS","CS","3","category3/CS4.png","","","","",""
"","html-keyboard-response","60","329879","0.0-6.0-4.0-0.12","10evoqdku4","one_one","1","indirect_first","0","af06nz03","0","20","1","1","3","1","","0","1","0","null","","","<div class = 'row'><div class = 'column'><img src = 'category2/CS2.png' width = '70%;'></div><div class = 'column'><img src = 'uspos/2150.bmp' width = '100%;'></div></div>","null","pos","CS","CS","2","category2/CS2.png","","","","",""
"","html-keyboard-response","61","332384","0.0-6.0-4.0-0.13","10evoqdku4","one_one","1","indirect_first","0","af06nz03","0","20","1","1","3","1","","0","1","0","null","","","<div class = 'row'><div class = 'column'><img src = 'category3/CS4.png' width = '70%;'></div><div class = 'column'><img src = 'usneg/9342.bmp' width = '100%;'></div></div>","null","neg","CS","CS","3","category3/CS4.png","","","","",""
"","html-keyboard-response","62","334888","0.0-6.0-4.0-0.14","10evoqdku4","one_one","1","indirect_first","0","af06nz03","0","20","1","1","3","1","","0","1","0","null","","","<div class = 'row'><div class = 'column'><img src = 'category4/CS9.png' width = '70%;'></div><div class = 'column'><img src = 'usneg/6838.bmp' width = '100%;'></div></div>","null","neg","CS","CS","4","category4/CS9.png","","","","",""
"","html-keyboard-response","63","337393","0.0-6.0-4.0-0.15","10evoqdku4","one_one","1","indirect_first","0","af06nz03","0","20","1","1","3","1","","0","1","0","null","","","<div class = 'row'><div class = 'column'><img src = 'category1/CS6.png' width = '70%;'></div><div class = 'column'><img src = 'uspos/7580.bmp' width = '100%;'></div></div>","null","pos","CS","CS","1","category1/CS6.png","","","","",""
"","html-keyboard-response","64","339899","0.0-6.0-4.0-0.16","10evoqdku4","one_one","1","indirect_first","0","af06nz03","0","20","1","1","3","1","","0","1","0","null","","","<div class = 'row'><div class = 'column'><img src = 'usneg/9342.bmp' width = '100%;'></div><div class = 'column'><img src = 'category3/CS4.png' width = '70%;'></div></div>","null","neg","CS","CS","3","category3/CS4.png","","","","",""
"","html-keyboard-response","65","342403","0.0-6.0-4.0-0.17","10evoqdku4","one_one","1","indirect_first","0","af06nz03","0","20","1","1","3","1","","0","1","0","null","","","<div class = 'row'><div class = 'column'><img src = 'category4/CS9.png' width = '70%;'></div><div class = 'column'><img src = 'usneg/6838.bmp' width = '100%;'></div></div>","null","neg","CS","CS","4","category4/CS9.png","","","","",""
"","html-keyboard-response","66","344908","0.0-6.0-4.0-0.18","10evoqdku4","one_one","1","indirect_first","0","af06nz03","0","20","1","1","3","1","","0","1","0","null","","","<div class = 'row'><div class = 'column'><img src = 'category3/CS4.png' width = '70%;'></div><div class = 'column'><img src = 'usneg/9342.bmp' width = '100%;'></div></div>","null","neg","CS","CS","3","category3/CS4.png","","","","",""
"","html-keyboard-response","67","347412","0.0-6.0-4.0-0.19","10evoqdku4","one_one","1","indirect_first","0","af06nz03","0","20","1","1","3","1","","0","1","0","null","","","<div class = 'row'><div class = 'column'><img src = 'category4/CS9.png' width = '70%;'></div><div class = 'column'><img src = 'usneg/6838.bmp' width = '100%;'></div></div>","null","neg","CS","CS","4","category4/CS9.png","","","","",""
"","survey-html-form","68","350580","0.0-6.0-5.0","10evoqdku4","one_one","1","indirect_first","0","af06nz03","0","20","1","1","3","1","","0","1","0","2665","","{}","","","","","","","","","","","",""
"","html-keyboard-response","69","354584","0.0-6.0-6.0-0.0","10evoqdku4","one_one","1","indirect_first","0","af06nz03","0","20","1","1","3","1","","0","1","0","null","","","<div class = 'row'><div class = 'column'><img src = 'category2/CS2.png' width = '70%;'></div><div class = 'column'><img src = 'uspos/2150.bmp' width = '100%;'></div></div>","null","pos","CS","CS","2","category2/CS2.png","","","","",""
"","html-keyboard-response","70","357090","0.0-6.0-6.0-0.1","10evoqdku4","one_one","1","indirect_first","0","af06nz03","0","20","1","1","3","1","","0","1","0","null","","","<div class = 'row'><div class = 'column'><img src = 'category4/CS9.png' width = '70%;'></div><div class = 'column'><img src = 'usneg/6838.bmp' width = '100%;'></div></div>","null","neg","CS","CS","4","category4/CS9.png","","","","",""
"","html-keyboard-response","71","359594","0.0-6.0-6.0-0.2","10evoqdku4","one_one","1","indirect_first","0","af06nz03","0","20","1","1","3","1","","0","1","0","null","","","<div class = 'row'><div class = 'column'><img src = 'category1/CS6.png' width = '70%;'></div><div class = 'column'><img src = 'uspos/7580.bmp' width = '100%;'></div></div>","null","pos","CS","CS","1","category1/CS6.png","","","","",""
"","html-keyboard-response","72","362101","0.0-6.0-6.0-0.3","10evoqdku4","one_one","1","indirect_first","0","af06nz03","0","20","1","1","3","1","","0","1","0","null","","","<div class = 'row'><div class = 'column'><img src = 'usneg/6838.bmp' width = '100%;'></div><div class = 'column'><img src = 'category4/CS9.png' width = '70%;'></div></div>","null","neg","CS","CS","4","category4/CS9.png","","","","",""
"","html-keyboard-response","73","364605","0.0-6.0-6.0-0.4","10evoqdku4","one_one","1","indirect_first","0","af06nz03","0","20","1","1","3","1","","0","1","0","null","","","<div class = 'row'><div class = 'column'><img src = 'usneg/9342.bmp' width = '100%;'></div><div class = 'column'><img src = 'category3/CS4.png' width = '70%;'></div></div>","null","neg","CS","CS","3","category3/CS4.png","","","","",""
"","html-keyboard-response","74","367110","0.0-6.0-6.0-0.5","10evoqdku4","one_one","1","indirect_first","0","af06nz03","0","20","1","1","3","1","","0","1","0","null","","","<div class = 'row'><div class = 'column'><img src = 'category1/CS6.png' width = '70%;'></div><div class = 'column'><img src = 'uspos/7580.bmp' width = '100%;'></div></div>","null","pos","CS","CS","1","category1/CS6.png","","","","",""
"","html-keyboard-response","75","369614","0.0-6.0-6.0-0.6","10evoqdku4","one_one","1","indirect_first","0","af06nz03","0","20","1","1","3","1","","0","1","0","null","","","<div class = 'row'><div class = 'column'><img src = 'usneg/6838.bmp' width = '100%;'></div><div class = 'column'><img src = 'category4/CS9.png' width = '70%;'></div></div>","null","neg","CS","CS","4","category4/CS9.png","","","","",""
"","html-keyboard-response","76","372120","0.0-6.0-6.0-0.7","10evoqdku4","one_one","1","indirect_first","0","af06nz03","0","20","1","1","3","1","","0","1","0","null","","","<div class = 'row'><div class = 'column'><img src = 'category1/CS6.png' width = '70%;'></div><div class = 'column'><img src = 'uspos/7580.bmp' width = '100%;'></div></div>","null","pos","CS","CS","1","category1/CS6.png","","","","",""
"","html-keyboard-response","77","374625","0.0-6.0-6.0-0.8","10evoqdku4","one_one","1","indirect_first","0","af06nz03","0","20","1","1","3","1","","0","1","0","null","","","<div class = 'row'><div class = 'column'><img src = 'uspos/2150.bmp' width = '100%;'></div><div class = 'column'><img src = 'category2/CS2.png' width = '70%;'></div></div>","null","pos","CS","CS","2","category2/CS2.png","","","","",""
"","html-keyboard-response","78","377129","0.0-6.0-6.0-0.9","10evoqdku4","one_one","1","indirect_first","0","af06nz03","0","20","1","1","3","1","","0","1","0","null","","","<div class = 'row'><div class = 'column'><img src = 'uspos/7580.bmp' width = '100%;'></div><div class = 'column'><img src = 'category1/CS6.png' width = '70%;'></div></div>","null","pos","CS","CS","1","category1/CS6.png","","","","",""
"","html-keyboard-response","79","379634","0.0-6.0-6.0-0.10","10evoqdku4","one_one","1","indirect_first","0","af06nz03","0","20","1","1","3","1","","0","1","0","null","","","<div class = 'row'><div class = 'column'><img src = 'category3/CS4.png' width = '70%;'></div><div class = 'column'><img src = 'usneg/9342.bmp' width = '100%;'></div></div>","null","neg","CS","CS","3","category3/CS4.png","","","","",""
"","html-keyboard-response","80","382138","0.0-6.0-6.0-0.11","10evoqdku4","one_one","1","indirect_first","0","af06nz03","0","20","1","1","3","1","","0","1","0","null","","","<div class = 'row'><div class = 'column'><img src = 'usneg/6838.bmp' width = '100%;'></div><div class = 'column'><img src = 'category4/CS9.png' width = '70%;'></div></div>","null","neg","CS","CS","4","category4/CS9.png","","","","",""
"","html-keyboard-response","81","384643","0.0-6.0-6.0-0.12","10evoqdku4","one_one","1","indirect_first","0","af06nz03","0","20","1","1","3","1","","0","1","0","null","","","<div class = 'row'><div class = 'column'><img src = 'category2/CS2.png' width = '70%;'></div><div class = 'column'><img src = 'uspos/2150.bmp' width = '100%;'></div></div>","null","pos","CS","CS","2","category2/CS2.png","","","","",""
"","html-keyboard-response","82","387148","0.0-6.0-6.0-0.13","10evoqdku4","one_one","1","indirect_first","0","af06nz03","0","20","1","1","3","1","","0","1","0","null","","","<div class = 'row'><div class = 'column'><img src = 'category1/CS6.png' width = '70%;'></div><div class = 'column'><img src = 'uspos/7580.bmp' width = '100%;'></div></div>","null","pos","CS","CS","1","category1/CS6.png","","","","",""
"","html-keyboard-response","83","389653","0.0-6.0-6.0-0.14","10evoqdku4","one_one","1","indirect_first","0","af06nz03","0","20","1","1","3","1","","0","1","0","null","","","<div class = 'row'><div class = 'column'><img src = 'uspos/2150.bmp' width = '100%;'></div><div class = 'column'><img src = 'category2/CS2.png' width = '70%;'></div></div>","null","pos","CS","CS","2","category2/CS2.png","","","","",""
"","html-keyboard-response","84","392158","0.0-6.0-6.0-0.15","10evoqdku4","one_one","1","indirect_first","0","af06nz03","0","20","1","1","3","1","","0","1","0","null","","","<div class = 'row'><div class = 'column'><img src = 'category3/CS4.png' width = '70%;'></div><div class = 'column'><img src = 'usneg/9342.bmp' width = '100%;'></div></div>","null","neg","CS","CS","3","category3/CS4.png","","","","",""
"","html-keyboard-response","85","394663","0.0-6.0-6.0-0.16","10evoqdku4","one_one","1","indirect_first","0","af06nz03","0","20","1","1","3","1","","0","1","0","null","","","<div class = 'row'><div class = 'column'><img src = 'usneg/6838.bmp' width = '100%;'></div><div class = 'column'><img src = 'category4/CS9.png' width = '70%;'></div></div>","null","neg","CS","CS","4","category4/CS9.png","","","","",""
"","html-keyboard-response","86","397166","0.0-6.0-6.0-0.17","10evoqdku4","one_one","1","indirect_first","0","af06nz03","0","20","1","1","3","1","","0","1","0","null","","","<div class = 'row'><div class = 'column'><img src = 'usneg/9342.bmp' width = '100%;'></div><div class = 'column'><img src = 'category3/CS4.png' width = '70%;'></div></div>","null","neg","CS","CS","3","category3/CS4.png","","","","",""
"","html-keyboard-response","87","399671","0.0-6.0-6.0-0.18","10evoqdku4","one_one","1","indirect_first","0","af06nz03","0","20","1","1","3","1","","0","1","0","null","","","<div class = 'row'><div class = 'column'><img src = 'uspos/2150.bmp' width = '100%;'></div><div class = 'column'><img src = 'category2/CS2.png' width = '70%;'></div></div>","null","pos","CS","CS","2","category2/CS2.png","","","","",""
"","html-keyboard-response","88","402175","0.0-6.0-6.0-0.19","10evoqdku4","one_one","1","indirect_first","0","af06nz03","0","20","1","1","3","1","","0","1","0","null","","","<div class = 'row'><div class = 'column'><img src = 'category3/CS4.png' width = '70%;'></div><div class = 'column'><img src = 'usneg/9342.bmp' width = '100%;'></div></div>","null","neg","CS","CS","3","category3/CS4.png","","","","",""
"","html-keyboard-response","89","454156","0.0-7.0","10evoqdku4","one_one","1","indirect_first","0","af06nz03","0","20","1","1","3","1","","0","1","0","51475.99999999994","","","<p>Sie sehen nun die chinesischen Zeichen nur ganz kurz. Danach sehen Sie die jeweilige Aussprache der Zeichen als Silbe auf dem Bildschrim. Ihre Aufgabe ist es, für jede Silbe anzugeben, ob diese etwas angenehmes, oder unangenehmes bedeuten könnte. Verlassen Sie sich hier vor allem auf Ihre Intuition.<br><br>Die Zeichen werden nur zur Orientierung dargestellt, beachten Sie sie deshalb nicht. Konzentrieren Sie sich vor allem auf die Silben. <br>Reagieren Sie mit folgenden zwei Tasten: <br><br><b>'D' </b> wenn die Silbe etwas <b>unangenehmes</b> bedeuten könnte. <br><b>'K'</b> wenn die Silbe etwas <b>angenehmes</b> bedeuten könnte. <br><br>Bitte legen Sie nun den Zeigefinger der linken Hand auf die Taste 'D' und den Zeigefinger der rechten Hand auf die Taste 'K'. <br>Reagieren Sie auf jede Silbe so schnell wie möglich. Uns interessiert Ihre spontane Reaktion. <br> <br> <br>Drücken Sie 'D' oder 'K', um die nächste Aufgabe zu starten. </p>","68","","","","","","","","","",""
"","html-keyboard-response","90","457158","0.0-8.0-0.0","10evoqdku4","one_one","1","indirect_first","0","af06nz03","0","20","1","1","3","1","","0","1","0","null","","","<div style=""font-size:60px;"">+</div>","null","","","","","","","","","",""
"","html-keyboard-response","91","457251","0.0-8.0-1.0","10evoqdku4","one_one","1","indirect_first","0","af06nz03","0","20","1","1","3","1","","0","1","0","null","","","<img src = 'category4/CS8.png' width = '100%;'>","null","","","","","","","","","",""
"","html-keyboard-response","92","457505","0.0-8.0-2.0","10evoqdku4","one_one","1","indirect_first","0","af06nz03","0","20","1","1","3","1","","0","1","0","null","","","<img src = 'targets/14.png' width = '100%;'>","null","","","","","","","","","",""
"","html-keyboard-response","93","463805","0.0-8.0-3.0","10evoqdku4","one_one","1","indirect_first","0","af06nz03","0","20","1","1","3","1","","0","1","0","6299","","","<img src = 'targets/mask.png' width = '100%;'>","68","neg","GS","GSold","4","category4/CS8.png","targets/14.png","0","indirect","0",""
"","html-keyboard-response","94","465311","0.0-8.0-0.1","10evoqdku4","one_one","1","indirect_first","0","af06nz03","0","20","1","1","3","1","","0","1","0","null","","","<div style=""font-size:60px;"">+</div>","null","","","","","","","","","",""
"","html-keyboard-response","95","465403","0.0-8.0-1.1","10evoqdku4","one_one","1","indirect_first","0","af06nz03","0","20","1","1","3","1","","0","1","0","null","","","<img src = 'category1/CS3.png' width = '100%;'>","null","","","","","","","","","",""
"","html-keyboard-response","96","465657","0.0-8.0-2.1","10evoqdku4","one_one","1","indirect_first","0","af06nz03","0","20","1","1","3","1","","0","1","0","null","","","<img src = 'targets/30.png' width = '100%;'>","null","","","","","","","","","",""
"","html-keyboard-response","97","468712","0.0-8.0-3.1","10evoqdku4","one_one","1","indirect_first","0","af06nz03","0","20","1","1","3","1","","0","1","0","3054","","","<img src = 'targets/mask.png' width = '100%;'>","75","pos","GS","GSold","1","category1/CS3.png","targets/30.png","1","indirect","1",""
"","html-keyboard-response","98","470217","0.0-8.0-0.2","10evoqdku4","one_one","1","indirect_first","0","af06nz03","0","20","1","1","3","1","","0","1","0","null","","","<div style=""font-size:60px;"">+</div>","null","","","","","","","","","",""
"","html-keyboard-response","99","470309","0.0-8.0-1.2","10evoqdku4","one_one","1","indirect_first","0","af06nz03","0","20","1","1","3","1","","0","1","0","null","","","<img src = 'category3/CS6.png' width = '100%;'>","null","","","","","","","","","",""
"","html-keyboard-response","100","470563","0.0-8.0-2.2","10evoqdku4","one_one","1","indirect_first","0","af06nz03","0","20","1","1","3","1","","0","1","0","null","","","<img src = 'targets/5.png' width = '100%;'>","null","","","","","","","","","",""
"","html-keyboard-response","101","474116","0.0-8.0-3.2","10evoqdku4","one_one","1","indirect_first","0","af06nz03","0","20","1","1","3","1","","0","1","0","3553","","","<img src = 'targets/mask.png' width = '100%;'>","75","neg","GS","GSold","3","category3/CS6.png","targets/5.png","1","indirect","2",""
"","html-keyboard-response","102","475621","0.0-8.0-0.3","10evoqdku4","one_one","1","indirect_first","0","af06nz03","0","20","1","1","3","1","","0","1","0","null","","","<div style=""font-size:60px;"">+</div>","null","","","","","","","","","",""
"","html-keyboard-response","103","475713","0.0-8.0-1.3","10evoqdku4","one_one","1","indirect_first","0","af06nz03","0","20","1","1","3","1","","0","1","0","null","","","<img src = 'category3/CS9.png' width = '100%;'>","null","","","","","","","","","",""
"","html-keyboard-response","104","475967","0.0-8.0-2.3","10evoqdku4","one_one","1","indirect_first","0","af06nz03","0","20","1","1","3","1","","0","1","0","null","","","<img src = 'targets/33.png' width = '100%;'>","null","","","","","","","","","",""
"","html-keyboard-response","105","477630","0.0-8.0-3.3","10evoqdku4","one_one","1","indirect_first","0","af06nz03","0","20","1","1","3","1","","0","1","0","1662","","","<img src = 'targets/mask.png' width = '100%;'>","68","neg","GS","GSold","3","category3/CS9.png","targets/33.png","0","indirect","3",""
"","html-keyboard-response","106","479133","0.0-8.0-0.4","10evoqdku4","one_one","1","indirect_first","0","af06nz03","0","20","1","1","3","1","","0","1","0","null","","","<div style=""font-size:60px;"">+</div>","null","","","","","","","","","",""
"","html-keyboard-response","107","479224","0.0-8.0-1.4","10evoqdku4","one_one","1","indirect_first","0","af06nz03","0","20","1","1","3","1","","0","1","0","null","","","<img src = 'category1/CS8.png' width = '100%;'>","null","","","","","","","","","",""
"","html-keyboard-response","108","479477","0.0-8.0-2.4","10evoqdku4","one_one","1","indirect_first","0","af06nz03","0","20","1","1","3","1","","0","1","0","null","","","<img src = 'targets/4.png' width = '100%;'>","null","","","","","","","","","",""
"","html-keyboard-response","109","482515","0.0-8.0-3.4","10evoqdku4","one_one","1","indirect_first","0","af06nz03","0","20","1","1","3","1","","0","1","0","3036.999999999942","","","<img src = 'targets/mask.png' width = '100%;'>","75","pos","GS","GSold","1","category1/CS8.png","targets/4.png","1","indirect","4",""
"","html-keyboard-response","110","484018","0.0-8.0-0.5","10evoqdku4","one_one","1","indirect_first","0","af06nz03","0","20","1","1","3","1","","0","1","0","null","","","<div style=""font-size:60px;"">+</div>","null","","","","","","","","","",""
"","html-keyboard-response","111","484109","0.0-8.0-1.5","10evoqdku4","one_one","1","indirect_first","0","af06nz03","0","20","1","1","3","1","","0","1","0","null","","","<img src = 'category2/CS3.png' width = '100%;'>","null","","","","","","","","","",""
"","html-keyboard-response","112","484362","0.0-8.0-2.5","10evoqdku4","one_one","1","indirect_first","0","af06nz03","0","20","1","1","3","1","","0","1","0","null","","","<img src = 'targets/37.png' width = '100%;'>","null","","","","","","","","","",""
"","html-keyboard-response","113","485489","0.0-8.0-3.5","10evoqdku4","one_one","1","indirect_first","0","af06nz03","0","20","1","1","3","1","","0","1","0","1126","","","<img src = 'targets/mask.png' width = '100%;'>","68","pos","GS","GSold","2","category2/CS3.png","targets/37.png","0","indirect","5",""
"","html-keyboard-response","114","486993","0.0-8.0-0.6","10evoqdku4","one_one","1","indirect_first","0","af06nz03","0","20","1","1","3","1","","0","1","0","null","","","<div style=""font-size:60px;"">+</div>","null","","","","","","","","","",""
"","html-keyboard-response","115","487086","0.0-8.0-1.6","10evoqdku4","one_one","1","indirect_first","0","af06nz03","0","20","1","1","3","1","","0","1","0","null","","","<img src = 'category1/CS7.png' width = '100%;'>","null","","","","","","","","","",""
"","html-keyboard-response","116","487339","0.0-8.0-2.6","10evoqdku4","one_one","1","indirect_first","0","af06nz03","0","20","1","1","3","1","","0","1","0","null","","","<img src = 'targets/29.png' width = '100%;'>","null","","","","","","","","","",""
"","html-keyboard-response","117","488524","0.0-8.0-3.6","10evoqdku4","one_one","1","indirect_first","0","af06nz03","0","20","1","1","3","1","","0","1","0","1183","","","<img src = 'targets/mask.png' width = '100%;'>","68","pos","GS","GSold","1","category1/CS7.png","targets/29.png","0","indirect","6",""
"","html-keyboard-response","118","490027","0.0-8.0-0.7","10evoqdku4","one_one","1","indirect_first","0","af06nz03","0","20","1","1","3","1","","0","1","0","null","","","<div style=""font-size:60px;"">+</div>","null","","","","","","","","","",""
"","html-keyboard-response","119","490119","0.0-8.0-1.7","10evoqdku4","one_one","1","indirect_first","0","af06nz03","0","20","1","1","3","1","","0","1","0","null","","","<img src = 'category1/CS6.png' width = '100%;'>","null","","","","","","","","","",""
"","html-keyboard-response","120","490373","0.0-8.0-2.7","10evoqdku4","one_one","1","indirect_first","0","af06nz03","0","20","1","1","3","1","","0","1","0","null","","","<img src = 'targets/46.png' width = '100%;'>","null","","","","","","","","","",""
"","html-keyboard-response","121","493248","0.0-8.0-3.7","10evoqdku4","one_one","1","indirect_first","0","af06nz03","0","20","1","1","3","1","","0","1","0","2874","","","<img src = 'targets/mask.png' width = '100%;'>","68","pos","CS","CS","1","category1/CS6.png","targets/46.png","0","indirect","7",""
"","html-keyboard-response","122","494753","0.0-8.0-0.8","10evoqdku4","one_one","1","indirect_first","0","af06nz03","0","20","1","1","3","1","","0","1","0","null","","","<div style=""font-size:60px;"">+</div>","null","","","","","","","","","",""
"","html-keyboard-response","123","494845","0.0-8.0-1.8","10evoqdku4","one_one","1","indirect_first","0","af06nz03","0","20","1","1","3","1","","0","1","0","null","","","<img src = 'category2/CS1.png' width = '100%;'>","null","","","","","","","","","",""
"","html-keyboard-response","124","495099","0.0-8.0-2.8","10evoqdku4","one_one","1","indirect_first","0","af06nz03","0","20","1","1","3","1","","0","1","0","null","","","<img src = 'targets/23.png' width = '100%;'>","null","","","","","","","","","",""
"","html-keyboard-response","125","497518","0.0-8.0-3.8","10evoqdku4","one_one","1","indirect_first","0","af06nz03","0","20","1","1","3","1","","0","1","0","2419","","","<img src = 'targets/mask.png' width = '100%;'>","68","pos","GS","GSold","2","category2/CS1.png","targets/23.png","0","indirect","8",""
"","html-keyboard-response","126","499022","0.0-8.0-0.9","10evoqdku4","one_one","1","indirect_first","0","af06nz03","0","20","1","1","3","1","","0","1","0","null","","","<div style=""font-size:60px;"">+</div>","null","","","","","","","","","",""
"","html-keyboard-response","127","499115","0.0-8.0-1.9","10evoqdku4","one_one","1","indirect_first","0","af06nz03","0","20","1","1","3","1","","0","1","0","null","","","<img src = 'category3/CS8.png' width = '100%;'>","null","","","","","","","","","",""
"","html-keyboard-response","128","499368","0.0-8.0-2.9","10evoqdku4","one_one","1","indirect_first","0","af06nz03","0","20","1","1","3","1","","0","1","0","null","","","<img src = 'targets/8.png' width = '100%;'>","null","","","","","","","","","",""
"","html-keyboard-response","129","500866","0.0-8.0-3.9","10evoqdku4","one_one","1","indirect_first","0","af06nz03","0","20","1","1","3","1","","0","1","0","1497","","","<img src = 'targets/mask.png' width = '100%;'>","68","neg","GS","GSold","3","category3/CS8.png","targets/8.png","0","indirect","9",""
"","html-keyboard-response","130","502370","0.0-8.0-0.10","10evoqdku4","one_one","1","indirect_first","0","af06nz03","0","20","1","1","3","1","","0","1","0","null","","","<div style=""font-size:60px;"">+</div>","null","","","","","","","","","",""
"","html-keyboard-response","131","502463","0.0-8.0-1.10","10evoqdku4","one_one","1","indirect_first","0","af06nz03","0","20","1","1","3","1","","0","1","0","null","","","<img src = 'category2/CS4.png' width = '100%;'>","null","","","","","","","","","",""
"","html-keyboard-response","132","502715","0.0-8.0-2.10","10evoqdku4","one_one","1","indirect_first","0","af06nz03","0","20","1","1","3","1","","0","1","0","null","","","<img src = 'targets/27.png' width = '100%;'>","null","","","","","","","","","",""
"","html-keyboard-response","133","503616","0.0-8.0-3.10","10evoqdku4","one_one","1","indirect_first","0","af06nz03","0","20","1","1","3","1","","0","1","0","899","","","<img src = 'targets/mask.png' width = '100%;'>","75","pos","GS","GSold","2","category2/CS4.png","targets/27.png","1","indirect","10",""
"","html-keyboard-response","134","505120","0.0-8.0-0.11","10evoqdku4","one_one","1","indirect_first","0","af06nz03","0","20","1","1","3","1","","0","1","0","null","","","<div style=""font-size:60px;"">+</div>","null","","","","","","","","","",""
"","html-keyboard-response","135","505212","0.0-8.0-1.11","10evoqdku4","one_one","1","indirect_first","0","af06nz03","0","20","1","1","3","1","","0","1","0","null","","","<img src = 'category4/CS3.png' width = '100%;'>","null","","","","","","","","","",""
"","html-keyboard-response","136","505466","0.0-8.0-2.11","10evoqdku4","one_one","1","indirect_first","0","af06nz03","0","20","1","1","3","1","","0","1","0","null","","","<img src = 'targets/45.png' width = '100%;'>","null","","","","","","","","","",""
"","html-keyboard-response","137","506628","0.0-8.0-3.11","10evoqdku4","one_one","1","indirect_first","0","af06nz03","0","20","1","1","3","1","","0","1","0","1161.9999999999418","","","<img src = 'targets/mask.png' width = '100%;'>","75","neg","GS","GSold","4","category4/CS3.png","targets/45.png","1","indirect","11",""
"","html-keyboard-response","138","508132","0.0-8.0-0.12","10evoqdku4","one_one","1","indirect_first","0","af06nz03","0","20","1","1","3","1","","0","1","0","null","","","<div style=""font-size:60px;"">+</div>","null","","","","","","","","","",""
"","html-keyboard-response","139","508225","0.0-8.0-1.12","10evoqdku4","one_one","1","indirect_first","0","af06nz03","0","20","1","1","3","1","","0","1","0","null","","","<img src = 'category2/CS2.png' width = '100%;'>","null","","","","","","","","","",""
"","html-keyboard-response","140","508479","0.0-8.0-2.12","10evoqdku4","one_one","1","indirect_first","0","af06nz03","0","20","1","1","3","1","","0","1","0","null","","","<img src = 'targets/2.png' width = '100%;'>","null","","","","","","","","","",""
"","html-keyboard-response","141","509464","0.0-8.0-3.12","10evoqdku4","one_one","1","indirect_first","0","af06nz03","0","20","1","1","3","1","","0","1","0","983.9999999999418","","","<img src = 'targets/mask.png' width = '100%;'>","68","pos","CS","CS","2","category2/CS2.png","targets/2.png","0","indirect","12",""
"","html-keyboard-response","142","510966","0.0-8.0-0.13","10evoqdku4","one_one","1","indirect_first","0","af06nz03","0","20","1","1","3","1","","0","1","0","null","","","<div style=""font-size:60px;"">+</div>","null","","","","","","","","","",""
"","html-keyboard-response","143","511059","0.0-8.0-1.13","10evoqdku4","one_one","1","indirect_first","0","af06nz03","0","20","1","1","3","1","","0","1","0","null","","","<img src = 'category3/CS4.png' width = '100%;'>","null","","","","","","","","","",""
"","html-keyboard-response","144","511312","0.0-8.0-2.13","10evoqdku4","one_one","1","indirect_first","0","af06nz03","0","20","1","1","3","1","","0","1","0","null","","","<img src = 'targets/7.png' width = '100%;'>","null","","","","","","","","","",""
"","html-keyboard-response","145","512054","0.0-8.0-3.13","10evoqdku4","one_one","1","indirect_first","0","af06nz03","0","20","1","1","3","1","","0","1","0","740.9999999999418","","","<img src = 'targets/mask.png' width = '100%;'>","75","neg","CS","CS","3","category3/CS4.png","targets/7.png","1","indirect","13",""
"","html-keyboard-response","146","513558","0.0-8.0-0.14","10evoqdku4","one_one","1","indirect_first","0","af06nz03","0","20","1","1","3","1","","0","1","0","null","","","<div style=""font-size:60px;"">+</div>","null","","","","","","","","","",""
"","html-keyboard-response","147","513649","0.0-8.0-1.14","10evoqdku4","one_one","1","indirect_first","0","af06nz03","0","20","1","1","3","1","","0","1","0","null","","","<img src = 'category4/CS9.png' width = '100%;'>","null","","","","","","","","","",""
"","html-keyboard-response","148","513902","0.0-8.0-2.14","10evoqdku4","one_one","1","indirect_first","0","af06nz03","0","20","1","1","3","1","","0","1","0","null","","","<img src = 'targets/16.png' width = '100%;'>","null","","","","","","","","","",""
"","html-keyboard-response","149","516097","0.0-8.0-3.14","10evoqdku4","one_one","1","indirect_first","0","af06nz03","0","20","1","1","3","1","","0","1","0","2193.999999999942","","","<img src = 'targets/mask.png' width = '100%;'>","75","neg","CS","CS","4","category4/CS9.png","targets/16.png","1","indirect","14",""
"","html-keyboard-response","150","517601","0.0-8.0-0.15","10evoqdku4","one_one","1","indirect_first","0","af06nz03","0","20","1","1","3","1","","0","1","0","null","","","<div style=""font-size:60px;"">+</div>","null","","","","","","","","","",""
"","html-keyboard-response","151","517694","0.0-8.0-1.15","10evoqdku4","one_one","1","indirect_first","0","af06nz03","0","20","1","1","3","1","","0","1","0","null","","","<img src = 'category4/CS4.png' width = '100%;'>","null","","","","","","","","","",""
"","html-keyboard-response","152","517948","0.0-8.0-2.15","10evoqdku4","one_one","1","indirect_first","0","af06nz03","0","20","1","1","3","1","","0","1","0","null","","","<img src = 'targets/36.png' width = '100%;'>","null","","","","","","","","","",""
"","html-keyboard-response","153","519059","0.0-8.0-3.15","10evoqdku4","one_one","1","indirect_first","0","af06nz03","0","20","1","1","3","1","","0","1","0","1109.0000000000582","","","<img src = 'targets/mask.png' width = '100%;'>","75","neg","GS","GSold","4","category4/CS4.png","targets/36.png","1","indirect","15",""
"","survey-html-form","154","522340","0.0-9.0","10evoqdku4","one_one","1","indirect_first","0","af06nz03","0","20","1","1","3","1","","0","1","0","2777.999999999942","","{}","","","","","","","","","","","",""
"","html-keyboard-response","155","525344","0.0-10.0-0.0","10evoqdku4","one_one","1","indirect_first","0","af06nz03","0","20","1","1","3","1","","0","1","0","null","","","<div style=""font-size:60px;"">+</div>","null","","","","","","","","","",""
"","html-keyboard-response","156","525435","0.0-10.0-1.0","10evoqdku4","one_one","1","indirect_first","0","af06nz03","0","20","1","1","3","1","","0","1","0","null","","","<img src = 'category1/GS1.png' width = '100%;'>","null","","","","","","","","","",""
"","html-keyboard-response","157","525689","0.0-10.0-2.0","10evoqdku4","one_one","1","indirect_first","0","af06nz03","0","20","1","1","3","1","","0","1","0","null","","","<img src = 'targets/44.png' width = '100%;'>","null","","","","","","","","","",""
"","html-keyboard-response","158","528854","0.0-10.0-3.0","10evoqdku4","one_one","1","indirect_first","0","af06nz03","0","20","1","1","3","1","","0","1","0","3163","","","<img src = 'targets/mask.png' width = '100%;'>","75","pos","GS","GSnew","1","category1/GS1.png","targets/44.png","1","indirect","16",""
"","html-keyboard-response","159","530357","0.0-10.0-0.1","10evoqdku4","one_one","1","indirect_first","0","af06nz03","0","20","1","1","3","1","","0","1","0","null","","","<div style=""font-size:60px;"">+</div>","null","","","","","","","","","",""
"","html-keyboard-response","160","530450","0.0-10.0-1.1","10evoqdku4","one_one","1","indirect_first","0","af06nz03","0","20","1","1","3","1","","0","1","0","null","","","<img src = 'category1/GS3.png' width = '100%;'>","null","","","","","","","","","",""
"","html-keyboard-response","161","530703","0.0-10.0-2.1","10evoqdku4","one_one","1","indirect_first","0","af06nz03","0","20","1","1","3","1","","0","1","0","null","","","<img src = 'targets/41.png' width = '100%;'>","null","","","","","","","","","",""
"","html-keyboard-response","162","532275","0.0-10.0-3.1","10evoqdku4","one_one","1","indirect_first","0","af06nz03","0","20","1","1","3","1","","0","1","0","1571","","","<img src = 'targets/mask.png' width = '100%;'>","75","pos","GS","GSnew","1","category1/GS3.png","targets/41.png","1","indirect","17",""
"","html-keyboard-response","163","533779","0.0-10.0-0.2","10evoqdku4","one_one","1","indirect_first","0","af06nz03","0","20","1","1","3","1","","0","1","0","null","","","<div style=""font-size:60px;"">+</div>","null","","","","","","","","","",""
"","html-keyboard-response","164","533873","0.0-10.0-1.2","10evoqdku4","one_one","1","indirect_first","0","af06nz03","0","20","1","1","3","1","","0","1","0","null","","","<img src = 'category3/GS1.png' width = '100%;'>","null","","","","","","","","","",""
"","html-keyboard-response","165","534127","0.0-10.0-2.2","10evoqdku4","one_one","1","indirect_first","0","af06nz03","0","20","1","1","3","1","","0","1","0","null","","","<img src = 'targets/1.png' width = '100%;'>","null","","","","","","","","","",""
"","html-keyboard-response","166","536306","0.0-10.0-3.2","10evoqdku4","one_one","1","indirect_first","0","af06nz03","0","20","1","1","3","1","","0","1","0","2177","","","<img src = 'targets/mask.png' width = '100%;'>","75","neg","GS","GSnew","3","category3/GS1.png","targets/1.png","1","indirect","18",""
"","html-keyboard-response","167","537810","0.0-10.0-0.3","10evoqdku4","one_one","1","indirect_first","0","af06nz03","0","20","1","1","3","1","","0","1","0","null","","","<div style=""font-size:60px;"">+</div>","null","","","","","","","","","",""
"","html-keyboard-response","168","537902","0.0-10.0-1.3","10evoqdku4","one_one","1","indirect_first","0","af06nz03","0","20","1","1","3","1","","0","1","0","null","","","<img src = 'category3/GS2.png' width = '100%;'>","null","","","","","","","","","",""
"","html-keyboard-response","169","538156","0.0-10.0-2.3","10evoqdku4","one_one","1","indirect_first","0","af06nz03","0","20","1","1","3","1","","0","1","0","null","","","<img src = 'targets/48.png' width = '100%;'>","null","","","","","","","","","",""
"","html-keyboard-response","170","539114","0.0-10.0-3.3","10evoqdku4","one_one","1","indirect_first","0","af06nz03","0","20","1","1","3","1","","0","1","0","957","","","<img src = 'targets/mask.png' width = '100%;'>","68","neg","GS","GSnew","3","category3/GS2.png","targets/48.png","0","indirect","19",""
"","html-keyboard-response","171","540618","0.0-10.0-0.4","10evoqdku4","one_one","1","indirect_first","0","af06nz03","0","20","1","1","3","1","","0","1","0","null","","","<div style=""font-size:60px;"">+</div>","null","","","","","","","","","",""
"","html-keyboard-response","172","540709","0.0-10.0-1.4","10evoqdku4","one_one","1","indirect_first","0","af06nz03","0","20","1","1","3","1","","0","1","0","null","","","<img src = 'category4/lin.png' width = '100%;'>","null","","","","","","","","","",""
"","html-keyboard-response","173","540962","0.0-10.0-2.4","10evoqdku4","one_one","1","indirect_first","0","af06nz03","0","20","1","1","3","1","","0","1","0","null","","","<img src = 'targets/19.png' width = '100%;'>","null","","","","","","","","","",""
"","html-keyboard-response","174","541629","0.0-10.0-3.4","10evoqdku4","one_one","1","indirect_first","0","af06nz03","0","20","1","1","3","1","","0","1","0","665","","","<img src = 'targets/mask.png' width = '100%;'>","68","neg","GS","abstract","4","category4/lin.png","targets/19.png","0","indirect","20",""
"","html-keyboard-response","175","543133","0.0-10.0-0.5","10evoqdku4","one_one","1","indirect_first","0","af06nz03","0","20","1","1","3","1","","0","1","0","null","","","<div style=""font-size:60px;"">+</div>","null","","","","","","","","","",""
"","html-keyboard-response","176","543226","0.0-10.0-1.5","10evoqdku4","one_one","1","indirect_first","0","af06nz03","0","20","1","1","3","1","","0","1","0","null","","","<img src = 'category4/GS1.png' width = '100%;'>","null","","","","","","","","","",""
"","html-keyboard-response","177","543480","0.0-10.0-2.5","10evoqdku4","one_one","1","indirect_first","0","af06nz03","0","20","1","1","3","1","","0","1","0","null","","","<img src = 'targets/42.png' width = '100%;'>","null","","","","","","","","","",""
"","html-keyboard-response","178","544627","0.0-10.0-3.5","10evoqdku4","one_one","1","indirect_first","0","af06nz03","0","20","1","1","3","1","","0","1","0","1145.9999999998836","","","<img src = 'targets/mask.png' width = '100%;'>","68","neg","GS","GSnew","4","category4/GS1.png","targets/42.png","0","indirect","21",""
"","html-keyboard-response","179","546130","0.0-10.0-0.6","10evoqdku4","one_one","1","indirect_first","0","af06nz03","0","20","1","1","3","1","","0","1","0","null","","","<div style=""font-size:60px;"">+</div>","null","","","","","","","","","",""
"","html-keyboard-response","180","546222","0.0-10.0-1.6","10evoqdku4","one_one","1","indirect_first","0","af06nz03","0","20","1","1","3","1","","0","1","0","null","","","<img src = 'category2/GS1.png' width = '100%;'>","null","","","","","","","","","",""
"","html-keyboard-response","181","546476","0.0-10.0-2.6","10evoqdku4","one_one","1","indirect_first","0","af06nz03","0","20","1","1","3","1","","0","1","0","null","","","<img src = 'targets/6.png' width = '100%;'>","null","","","","","","","","","",""
"","html-keyboard-response","182","549164","0.0-10.0-3.6","10evoqdku4","one_one","1","indirect_first","0","af06nz03","0","20","1","1","3","1","","0","1","0","2687","","","<img src = 'targets/mask.png' width = '100%;'>","75","pos","GS","GSnew","2","category2/GS1.png","targets/6.png","1","indirect","22",""
"","html-keyboard-response","183","550669","0.0-10.0-0.7","10evoqdku4","one_one","1","indirect_first","0","af06nz03","0","20","1","1","3","1","","0","1","0","null","","","<div style=""font-size:60px;"">+</div>","null","","","","","","","","","",""
"","html-keyboard-response","184","550762","0.0-10.0-1.7","10evoqdku4","one_one","1","indirect_first","0","af06nz03","0","20","1","1","3","1","","0","1","0","null","","","<img src = 'category2/GS3.png' width = '100%;'>","null","","","","","","","","","",""
"","html-keyboard-response","185","551016","0.0-10.0-2.7","10evoqdku4","one_one","1","indirect_first","0","af06nz03","0","20","1","1","3","1","","0","1","0","null","","","<img src = 'targets/43.png' width = '100%;'>","null","","","","","","","","","",""
"","html-keyboard-response","186","553545","0.0-10.0-3.7","10evoqdku4","one_one","1","indirect_first","0","af06nz03","0","20","1","1","3","1","","0","1","0","2528","","","<img src = 'targets/mask.png' width = '100%;'>","75","pos","GS","GSnew","2","category2/GS3.png","targets/43.png","1","indirect","23",""
"","html-keyboard-response","187","555049","0.0-10.0-0.8","10evoqdku4","one_one","1","indirect_first","0","af06nz03","0","20","1","1","3","1","","0","1","0","null","","","<div style=""font-size:60px;"">+</div>","null","","","","","","","","","",""
"","html-keyboard-response","188","555140","0.0-10.0-1.8","10evoqdku4","one_one","1","indirect_first","0","af06nz03","0","20","1","1","3","1","","0","1","0","null","","","<img src = 'category4/GS2.png' width = '100%;'>","null","","","","","","","","","",""
"","html-keyboard-response","189","555395","0.0-10.0-2.8","10evoqdku4","one_one","1","indirect_first","0","af06nz03","0","20","1","1","3","1","","0","1","0","null","","","<img src = 'targets/9.png' width = '100%;'>","null","","","","","","","","","",""
"","html-keyboard-response","190","556848","0.0-10.0-3.8","10evoqdku4","one_one","1","indirect_first","0","af06nz03","0","20","1","1","3","1","","0","1","0","1453","","","<img src = 'targets/mask.png' width = '100%;'>","68","neg","GS","GSnew","4","category4/GS2.png","targets/9.png","0","indirect","24",""
"","html-keyboard-response","191","558352","0.0-10.0-0.9","10evoqdku4","one_one","1","indirect_first","0","af06nz03","0","20","1","1","3","1","","0","1","0","null","","","<div style=""font-size:60px;"">+</div>","null","","","","","","","","","",""
"","html-keyboard-response","192","558445","0.0-10.0-1.9","10evoqdku4","one_one","1","indirect_first","0","af06nz03","0","20","1","1","3","1","","0","1","0","null","","","<img src = 'category1/GS2.png' width = '100%;'>","null","","","","","","","","","",""
"","html-keyboard-response","193","558698","0.0-10.0-2.9","10evoqdku4","one_one","1","indirect_first","0","af06nz03","0","20","1","1","3","1","","0","1","0","null","","","<img src = 'targets/18.png' width = '100%;'>","null","","","","","","","","","",""
"","html-keyboard-response","194","559400","0.0-10.0-3.9","10evoqdku4","one_one","1","indirect_first","0","af06nz03","0","20","1","1","3","1","","0","1","0","701","","","<img src = 'targets/mask.png' width = '100%;'>","68","pos","GS","GSnew","1","category1/GS2.png","targets/18.png","0","indirect","25",""
"","html-keyboard-response","195","560904","0.0-10.0-0.10","10evoqdku4","one_one","1","indirect_first","0","af06nz03","0","20","1","1","3","1","","0","1","0","null","","","<div style=""font-size:60px;"">+</div>","null","","","","","","","","","",""
"","html-keyboard-response","196","560996","0.0-10.0-1.10","10evoqdku4","one_one","1","indirect_first","0","af06nz03","0","20","1","1","3","1","","0","1","0","null","","","<img src = 'category2/GS2.png' width = '100%;'>","null","","","","","","","","","",""
"","html-keyboard-response","197","561249","0.0-10.0-2.10","10evoqdku4","one_one","1","indirect_first","0","af06nz03","0","20","1","1","3","1","","0","1","0","null","","","<img src = 'targets/39.png' width = '100%;'>","null","","","","","","","","","",""
"","html-keyboard-response","198","562327","0.0-10.0-3.10","10evoqdku4","one_one","1","indirect_first","0","af06nz03","0","20","1","1","3","1","","0","1","0","1077.0000000001164","","","<img src = 'targets/mask.png' width = '100%;'>","75","pos","GS","GSnew","2","category2/GS2.png","targets/39.png","1","indirect","26",""
"","html-keyboard-response","199","563831","0.0-10.0-0.11","10evoqdku4","one_one","1","indirect_first","0","af06nz03","0","20","1","1","3","1","","0","1","0","null","","","<div style=""font-size:60px;"">+</div>","null","","","","","","","","","",""
"","html-keyboard-response","200","563924","0.0-10.0-1.11","10evoqdku4","one_one","1","indirect_first","0","af06nz03","0","20","1","1","3","1","","0","1","0","null","","","<img src = 'category3/wang.png' width = '100%;'>","null","","","","","","","","","",""
"","html-keyboard-response","201","564176","0.0-10.0-2.11","10evoqdku4","one_one","1","indirect_first","0","af06nz03","0","20","1","1","3","1","","0","1","0","null","","","<img src = 'targets/20.png' width = '100%;'>","null","","","","","","","","","",""
"","html-keyboard-response","202","565060","0.0-10.0-3.11","10evoqdku4","one_one","1","indirect_first","0","af06nz03","0","20","1","1","3","1","","0","1","0","884","","","<img src = 'targets/mask.png' width = '100%;'>","75","neg","GS","abstract","3","category3/wang.png","targets/20.png","1","indirect","27",""
"","html-keyboard-response","203","566564","0.0-10.0-0.12","10evoqdku4","one_one","1","indirect_first","0","af06nz03","0","20","1","1","3","1","","0","1","0","null","","","<div style=""font-size:60px;"">+</div>","null","","","","","","","","","",""
"","html-keyboard-response","204","566656","0.0-10.0-1.12","10evoqdku4","one_one","1","indirect_first","0","af06nz03","0","20","1","1","3","1","","0","1","0","null","","","<img src = 'category3/GS3.png' width = '100%;'>","null","","","","","","","","","",""
"","html-keyboard-response","205","566909","0.0-10.0-2.12","10evoqdku4","one_one","1","indirect_first","0","af06nz03","0","20","1","1","3","1","","0","1","0","null","","","<img src = 'targets/28.png' width = '100%;'>","null","","","","","","","","","",""
"","html-keyboard-response","206","567595","0.0-10.0-3.12","10evoqdku4","one_one","1","indirect_first","0","af06nz03","0","20","1","1","3","1","","0","1","0","685","","","<img src = 'targets/mask.png' width = '100%;'>","68","neg","GS","GSnew","3","category3/GS3.png","targets/28.png","0","indirect","28",""
"","html-keyboard-response","207","569100","0.0-10.0-0.13","10evoqdku4","one_one","1","indirect_first","0","af06nz03","0","20","1","1","3","1","","0","1","0","null","","","<div style=""font-size:60px;"">+</div>","null","","","","","","","","","",""
"","html-keyboard-response","208","569192","0.0-10.0-1.13","10evoqdku4","one_one","1","indirect_first","0","af06nz03","0","20","1","1","3","1","","0","1","0","null","","","<img src = 'category4/GS3.png' width = '100%;'>","null","","","","","","","","","",""
"","html-keyboard-response","209","569445","0.0-10.0-2.13","10evoqdku4","one_one","1","indirect_first","0","af06nz03","0","20","1","1","3","1","","0","1","0","null","","","<img src = 'targets/38.png' width = '100%;'>","null","","","","","","","","","",""
"","html-keyboard-response","210","570640","0.0-10.0-3.13","10evoqdku4","one_one","1","indirect_first","0","af06nz03","0","20","1","1","3","1","","0","1","0","1193","","","<img src = 'targets/mask.png' width = '100%;'>","68","neg","GS","GSnew","4","category4/GS3.png","targets/38.png","0","indirect","29",""
"","html-keyboard-response","211","572144","0.0-10.0-0.14","10evoqdku4","one_one","1","indirect_first","0","af06nz03","0","20","1","1","3","1","","0","1","0","null","","","<div style=""font-size:60px;"">+</div>","null","","","","","","","","","",""
"","html-keyboard-response","212","572236","0.0-10.0-1.14","10evoqdku4","one_one","1","indirect_first","0","af06nz03","0","20","1","1","3","1","","0","1","0","null","","","<img src = 'category1/ma.png' width = '100%;'>","null","","","","","","","","","",""
"","html-keyboard-response","213","572489","0.0-10.0-2.14","10evoqdku4","one_one","1","indirect_first","0","af06nz03","0","20","1","1","3","1","","0","1","0","null","","","<img src = 'targets/40.png' width = '100%;'>","null","","","","","","","","","",""
"","html-keyboard-response","214","573547","0.0-10.0-3.14","10evoqdku4","one_one","1","indirect_first","0","af06nz03","0","20","1","1","3","1","","0","1","0","1057","","","<img src = 'targets/mask.png' width = '100%;'>","75","pos","GS","abstract","1","category1/ma.png","targets/40.png","1","indirect","30",""
"","html-keyboard-response","215","575051","0.0-10.0-0.15","10evoqdku4","one_one","1","indirect_first","0","af06nz03","0","20","1","1","3","1","","0","1","0","null","","","<div style=""font-size:60px;"">+</div>","null","","","","","","","","","",""
"","html-keyboard-response","216","575144","0.0-10.0-1.15","10evoqdku4","one_one","1","indirect_first","0","af06nz03","0","20","1","1","3","1","","0","1","0","null","","","<img src = 'category2/men.png' width = '100%;'>","null","","","","","","","","","",""
"","html-keyboard-response","217","575397","0.0-10.0-2.15","10evoqdku4","one_one","1","indirect_first","0","af06nz03","0","20","1","1","3","1","","0","1","0","null","","","<img src = 'targets/3.png' width = '100%;'>","null","","","","","","","","","",""
"","html-keyboard-response","218","576342","0.0-10.0-3.15","10evoqdku4","one_one","1","indirect_first","0","af06nz03","0","20","1","1","3","1","","0","1","0","944","","","<img src = 'targets/mask.png' width = '100%;'>","75","pos","GS","abstract","2","category2/men.png","targets/3.png","1","indirect","31",""
"","survey-html-form","219","594750","0.0-11.0","10evoqdku4","one_one","1","indirect_first","0","af06nz03","0","20","1","1","3","1","","0","1","0","17905","","{}","","","","","","","","","","","",""
"","image-slider-response","220","611729","0.0-12.0-0.0","10evoqdku4","one_one","1","indirect_first","0","af06nz03","0","20","1","1","3","1","","0","1","0","14971","","","","","neg","GS","GSnew","4","category4/GS1.png","targets/42.png","","direct","","88"
"","image-slider-response","221","618162","0.0-12.0-0.1","10evoqdku4","one_one","1","indirect_first","0","af06nz03","0","20","1","1","3","1","","0","1","0","6430.000000000116","","","","","neg","GS","abstract","3","category3/wang.png","targets/20.png","","direct","","-88"
"","image-slider-response","222","624822","0.0-12.0-0.2","10evoqdku4","one_one","1","indirect_first","0","af06nz03","0","20","1","1","3","1","","0","1","0","6658","","","","","neg","GS","GSnew","4","category4/GS3.png","targets/38.png","","direct","","51"
"","image-slider-response","223","629774","0.0-12.0-0.3","10evoqdku4","one_one","1","indirect_first","0","af06nz03","0","20","1","1","3","1","","0","1","0","4950","","","","","pos","GS","GSnew","2","category2/GS2.png","targets/39.png","","direct","","-75"
"","image-slider-response","224","635041","0.0-12.0-0.4","10evoqdku4","one_one","1","indirect_first","0","af06nz03","0","20","1","1","3","1","","0","1","0","5266","","","","","pos","GS","abstract","1","category1/ma.png","targets/40.png","","direct","","-18"
"","image-slider-response","225","638861","0.0-12.0-0.5","10evoqdku4","one_one","1","indirect_first","0","af06nz03","0","20","1","1","3","1","","0","1","0","3818","","","","","pos","GS","GSnew","1","category1/GS3.png","targets/41.png","","direct","","-32"
"","image-slider-response","226","642930","0.0-12.0-0.6","10evoqdku4","one_one","1","indirect_first","0","af06nz03","0","20","1","1","3","1","","0","1","0","4068","","","","","pos","GS","GSnew","1","category1/GS2.png","targets/18.png","","direct","","-26"
"","image-slider-response","227","647006","0.0-12.0-0.7","10evoqdku4","one_one","1","indirect_first","0","af06nz03","0","20","1","1","3","1","","0","1","0","4074.9999999998836","","","","","pos","GS","GSold","1","category1/CS3.png","targets/30.png","","direct","","-31"
"","image-slider-response","228","651076","0.0-12.0-0.8","10evoqdku4","one_one","1","indirect_first","0","af06nz03","0","20","1","1","3","1","","0","1","0","4068","","","","","neg","GS","abstract","4","category4/lin.png","targets/19.png","","direct","","14"
"","image-slider-response","229","655208","0.0-12.0-0.9","10evoqdku4","one_one","1","indirect_first","0","af06nz03","0","20","1","1","3","1","","0","1","0","4131","","","","","neg","GS","GSold","4","category4/CS8.png","targets/14.png","","direct","","-19"
"","image-slider-response","230","660307","0.0-12.0-0.10","10evoqdku4","one_one","1","indirect_first","0","af06nz03","0","20","1","1","3","1","","0","1","0","5097.000000000116","","","","","pos","GS","GSold","1","category1/CS7.png","targets/29.png","","direct","","-22"
"","image-slider-response","231","664994","0.0-12.0-0.11","10evoqdku4","one_one","1","indirect_first","0","af06nz03","0","20","1","1","3","1","","0","1","0","4687","","","","","pos","GS","GSold","2","category2/CS1.png","targets/23.png","","direct","","82"
"","image-slider-response","232","669996","0.0-12.0-0.12","10evoqdku4","one_one","1","indirect_first","0","af06nz03","0","20","1","1","3","1","","0","1","0","5000","","","","","pos","GS","GSold","2","category2/CS3.png","targets/37.png","","direct","","39"
"","image-slider-response","233","673141","0.0-12.0-0.13","10evoqdku4","one_one","1","indirect_first","0","af06nz03","0","20","1","1","3","1","","0","1","0","3144","","","","","pos","GS","abstract","2","category2/men.png","targets/3.png","","direct","","26"
"","image-slider-response","234","678841","0.0-12.0-0.14","10evoqdku4","one_one","1","indirect_first","0","af06nz03","0","20","1","1","3","1","","0","1","0","5699.000000000116","","","","","pos","CS","CS","1","category1/CS6.png","targets/46.png","","direct","","52"
"","image-slider-response","235","682194","0.0-12.0-0.15","10evoqdku4","one_one","1","indirect_first","0","af06nz03","0","20","1","1","3","1","","0","1","0","3352","","","","","neg","GS","GSnew","3","category3/GS3.png","targets/28.png","","direct","","-51"
"","image-slider-response","236","685322","0.0-12.0-0.16","10evoqdku4","one_one","1","indirect_first","0","af06nz03","0","20","1","1","3","1","","0","1","0","3127","","","","","neg","GS","GSnew","3","category3/GS2.png","targets/48.png","","direct","","-47"
"","image-slider-response","237","687791","0.0-12.0-0.17","10evoqdku4","one_one","1","indirect_first","0","af06nz03","0","20","1","1","3","1","","0","1","0","2467","","","","","neg","GS","GSold","3","category3/CS6.png","targets/5.png","","direct","","-59"
"","image-slider-response","238","690035","0.0-12.0-0.18","10evoqdku4","one_one","1","indirect_first","0","af06nz03","0","20","1","1","3","1","","0","1","0","2243","","","","","neg","CS","CS","3","category3/CS4.png","targets/7.png","","direct","","-54"
"","image-slider-response","239","692986","0.0-12.0-0.19","10evoqdku4","one_one","1","indirect_first","0","af06nz03","0","20","1","1","3","1","","0","1","0","2949.0000000001164","","","","","neg","GS","GSold","3","category3/CS8.png","targets/8.png","","direct","","-50"
"","image-slider-response","240","698663","0.0-12.0-0.20","10evoqdku4","one_one","1","indirect_first","0","af06nz03","0","20","1","1","3","1","","0","1","0","5676","","","","","pos","GS","GSnew","2","category2/GS3.png","targets/43.png","","direct","","9"
"","image-slider-response","241","703190","0.0-12.0-0.21","10evoqdku4","one_one","1","indirect_first","0","af06nz03","0","20","1","1","3","1","","0","1","0","4525.999999999884","","","","","pos","GS","GSold","2","category2/CS4.png","targets/27.png","","direct","","80"
"","image-slider-response","242","706800","0.0-12.0-0.22","10evoqdku4","one_one","1","indirect_first","0","af06nz03","0","20","1","1","3","1","","0","1","0","3610","","","","","pos","GS","GSnew","2","category2/GS1.png","targets/6.png","","direct","","11"
"","image-slider-response","243","710619","0.0-12.0-0.23","10evoqdku4","one_one","1","indirect_first","0","af06nz03","0","20","1","1","3","1","","0","1","0","3817","","","","","pos","CS","CS","2","category2/CS2.png","targets/2.png","","direct","","96"
"","image-slider-response","244","713940","0.0-12.0-0.24","10evoqdku4","one_one","1","indirect_first","0","af06nz03","0","20","1","1","3","1","","0","1","0","3319","","","","","neg","GS","GSold","3","category3/CS9.png","targets/33.png","","direct","","-53"
"","image-slider-response","245","718112","0.0-12.0-0.25","10evoqdku4","one_one","1","indirect_first","0","af06nz03","0","20","1","1","3","1","","0","1","0","4171","","","","","neg","CS","CS","4","category4/CS9.png","targets/16.png","","direct","","-94"
"","image-slider-response","246","725534","0.0-12.0-0.26","10evoqdku4","one_one","1","indirect_first","0","af06nz03","0","20","1","1","3","1","","0","1","0","7420","","","","","pos","GS","GSnew","1","category1/GS1.png","targets/44.png","","direct","","14"
"","image-slider-response","247","729208","0.0-12.0-0.27","10evoqdku4","one_one","1","indirect_first","0","af06nz03","0","20","1","1","3","1","","0","1","0","3673","","","","","neg","GS","GSnew","3","category3/GS1.png","targets/1.png","","direct","","-45"
"","image-slider-response","248","735544","0.0-12.0-0.28","10evoqdku4","one_one","1","indirect_first","0","af06nz03","0","20","1","1","3","1","","0","1","0","6335","","","","","neg","GS","GSnew","4","category4/GS2.png","targets/9.png","","direct","","30"
"","image-slider-response","249","739107","0.0-12.0-0.29","10evoqdku4","one_one","1","indirect_first","0","af06nz03","0","20","1","1","3","1","","0","1","0","3561.0000000001164","","","","","neg","GS","GSold","4","category4/CS3.png","targets/45.png","","direct","","-33"
"","image-slider-response","250","741800","0.0-12.0-0.30","10evoqdku4","one_one","1","indirect_first","0","af06nz03","0","20","1","1","3","1","","0","1","0","2692","","","","","neg","GS","GSold","4","category4/CS4.png","targets/36.png","","direct","","-31"
"","image-slider-response","251","744767","0.0-12.0-0.31","10evoqdku4","one_one","1","indirect_first","0","af06nz03","0","20","1","1","3","1","","0","1","0","2966","","","","","pos","GS","GSold","1","category1/CS8.png","targets/4.png","","direct","","17"
"","survey-html-form","252","755228","0.0-13.0","10evoqdku4","one_one","1","indirect_first","0","af06nz03","0","20","1","1","3","1","","0","1","0","10460","","{}","","","","","","","","","","","",""
"","image-slider-response","253","765381","0.0-14.0-0.0","10evoqdku4","one_one","1","indirect_first","0","af06nz03","0","20","1","1","3","1","","0","1","0","9149","","","","","neg","All","all","3","category3/wang_all.png","","","all","","-88"
"","image-slider-response","254","769224","0.0-14.0-0.1","10evoqdku4","one_one","1","indirect_first","0","af06nz03","0","20","1","1","3","1","","0","1","0","3841.9999999998836","","","","","pos","All","all","2","category2/men_all.png","","","all","","89"
"","image-slider-response","255","775981","0.0-14.0-0.2","10evoqdku4","one_one","1","indirect_first","0","af06nz03","0","20","1","1","3","1","","0","1","0","6755","","","","","pos","All","all","1","category1/ma_all.png","","","all","","60"
"","image-slider-response","256","779415","0.0-14.0-0.3","10evoqdku4","one_one","1","indirect_first","0","af06nz03","0","20","1","1","3","1","","0","1","0","3431.9999999998836","","","","","neg","All","all","4","category4/lin_all.png","","","all","","-80"
"","survey-text","257","788920","0.0-15.0","10evoqdku4","one_one","1","indirect_first","0","af06nz03","0","20","1","1","3","1","","0","1","0","9503.999999999884","","{""comment"":""""}","","","","","","","","","","","",""
"","survey-html-form","258","811853","0.0-16.0","10evoqdku4","one_one","1","indirect_first","0","af06nz03","0","20","1","1","3","1","","0","1","0","22931","","{""hinschauen"":""0"",""ablenkung"":""1"",""gewissenhaft"":""0""}","","","","","","","","","","","",""
