"success","trial_type","trial_index","time_elapsed","internal_node_id","subject","condition","condition_code","measure","measure_code","codeword","gender","age","education","chinese","fach","handedness","comment","hinschauen","ablenkung","gewissenhaft","rt","url","responses","stimulus","key_press","val","type","type_specific","category","cs_selected","response","target","task","indirect","nr_pres"
"true","fullscreen","0","17174","0.0-0.0","nxdly59zjf","one_one","1","direct_first","1","lf04as02","1","21","1","1","3","1","","0","1","0","","","","","","","","","","","","","","",""
"","external-html","1","62727","0.0-1.0","nxdly59zjf","one_one","1","direct_first","1","lf04as02","1","21","1","1","3","1","","0","1","0","45464","text/information.html","","","","","","","","","","","","",""
"","external-html","2","84991","0.0-2.0","nxdly59zjf","one_one","1","direct_first","1","lf04as02","1","21","1","1","3","1","","0","1","0","21387","text/consent.html","","","","","","","","","","","","",""
"","survey-html-form","3","121562","0.0-3.0","nxdly59zjf","one_one","1","direct_first","1","lf04as02","1","21","1","1","3","1","","0","1","0","36569","","{""codeword_enter"":""lf04as02""}","","","","","","","","","","","",""
"","survey-html-form","4","137320","0.0-4.0","nxdly59zjf","one_one","1","direct_first","1","lf04as02","1","21","1","1","3","1","","0","1","0","15756","","{""age"":""21"",""education"":""1"",""subject"":""3"",""gender"":""1"",""handedness"":""1"",""chinese"":""1""}","","","","","","","","","","","",""
"","survey-html-form","5","144255","0.0-5.0","nxdly59zjf","one_one","1","direct_first","1","lf04as02","1","21","1","1","3","1","","0","1","0","6933","","{}","","","","","","","","","","","",""
"","html-keyboard-response","6","148259","0.0-6.0-0.0-0.0","nxdly59zjf","one_one","1","direct_first","1","lf04as02","1","21","1","1","3","1","","0","1","0","null","","","<div class = 'row'><div class = 'column'><img src = 'uspos/2165.bmp' width = '100%;'></div><div class = 'column'><img src = 'category3/CS2.png' width = '70%;'></div></div>","null","pos","CS","CS","3","category3/CS2.png","","","","",""
"","html-keyboard-response","7","150761","0.0-6.0-0.0-0.1","nxdly59zjf","one_one","1","direct_first","1","lf04as02","1","21","1","1","3","1","","0","1","0","null","","","<div class = 'row'><div class = 'column'><img src = 'usneg/9290.bmp' width = '100%;'></div><div class = 'column'><img src = 'category4/CS7.png' width = '70%;'></div></div>","null","neg","CS","CS","4","category4/CS7.png","","","","",""
"","html-keyboard-response","8","153264","0.0-6.0-0.0-0.2","nxdly59zjf","one_one","1","direct_first","1","lf04as02","1","21","1","1","3","1","","0","1","0","null","","","<div class = 'row'><div class = 'column'><img src = 'usneg/3300.bmp' width = '100%;'></div><div class = 'column'><img src = 'category2/CS9.png' width = '70%;'></div></div>","null","neg","CS","CS","2","category2/CS9.png","","","","",""
"","html-keyboard-response","9","155766","0.0-6.0-0.0-0.3","nxdly59zjf","one_one","1","direct_first","1","lf04as02","1","21","1","1","3","1","","0","1","0","null","","","<div class = 'row'><div class = 'column'><img src = 'category4/CS7.png' width = '70%;'></div><div class = 'column'><img src = 'usneg/9290.bmp' width = '100%;'></div></div>","null","neg","CS","CS","4","category4/CS7.png","","","","",""
"","html-keyboard-response","10","158268","0.0-6.0-0.0-0.4","nxdly59zjf","one_one","1","direct_first","1","lf04as02","1","21","1","1","3","1","","0","1","0","null","","","<div class = 'row'><div class = 'column'><img src = 'uspos/2530.bmp' width = '100%;'></div><div class = 'column'><img src = 'category1/CS3.png' width = '70%;'></div></div>","null","pos","CS","CS","1","category1/CS3.png","","","","",""
"","html-keyboard-response","11","160770","0.0-6.0-0.0-0.5","nxdly59zjf","one_one","1","direct_first","1","lf04as02","1","21","1","1","3","1","","0","1","0","null","","","<div class = 'row'><div class = 'column'><img src = 'usneg/9290.bmp' width = '100%;'></div><div class = 'column'><img src = 'category4/CS7.png' width = '70%;'></div></div>","null","neg","CS","CS","4","category4/CS7.png","","","","",""
"","html-keyboard-response","12","163272","0.0-6.0-0.0-0.6","nxdly59zjf","one_one","1","direct_first","1","lf04as02","1","21","1","1","3","1","","0","1","0","null","","","<div class = 'row'><div class = 'column'><img src = 'category2/CS9.png' width = '70%;'></div><div class = 'column'><img src = 'usneg/3300.bmp' width = '100%;'></div></div>","null","neg","CS","CS","2","category2/CS9.png","","","","",""
"","html-keyboard-response","13","165774","0.0-6.0-0.0-0.7","nxdly59zjf","one_one","1","direct_first","1","lf04as02","1","21","1","1","3","1","","0","1","0","null","","","<div class = 'row'><div class = 'column'><img src = 'uspos/2165.bmp' width = '100%;'></div><div class = 'column'><img src = 'category3/CS2.png' width = '70%;'></div></div>","null","pos","CS","CS","3","category3/CS2.png","","","","",""
"","html-keyboard-response","14","168275","0.0-6.0-0.0-0.8","nxdly59zjf","one_one","1","direct_first","1","lf04as02","1","21","1","1","3","1","","0","1","0","null","","","<div class = 'row'><div class = 'column'><img src = 'uspos/2530.bmp' width = '100%;'></div><div class = 'column'><img src = 'category1/CS3.png' width = '70%;'></div></div>","null","pos","CS","CS","1","category1/CS3.png","","","","",""
"","html-keyboard-response","15","170777","0.0-6.0-0.0-0.9","nxdly59zjf","one_one","1","direct_first","1","lf04as02","1","21","1","1","3","1","","0","1","0","null","","","<div class = 'row'><div class = 'column'><img src = 'usneg/3300.bmp' width = '100%;'></div><div class = 'column'><img src = 'category2/CS9.png' width = '70%;'></div></div>","null","neg","CS","CS","2","category2/CS9.png","","","","",""
"","html-keyboard-response","16","173279","0.0-6.0-0.0-0.10","nxdly59zjf","one_one","1","direct_first","1","lf04as02","1","21","1","1","3","1","","0","1","0","null","","","<div class = 'row'><div class = 'column'><img src = 'category3/CS2.png' width = '70%;'></div><div class = 'column'><img src = 'uspos/2165.bmp' width = '100%;'></div></div>","null","pos","CS","CS","3","category3/CS2.png","","","","",""
"","html-keyboard-response","17","175781","0.0-6.0-0.0-0.11","nxdly59zjf","one_one","1","direct_first","1","lf04as02","1","21","1","1","3","1","","0","1","0","null","","","<div class = 'row'><div class = 'column'><img src = 'category1/CS3.png' width = '70%;'></div><div class = 'column'><img src = 'uspos/2530.bmp' width = '100%;'></div></div>","null","pos","CS","CS","1","category1/CS3.png","","","","",""
"","html-keyboard-response","18","178283","0.0-6.0-0.0-0.12","nxdly59zjf","one_one","1","direct_first","1","lf04as02","1","21","1","1","3","1","","0","1","0","null","","","<div class = 'row'><div class = 'column'><img src = 'category4/CS7.png' width = '70%;'></div><div class = 'column'><img src = 'usneg/9290.bmp' width = '100%;'></div></div>","null","neg","CS","CS","4","category4/CS7.png","","","","",""
"","html-keyboard-response","19","180784","0.0-6.0-0.0-0.13","nxdly59zjf","one_one","1","direct_first","1","lf04as02","1","21","1","1","3","1","","0","1","0","null","","","<div class = 'row'><div class = 'column'><img src = 'category1/CS3.png' width = '70%;'></div><div class = 'column'><img src = 'uspos/2530.bmp' width = '100%;'></div></div>","null","pos","CS","CS","1","category1/CS3.png","","","","",""
"","html-keyboard-response","20","183285","0.0-6.0-0.0-0.14","nxdly59zjf","one_one","1","direct_first","1","lf04as02","1","21","1","1","3","1","","0","1","0","null","","","<div class = 'row'><div class = 'column'><img src = 'usneg/9290.bmp' width = '100%;'></div><div class = 'column'><img src = 'category4/CS7.png' width = '70%;'></div></div>","null","neg","CS","CS","4","category4/CS7.png","","","","",""
"","html-keyboard-response","21","185788","0.0-6.0-0.0-0.15","nxdly59zjf","one_one","1","direct_first","1","lf04as02","1","21","1","1","3","1","","0","1","0","null","","","<div class = 'row'><div class = 'column'><img src = 'category2/CS9.png' width = '70%;'></div><div class = 'column'><img src = 'usneg/3300.bmp' width = '100%;'></div></div>","null","neg","CS","CS","2","category2/CS9.png","","","","",""
"","html-keyboard-response","22","188289","0.0-6.0-0.0-0.16","nxdly59zjf","one_one","1","direct_first","1","lf04as02","1","21","1","1","3","1","","0","1","0","null","","","<div class = 'row'><div class = 'column'><img src = 'category1/CS3.png' width = '70%;'></div><div class = 'column'><img src = 'uspos/2530.bmp' width = '100%;'></div></div>","null","pos","CS","CS","1","category1/CS3.png","","","","",""
"","html-keyboard-response","23","190791","0.0-6.0-0.0-0.17","nxdly59zjf","one_one","1","direct_first","1","lf04as02","1","21","1","1","3","1","","0","1","0","null","","","<div class = 'row'><div class = 'column'><img src = 'uspos/2165.bmp' width = '100%;'></div><div class = 'column'><img src = 'category3/CS2.png' width = '70%;'></div></div>","null","pos","CS","CS","3","category3/CS2.png","","","","",""
"","html-keyboard-response","24","193292","0.0-6.0-0.0-0.18","nxdly59zjf","one_one","1","direct_first","1","lf04as02","1","21","1","1","3","1","","0","1","0","null","","","<div class = 'row'><div class = 'column'><img src = 'usneg/3300.bmp' width = '100%;'></div><div class = 'column'><img src = 'category2/CS9.png' width = '70%;'></div></div>","null","neg","CS","CS","2","category2/CS9.png","","","","",""
"","html-keyboard-response","25","195793","0.0-6.0-0.0-0.19","nxdly59zjf","one_one","1","direct_first","1","lf04as02","1","21","1","1","3","1","","0","1","0","null","","","<div class = 'row'><div class = 'column'><img src = 'uspos/2165.bmp' width = '100%;'></div><div class = 'column'><img src = 'category3/CS2.png' width = '70%;'></div></div>","null","pos","CS","CS","3","category3/CS2.png","","","","",""
"","survey-html-form","26","198455","0.0-6.0-1.0","nxdly59zjf","one_one","1","direct_first","1","lf04as02","1","21","1","1","3","1","","0","1","0","2160","","{}","","","","","","","","","","","",""
"","html-keyboard-response","27","202456","0.0-6.0-2.0-0.0","nxdly59zjf","one_one","1","direct_first","1","lf04as02","1","21","1","1","3","1","","0","1","0","null","","","<div class = 'row'><div class = 'column'><img src = 'usneg/3300.bmp' width = '100%;'></div><div class = 'column'><img src = 'category2/CS9.png' width = '70%;'></div></div>","null","neg","CS","CS","2","category2/CS9.png","","","","",""
"","html-keyboard-response","28","204958","0.0-6.0-2.0-0.1","nxdly59zjf","one_one","1","direct_first","1","lf04as02","1","21","1","1","3","1","","0","1","0","null","","","<div class = 'row'><div class = 'column'><img src = 'uspos/2165.bmp' width = '100%;'></div><div class = 'column'><img src = 'category3/CS2.png' width = '70%;'></div></div>","null","pos","CS","CS","3","category3/CS2.png","","","","",""
"","html-keyboard-response","29","207460","0.0-6.0-2.0-0.2","nxdly59zjf","one_one","1","direct_first","1","lf04as02","1","21","1","1","3","1","","0","1","0","null","","","<div class = 'row'><div class = 'column'><img src = 'category4/CS7.png' width = '70%;'></div><div class = 'column'><img src = 'usneg/9290.bmp' width = '100%;'></div></div>","null","neg","CS","CS","4","category4/CS7.png","","","","",""
"","html-keyboard-response","30","209961","0.0-6.0-2.0-0.3","nxdly59zjf","one_one","1","direct_first","1","lf04as02","1","21","1","1","3","1","","0","1","0","null","","","<div class = 'row'><div class = 'column'><img src = 'uspos/2165.bmp' width = '100%;'></div><div class = 'column'><img src = 'category3/CS2.png' width = '70%;'></div></div>","null","pos","CS","CS","3","category3/CS2.png","","","","",""
"","html-keyboard-response","31","212462","0.0-6.0-2.0-0.4","nxdly59zjf","one_one","1","direct_first","1","lf04as02","1","21","1","1","3","1","","0","1","0","null","","","<div class = 'row'><div class = 'column'><img src = 'usneg/9290.bmp' width = '100%;'></div><div class = 'column'><img src = 'category4/CS7.png' width = '70%;'></div></div>","null","neg","CS","CS","4","category4/CS7.png","","","","",""
"","html-keyboard-response","32","214964","0.0-6.0-2.0-0.5","nxdly59zjf","one_one","1","direct_first","1","lf04as02","1","21","1","1","3","1","","0","1","0","null","","","<div class = 'row'><div class = 'column'><img src = 'uspos/2530.bmp' width = '100%;'></div><div class = 'column'><img src = 'category1/CS3.png' width = '70%;'></div></div>","null","pos","CS","CS","1","category1/CS3.png","","","","",""
"","html-keyboard-response","33","217466","0.0-6.0-2.0-0.6","nxdly59zjf","one_one","1","direct_first","1","lf04as02","1","21","1","1","3","1","","0","1","0","null","","","<div class = 'row'><div class = 'column'><img src = 'category4/CS7.png' width = '70%;'></div><div class = 'column'><img src = 'usneg/9290.bmp' width = '100%;'></div></div>","null","neg","CS","CS","4","category4/CS7.png","","","","",""
"","html-keyboard-response","34","219967","0.0-6.0-2.0-0.7","nxdly59zjf","one_one","1","direct_first","1","lf04as02","1","21","1","1","3","1","","0","1","0","null","","","<div class = 'row'><div class = 'column'><img src = 'usneg/3300.bmp' width = '100%;'></div><div class = 'column'><img src = 'category2/CS9.png' width = '70%;'></div></div>","null","neg","CS","CS","2","category2/CS9.png","","","","",""
"","html-keyboard-response","35","222469","0.0-6.0-2.0-0.8","nxdly59zjf","one_one","1","direct_first","1","lf04as02","1","21","1","1","3","1","","0","1","0","null","","","<div class = 'row'><div class = 'column'><img src = 'uspos/2165.bmp' width = '100%;'></div><div class = 'column'><img src = 'category3/CS2.png' width = '70%;'></div></div>","null","pos","CS","CS","3","category3/CS2.png","","","","",""
"","html-keyboard-response","36","224972","0.0-6.0-2.0-0.9","nxdly59zjf","one_one","1","direct_first","1","lf04as02","1","21","1","1","3","1","","0","1","0","null","","","<div class = 'row'><div class = 'column'><img src = 'uspos/2530.bmp' width = '100%;'></div><div class = 'column'><img src = 'category1/CS3.png' width = '70%;'></div></div>","null","pos","CS","CS","1","category1/CS3.png","","","","",""
"","html-keyboard-response","37","227474","0.0-6.0-2.0-0.10","nxdly59zjf","one_one","1","direct_first","1","lf04as02","1","21","1","1","3","1","","0","1","0","null","","","<div class = 'row'><div class = 'column'><img src = 'uspos/2165.bmp' width = '100%;'></div><div class = 'column'><img src = 'category3/CS2.png' width = '70%;'></div></div>","null","pos","CS","CS","3","category3/CS2.png","","","","",""
"","html-keyboard-response","38","229974","0.0-6.0-2.0-0.11","nxdly59zjf","one_one","1","direct_first","1","lf04as02","1","21","1","1","3","1","","0","1","0","null","","","<div class = 'row'><div class = 'column'><img src = 'category2/CS9.png' width = '70%;'></div><div class = 'column'><img src = 'usneg/3300.bmp' width = '100%;'></div></div>","null","neg","CS","CS","2","category2/CS9.png","","","","",""
"","html-keyboard-response","39","232477","0.0-6.0-2.0-0.12","nxdly59zjf","one_one","1","direct_first","1","lf04as02","1","21","1","1","3","1","","0","1","0","null","","","<div class = 'row'><div class = 'column'><img src = 'category4/CS7.png' width = '70%;'></div><div class = 'column'><img src = 'usneg/9290.bmp' width = '100%;'></div></div>","null","neg","CS","CS","4","category4/CS7.png","","","","",""
"","html-keyboard-response","40","234977","0.0-6.0-2.0-0.13","nxdly59zjf","one_one","1","direct_first","1","lf04as02","1","21","1","1","3","1","","0","1","0","null","","","<div class = 'row'><div class = 'column'><img src = 'category2/CS9.png' width = '70%;'></div><div class = 'column'><img src = 'usneg/3300.bmp' width = '100%;'></div></div>","null","neg","CS","CS","2","category2/CS9.png","","","","",""
"","html-keyboard-response","41","237479","0.0-6.0-2.0-0.14","nxdly59zjf","one_one","1","direct_first","1","lf04as02","1","21","1","1","3","1","","0","1","0","null","","","<div class = 'row'><div class = 'column'><img src = 'uspos/2530.bmp' width = '100%;'></div><div class = 'column'><img src = 'category1/CS3.png' width = '70%;'></div></div>","null","pos","CS","CS","1","category1/CS3.png","","","","",""
"","html-keyboard-response","42","239982","0.0-6.0-2.0-0.15","nxdly59zjf","one_one","1","direct_first","1","lf04as02","1","21","1","1","3","1","","0","1","0","null","","","<div class = 'row'><div class = 'column'><img src = 'category3/CS2.png' width = '70%;'></div><div class = 'column'><img src = 'uspos/2165.bmp' width = '100%;'></div></div>","null","pos","CS","CS","3","category3/CS2.png","","","","",""
"","html-keyboard-response","43","242484","0.0-6.0-2.0-0.16","nxdly59zjf","one_one","1","direct_first","1","lf04as02","1","21","1","1","3","1","","0","1","0","null","","","<div class = 'row'><div class = 'column'><img src = 'category2/CS9.png' width = '70%;'></div><div class = 'column'><img src = 'usneg/3300.bmp' width = '100%;'></div></div>","null","neg","CS","CS","2","category2/CS9.png","","","","",""
"","html-keyboard-response","44","244985","0.0-6.0-2.0-0.17","nxdly59zjf","one_one","1","direct_first","1","lf04as02","1","21","1","1","3","1","","0","1","0","null","","","<div class = 'row'><div class = 'column'><img src = 'category1/CS3.png' width = '70%;'></div><div class = 'column'><img src = 'uspos/2530.bmp' width = '100%;'></div></div>","null","pos","CS","CS","1","category1/CS3.png","","","","",""
"","html-keyboard-response","45","247487","0.0-6.0-2.0-0.18","nxdly59zjf","one_one","1","direct_first","1","lf04as02","1","21","1","1","3","1","","0","1","0","null","","","<div class = 'row'><div class = 'column'><img src = 'usneg/9290.bmp' width = '100%;'></div><div class = 'column'><img src = 'category4/CS7.png' width = '70%;'></div></div>","null","neg","CS","CS","4","category4/CS7.png","","","","",""
"","html-keyboard-response","46","249989","0.0-6.0-2.0-0.19","nxdly59zjf","one_one","1","direct_first","1","lf04as02","1","21","1","1","3","1","","0","1","0","null","","","<div class = 'row'><div class = 'column'><img src = 'category1/CS3.png' width = '70%;'></div><div class = 'column'><img src = 'uspos/2530.bmp' width = '100%;'></div></div>","null","pos","CS","CS","1","category1/CS3.png","","","","",""
"","survey-html-form","47","253816","0.0-6.0-3.0","nxdly59zjf","one_one","1","direct_first","1","lf04as02","1","21","1","1","3","1","","0","1","0","3327","","{}","","","","","","","","","","","",""
"","html-keyboard-response","48","257817","0.0-6.0-4.0-0.0","nxdly59zjf","one_one","1","direct_first","1","lf04as02","1","21","1","1","3","1","","0","1","0","null","","","<div class = 'row'><div class = 'column'><img src = 'uspos/2165.bmp' width = '100%;'></div><div class = 'column'><img src = 'category3/CS2.png' width = '70%;'></div></div>","null","pos","CS","CS","3","category3/CS2.png","","","","",""
"","html-keyboard-response","49","260320","0.0-6.0-4.0-0.1","nxdly59zjf","one_one","1","direct_first","1","lf04as02","1","21","1","1","3","1","","0","1","0","null","","","<div class = 'row'><div class = 'column'><img src = 'usneg/3300.bmp' width = '100%;'></div><div class = 'column'><img src = 'category2/CS9.png' width = '70%;'></div></div>","null","neg","CS","CS","2","category2/CS9.png","","","","",""
"","html-keyboard-response","50","262822","0.0-6.0-4.0-0.2","nxdly59zjf","one_one","1","direct_first","1","lf04as02","1","21","1","1","3","1","","0","1","0","null","","","<div class = 'row'><div class = 'column'><img src = 'category3/CS2.png' width = '70%;'></div><div class = 'column'><img src = 'uspos/2165.bmp' width = '100%;'></div></div>","null","pos","CS","CS","3","category3/CS2.png","","","","",""
"","html-keyboard-response","51","265323","0.0-6.0-4.0-0.3","nxdly59zjf","one_one","1","direct_first","1","lf04as02","1","21","1","1","3","1","","0","1","0","null","","","<div class = 'row'><div class = 'column'><img src = 'uspos/2530.bmp' width = '100%;'></div><div class = 'column'><img src = 'category1/CS3.png' width = '70%;'></div></div>","null","pos","CS","CS","1","category1/CS3.png","","","","",""
"","html-keyboard-response","52","267828","0.0-6.0-4.0-0.4","nxdly59zjf","one_one","1","direct_first","1","lf04as02","1","21","1","1","3","1","","0","1","0","null","","","<div class = 'row'><div class = 'column'><img src = 'uspos/2165.bmp' width = '100%;'></div><div class = 'column'><img src = 'category3/CS2.png' width = '70%;'></div></div>","null","pos","CS","CS","3","category3/CS2.png","","","","",""
"","html-keyboard-response","53","270333","0.0-6.0-4.0-0.5","nxdly59zjf","one_one","1","direct_first","1","lf04as02","1","21","1","1","3","1","","0","1","0","null","","","<div class = 'row'><div class = 'column'><img src = 'usneg/9290.bmp' width = '100%;'></div><div class = 'column'><img src = 'category4/CS7.png' width = '70%;'></div></div>","null","neg","CS","CS","4","category4/CS7.png","","","","",""
"","html-keyboard-response","54","272837","0.0-6.0-4.0-0.6","nxdly59zjf","one_one","1","direct_first","1","lf04as02","1","21","1","1","3","1","","0","1","0","null","","","<div class = 'row'><div class = 'column'><img src = 'usneg/3300.bmp' width = '100%;'></div><div class = 'column'><img src = 'category2/CS9.png' width = '70%;'></div></div>","null","neg","CS","CS","2","category2/CS9.png","","","","",""
"","html-keyboard-response","55","275341","0.0-6.0-4.0-0.7","nxdly59zjf","one_one","1","direct_first","1","lf04as02","1","21","1","1","3","1","","0","1","0","null","","","<div class = 'row'><div class = 'column'><img src = 'category4/CS7.png' width = '70%;'></div><div class = 'column'><img src = 'usneg/9290.bmp' width = '100%;'></div></div>","null","neg","CS","CS","4","category4/CS7.png","","","","",""
"","html-keyboard-response","56","277843","0.0-6.0-4.0-0.8","nxdly59zjf","one_one","1","direct_first","1","lf04as02","1","21","1","1","3","1","","0","1","0","null","","","<div class = 'row'><div class = 'column'><img src = 'category2/CS9.png' width = '70%;'></div><div class = 'column'><img src = 'usneg/3300.bmp' width = '100%;'></div></div>","null","neg","CS","CS","2","category2/CS9.png","","","","",""
"","html-keyboard-response","57","280344","0.0-6.0-4.0-0.9","nxdly59zjf","one_one","1","direct_first","1","lf04as02","1","21","1","1","3","1","","0","1","0","null","","","<div class = 'row'><div class = 'column'><img src = 'uspos/2165.bmp' width = '100%;'></div><div class = 'column'><img src = 'category3/CS2.png' width = '70%;'></div></div>","null","pos","CS","CS","3","category3/CS2.png","","","","",""
"","html-keyboard-response","58","282846","0.0-6.0-4.0-0.10","nxdly59zjf","one_one","1","direct_first","1","lf04as02","1","21","1","1","3","1","","0","1","0","null","","","<div class = 'row'><div class = 'column'><img src = 'category1/CS3.png' width = '70%;'></div><div class = 'column'><img src = 'uspos/2530.bmp' width = '100%;'></div></div>","null","pos","CS","CS","1","category1/CS3.png","","","","",""
"","html-keyboard-response","59","285347","0.0-6.0-4.0-0.11","nxdly59zjf","one_one","1","direct_first","1","lf04as02","1","21","1","1","3","1","","0","1","0","null","","","<div class = 'row'><div class = 'column'><img src = 'usneg/3300.bmp' width = '100%;'></div><div class = 'column'><img src = 'category2/CS9.png' width = '70%;'></div></div>","null","neg","CS","CS","2","category2/CS9.png","","","","",""
"","html-keyboard-response","60","287848","0.0-6.0-4.0-0.12","nxdly59zjf","one_one","1","direct_first","1","lf04as02","1","21","1","1","3","1","","0","1","0","null","","","<div class = 'row'><div class = 'column'><img src = 'category1/CS3.png' width = '70%;'></div><div class = 'column'><img src = 'uspos/2530.bmp' width = '100%;'></div></div>","null","pos","CS","CS","1","category1/CS3.png","","","","",""
"","html-keyboard-response","61","290349","0.0-6.0-4.0-0.13","nxdly59zjf","one_one","1","direct_first","1","lf04as02","1","21","1","1","3","1","","0","1","0","null","","","<div class = 'row'><div class = 'column'><img src = 'category4/CS7.png' width = '70%;'></div><div class = 'column'><img src = 'usneg/9290.bmp' width = '100%;'></div></div>","null","neg","CS","CS","4","category4/CS7.png","","","","",""
"","html-keyboard-response","62","292850","0.0-6.0-4.0-0.14","nxdly59zjf","one_one","1","direct_first","1","lf04as02","1","21","1","1","3","1","","0","1","0","null","","","<div class = 'row'><div class = 'column'><img src = 'uspos/2530.bmp' width = '100%;'></div><div class = 'column'><img src = 'category1/CS3.png' width = '70%;'></div></div>","null","pos","CS","CS","1","category1/CS3.png","","","","",""
"","html-keyboard-response","63","295353","0.0-6.0-4.0-0.15","nxdly59zjf","one_one","1","direct_first","1","lf04as02","1","21","1","1","3","1","","0","1","0","null","","","<div class = 'row'><div class = 'column'><img src = 'uspos/2165.bmp' width = '100%;'></div><div class = 'column'><img src = 'category3/CS2.png' width = '70%;'></div></div>","null","pos","CS","CS","3","category3/CS2.png","","","","",""
"","html-keyboard-response","64","297853","0.0-6.0-4.0-0.16","nxdly59zjf","one_one","1","direct_first","1","lf04as02","1","21","1","1","3","1","","0","1","0","null","","","<div class = 'row'><div class = 'column'><img src = 'category4/CS7.png' width = '70%;'></div><div class = 'column'><img src = 'usneg/9290.bmp' width = '100%;'></div></div>","null","neg","CS","CS","4","category4/CS7.png","","","","",""
"","html-keyboard-response","65","300354","0.0-6.0-4.0-0.17","nxdly59zjf","one_one","1","direct_first","1","lf04as02","1","21","1","1","3","1","","0","1","0","null","","","<div class = 'row'><div class = 'column'><img src = 'category1/CS3.png' width = '70%;'></div><div class = 'column'><img src = 'uspos/2530.bmp' width = '100%;'></div></div>","null","pos","CS","CS","1","category1/CS3.png","","","","",""
"","html-keyboard-response","66","302855","0.0-6.0-4.0-0.18","nxdly59zjf","one_one","1","direct_first","1","lf04as02","1","21","1","1","3","1","","0","1","0","null","","","<div class = 'row'><div class = 'column'><img src = 'usneg/9290.bmp' width = '100%;'></div><div class = 'column'><img src = 'category4/CS7.png' width = '70%;'></div></div>","null","neg","CS","CS","4","category4/CS7.png","","","","",""
"","html-keyboard-response","67","305356","0.0-6.0-4.0-0.19","nxdly59zjf","one_one","1","direct_first","1","lf04as02","1","21","1","1","3","1","","0","1","0","null","","","<div class = 'row'><div class = 'column'><img src = 'usneg/3300.bmp' width = '100%;'></div><div class = 'column'><img src = 'category2/CS9.png' width = '70%;'></div></div>","null","neg","CS","CS","2","category2/CS9.png","","","","",""
"","survey-html-form","68","307807","0.0-6.0-5.0","nxdly59zjf","one_one","1","direct_first","1","lf04as02","1","21","1","1","3","1","","0","1","0","1949","","{}","","","","","","","","","","","",""
"","html-keyboard-response","69","311809","0.0-6.0-6.0-0.0","nxdly59zjf","one_one","1","direct_first","1","lf04as02","1","21","1","1","3","1","","0","1","0","null","","","<div class = 'row'><div class = 'column'><img src = 'uspos/2530.bmp' width = '100%;'></div><div class = 'column'><img src = 'category1/CS3.png' width = '70%;'></div></div>","null","pos","CS","CS","1","category1/CS3.png","","","","",""
"","html-keyboard-response","70","314312","0.0-6.0-6.0-0.1","nxdly59zjf","one_one","1","direct_first","1","lf04as02","1","21","1","1","3","1","","0","1","0","null","","","<div class = 'row'><div class = 'column'><img src = 'usneg/3300.bmp' width = '100%;'></div><div class = 'column'><img src = 'category2/CS9.png' width = '70%;'></div></div>","null","neg","CS","CS","2","category2/CS9.png","","","","",""
"","html-keyboard-response","71","316812","0.0-6.0-6.0-0.2","nxdly59zjf","one_one","1","direct_first","1","lf04as02","1","21","1","1","3","1","","0","1","0","null","","","<div class = 'row'><div class = 'column'><img src = 'uspos/2530.bmp' width = '100%;'></div><div class = 'column'><img src = 'category1/CS3.png' width = '70%;'></div></div>","null","pos","CS","CS","1","category1/CS3.png","","","","",""
"","html-keyboard-response","72","319316","0.0-6.0-6.0-0.3","nxdly59zjf","one_one","1","direct_first","1","lf04as02","1","21","1","1","3","1","","0","1","0","null","","","<div class = 'row'><div class = 'column'><img src = 'category3/CS2.png' width = '70%;'></div><div class = 'column'><img src = 'uspos/2165.bmp' width = '100%;'></div></div>","null","pos","CS","CS","3","category3/CS2.png","","","","",""
"","html-keyboard-response","73","321817","0.0-6.0-6.0-0.4","nxdly59zjf","one_one","1","direct_first","1","lf04as02","1","21","1","1","3","1","","0","1","0","null","","","<div class = 'row'><div class = 'column'><img src = 'category2/CS9.png' width = '70%;'></div><div class = 'column'><img src = 'usneg/3300.bmp' width = '100%;'></div></div>","null","neg","CS","CS","2","category2/CS9.png","","","","",""
"","html-keyboard-response","74","324319","0.0-6.0-6.0-0.5","nxdly59zjf","one_one","1","direct_first","1","lf04as02","1","21","1","1","3","1","","0","1","0","null","","","<div class = 'row'><div class = 'column'><img src = 'category1/CS3.png' width = '70%;'></div><div class = 'column'><img src = 'uspos/2530.bmp' width = '100%;'></div></div>","null","pos","CS","CS","1","category1/CS3.png","","","","",""
"","html-keyboard-response","75","326822","0.0-6.0-6.0-0.6","nxdly59zjf","one_one","1","direct_first","1","lf04as02","1","21","1","1","3","1","","0","1","0","null","","","<div class = 'row'><div class = 'column'><img src = 'category4/CS7.png' width = '70%;'></div><div class = 'column'><img src = 'usneg/9290.bmp' width = '100%;'></div></div>","null","neg","CS","CS","4","category4/CS7.png","","","","",""
"","html-keyboard-response","76","329322","0.0-6.0-6.0-0.7","nxdly59zjf","one_one","1","direct_first","1","lf04as02","1","21","1","1","3","1","","0","1","0","null","","","<div class = 'row'><div class = 'column'><img src = 'category3/CS2.png' width = '70%;'></div><div class = 'column'><img src = 'uspos/2165.bmp' width = '100%;'></div></div>","null","pos","CS","CS","3","category3/CS2.png","","","","",""
"","html-keyboard-response","77","331824","0.0-6.0-6.0-0.8","nxdly59zjf","one_one","1","direct_first","1","lf04as02","1","21","1","1","3","1","","0","1","0","null","","","<div class = 'row'><div class = 'column'><img src = 'usneg/9290.bmp' width = '100%;'></div><div class = 'column'><img src = 'category4/CS7.png' width = '70%;'></div></div>","null","neg","CS","CS","4","category4/CS7.png","","","","",""
"","html-keyboard-response","78","334326","0.0-6.0-6.0-0.9","nxdly59zjf","one_one","1","direct_first","1","lf04as02","1","21","1","1","3","1","","0","1","0","null","","","<div class = 'row'><div class = 'column'><img src = 'category2/CS9.png' width = '70%;'></div><div class = 'column'><img src = 'usneg/3300.bmp' width = '100%;'></div></div>","null","neg","CS","CS","2","category2/CS9.png","","","","",""
"","html-keyboard-response","79","336829","0.0-6.0-6.0-0.10","nxdly59zjf","one_one","1","direct_first","1","lf04as02","1","21","1","1","3","1","","0","1","0","null","","","<div class = 'row'><div class = 'column'><img src = 'uspos/2530.bmp' width = '100%;'></div><div class = 'column'><img src = 'category1/CS3.png' width = '70%;'></div></div>","null","pos","CS","CS","1","category1/CS3.png","","","","",""
"","html-keyboard-response","80","339329","0.0-6.0-6.0-0.11","nxdly59zjf","one_one","1","direct_first","1","lf04as02","1","21","1","1","3","1","","0","1","0","null","","","<div class = 'row'><div class = 'column'><img src = 'uspos/2165.bmp' width = '100%;'></div><div class = 'column'><img src = 'category3/CS2.png' width = '70%;'></div></div>","null","pos","CS","CS","3","category3/CS2.png","","","","",""
"","html-keyboard-response","81","341832","0.0-6.0-6.0-0.12","nxdly59zjf","one_one","1","direct_first","1","lf04as02","1","21","1","1","3","1","","0","1","0","null","","","<div class = 'row'><div class = 'column'><img src = 'category2/CS9.png' width = '70%;'></div><div class = 'column'><img src = 'usneg/3300.bmp' width = '100%;'></div></div>","null","neg","CS","CS","2","category2/CS9.png","","","","",""
"","html-keyboard-response","82","344333","0.0-6.0-6.0-0.13","nxdly59zjf","one_one","1","direct_first","1","lf04as02","1","21","1","1","3","1","","0","1","0","null","","","<div class = 'row'><div class = 'column'><img src = 'category1/CS3.png' width = '70%;'></div><div class = 'column'><img src = 'uspos/2530.bmp' width = '100%;'></div></div>","null","pos","CS","CS","1","category1/CS3.png","","","","",""
"","html-keyboard-response","83","346835","0.0-6.0-6.0-0.14","nxdly59zjf","one_one","1","direct_first","1","lf04as02","1","21","1","1","3","1","","0","1","0","null","","","<div class = 'row'><div class = 'column'><img src = 'category2/CS9.png' width = '70%;'></div><div class = 'column'><img src = 'usneg/3300.bmp' width = '100%;'></div></div>","null","neg","CS","CS","2","category2/CS9.png","","","","",""
"","html-keyboard-response","84","349337","0.0-6.0-6.0-0.15","nxdly59zjf","one_one","1","direct_first","1","lf04as02","1","21","1","1","3","1","","0","1","0","null","","","<div class = 'row'><div class = 'column'><img src = 'usneg/9290.bmp' width = '100%;'></div><div class = 'column'><img src = 'category4/CS7.png' width = '70%;'></div></div>","null","neg","CS","CS","4","category4/CS7.png","","","","",""
"","html-keyboard-response","85","351838","0.0-6.0-6.0-0.16","nxdly59zjf","one_one","1","direct_first","1","lf04as02","1","21","1","1","3","1","","0","1","0","null","","","<div class = 'row'><div class = 'column'><img src = 'category3/CS2.png' width = '70%;'></div><div class = 'column'><img src = 'uspos/2165.bmp' width = '100%;'></div></div>","null","pos","CS","CS","3","category3/CS2.png","","","","",""
"","html-keyboard-response","86","354339","0.0-6.0-6.0-0.17","nxdly59zjf","one_one","1","direct_first","1","lf04as02","1","21","1","1","3","1","","0","1","0","null","","","<div class = 'row'><div class = 'column'><img src = 'category4/CS7.png' width = '70%;'></div><div class = 'column'><img src = 'usneg/9290.bmp' width = '100%;'></div></div>","null","neg","CS","CS","4","category4/CS7.png","","","","",""
"","html-keyboard-response","87","356842","0.0-6.0-6.0-0.18","nxdly59zjf","one_one","1","direct_first","1","lf04as02","1","21","1","1","3","1","","0","1","0","null","","","<div class = 'row'><div class = 'column'><img src = 'category3/CS2.png' width = '70%;'></div><div class = 'column'><img src = 'uspos/2165.bmp' width = '100%;'></div></div>","null","pos","CS","CS","3","category3/CS2.png","","","","",""
"","html-keyboard-response","88","359343","0.0-6.0-6.0-0.19","nxdly59zjf","one_one","1","direct_first","1","lf04as02","1","21","1","1","3","1","","0","1","0","null","","","<div class = 'row'><div class = 'column'><img src = 'usneg/9290.bmp' width = '100%;'></div><div class = 'column'><img src = 'category4/CS7.png' width = '70%;'></div></div>","null","neg","CS","CS","4","category4/CS7.png","","","","",""
"","survey-html-form","89","373111","0.0-7.0","nxdly59zjf","one_one","1","direct_first","1","lf04as02","1","21","1","1","3","1","","0","1","0","13267","","{}","","","","","","","","","","","",""
"","image-slider-response","90","394358","0.0-8.0-0.0","nxdly59zjf","one_one","1","direct_first","1","lf04as02","1","21","1","1","3","1","","0","1","0","19228","","","","","pos","GS","GSnew","3","category3/GS1.png","-22","targets/43.png","direct","",""
"","image-slider-response","91","399806","0.0-8.0-0.1","nxdly59zjf","one_one","1","direct_first","1","lf04as02","1","21","1","1","3","1","","0","1","0","5446","","","","","neg","GS","GSold","2","category2/CS4.png","-66","targets/35.png","direct","",""
"","image-slider-response","92","406814","0.0-8.0-0.2","nxdly59zjf","one_one","1","direct_first","1","lf04as02","1","21","1","1","3","1","","0","1","0","7006","","","","","pos","CS","CS","3","category3/CS2.png","61","targets/21.png","direct","",""
"","image-slider-response","93","411742","0.0-8.0-0.3","nxdly59zjf","one_one","1","direct_first","1","lf04as02","1","21","1","1","3","1","","0","1","0","4926","","","","","pos","GS","GSold","3","category3/CS3.png","57","targets/42.png","direct","",""
"","image-slider-response","94","420278","0.0-8.0-0.4","nxdly59zjf","one_one","1","direct_first","1","lf04as02","1","21","1","1","3","1","","0","1","0","8535","","","","","neg","GS","GSold","4","category4/CS4.png","-24","targets/44.png","direct","",""
"","image-slider-response","95","429934","0.0-8.0-0.5","nxdly59zjf","one_one","1","direct_first","1","lf04as02","1","21","1","1","3","1","","0","1","0","9655","","","","","pos","GS","GSnew","1","category1/GS2.png","-16","targets/28.png","direct","",""
"","image-slider-response","96","436029","0.0-8.0-0.6","nxdly59zjf","one_one","1","direct_first","1","lf04as02","1","21","1","1","3","1","","0","1","0","6094","","","","","neg","GS","GSnew","2","category2/GS3.png","-23","targets/10.png","direct","",""
"","image-slider-response","97","439686","0.0-8.0-0.7","nxdly59zjf","one_one","1","direct_first","1","lf04as02","1","21","1","1","3","1","","0","1","0","3654","","","","","neg","GS","GSnew","2","category2/GS2.png","-24","targets/39.png","direct","",""
"","image-slider-response","98","445159","0.0-8.0-0.8","nxdly59zjf","one_one","1","direct_first","1","lf04as02","1","21","1","1","3","1","","0","1","0","5470","","","","","neg","GS","GSold","4","category4/CS10.png","-46","targets/45.png","direct","",""
"","image-slider-response","99","454590","0.0-8.0-0.9","nxdly59zjf","one_one","1","direct_first","1","lf04as02","1","21","1","1","3","1","","0","1","0","9430","","","","","neg","GS","GSnew","4","category4/GS2.png","-19","targets/17.png","direct","",""
"","image-slider-response","100","458958","0.0-8.0-0.10","nxdly59zjf","one_one","1","direct_first","1","lf04as02","1","21","1","1","3","1","","0","1","0","4367","","","","","neg","GS","GSnew","4","category4/GS1.png","-42","targets/33.png","direct","",""
"","image-slider-response","101","464862","0.0-8.0-0.11","nxdly59zjf","one_one","1","direct_first","1","lf04as02","1","21","1","1","3","1","","0","1","0","5902","","","","","pos","GS","GSold","1","category1/CS6.png","-48","targets/26.png","direct","",""
"","image-slider-response","102","469831","0.0-8.0-0.12","nxdly59zjf","one_one","1","direct_first","1","lf04as02","1","21","1","1","3","1","","0","1","0","4968","","","","","pos","GS","GSnew","3","category3/GS3.png","53","targets/7.png","direct","",""
"","image-slider-response","103","472870","0.0-8.0-0.13","nxdly59zjf","one_one","1","direct_first","1","lf04as02","1","21","1","1","3","1","","0","1","0","3037","","","","","pos","GS","GSold","3","category3/CS9.png","53","targets/22.png","direct","",""
"","image-slider-response","104","476070","0.0-8.0-0.14","nxdly59zjf","one_one","1","direct_first","1","lf04as02","1","21","1","1","3","1","","0","1","0","3199","","","","","pos","GS","GSnew","1","category1/GS1.png","-34","targets/18.png","direct","",""
"","image-slider-response","105","480518","0.0-8.0-0.15","nxdly59zjf","one_one","1","direct_first","1","lf04as02","1","21","1","1","3","1","","0","1","0","4446","","","","","pos","GS","GSnew","3","category3/GS2.png","-45","targets/1.png","direct","",""
"","image-slider-response","106","484070","0.0-8.0-0.16","nxdly59zjf","one_one","1","direct_first","1","lf04as02","1","21","1","1","3","1","","0","1","0","3550","","","","","pos","CS","CS","1","category1/CS3.png","-37","targets/11.png","direct","",""
"","image-slider-response","107","487502","0.0-8.0-0.17","nxdly59zjf","one_one","1","direct_first","1","lf04as02","1","21","1","1","3","1","","0","1","0","3431","","","","","neg","GS","GSold","2","category2/CS8.png","-45","targets/3.png","direct","",""
"","image-slider-response","108","490078","0.0-8.0-0.18","nxdly59zjf","one_one","1","direct_first","1","lf04as02","1","21","1","1","3","1","","0","1","0","2574","","","","","pos","GS","abstract","1","category1/ma.png","-46","targets/36.png","direct","",""
"","image-slider-response","109","492885","0.0-8.0-0.19","nxdly59zjf","one_one","1","direct_first","1","lf04as02","1","21","1","1","3","1","","0","1","0","2806","","","","","neg","GS","abstract","2","category2/men.png","-26","targets/25.png","direct","",""
"","image-slider-response","110","496879","0.0-8.0-0.20","nxdly59zjf","one_one","1","direct_first","1","lf04as02","1","21","1","1","3","1","","0","1","0","3992","","","","","neg","GS","GSnew","4","category4/GS3.png","-40","targets/46.png","direct","",""
"","image-slider-response","111","500365","0.0-8.0-0.21","nxdly59zjf","one_one","1","direct_first","1","lf04as02","1","21","1","1","3","1","","0","1","0","3486","","","","","neg","CS","CS","2","category2/CS9.png","-65","targets/37.png","direct","",""
"","image-slider-response","112","503253","0.0-8.0-0.22","nxdly59zjf","one_one","1","direct_first","1","lf04as02","1","21","1","1","3","1","","0","1","0","2888","","","","","pos","GS","GSold","1","category1/CS1.png","-23","targets/34.png","direct","",""
"","image-slider-response","113","508246","0.0-8.0-0.23","nxdly59zjf","one_one","1","direct_first","1","lf04as02","1","21","1","1","3","1","","0","1","0","4991","","","","","neg","GS","GSold","2","category2/CS5.png","-20","targets/20.png","direct","",""
"","image-slider-response","114","512102","0.0-8.0-0.24","nxdly59zjf","one_one","1","direct_first","1","lf04as02","1","21","1","1","3","1","","0","1","0","3856","","","","","pos","GS","abstract","3","category3/wang.png","36","targets/9.png","direct","",""
"","image-slider-response","115","514373","0.0-8.0-0.25","nxdly59zjf","one_one","1","direct_first","1","lf04as02","1","21","1","1","3","1","","0","1","0","2271","","","","","neg","GS","GSnew","2","category2/GS1.png","-16","targets/5.png","direct","",""
"","image-slider-response","116","519166","0.0-8.0-0.26","nxdly59zjf","one_one","1","direct_first","1","lf04as02","1","21","1","1","3","1","","0","1","0","4791","","","","","pos","GS","GSnew","1","category1/GS3.png","16","targets/6.png","direct","",""
"","image-slider-response","117","522782","0.0-8.0-0.27","nxdly59zjf","one_one","1","direct_first","1","lf04as02","1","21","1","1","3","1","","0","1","0","3615","","","","","neg","GS","GSold","4","category4/CS1.png","29","targets/24.png","direct","",""
"","image-slider-response","118","526638","0.0-8.0-0.28","nxdly59zjf","one_one","1","direct_first","1","lf04as02","1","21","1","1","3","1","","0","1","0","3854","","","","","pos","GS","GSold","1","category1/CS4.png","-32","targets/15.png","direct","",""
"","image-slider-response","119","533111","0.0-8.0-0.29","nxdly59zjf","one_one","1","direct_first","1","lf04as02","1","21","1","1","3","1","","0","1","0","6470","","","","","pos","GS","GSold","3","category3/CS7.png","-21","targets/30.png","direct","",""
"","image-slider-response","120","537238","0.0-8.0-0.30","nxdly59zjf","one_one","1","direct_first","1","lf04as02","1","21","1","1","3","1","","0","1","0","4126","","","","","neg","CS","CS","4","category4/CS7.png","-46","targets/48.png","direct","",""
"","image-slider-response","121","542774","0.0-8.0-0.31","nxdly59zjf","one_one","1","direct_first","1","lf04as02","1","21","1","1","3","1","","0","1","0","5534","","","","","neg","GS","abstract","4","category4/lin.png","20","targets/13.png","direct","",""
"","html-keyboard-response","122","570516","0.0-9.0","nxdly59zjf","one_one","1","direct_first","1","lf04as02","1","21","1","1","3","1","","0","1","0","27741","","","<p>Sie sehen nun die chinesischen Zeichen nur ganz kurz. Danach sehen Sie die jeweilige Aussprache der Zeichen als Silbe auf dem Bildschrim. Ihre Aufgabe ist es, für jede Silbe anzugeben, ob diese etwas angenehmes, oder unangenehmes bedeuten könnte. Verlassen Sie sich hier vor allem auf Ihre Intuition.<br><br>Die Zeichen werden nur zur Orientierung dargestellt, beachten Sie sie deshalb nicht. Konzentrieren Sie sich vor allem auf die Silben. <br>Reagieren Sie mit folgenden zwei Tasten: <br><br><b>'D' </b> wenn die Silbe etwas <b>unangenehmes</b> bedeuten könnte. <br><b>'K'</b> wenn die Silbe etwas <b>angenehmes</b> bedeuten könnte. <br><br>Bitte legen Sie nun den Zeigefinger der linken Hand auf die Taste 'D' und den Zeigefinger der rechten Hand auf die Taste 'K'. <br>Reagieren Sie auf jede Silbe so schnell wie möglich. Uns interessiert Ihre spontane Reaktion. <br> <br> <br>Drücken Sie 'D' oder 'K', um die nächste Aufgabe zu starten. </p>","75","","","","","","","","","",""
"","html-keyboard-response","123","573517","0.0-10.0-0.0","nxdly59zjf","one_one","1","direct_first","1","lf04as02","1","21","1","1","3","1","","0","1","0","null","","","<div style=""font-size:60px;"">+</div>","null","","","","","","","","","",""
"","html-keyboard-response","124","573608","0.0-10.0-1.0","nxdly59zjf","one_one","1","direct_first","1","lf04as02","1","21","1","1","3","1","","0","1","0","null","","","<img src = 'category3/CS7.png' width = '100%;'>","null","","","","","","","","","",""
"","html-keyboard-response","125","573861","0.0-10.0-2.0","nxdly59zjf","one_one","1","direct_first","1","lf04as02","1","21","1","1","3","1","","0","1","0","null","","","<img src = 'targets/30.png' width = '100%;'>","null","","","","","","","","","",""
"","html-keyboard-response","126","579641","0.0-10.0-3.0","nxdly59zjf","one_one","1","direct_first","1","lf04as02","1","21","1","1","3","1","","0","1","0","5779","","","<img src = 'targets/mask.png' width = '100%;'>","75","pos","GS","GSold","3","category3/CS7.png","","targets/30.png","indirect","1","0"
"","html-keyboard-response","127","581142","0.0-10.0-0.1","nxdly59zjf","one_one","1","direct_first","1","lf04as02","1","21","1","1","3","1","","0","1","0","null","","","<div style=""font-size:60px;"">+</div>","null","","","","","","","","","",""
"","html-keyboard-response","128","581234","0.0-10.0-1.1","nxdly59zjf","one_one","1","direct_first","1","lf04as02","1","21","1","1","3","1","","0","1","0","null","","","<img src = 'category1/CS3.png' width = '100%;'>","null","","","","","","","","","",""
"","html-keyboard-response","129","581487","0.0-10.0-2.1","nxdly59zjf","one_one","1","direct_first","1","lf04as02","1","21","1","1","3","1","","0","1","0","null","","","<img src = 'targets/11.png' width = '100%;'>","null","","","","","","","","","",""
"","html-keyboard-response","130","594806","0.0-10.0-3.1","nxdly59zjf","one_one","1","direct_first","1","lf04as02","1","21","1","1","3","1","","0","1","0","13316","","","<img src = 'targets/mask.png' width = '100%;'>","68","pos","CS","CS","1","category1/CS3.png","","targets/11.png","indirect","0","1"
"","html-keyboard-response","131","596306","0.0-10.0-0.2","nxdly59zjf","one_one","1","direct_first","1","lf04as02","1","21","1","1","3","1","","0","1","0","null","","","<div style=""font-size:60px;"">+</div>","null","","","","","","","","","",""
"","html-keyboard-response","132","596398","0.0-10.0-1.2","nxdly59zjf","one_one","1","direct_first","1","lf04as02","1","21","1","1","3","1","","0","1","0","null","","","<img src = 'category3/CS9.png' width = '100%;'>","null","","","","","","","","","",""
"","html-keyboard-response","133","596652","0.0-10.0-2.2","nxdly59zjf","one_one","1","direct_first","1","lf04as02","1","21","1","1","3","1","","0","1","0","null","","","<img src = 'targets/22.png' width = '100%;'>","null","","","","","","","","","",""
"","html-keyboard-response","134","598208","0.0-10.0-3.2","nxdly59zjf","one_one","1","direct_first","1","lf04as02","1","21","1","1","3","1","","0","1","0","1555","","","<img src = 'targets/mask.png' width = '100%;'>","75","pos","GS","GSold","3","category3/CS9.png","","targets/22.png","indirect","1","2"
"","html-keyboard-response","135","599711","0.0-10.0-0.3","nxdly59zjf","one_one","1","direct_first","1","lf04as02","1","21","1","1","3","1","","0","1","0","null","","","<div style=""font-size:60px;"">+</div>","null","","","","","","","","","",""
"","html-keyboard-response","136","599802","0.0-10.0-1.3","nxdly59zjf","one_one","1","direct_first","1","lf04as02","1","21","1","1","3","1","","0","1","0","null","","","<img src = 'category3/CS2.png' width = '100%;'>","null","","","","","","","","","",""
"","html-keyboard-response","137","600053","0.0-10.0-2.3","nxdly59zjf","one_one","1","direct_first","1","lf04as02","1","21","1","1","3","1","","0","1","0","null","","","<img src = 'targets/21.png' width = '100%;'>","null","","","","","","","","","",""
"","html-keyboard-response","138","605765","0.0-10.0-3.3","nxdly59zjf","one_one","1","direct_first","1","lf04as02","1","21","1","1","3","1","","0","1","0","5711","","","<img src = 'targets/mask.png' width = '100%;'>","75","pos","CS","CS","3","category3/CS2.png","","targets/21.png","indirect","1","3"
"","html-keyboard-response","139","607266","0.0-10.0-0.4","nxdly59zjf","one_one","1","direct_first","1","lf04as02","1","21","1","1","3","1","","0","1","0","null","","","<div style=""font-size:60px;"">+</div>","null","","","","","","","","","",""
"","html-keyboard-response","140","607357","0.0-10.0-1.4","nxdly59zjf","one_one","1","direct_first","1","lf04as02","1","21","1","1","3","1","","0","1","0","null","","","<img src = 'category3/CS3.png' width = '100%;'>","null","","","","","","","","","",""
"","html-keyboard-response","141","607610","0.0-10.0-2.4","nxdly59zjf","one_one","1","direct_first","1","lf04as02","1","21","1","1","3","1","","0","1","0","null","","","<img src = 'targets/42.png' width = '100%;'>","null","","","","","","","","","",""
"","html-keyboard-response","142","609868","0.0-10.0-3.4","nxdly59zjf","one_one","1","direct_first","1","lf04as02","1","21","1","1","3","1","","0","1","0","2257","","","<img src = 'targets/mask.png' width = '100%;'>","68","pos","GS","GSold","3","category3/CS3.png","","targets/42.png","indirect","0","4"
"","html-keyboard-response","143","611370","0.0-10.0-0.5","nxdly59zjf","one_one","1","direct_first","1","lf04as02","1","21","1","1","3","1","","0","1","0","null","","","<div style=""font-size:60px;"">+</div>","null","","","","","","","","","",""
"","html-keyboard-response","144","611461","0.0-10.0-1.5","nxdly59zjf","one_one","1","direct_first","1","lf04as02","1","21","1","1","3","1","","0","1","0","null","","","<img src = 'category4/CS4.png' width = '100%;'>","null","","","","","","","","","",""
"","html-keyboard-response","145","611713","0.0-10.0-2.5","nxdly59zjf","one_one","1","direct_first","1","lf04as02","1","21","1","1","3","1","","0","1","0","null","","","<img src = 'targets/44.png' width = '100%;'>","null","","","","","","","","","",""
"","html-keyboard-response","146","612994","0.0-10.0-3.5","nxdly59zjf","one_one","1","direct_first","1","lf04as02","1","21","1","1","3","1","","0","1","0","1281","","","<img src = 'targets/mask.png' width = '100%;'>","75","neg","GS","GSold","4","category4/CS4.png","","targets/44.png","indirect","1","5"
"","html-keyboard-response","147","614496","0.0-10.0-0.6","nxdly59zjf","one_one","1","direct_first","1","lf04as02","1","21","1","1","3","1","","0","1","0","null","","","<div style=""font-size:60px;"">+</div>","null","","","","","","","","","",""
"","html-keyboard-response","148","614586","0.0-10.0-1.6","nxdly59zjf","one_one","1","direct_first","1","lf04as02","1","21","1","1","3","1","","0","1","0","null","","","<img src = 'category2/CS4.png' width = '100%;'>","null","","","","","","","","","",""
"","html-keyboard-response","149","614839","0.0-10.0-2.6","nxdly59zjf","one_one","1","direct_first","1","lf04as02","1","21","1","1","3","1","","0","1","0","null","","","<img src = 'targets/35.png' width = '100%;'>","null","","","","","","","","","",""
"","html-keyboard-response","150","617431","0.0-10.0-3.6","nxdly59zjf","one_one","1","direct_first","1","lf04as02","1","21","1","1","3","1","","0","1","0","2591","","","<img src = 'targets/mask.png' width = '100%;'>","75","neg","GS","GSold","2","category2/CS4.png","","targets/35.png","indirect","1","6"
"","html-keyboard-response","151","618933","0.0-10.0-0.7","nxdly59zjf","one_one","1","direct_first","1","lf04as02","1","21","1","1","3","1","","0","1","0","null","","","<div style=""font-size:60px;"">+</div>","null","","","","","","","","","",""
"","html-keyboard-response","152","619024","0.0-10.0-1.7","nxdly59zjf","one_one","1","direct_first","1","lf04as02","1","21","1","1","3","1","","0","1","0","null","","","<img src = 'category1/CS1.png' width = '100%;'>","null","","","","","","","","","",""
"","html-keyboard-response","153","619276","0.0-10.0-2.7","nxdly59zjf","one_one","1","direct_first","1","lf04as02","1","21","1","1","3","1","","0","1","0","null","","","<img src = 'targets/34.png' width = '100%;'>","null","","","","","","","","","",""
"","html-keyboard-response","154","620486","0.0-10.0-3.7","nxdly59zjf","one_one","1","direct_first","1","lf04as02","1","21","1","1","3","1","","0","1","0","1210","","","<img src = 'targets/mask.png' width = '100%;'>","75","pos","GS","GSold","1","category1/CS1.png","","targets/34.png","indirect","1","7"
"","html-keyboard-response","155","621988","0.0-10.0-0.8","nxdly59zjf","one_one","1","direct_first","1","lf04as02","1","21","1","1","3","1","","0","1","0","null","","","<div style=""font-size:60px;"">+</div>","null","","","","","","","","","",""
"","html-keyboard-response","156","622078","0.0-10.0-1.8","nxdly59zjf","one_one","1","direct_first","1","lf04as02","1","21","1","1","3","1","","0","1","0","null","","","<img src = 'category2/CS9.png' width = '100%;'>","null","","","","","","","","","",""
"","html-keyboard-response","157","622331","0.0-10.0-2.8","nxdly59zjf","one_one","1","direct_first","1","lf04as02","1","21","1","1","3","1","","0","1","0","null","","","<img src = 'targets/37.png' width = '100%;'>","null","","","","","","","","","",""
"","html-keyboard-response","158","624035","0.0-10.0-3.8","nxdly59zjf","one_one","1","direct_first","1","lf04as02","1","21","1","1","3","1","","0","1","0","1704","","","<img src = 'targets/mask.png' width = '100%;'>","75","neg","CS","CS","2","category2/CS9.png","","targets/37.png","indirect","1","8"
"","html-keyboard-response","159","625536","0.0-10.0-0.9","nxdly59zjf","one_one","1","direct_first","1","lf04as02","1","21","1","1","3","1","","0","1","0","null","","","<div style=""font-size:60px;"">+</div>","null","","","","","","","","","",""
"","html-keyboard-response","160","625627","0.0-10.0-1.9","nxdly59zjf","one_one","1","direct_first","1","lf04as02","1","21","1","1","3","1","","0","1","0","null","","","<img src = 'category4/CS7.png' width = '100%;'>","null","","","","","","","","","",""
"","html-keyboard-response","161","625880","0.0-10.0-2.9","nxdly59zjf","one_one","1","direct_first","1","lf04as02","1","21","1","1","3","1","","0","1","0","null","","","<img src = 'targets/48.png' width = '100%;'>","null","","","","","","","","","",""
"","html-keyboard-response","162","627033","0.0-10.0-3.9","nxdly59zjf","one_one","1","direct_first","1","lf04as02","1","21","1","1","3","1","","0","1","0","1153","","","<img src = 'targets/mask.png' width = '100%;'>","68","neg","CS","CS","4","category4/CS7.png","","targets/48.png","indirect","0","9"
"","html-keyboard-response","163","628534","0.0-10.0-0.10","nxdly59zjf","one_one","1","direct_first","1","lf04as02","1","21","1","1","3","1","","0","1","0","null","","","<div style=""font-size:60px;"">+</div>","null","","","","","","","","","",""
"","html-keyboard-response","164","628626","0.0-10.0-1.10","nxdly59zjf","one_one","1","direct_first","1","lf04as02","1","21","1","1","3","1","","0","1","0","null","","","<img src = 'category1/CS4.png' width = '100%;'>","null","","","","","","","","","",""
"","html-keyboard-response","165","628877","0.0-10.0-2.10","nxdly59zjf","one_one","1","direct_first","1","lf04as02","1","21","1","1","3","1","","0","1","0","null","","","<img src = 'targets/15.png' width = '100%;'>","null","","","","","","","","","",""
"","html-keyboard-response","166","631199","0.0-10.0-3.10","nxdly59zjf","one_one","1","direct_first","1","lf04as02","1","21","1","1","3","1","","0","1","0","2321","","","<img src = 'targets/mask.png' width = '100%;'>","68","pos","GS","GSold","1","category1/CS4.png","","targets/15.png","indirect","0","10"
"","html-keyboard-response","167","632701","0.0-10.0-0.11","nxdly59zjf","one_one","1","direct_first","1","lf04as02","1","21","1","1","3","1","","0","1","0","null","","","<div style=""font-size:60px;"">+</div>","null","","","","","","","","","",""
"","html-keyboard-response","168","632792","0.0-10.0-1.11","nxdly59zjf","one_one","1","direct_first","1","lf04as02","1","21","1","1","3","1","","0","1","0","null","","","<img src = 'category4/CS1.png' width = '100%;'>","null","","","","","","","","","",""
"","html-keyboard-response","169","633043","0.0-10.0-2.11","nxdly59zjf","one_one","1","direct_first","1","lf04as02","1","21","1","1","3","1","","0","1","0","null","","","<img src = 'targets/24.png' width = '100%;'>","null","","","","","","","","","",""
"","html-keyboard-response","170","634544","0.0-10.0-3.11","nxdly59zjf","one_one","1","direct_first","1","lf04as02","1","21","1","1","3","1","","0","1","0","1500","","","<img src = 'targets/mask.png' width = '100%;'>","68","neg","GS","GSold","4","category4/CS1.png","","targets/24.png","indirect","0","11"
"","html-keyboard-response","171","636044","0.0-10.0-0.12","nxdly59zjf","one_one","1","direct_first","1","lf04as02","1","21","1","1","3","1","","0","1","0","null","","","<div style=""font-size:60px;"">+</div>","null","","","","","","","","","",""
"","html-keyboard-response","172","636135","0.0-10.0-1.12","nxdly59zjf","one_one","1","direct_first","1","lf04as02","1","21","1","1","3","1","","0","1","0","null","","","<img src = 'category1/CS6.png' width = '100%;'>","null","","","","","","","","","",""
"","html-keyboard-response","173","636388","0.0-10.0-2.12","nxdly59zjf","one_one","1","direct_first","1","lf04as02","1","21","1","1","3","1","","0","1","0","null","","","<img src = 'targets/26.png' width = '100%;'>","null","","","","","","","","","",""
"","html-keyboard-response","174","638365","0.0-10.0-3.12","nxdly59zjf","one_one","1","direct_first","1","lf04as02","1","21","1","1","3","1","","0","1","0","1977","","","<img src = 'targets/mask.png' width = '100%;'>","75","pos","GS","GSold","1","category1/CS6.png","","targets/26.png","indirect","1","12"
"","html-keyboard-response","175","639866","0.0-10.0-0.13","nxdly59zjf","one_one","1","direct_first","1","lf04as02","1","21","1","1","3","1","","0","1","0","null","","","<div style=""font-size:60px;"">+</div>","null","","","","","","","","","",""
"","html-keyboard-response","176","639957","0.0-10.0-1.13","nxdly59zjf","one_one","1","direct_first","1","lf04as02","1","21","1","1","3","1","","0","1","0","null","","","<img src = 'category2/CS8.png' width = '100%;'>","null","","","","","","","","","",""
"","html-keyboard-response","177","640207","0.0-10.0-2.13","nxdly59zjf","one_one","1","direct_first","1","lf04as02","1","21","1","1","3","1","","0","1","0","null","","","<img src = 'targets/3.png' width = '100%;'>","null","","","","","","","","","",""
"","html-keyboard-response","178","641847","0.0-10.0-3.13","nxdly59zjf","one_one","1","direct_first","1","lf04as02","1","21","1","1","3","1","","0","1","0","1639","","","<img src = 'targets/mask.png' width = '100%;'>","75","neg","GS","GSold","2","category2/CS8.png","","targets/3.png","indirect","1","13"
"","html-keyboard-response","179","643349","0.0-10.0-0.14","nxdly59zjf","one_one","1","direct_first","1","lf04as02","1","21","1","1","3","1","","0","1","0","null","","","<div style=""font-size:60px;"">+</div>","null","","","","","","","","","",""
"","html-keyboard-response","180","643439","0.0-10.0-1.14","nxdly59zjf","one_one","1","direct_first","1","lf04as02","1","21","1","1","3","1","","0","1","0","null","","","<img src = 'category2/CS5.png' width = '100%;'>","null","","","","","","","","","",""
"","html-keyboard-response","181","643692","0.0-10.0-2.14","nxdly59zjf","one_one","1","direct_first","1","lf04as02","1","21","1","1","3","1","","0","1","0","null","","","<img src = 'targets/20.png' width = '100%;'>","null","","","","","","","","","",""
"","html-keyboard-response","182","644376","0.0-10.0-3.14","nxdly59zjf","one_one","1","direct_first","1","lf04as02","1","21","1","1","3","1","","0","1","0","684","","","<img src = 'targets/mask.png' width = '100%;'>","75","neg","GS","GSold","2","category2/CS5.png","","targets/20.png","indirect","1","14"
"","html-keyboard-response","183","645878","0.0-10.0-0.15","nxdly59zjf","one_one","1","direct_first","1","lf04as02","1","21","1","1","3","1","","0","1","0","null","","","<div style=""font-size:60px;"">+</div>","null","","","","","","","","","",""
"","html-keyboard-response","184","645969","0.0-10.0-1.15","nxdly59zjf","one_one","1","direct_first","1","lf04as02","1","21","1","1","3","1","","0","1","0","null","","","<img src = 'category4/CS10.png' width = '100%;'>","null","","","","","","","","","",""
"","html-keyboard-response","185","646220","0.0-10.0-2.15","nxdly59zjf","one_one","1","direct_first","1","lf04as02","1","21","1","1","3","1","","0","1","0","null","","","<img src = 'targets/45.png' width = '100%;'>","null","","","","","","","","","",""
"","html-keyboard-response","186","647941","0.0-10.0-3.15","nxdly59zjf","one_one","1","direct_first","1","lf04as02","1","21","1","1","3","1","","0","1","0","1721","","","<img src = 'targets/mask.png' width = '100%;'>","75","neg","GS","GSold","4","category4/CS10.png","","targets/45.png","indirect","1","15"
"","survey-html-form","187","653463","0.0-11.0","nxdly59zjf","one_one","1","direct_first","1","lf04as02","1","21","1","1","3","1","","0","1","0","5020","","{}","","","","","","","","","","","",""
"","html-keyboard-response","188","656464","0.0-12.0-0.0","nxdly59zjf","one_one","1","direct_first","1","lf04as02","1","21","1","1","3","1","","0","1","0","null","","","<div style=""font-size:60px;"">+</div>","null","","","","","","","","","",""
"","html-keyboard-response","189","656555","0.0-12.0-1.0","nxdly59zjf","one_one","1","direct_first","1","lf04as02","1","21","1","1","3","1","","0","1","0","null","","","<img src = 'category4/GS2.png' width = '100%;'>","null","","","","","","","","","",""
"","html-keyboard-response","190","656805","0.0-12.0-2.0","nxdly59zjf","one_one","1","direct_first","1","lf04as02","1","21","1","1","3","1","","0","1","0","null","","","<img src = 'targets/17.png' width = '100%;'>","null","","","","","","","","","",""
"","html-keyboard-response","191","658663","0.0-12.0-3.0","nxdly59zjf","one_one","1","direct_first","1","lf04as02","1","21","1","1","3","1","","0","1","0","1858","","","<img src = 'targets/mask.png' width = '100%;'>","68","neg","GS","GSnew","4","category4/GS2.png","","targets/17.png","indirect","0","16"
"","html-keyboard-response","192","660165","0.0-12.0-0.1","nxdly59zjf","one_one","1","direct_first","1","lf04as02","1","21","1","1","3","1","","0","1","0","null","","","<div style=""font-size:60px;"">+</div>","null","","","","","","","","","",""
"","html-keyboard-response","193","660256","0.0-12.0-1.1","nxdly59zjf","one_one","1","direct_first","1","lf04as02","1","21","1","1","3","1","","0","1","0","null","","","<img src = 'category1/GS3.png' width = '100%;'>","null","","","","","","","","","",""
"","html-keyboard-response","194","660508","0.0-12.0-2.1","nxdly59zjf","one_one","1","direct_first","1","lf04as02","1","21","1","1","3","1","","0","1","0","null","","","<img src = 'targets/6.png' width = '100%;'>","null","","","","","","","","","",""
"","html-keyboard-response","195","661693","0.0-12.0-3.1","nxdly59zjf","one_one","1","direct_first","1","lf04as02","1","21","1","1","3","1","","0","1","0","1185","","","<img src = 'targets/mask.png' width = '100%;'>","68","pos","GS","GSnew","1","category1/GS3.png","","targets/6.png","indirect","0","17"
"","html-keyboard-response","196","663195","0.0-12.0-0.2","nxdly59zjf","one_one","1","direct_first","1","lf04as02","1","21","1","1","3","1","","0","1","0","null","","","<div style=""font-size:60px;"">+</div>","null","","","","","","","","","",""
"","html-keyboard-response","197","663286","0.0-12.0-1.2","nxdly59zjf","one_one","1","direct_first","1","lf04as02","1","21","1","1","3","1","","0","1","0","null","","","<img src = 'category2/GS1.png' width = '100%;'>","null","","","","","","","","","",""
"","html-keyboard-response","198","663538","0.0-12.0-2.2","nxdly59zjf","one_one","1","direct_first","1","lf04as02","1","21","1","1","3","1","","0","1","0","null","","","<img src = 'targets/5.png' width = '100%;'>","null","","","","","","","","","",""
"","html-keyboard-response","199","665989","0.0-12.0-3.2","nxdly59zjf","one_one","1","direct_first","1","lf04as02","1","21","1","1","3","1","","0","1","0","2449","","","<img src = 'targets/mask.png' width = '100%;'>","75","neg","GS","GSnew","2","category2/GS1.png","","targets/5.png","indirect","1","18"
"","html-keyboard-response","200","667490","0.0-12.0-0.3","nxdly59zjf","one_one","1","direct_first","1","lf04as02","1","21","1","1","3","1","","0","1","0","null","","","<div style=""font-size:60px;"">+</div>","null","","","","","","","","","",""
"","html-keyboard-response","201","667583","0.0-12.0-1.3","nxdly59zjf","one_one","1","direct_first","1","lf04as02","1","21","1","1","3","1","","0","1","0","null","","","<img src = 'category2/men.png' width = '100%;'>","null","","","","","","","","","",""
"","html-keyboard-response","202","667835","0.0-12.0-2.3","nxdly59zjf","one_one","1","direct_first","1","lf04as02","1","21","1","1","3","1","","0","1","0","null","","","<img src = 'targets/25.png' width = '100%;'>","null","","","","","","","","","",""
"","html-keyboard-response","203","670282","0.0-12.0-3.3","nxdly59zjf","one_one","1","direct_first","1","lf04as02","1","21","1","1","3","1","","0","1","0","2447","","","<img src = 'targets/mask.png' width = '100%;'>","68","neg","GS","abstract","2","category2/men.png","","targets/25.png","indirect","0","19"
"","html-keyboard-response","204","671785","0.0-12.0-0.4","nxdly59zjf","one_one","1","direct_first","1","lf04as02","1","21","1","1","3","1","","0","1","0","null","","","<div style=""font-size:60px;"">+</div>","null","","","","","","","","","",""
"","html-keyboard-response","205","671876","0.0-12.0-1.4","nxdly59zjf","one_one","1","direct_first","1","lf04as02","1","21","1","1","3","1","","0","1","0","null","","","<img src = 'category2/GS2.png' width = '100%;'>","null","","","","","","","","","",""
"","html-keyboard-response","206","672128","0.0-12.0-2.4","nxdly59zjf","one_one","1","direct_first","1","lf04as02","1","21","1","1","3","1","","0","1","0","null","","","<img src = 'targets/39.png' width = '100%;'>","null","","","","","","","","","",""
"","html-keyboard-response","207","673407","0.0-12.0-3.4","nxdly59zjf","one_one","1","direct_first","1","lf04as02","1","21","1","1","3","1","","0","1","0","1278","","","<img src = 'targets/mask.png' width = '100%;'>","75","neg","GS","GSnew","2","category2/GS2.png","","targets/39.png","indirect","1","20"
"","html-keyboard-response","208","674909","0.0-12.0-0.5","nxdly59zjf","one_one","1","direct_first","1","lf04as02","1","21","1","1","3","1","","0","1","0","null","","","<div style=""font-size:60px;"">+</div>","null","","","","","","","","","",""
"","html-keyboard-response","209","674999","0.0-12.0-1.5","nxdly59zjf","one_one","1","direct_first","1","lf04as02","1","21","1","1","3","1","","0","1","0","null","","","<img src = 'category1/GS2.png' width = '100%;'>","null","","","","","","","","","",""
"","html-keyboard-response","210","675251","0.0-12.0-2.5","nxdly59zjf","one_one","1","direct_first","1","lf04as02","1","21","1","1","3","1","","0","1","0","null","","","<img src = 'targets/28.png' width = '100%;'>","null","","","","","","","","","",""
"","html-keyboard-response","211","676060","0.0-12.0-3.5","nxdly59zjf","one_one","1","direct_first","1","lf04as02","1","21","1","1","3","1","","0","1","0","810","","","<img src = 'targets/mask.png' width = '100%;'>","68","pos","GS","GSnew","1","category1/GS2.png","","targets/28.png","indirect","0","21"
"","html-keyboard-response","212","677561","0.0-12.0-0.6","nxdly59zjf","one_one","1","direct_first","1","lf04as02","1","21","1","1","3","1","","0","1","0","null","","","<div style=""font-size:60px;"">+</div>","null","","","","","","","","","",""
"","html-keyboard-response","213","677652","0.0-12.0-1.6","nxdly59zjf","one_one","1","direct_first","1","lf04as02","1","21","1","1","3","1","","0","1","0","null","","","<img src = 'category3/GS2.png' width = '100%;'>","null","","","","","","","","","",""
"","html-keyboard-response","214","677903","0.0-12.0-2.6","nxdly59zjf","one_one","1","direct_first","1","lf04as02","1","21","1","1","3","1","","0","1","0","null","","","<img src = 'targets/1.png' width = '100%;'>","null","","","","","","","","","",""
"","html-keyboard-response","215","678603","0.0-12.0-3.6","nxdly59zjf","one_one","1","direct_first","1","lf04as02","1","21","1","1","3","1","","0","1","0","699","","","<img src = 'targets/mask.png' width = '100%;'>","75","pos","GS","GSnew","3","category3/GS2.png","","targets/1.png","indirect","1","22"
"","html-keyboard-response","216","680104","0.0-12.0-0.7","nxdly59zjf","one_one","1","direct_first","1","lf04as02","1","21","1","1","3","1","","0","1","0","null","","","<div style=""font-size:60px;"">+</div>","null","","","","","","","","","",""
"","html-keyboard-response","217","680195","0.0-12.0-1.7","nxdly59zjf","one_one","1","direct_first","1","lf04as02","1","21","1","1","3","1","","0","1","0","null","","","<img src = 'category3/wang.png' width = '100%;'>","null","","","","","","","","","",""
"","html-keyboard-response","218","680446","0.0-12.0-2.7","nxdly59zjf","one_one","1","direct_first","1","lf04as02","1","21","1","1","3","1","","0","1","0","null","","","<img src = 'targets/9.png' width = '100%;'>","null","","","","","","","","","",""
"","html-keyboard-response","219","681125","0.0-12.0-3.7","nxdly59zjf","one_one","1","direct_first","1","lf04as02","1","21","1","1","3","1","","0","1","0","678","","","<img src = 'targets/mask.png' width = '100%;'>","75","pos","GS","abstract","3","category3/wang.png","","targets/9.png","indirect","1","23"
"","html-keyboard-response","220","682627","0.0-12.0-0.8","nxdly59zjf","one_one","1","direct_first","1","lf04as02","1","21","1","1","3","1","","0","1","0","null","","","<div style=""font-size:60px;"">+</div>","null","","","","","","","","","",""
"","html-keyboard-response","221","682718","0.0-12.0-1.8","nxdly59zjf","one_one","1","direct_first","1","lf04as02","1","21","1","1","3","1","","0","1","0","null","","","<img src = 'category4/GS1.png' width = '100%;'>","null","","","","","","","","","",""
"","html-keyboard-response","222","682972","0.0-12.0-2.8","nxdly59zjf","one_one","1","direct_first","1","lf04as02","1","21","1","1","3","1","","0","1","0","null","","","<img src = 'targets/33.png' width = '100%;'>","null","","","","","","","","","",""
"","html-keyboard-response","223","683964","0.0-12.0-3.8","nxdly59zjf","one_one","1","direct_first","1","lf04as02","1","21","1","1","3","1","","0","1","0","991","","","<img src = 'targets/mask.png' width = '100%;'>","75","neg","GS","GSnew","4","category4/GS1.png","","targets/33.png","indirect","1","24"
"","html-keyboard-response","224","685465","0.0-12.0-0.9","nxdly59zjf","one_one","1","direct_first","1","lf04as02","1","21","1","1","3","1","","0","1","0","null","","","<div style=""font-size:60px;"">+</div>","null","","","","","","","","","",""
"","html-keyboard-response","225","685556","0.0-12.0-1.9","nxdly59zjf","one_one","1","direct_first","1","lf04as02","1","21","1","1","3","1","","0","1","0","null","","","<img src = 'category3/GS1.png' width = '100%;'>","null","","","","","","","","","",""
"","html-keyboard-response","226","685808","0.0-12.0-2.9","nxdly59zjf","one_one","1","direct_first","1","lf04as02","1","21","1","1","3","1","","0","1","0","null","","","<img src = 'targets/43.png' width = '100%;'>","null","","","","","","","","","",""
"","html-keyboard-response","227","686660","0.0-12.0-3.9","nxdly59zjf","one_one","1","direct_first","1","lf04as02","1","21","1","1","3","1","","0","1","0","851","","","<img src = 'targets/mask.png' width = '100%;'>","68","pos","GS","GSnew","3","category3/GS1.png","","targets/43.png","indirect","0","25"
"","html-keyboard-response","228","688161","0.0-12.0-0.10","nxdly59zjf","one_one","1","direct_first","1","lf04as02","1","21","1","1","3","1","","0","1","0","null","","","<div style=""font-size:60px;"">+</div>","null","","","","","","","","","",""
"","html-keyboard-response","229","688253","0.0-12.0-1.10","nxdly59zjf","one_one","1","direct_first","1","lf04as02","1","21","1","1","3","1","","0","1","0","null","","","<img src = 'category3/GS3.png' width = '100%;'>","null","","","","","","","","","",""
"","html-keyboard-response","230","688505","0.0-12.0-2.10","nxdly59zjf","one_one","1","direct_first","1","lf04as02","1","21","1","1","3","1","","0","1","0","null","","","<img src = 'targets/7.png' width = '100%;'>","null","","","","","","","","","",""
"","html-keyboard-response","231","689315","0.0-12.0-3.10","nxdly59zjf","one_one","1","direct_first","1","lf04as02","1","21","1","1","3","1","","0","1","0","808","","","<img src = 'targets/mask.png' width = '100%;'>","68","pos","GS","GSnew","3","category3/GS3.png","","targets/7.png","indirect","0","26"
"","html-keyboard-response","232","690818","0.0-12.0-0.11","nxdly59zjf","one_one","1","direct_first","1","lf04as02","1","21","1","1","3","1","","0","1","0","null","","","<div style=""font-size:60px;"">+</div>","null","","","","","","","","","",""
"","html-keyboard-response","233","690909","0.0-12.0-1.11","nxdly59zjf","one_one","1","direct_first","1","lf04as02","1","21","1","1","3","1","","0","1","0","null","","","<img src = 'category2/GS3.png' width = '100%;'>","null","","","","","","","","","",""
"","html-keyboard-response","234","691160","0.0-12.0-2.11","nxdly59zjf","one_one","1","direct_first","1","lf04as02","1","21","1","1","3","1","","0","1","0","null","","","<img src = 'targets/10.png' width = '100%;'>","null","","","","","","","","","",""
"","html-keyboard-response","235","692511","0.0-12.0-3.11","nxdly59zjf","one_one","1","direct_first","1","lf04as02","1","21","1","1","3","1","","0","1","0","1349","","","<img src = 'targets/mask.png' width = '100%;'>","75","neg","GS","GSnew","2","category2/GS3.png","","targets/10.png","indirect","1","27"
"","html-keyboard-response","236","694013","0.0-12.0-0.12","nxdly59zjf","one_one","1","direct_first","1","lf04as02","1","21","1","1","3","1","","0","1","0","null","","","<div style=""font-size:60px;"">+</div>","null","","","","","","","","","",""
"","html-keyboard-response","237","694103","0.0-12.0-1.12","nxdly59zjf","one_one","1","direct_first","1","lf04as02","1","21","1","1","3","1","","0","1","0","null","","","<img src = 'category1/ma.png' width = '100%;'>","null","","","","","","","","","",""
"","html-keyboard-response","238","694355","0.0-12.0-2.12","nxdly59zjf","one_one","1","direct_first","1","lf04as02","1","21","1","1","3","1","","0","1","0","null","","","<img src = 'targets/36.png' width = '100%;'>","null","","","","","","","","","",""
"","html-keyboard-response","239","694966","0.0-12.0-3.12","nxdly59zjf","one_one","1","direct_first","1","lf04as02","1","21","1","1","3","1","","0","1","0","611","","","<img src = 'targets/mask.png' width = '100%;'>","68","pos","GS","abstract","1","category1/ma.png","","targets/36.png","indirect","0","28"
"","html-keyboard-response","240","696467","0.0-12.0-0.13","nxdly59zjf","one_one","1","direct_first","1","lf04as02","1","21","1","1","3","1","","0","1","0","null","","","<div style=""font-size:60px;"">+</div>","null","","","","","","","","","",""
"","html-keyboard-response","241","696558","0.0-12.0-1.13","nxdly59zjf","one_one","1","direct_first","1","lf04as02","1","21","1","1","3","1","","0","1","0","null","","","<img src = 'category1/GS1.png' width = '100%;'>","null","","","","","","","","","",""
"","html-keyboard-response","242","696809","0.0-12.0-2.13","nxdly59zjf","one_one","1","direct_first","1","lf04as02","1","21","1","1","3","1","","0","1","0","null","","","<img src = 'targets/18.png' width = '100%;'>","null","","","","","","","","","",""
"","html-keyboard-response","243","697471","0.0-12.0-3.13","nxdly59zjf","one_one","1","direct_first","1","lf04as02","1","21","1","1","3","1","","0","1","0","660","","","<img src = 'targets/mask.png' width = '100%;'>","68","pos","GS","GSnew","1","category1/GS1.png","","targets/18.png","indirect","0","29"
"","html-keyboard-response","244","698972","0.0-12.0-0.14","nxdly59zjf","one_one","1","direct_first","1","lf04as02","1","21","1","1","3","1","","0","1","0","null","","","<div style=""font-size:60px;"">+</div>","null","","","","","","","","","",""
"","html-keyboard-response","245","699063","0.0-12.0-1.14","nxdly59zjf","one_one","1","direct_first","1","lf04as02","1","21","1","1","3","1","","0","1","0","null","","","<img src = 'category4/GS3.png' width = '100%;'>","null","","","","","","","","","",""
"","html-keyboard-response","246","699315","0.0-12.0-2.14","nxdly59zjf","one_one","1","direct_first","1","lf04as02","1","21","1","1","3","1","","0","1","0","null","","","<img src = 'targets/46.png' width = '100%;'>","null","","","","","","","","","",""
"","html-keyboard-response","247","702401","0.0-12.0-3.14","nxdly59zjf","one_one","1","direct_first","1","lf04as02","1","21","1","1","3","1","","0","1","0","3085","","","<img src = 'targets/mask.png' width = '100%;'>","68","neg","GS","GSnew","4","category4/GS3.png","","targets/46.png","indirect","0","30"
"","html-keyboard-response","248","703902","0.0-12.0-0.15","nxdly59zjf","one_one","1","direct_first","1","lf04as02","1","21","1","1","3","1","","0","1","0","null","","","<div style=""font-size:60px;"">+</div>","null","","","","","","","","","",""
"","html-keyboard-response","249","703994","0.0-12.0-1.15","nxdly59zjf","one_one","1","direct_first","1","lf04as02","1","21","1","1","3","1","","0","1","0","null","","","<img src = 'category4/lin.png' width = '100%;'>","null","","","","","","","","","",""
"","html-keyboard-response","250","704246","0.0-12.0-2.15","nxdly59zjf","one_one","1","direct_first","1","lf04as02","1","21","1","1","3","1","","0","1","0","null","","","<img src = 'targets/13.png' width = '100%;'>","null","","","","","","","","","",""
"","html-keyboard-response","251","705218","0.0-12.0-3.15","nxdly59zjf","one_one","1","direct_first","1","lf04as02","1","21","1","1","3","1","","0","1","0","971","","","<img src = 'targets/mask.png' width = '100%;'>","75","neg","GS","abstract","4","category4/lin.png","","targets/13.png","indirect","1","31"
"","survey-html-form","252","712494","0.0-13.0","nxdly59zjf","one_one","1","direct_first","1","lf04as02","1","21","1","1","3","1","","0","1","0","6757","","{}","","","","","","","","","","","",""
"","image-slider-response","253","722798","0.0-14.0-0.0","nxdly59zjf","one_one","1","direct_first","1","lf04as02","1","21","1","1","3","1","","0","1","0","9301","","","","","pos","All","all","3","category3/wang_all.png","13","","all","",""
"","image-slider-response","254","725782","0.0-14.0-0.1","nxdly59zjf","one_one","1","direct_first","1","lf04as02","1","21","1","1","3","1","","0","1","0","2982","","","","","pos","All","all","1","category1/ma_all.png","-42","","all","",""
"","image-slider-response","255","728645","0.0-14.0-0.2","nxdly59zjf","one_one","1","direct_first","1","lf04as02","1","21","1","1","3","1","","0","1","0","2864","","","","","neg","All","all","4","category4/lin_all.png","-19","","all","",""
"","image-slider-response","256","732277","0.0-14.0-0.3","nxdly59zjf","one_one","1","direct_first","1","lf04as02","1","21","1","1","3","1","","0","1","0","3631","","","","","neg","All","all","2","category2/men_all.png","-43","","all","",""
"","survey-text","257","736502","0.0-15.0","nxdly59zjf","one_one","1","direct_first","1","lf04as02","1","21","1","1","3","1","","0","1","0","4184","","{""comment"":""""}","","","","","","","","","","","",""
"","survey-html-form","258","749614","0.0-16.0","nxdly59zjf","one_one","1","direct_first","1","lf04as02","1","21","1","1","3","1","","0","1","0","13111","","{""hinschauen"":""0"",""ablenkung"":""1"",""gewissenhaft"":""0""}","","","","","","","","","","","",""
