"success","trial_type","trial_index","time_elapsed","internal_node_id","subject","condition","condition_code","measure","measure_code","codeword","gender","age","education","chinese","fach","handedness","comment","hinschauen","ablenkung","gewissenhaft","rt","url","responses","stimulus","key_press","val","type","type_specific","category","cs_selected","target","indirect","task","nr_pres","response"
"true","fullscreen","0","7408","0.0-0.0","sxg0rmlh1f","one_one","1","indirect_first","0","NX08US14","0","23","1","1","3","1","","0","1","0","","","","","","","","","","","","","","",""
"","external-html","1","29301","0.0-1.0","sxg0rmlh1f","one_one","1","indirect_first","0","NX08US14","0","23","1","1","3","1","","0","1","0","21742.2300002072","text/information.html","","","","","","","","","","","","",""
"","external-html","2","49460","0.0-2.0","sxg0rmlh1f","one_one","1","indirect_first","0","NX08US14","0","23","1","1","3","1","","0","1","0","19961.38500003144","text/consent.html","","","","","","","","","","","","",""
"","survey-html-form","3","99248","0.0-3.0","sxg0rmlh1f","one_one","1","indirect_first","0","NX08US14","0","23","1","1","3","1","","0","1","0","49783.99499994703","","{""codeword_enter"":""NX08US14""}","","","","","","","","","","","",""
"","survey-html-form","4","120605","0.0-4.0","sxg0rmlh1f","one_one","1","indirect_first","0","NX08US14","0","23","1","1","3","1","","0","1","0","21350.20500002429","","{""age"":""23"",""education"":""1"",""subject"":""3"",""gender"":""0"",""handedness"":""1"",""chinese"":""1""}","","","","","","","","","","","",""
"","survey-html-form","5","129160","0.0-5.0","sxg0rmlh1f","one_one","1","indirect_first","0","NX08US14","0","23","1","1","3","1","","0","1","0","8553.73500008136","","{}","","","","","","","","","","","",""
"","html-keyboard-response","6","133182","0.0-6.0-0.0-0.0","sxg0rmlh1f","one_one","1","indirect_first","0","NX08US14","0","23","1","1","3","1","","0","1","0","null","","","<div class = 'row'><div class = 'column'><img src = 'uspos/4625.bmp' width = '100%;'></div><div class = 'column'><img src = 'category1/CS3.png' width = '70%;'></div></div>","null","pos","CS","CS","1","category1/CS3.png","","","","",""
"","html-keyboard-response","7","135700","0.0-6.0-0.0-0.1","sxg0rmlh1f","one_one","1","indirect_first","0","NX08US14","0","23","1","1","3","1","","0","1","0","null","","","<div class = 'row'><div class = 'column'><img src = 'category4/CS2.png' width = '70%;'></div><div class = 'column'><img src = 'uspos/2530.bmp' width = '100%;'></div></div>","null","pos","CS","CS","4","category4/CS2.png","","","","",""
"","html-keyboard-response","8","138211","0.0-6.0-0.0-0.2","sxg0rmlh1f","one_one","1","indirect_first","0","NX08US14","0","23","1","1","3","1","","0","1","0","null","","","<div class = 'row'><div class = 'column'><img src = 'usneg/3300.bmp' width = '100%;'></div><div class = 'column'><img src = 'category3/CS6.png' width = '70%;'></div></div>","null","neg","CS","CS","3","category3/CS6.png","","","","",""
"","html-keyboard-response","9","140729","0.0-6.0-0.0-0.3","sxg0rmlh1f","one_one","1","indirect_first","0","NX08US14","0","23","1","1","3","1","","0","1","0","null","","","<div class = 'row'><div class = 'column'><img src = 'uspos/4625.bmp' width = '100%;'></div><div class = 'column'><img src = 'category1/CS3.png' width = '70%;'></div></div>","null","pos","CS","CS","1","category1/CS3.png","","","","",""
"","html-keyboard-response","10","143244","0.0-6.0-0.0-0.4","sxg0rmlh1f","one_one","1","indirect_first","0","NX08US14","0","23","1","1","3","1","","0","1","0","null","","","<div class = 'row'><div class = 'column'><img src = 'uspos/2530.bmp' width = '100%;'></div><div class = 'column'><img src = 'category4/CS2.png' width = '70%;'></div></div>","null","pos","CS","CS","4","category4/CS2.png","","","","",""
"","html-keyboard-response","11","145770","0.0-6.0-0.0-0.5","sxg0rmlh1f","one_one","1","indirect_first","0","NX08US14","0","23","1","1","3","1","","0","1","0","null","","","<div class = 'row'><div class = 'column'><img src = 'usneg/6838.bmp' width = '100%;'></div><div class = 'column'><img src = 'category2/CS6.png' width = '70%;'></div></div>","null","neg","CS","CS","2","category2/CS6.png","","","","",""
"","html-keyboard-response","12","148297","0.0-6.0-0.0-0.6","sxg0rmlh1f","one_one","1","indirect_first","0","NX08US14","0","23","1","1","3","1","","0","1","0","null","","","<div class = 'row'><div class = 'column'><img src = 'category3/CS6.png' width = '70%;'></div><div class = 'column'><img src = 'usneg/3300.bmp' width = '100%;'></div></div>","null","neg","CS","CS","3","category3/CS6.png","","","","",""
"","html-keyboard-response","13","150822","0.0-6.0-0.0-0.7","sxg0rmlh1f","one_one","1","indirect_first","0","NX08US14","0","23","1","1","3","1","","0","1","0","null","","","<div class = 'row'><div class = 'column'><img src = 'category4/CS2.png' width = '70%;'></div><div class = 'column'><img src = 'uspos/2530.bmp' width = '100%;'></div></div>","null","pos","CS","CS","4","category4/CS2.png","","","","",""
"","html-keyboard-response","14","153343","0.0-6.0-0.0-0.8","sxg0rmlh1f","one_one","1","indirect_first","0","NX08US14","0","23","1","1","3","1","","0","1","0","null","","","<div class = 'row'><div class = 'column'><img src = 'category2/CS6.png' width = '70%;'></div><div class = 'column'><img src = 'usneg/6838.bmp' width = '100%;'></div></div>","null","neg","CS","CS","2","category2/CS6.png","","","","",""
"","html-keyboard-response","15","155861","0.0-6.0-0.0-0.9","sxg0rmlh1f","one_one","1","indirect_first","0","NX08US14","0","23","1","1","3","1","","0","1","0","null","","","<div class = 'row'><div class = 'column'><img src = 'category4/CS2.png' width = '70%;'></div><div class = 'column'><img src = 'uspos/2530.bmp' width = '100%;'></div></div>","null","pos","CS","CS","4","category4/CS2.png","","","","",""
"","html-keyboard-response","16","158380","0.0-6.0-0.0-0.10","sxg0rmlh1f","one_one","1","indirect_first","0","NX08US14","0","23","1","1","3","1","","0","1","0","null","","","<div class = 'row'><div class = 'column'><img src = 'category1/CS3.png' width = '70%;'></div><div class = 'column'><img src = 'uspos/4625.bmp' width = '100%;'></div></div>","null","pos","CS","CS","1","category1/CS3.png","","","","",""
"","html-keyboard-response","17","160905","0.0-6.0-0.0-0.11","sxg0rmlh1f","one_one","1","indirect_first","0","NX08US14","0","23","1","1","3","1","","0","1","0","null","","","<div class = 'row'><div class = 'column'><img src = 'usneg/6838.bmp' width = '100%;'></div><div class = 'column'><img src = 'category2/CS6.png' width = '70%;'></div></div>","null","neg","CS","CS","2","category2/CS6.png","","","","",""
"","html-keyboard-response","18","163429","0.0-6.0-0.0-0.12","sxg0rmlh1f","one_one","1","indirect_first","0","NX08US14","0","23","1","1","3","1","","0","1","0","null","","","<div class = 'row'><div class = 'column'><img src = 'category3/CS6.png' width = '70%;'></div><div class = 'column'><img src = 'usneg/3300.bmp' width = '100%;'></div></div>","null","neg","CS","CS","3","category3/CS6.png","","","","",""
"","html-keyboard-response","19","165944","0.0-6.0-0.0-0.13","sxg0rmlh1f","one_one","1","indirect_first","0","NX08US14","0","23","1","1","3","1","","0","1","0","null","","","<div class = 'row'><div class = 'column'><img src = 'category4/CS2.png' width = '70%;'></div><div class = 'column'><img src = 'uspos/2530.bmp' width = '100%;'></div></div>","null","pos","CS","CS","4","category4/CS2.png","","","","",""
"","html-keyboard-response","20","168459","0.0-6.0-0.0-0.14","sxg0rmlh1f","one_one","1","indirect_first","0","NX08US14","0","23","1","1","3","1","","0","1","0","null","","","<div class = 'row'><div class = 'column'><img src = 'category1/CS3.png' width = '70%;'></div><div class = 'column'><img src = 'uspos/4625.bmp' width = '100%;'></div></div>","null","pos","CS","CS","1","category1/CS3.png","","","","",""
"","html-keyboard-response","21","170978","0.0-6.0-0.0-0.15","sxg0rmlh1f","one_one","1","indirect_first","0","NX08US14","0","23","1","1","3","1","","0","1","0","null","","","<div class = 'row'><div class = 'column'><img src = 'usneg/6838.bmp' width = '100%;'></div><div class = 'column'><img src = 'category2/CS6.png' width = '70%;'></div></div>","null","neg","CS","CS","2","category2/CS6.png","","","","",""
"","html-keyboard-response","22","173489","0.0-6.0-0.0-0.16","sxg0rmlh1f","one_one","1","indirect_first","0","NX08US14","0","23","1","1","3","1","","0","1","0","null","","","<div class = 'row'><div class = 'column'><img src = 'category3/CS6.png' width = '70%;'></div><div class = 'column'><img src = 'usneg/3300.bmp' width = '100%;'></div></div>","null","neg","CS","CS","3","category3/CS6.png","","","","",""
"","html-keyboard-response","23","176004","0.0-6.0-0.0-0.17","sxg0rmlh1f","one_one","1","indirect_first","0","NX08US14","0","23","1","1","3","1","","0","1","0","null","","","<div class = 'row'><div class = 'column'><img src = 'uspos/4625.bmp' width = '100%;'></div><div class = 'column'><img src = 'category1/CS3.png' width = '70%;'></div></div>","null","pos","CS","CS","1","category1/CS3.png","","","","",""
"","html-keyboard-response","24","178528","0.0-6.0-0.0-0.18","sxg0rmlh1f","one_one","1","indirect_first","0","NX08US14","0","23","1","1","3","1","","0","1","0","null","","","<div class = 'row'><div class = 'column'><img src = 'category3/CS6.png' width = '70%;'></div><div class = 'column'><img src = 'usneg/3300.bmp' width = '100%;'></div></div>","null","neg","CS","CS","3","category3/CS6.png","","","","",""
"","html-keyboard-response","25","181052","0.0-6.0-0.0-0.19","sxg0rmlh1f","one_one","1","indirect_first","0","NX08US14","0","23","1","1","3","1","","0","1","0","null","","","<div class = 'row'><div class = 'column'><img src = 'usneg/6838.bmp' width = '100%;'></div><div class = 'column'><img src = 'category2/CS6.png' width = '70%;'></div></div>","null","neg","CS","CS","2","category2/CS6.png","","","","",""
"","survey-html-form","26","184596","0.0-6.0-1.0","sxg0rmlh1f","one_one","1","indirect_first","0","NX08US14","0","23","1","1","3","1","","0","1","0","3031.9099999032915","","{}","","","","","","","","","","","",""
"","html-keyboard-response","27","188629","0.0-6.0-2.0-0.0","sxg0rmlh1f","one_one","1","indirect_first","0","NX08US14","0","23","1","1","3","1","","0","1","0","null","","","<div class = 'row'><div class = 'column'><img src = 'uspos/2530.bmp' width = '100%;'></div><div class = 'column'><img src = 'category4/CS2.png' width = '70%;'></div></div>","null","pos","CS","CS","4","category4/CS2.png","","","","",""
"","html-keyboard-response","28","191142","0.0-6.0-2.0-0.1","sxg0rmlh1f","one_one","1","indirect_first","0","NX08US14","0","23","1","1","3","1","","0","1","0","null","","","<div class = 'row'><div class = 'column'><img src = 'category2/CS6.png' width = '70%;'></div><div class = 'column'><img src = 'usneg/6838.bmp' width = '100%;'></div></div>","null","neg","CS","CS","2","category2/CS6.png","","","","",""
"","html-keyboard-response","29","193665","0.0-6.0-2.0-0.2","sxg0rmlh1f","one_one","1","indirect_first","0","NX08US14","0","23","1","1","3","1","","0","1","0","null","","","<div class = 'row'><div class = 'column'><img src = 'usneg/3300.bmp' width = '100%;'></div><div class = 'column'><img src = 'category3/CS6.png' width = '70%;'></div></div>","null","neg","CS","CS","3","category3/CS6.png","","","","",""
"","html-keyboard-response","30","196177","0.0-6.0-2.0-0.3","sxg0rmlh1f","one_one","1","indirect_first","0","NX08US14","0","23","1","1","3","1","","0","1","0","null","","","<div class = 'row'><div class = 'column'><img src = 'uspos/4625.bmp' width = '100%;'></div><div class = 'column'><img src = 'category1/CS3.png' width = '70%;'></div></div>","null","pos","CS","CS","1","category1/CS3.png","","","","",""
"","html-keyboard-response","31","198688","0.0-6.0-2.0-0.4","sxg0rmlh1f","one_one","1","indirect_first","0","NX08US14","0","23","1","1","3","1","","0","1","0","null","","","<div class = 'row'><div class = 'column'><img src = 'category4/CS2.png' width = '70%;'></div><div class = 'column'><img src = 'uspos/2530.bmp' width = '100%;'></div></div>","null","pos","CS","CS","4","category4/CS2.png","","","","",""
"","html-keyboard-response","32","201221","0.0-6.0-2.0-0.5","sxg0rmlh1f","one_one","1","indirect_first","0","NX08US14","0","23","1","1","3","1","","0","1","0","null","","","<div class = 'row'><div class = 'column'><img src = 'category2/CS6.png' width = '70%;'></div><div class = 'column'><img src = 'usneg/6838.bmp' width = '100%;'></div></div>","null","neg","CS","CS","2","category2/CS6.png","","","","",""
"","html-keyboard-response","33","203734","0.0-6.0-2.0-0.6","sxg0rmlh1f","one_one","1","indirect_first","0","NX08US14","0","23","1","1","3","1","","0","1","0","null","","","<div class = 'row'><div class = 'column'><img src = 'usneg/3300.bmp' width = '100%;'></div><div class = 'column'><img src = 'category3/CS6.png' width = '70%;'></div></div>","null","neg","CS","CS","3","category3/CS6.png","","","","",""
"","html-keyboard-response","34","206249","0.0-6.0-2.0-0.7","sxg0rmlh1f","one_one","1","indirect_first","0","NX08US14","0","23","1","1","3","1","","0","1","0","null","","","<div class = 'row'><div class = 'column'><img src = 'category2/CS6.png' width = '70%;'></div><div class = 'column'><img src = 'usneg/6838.bmp' width = '100%;'></div></div>","null","neg","CS","CS","2","category2/CS6.png","","","","",""
"","html-keyboard-response","35","208764","0.0-6.0-2.0-0.8","sxg0rmlh1f","one_one","1","indirect_first","0","NX08US14","0","23","1","1","3","1","","0","1","0","null","","","<div class = 'row'><div class = 'column'><img src = 'uspos/4625.bmp' width = '100%;'></div><div class = 'column'><img src = 'category1/CS3.png' width = '70%;'></div></div>","null","pos","CS","CS","1","category1/CS3.png","","","","",""
"","html-keyboard-response","36","211290","0.0-6.0-2.0-0.9","sxg0rmlh1f","one_one","1","indirect_first","0","NX08US14","0","23","1","1","3","1","","0","1","0","null","","","<div class = 'row'><div class = 'column'><img src = 'usneg/3300.bmp' width = '100%;'></div><div class = 'column'><img src = 'category3/CS6.png' width = '70%;'></div></div>","null","neg","CS","CS","3","category3/CS6.png","","","","",""
"","html-keyboard-response","37","213814","0.0-6.0-2.0-0.10","sxg0rmlh1f","one_one","1","indirect_first","0","NX08US14","0","23","1","1","3","1","","0","1","0","null","","","<div class = 'row'><div class = 'column'><img src = 'category1/CS3.png' width = '70%;'></div><div class = 'column'><img src = 'uspos/4625.bmp' width = '100%;'></div></div>","null","pos","CS","CS","1","category1/CS3.png","","","","",""
"","html-keyboard-response","38","216333","0.0-6.0-2.0-0.11","sxg0rmlh1f","one_one","1","indirect_first","0","NX08US14","0","23","1","1","3","1","","0","1","0","null","","","<div class = 'row'><div class = 'column'><img src = 'category3/CS6.png' width = '70%;'></div><div class = 'column'><img src = 'usneg/3300.bmp' width = '100%;'></div></div>","null","neg","CS","CS","3","category3/CS6.png","","","","",""
"","html-keyboard-response","39","218848","0.0-6.0-2.0-0.12","sxg0rmlh1f","one_one","1","indirect_first","0","NX08US14","0","23","1","1","3","1","","0","1","0","null","","","<div class = 'row'><div class = 'column'><img src = 'uspos/2530.bmp' width = '100%;'></div><div class = 'column'><img src = 'category4/CS2.png' width = '70%;'></div></div>","null","pos","CS","CS","4","category4/CS2.png","","","","",""
"","html-keyboard-response","40","221353","0.0-6.0-2.0-0.13","sxg0rmlh1f","one_one","1","indirect_first","0","NX08US14","0","23","1","1","3","1","","0","1","0","null","","","<div class = 'row'><div class = 'column'><img src = 'usneg/6838.bmp' width = '100%;'></div><div class = 'column'><img src = 'category2/CS6.png' width = '70%;'></div></div>","null","neg","CS","CS","2","category2/CS6.png","","","","",""
"","html-keyboard-response","41","223869","0.0-6.0-2.0-0.14","sxg0rmlh1f","one_one","1","indirect_first","0","NX08US14","0","23","1","1","3","1","","0","1","0","null","","","<div class = 'row'><div class = 'column'><img src = 'category4/CS2.png' width = '70%;'></div><div class = 'column'><img src = 'uspos/2530.bmp' width = '100%;'></div></div>","null","pos","CS","CS","4","category4/CS2.png","","","","",""
"","html-keyboard-response","42","226381","0.0-6.0-2.0-0.15","sxg0rmlh1f","one_one","1","indirect_first","0","NX08US14","0","23","1","1","3","1","","0","1","0","null","","","<div class = 'row'><div class = 'column'><img src = 'uspos/4625.bmp' width = '100%;'></div><div class = 'column'><img src = 'category1/CS3.png' width = '70%;'></div></div>","null","pos","CS","CS","1","category1/CS3.png","","","","",""
"","html-keyboard-response","43","228899","0.0-6.0-2.0-0.16","sxg0rmlh1f","one_one","1","indirect_first","0","NX08US14","0","23","1","1","3","1","","0","1","0","null","","","<div class = 'row'><div class = 'column'><img src = 'usneg/3300.bmp' width = '100%;'></div><div class = 'column'><img src = 'category3/CS6.png' width = '70%;'></div></div>","null","neg","CS","CS","3","category3/CS6.png","","","","",""
"","html-keyboard-response","44","231425","0.0-6.0-2.0-0.17","sxg0rmlh1f","one_one","1","indirect_first","0","NX08US14","0","23","1","1","3","1","","0","1","0","null","","","<div class = 'row'><div class = 'column'><img src = 'uspos/4625.bmp' width = '100%;'></div><div class = 'column'><img src = 'category1/CS3.png' width = '70%;'></div></div>","null","pos","CS","CS","1","category1/CS3.png","","","","",""
"","html-keyboard-response","45","233940","0.0-6.0-2.0-0.18","sxg0rmlh1f","one_one","1","indirect_first","0","NX08US14","0","23","1","1","3","1","","0","1","0","null","","","<div class = 'row'><div class = 'column'><img src = 'uspos/2530.bmp' width = '100%;'></div><div class = 'column'><img src = 'category4/CS2.png' width = '70%;'></div></div>","null","pos","CS","CS","4","category4/CS2.png","","","","",""
"","html-keyboard-response","46","236457","0.0-6.0-2.0-0.19","sxg0rmlh1f","one_one","1","indirect_first","0","NX08US14","0","23","1","1","3","1","","0","1","0","null","","","<div class = 'row'><div class = 'column'><img src = 'category2/CS6.png' width = '70%;'></div><div class = 'column'><img src = 'usneg/6838.bmp' width = '100%;'></div></div>","null","neg","CS","CS","2","category2/CS6.png","","","","",""
"","survey-html-form","47","238503","0.0-6.0-3.0","sxg0rmlh1f","one_one","1","indirect_first","0","NX08US14","0","23","1","1","3","1","","0","1","0","1528.7699999753386","","{}","","","","","","","","","","","",""
"","html-keyboard-response","48","242523","0.0-6.0-4.0-0.0","sxg0rmlh1f","one_one","1","indirect_first","0","NX08US14","0","23","1","1","3","1","","0","1","0","null","","","<div class = 'row'><div class = 'column'><img src = 'uspos/4625.bmp' width = '100%;'></div><div class = 'column'><img src = 'category1/CS3.png' width = '70%;'></div></div>","null","pos","CS","CS","1","category1/CS3.png","","","","",""
"","html-keyboard-response","49","245037","0.0-6.0-4.0-0.1","sxg0rmlh1f","one_one","1","indirect_first","0","NX08US14","0","23","1","1","3","1","","0","1","0","null","","","<div class = 'row'><div class = 'column'><img src = 'category2/CS6.png' width = '70%;'></div><div class = 'column'><img src = 'usneg/6838.bmp' width = '100%;'></div></div>","null","neg","CS","CS","2","category2/CS6.png","","","","",""
"","html-keyboard-response","50","247541","0.0-6.0-4.0-0.2","sxg0rmlh1f","one_one","1","indirect_first","0","NX08US14","0","23","1","1","3","1","","0","1","0","null","","","<div class = 'row'><div class = 'column'><img src = 'category1/CS3.png' width = '70%;'></div><div class = 'column'><img src = 'uspos/4625.bmp' width = '100%;'></div></div>","null","pos","CS","CS","1","category1/CS3.png","","","","",""
"","html-keyboard-response","51","250055","0.0-6.0-4.0-0.3","sxg0rmlh1f","one_one","1","indirect_first","0","NX08US14","0","23","1","1","3","1","","0","1","0","null","","","<div class = 'row'><div class = 'column'><img src = 'usneg/6838.bmp' width = '100%;'></div><div class = 'column'><img src = 'category2/CS6.png' width = '70%;'></div></div>","null","neg","CS","CS","2","category2/CS6.png","","","","",""
"","html-keyboard-response","52","252567","0.0-6.0-4.0-0.4","sxg0rmlh1f","one_one","1","indirect_first","0","NX08US14","0","23","1","1","3","1","","0","1","0","null","","","<div class = 'row'><div class = 'column'><img src = 'category4/CS2.png' width = '70%;'></div><div class = 'column'><img src = 'uspos/2530.bmp' width = '100%;'></div></div>","null","pos","CS","CS","4","category4/CS2.png","","","","",""
"","html-keyboard-response","53","255102","0.0-6.0-4.0-0.5","sxg0rmlh1f","one_one","1","indirect_first","0","NX08US14","0","23","1","1","3","1","","0","1","0","null","","","<div class = 'row'><div class = 'column'><img src = 'category3/CS6.png' width = '70%;'></div><div class = 'column'><img src = 'usneg/3300.bmp' width = '100%;'></div></div>","null","neg","CS","CS","3","category3/CS6.png","","","","",""
"","html-keyboard-response","54","257626","0.0-6.0-4.0-0.6","sxg0rmlh1f","one_one","1","indirect_first","0","NX08US14","0","23","1","1","3","1","","0","1","0","null","","","<div class = 'row'><div class = 'column'><img src = 'uspos/4625.bmp' width = '100%;'></div><div class = 'column'><img src = 'category1/CS3.png' width = '70%;'></div></div>","null","pos","CS","CS","1","category1/CS3.png","","","","",""
"","html-keyboard-response","55","260137","0.0-6.0-4.0-0.7","sxg0rmlh1f","one_one","1","indirect_first","0","NX08US14","0","23","1","1","3","1","","0","1","0","null","","","<div class = 'row'><div class = 'column'><img src = 'category4/CS2.png' width = '70%;'></div><div class = 'column'><img src = 'uspos/2530.bmp' width = '100%;'></div></div>","null","pos","CS","CS","4","category4/CS2.png","","","","",""
"","html-keyboard-response","56","262653","0.0-6.0-4.0-0.8","sxg0rmlh1f","one_one","1","indirect_first","0","NX08US14","0","23","1","1","3","1","","0","1","0","null","","","<div class = 'row'><div class = 'column'><img src = 'usneg/3300.bmp' width = '100%;'></div><div class = 'column'><img src = 'category3/CS6.png' width = '70%;'></div></div>","null","neg","CS","CS","3","category3/CS6.png","","","","",""
"","html-keyboard-response","57","265179","0.0-6.0-4.0-0.9","sxg0rmlh1f","one_one","1","indirect_first","0","NX08US14","0","23","1","1","3","1","","0","1","0","null","","","<div class = 'row'><div class = 'column'><img src = 'uspos/4625.bmp' width = '100%;'></div><div class = 'column'><img src = 'category1/CS3.png' width = '70%;'></div></div>","null","pos","CS","CS","1","category1/CS3.png","","","","",""
"","html-keyboard-response","58","267702","0.0-6.0-4.0-0.10","sxg0rmlh1f","one_one","1","indirect_first","0","NX08US14","0","23","1","1","3","1","","0","1","0","null","","","<div class = 'row'><div class = 'column'><img src = 'category4/CS2.png' width = '70%;'></div><div class = 'column'><img src = 'uspos/2530.bmp' width = '100%;'></div></div>","null","pos","CS","CS","4","category4/CS2.png","","","","",""
"","html-keyboard-response","59","270222","0.0-6.0-4.0-0.11","sxg0rmlh1f","one_one","1","indirect_first","0","NX08US14","0","23","1","1","3","1","","0","1","0","null","","","<div class = 'row'><div class = 'column'><img src = 'category2/CS6.png' width = '70%;'></div><div class = 'column'><img src = 'usneg/6838.bmp' width = '100%;'></div></div>","null","neg","CS","CS","2","category2/CS6.png","","","","",""
"","html-keyboard-response","60","272744","0.0-6.0-4.0-0.12","sxg0rmlh1f","one_one","1","indirect_first","0","NX08US14","0","23","1","1","3","1","","0","1","0","null","","","<div class = 'row'><div class = 'column'><img src = 'category1/CS3.png' width = '70%;'></div><div class = 'column'><img src = 'uspos/4625.bmp' width = '100%;'></div></div>","null","pos","CS","CS","1","category1/CS3.png","","","","",""
"","html-keyboard-response","61","275257","0.0-6.0-4.0-0.13","sxg0rmlh1f","one_one","1","indirect_first","0","NX08US14","0","23","1","1","3","1","","0","1","0","null","","","<div class = 'row'><div class = 'column'><img src = 'usneg/3300.bmp' width = '100%;'></div><div class = 'column'><img src = 'category3/CS6.png' width = '70%;'></div></div>","null","neg","CS","CS","3","category3/CS6.png","","","","",""
"","html-keyboard-response","62","277765","0.0-6.0-4.0-0.14","sxg0rmlh1f","one_one","1","indirect_first","0","NX08US14","0","23","1","1","3","1","","0","1","0","null","","","<div class = 'row'><div class = 'column'><img src = 'usneg/6838.bmp' width = '100%;'></div><div class = 'column'><img src = 'category2/CS6.png' width = '70%;'></div></div>","null","neg","CS","CS","2","category2/CS6.png","","","","",""
"","html-keyboard-response","63","280285","0.0-6.0-4.0-0.15","sxg0rmlh1f","one_one","1","indirect_first","0","NX08US14","0","23","1","1","3","1","","0","1","0","null","","","<div class = 'row'><div class = 'column'><img src = 'category4/CS2.png' width = '70%;'></div><div class = 'column'><img src = 'uspos/2530.bmp' width = '100%;'></div></div>","null","pos","CS","CS","4","category4/CS2.png","","","","",""
"","html-keyboard-response","64","282807","0.0-6.0-4.0-0.16","sxg0rmlh1f","one_one","1","indirect_first","0","NX08US14","0","23","1","1","3","1","","0","1","0","null","","","<div class = 'row'><div class = 'column'><img src = 'usneg/3300.bmp' width = '100%;'></div><div class = 'column'><img src = 'category3/CS6.png' width = '70%;'></div></div>","null","neg","CS","CS","3","category3/CS6.png","","","","",""
"","html-keyboard-response","65","285324","0.0-6.0-4.0-0.17","sxg0rmlh1f","one_one","1","indirect_first","0","NX08US14","0","23","1","1","3","1","","0","1","0","null","","","<div class = 'row'><div class = 'column'><img src = 'category4/CS2.png' width = '70%;'></div><div class = 'column'><img src = 'uspos/2530.bmp' width = '100%;'></div></div>","null","pos","CS","CS","4","category4/CS2.png","","","","",""
"","html-keyboard-response","66","287839","0.0-6.0-4.0-0.18","sxg0rmlh1f","one_one","1","indirect_first","0","NX08US14","0","23","1","1","3","1","","0","1","0","null","","","<div class = 'row'><div class = 'column'><img src = 'usneg/6838.bmp' width = '100%;'></div><div class = 'column'><img src = 'category2/CS6.png' width = '70%;'></div></div>","null","neg","CS","CS","2","category2/CS6.png","","","","",""
"","html-keyboard-response","67","290351","0.0-6.0-4.0-0.19","sxg0rmlh1f","one_one","1","indirect_first","0","NX08US14","0","23","1","1","3","1","","0","1","0","null","","","<div class = 'row'><div class = 'column'><img src = 'category3/CS6.png' width = '70%;'></div><div class = 'column'><img src = 'usneg/3300.bmp' width = '100%;'></div></div>","null","neg","CS","CS","3","category3/CS6.png","","","","",""
"","survey-html-form","68","292953","0.0-6.0-5.0","sxg0rmlh1f","one_one","1","indirect_first","0","NX08US14","0","23","1","1","3","1","","0","1","0","2100.1049999613315","","{}","","","","","","","","","","","",""
"","html-keyboard-response","69","296974","0.0-6.0-6.0-0.0","sxg0rmlh1f","one_one","1","indirect_first","0","NX08US14","0","23","1","1","3","1","","0","1","0","null","","","<div class = 'row'><div class = 'column'><img src = 'category2/CS6.png' width = '70%;'></div><div class = 'column'><img src = 'usneg/6838.bmp' width = '100%;'></div></div>","null","neg","CS","CS","2","category2/CS6.png","","","","",""
"","html-keyboard-response","70","299488","0.0-6.0-6.0-0.1","sxg0rmlh1f","one_one","1","indirect_first","0","NX08US14","0","23","1","1","3","1","","0","1","0","null","","","<div class = 'row'><div class = 'column'><img src = 'category1/CS3.png' width = '70%;'></div><div class = 'column'><img src = 'uspos/4625.bmp' width = '100%;'></div></div>","null","pos","CS","CS","1","category1/CS3.png","","","","",""
"","html-keyboard-response","71","302005","0.0-6.0-6.0-0.2","sxg0rmlh1f","one_one","1","indirect_first","0","NX08US14","0","23","1","1","3","1","","0","1","0","null","","","<div class = 'row'><div class = 'column'><img src = 'category2/CS6.png' width = '70%;'></div><div class = 'column'><img src = 'usneg/6838.bmp' width = '100%;'></div></div>","null","neg","CS","CS","2","category2/CS6.png","","","","",""
"","html-keyboard-response","72","304524","0.0-6.0-6.0-0.3","sxg0rmlh1f","one_one","1","indirect_first","0","NX08US14","0","23","1","1","3","1","","0","1","0","null","","","<div class = 'row'><div class = 'column'><img src = 'uspos/4625.bmp' width = '100%;'></div><div class = 'column'><img src = 'category1/CS3.png' width = '70%;'></div></div>","null","pos","CS","CS","1","category1/CS3.png","","","","",""
"","html-keyboard-response","73","307050","0.0-6.0-6.0-0.4","sxg0rmlh1f","one_one","1","indirect_first","0","NX08US14","0","23","1","1","3","1","","0","1","0","null","","","<div class = 'row'><div class = 'column'><img src = 'category4/CS2.png' width = '70%;'></div><div class = 'column'><img src = 'uspos/2530.bmp' width = '100%;'></div></div>","null","pos","CS","CS","4","category4/CS2.png","","","","",""
"","html-keyboard-response","74","309575","0.0-6.0-6.0-0.5","sxg0rmlh1f","one_one","1","indirect_first","0","NX08US14","0","23","1","1","3","1","","0","1","0","null","","","<div class = 'row'><div class = 'column'><img src = 'uspos/4625.bmp' width = '100%;'></div><div class = 'column'><img src = 'category1/CS3.png' width = '70%;'></div></div>","null","pos","CS","CS","1","category1/CS3.png","","","","",""
"","html-keyboard-response","75","312089","0.0-6.0-6.0-0.6","sxg0rmlh1f","one_one","1","indirect_first","0","NX08US14","0","23","1","1","3","1","","0","1","0","null","","","<div class = 'row'><div class = 'column'><img src = 'usneg/6838.bmp' width = '100%;'></div><div class = 'column'><img src = 'category2/CS6.png' width = '70%;'></div></div>","null","neg","CS","CS","2","category2/CS6.png","","","","",""
"","html-keyboard-response","76","314616","0.0-6.0-6.0-0.7","sxg0rmlh1f","one_one","1","indirect_first","0","NX08US14","0","23","1","1","3","1","","0","1","0","null","","","<div class = 'row'><div class = 'column'><img src = 'category3/CS6.png' width = '70%;'></div><div class = 'column'><img src = 'usneg/3300.bmp' width = '100%;'></div></div>","null","neg","CS","CS","3","category3/CS6.png","","","","",""
"","html-keyboard-response","77","317142","0.0-6.0-6.0-0.8","sxg0rmlh1f","one_one","1","indirect_first","0","NX08US14","0","23","1","1","3","1","","0","1","0","null","","","<div class = 'row'><div class = 'column'><img src = 'category2/CS6.png' width = '70%;'></div><div class = 'column'><img src = 'usneg/6838.bmp' width = '100%;'></div></div>","null","neg","CS","CS","2","category2/CS6.png","","","","",""
"","html-keyboard-response","78","319667","0.0-6.0-6.0-0.9","sxg0rmlh1f","one_one","1","indirect_first","0","NX08US14","0","23","1","1","3","1","","0","1","0","null","","","<div class = 'row'><div class = 'column'><img src = 'category1/CS3.png' width = '70%;'></div><div class = 'column'><img src = 'uspos/4625.bmp' width = '100%;'></div></div>","null","pos","CS","CS","1","category1/CS3.png","","","","",""
"","html-keyboard-response","79","322186","0.0-6.0-6.0-0.10","sxg0rmlh1f","one_one","1","indirect_first","0","NX08US14","0","23","1","1","3","1","","0","1","0","null","","","<div class = 'row'><div class = 'column'><img src = 'uspos/2530.bmp' width = '100%;'></div><div class = 'column'><img src = 'category4/CS2.png' width = '70%;'></div></div>","null","pos","CS","CS","4","category4/CS2.png","","","","",""
"","html-keyboard-response","80","324702","0.0-6.0-6.0-0.11","sxg0rmlh1f","one_one","1","indirect_first","0","NX08US14","0","23","1","1","3","1","","0","1","0","null","","","<div class = 'row'><div class = 'column'><img src = 'usneg/3300.bmp' width = '100%;'></div><div class = 'column'><img src = 'category3/CS6.png' width = '70%;'></div></div>","null","neg","CS","CS","3","category3/CS6.png","","","","",""
"","html-keyboard-response","81","327216","0.0-6.0-6.0-0.12","sxg0rmlh1f","one_one","1","indirect_first","0","NX08US14","0","23","1","1","3","1","","0","1","0","null","","","<div class = 'row'><div class = 'column'><img src = 'category4/CS2.png' width = '70%;'></div><div class = 'column'><img src = 'uspos/2530.bmp' width = '100%;'></div></div>","null","pos","CS","CS","4","category4/CS2.png","","","","",""
"","html-keyboard-response","82","329735","0.0-6.0-6.0-0.13","sxg0rmlh1f","one_one","1","indirect_first","0","NX08US14","0","23","1","1","3","1","","0","1","0","null","","","<div class = 'row'><div class = 'column'><img src = 'category3/CS6.png' width = '70%;'></div><div class = 'column'><img src = 'usneg/3300.bmp' width = '100%;'></div></div>","null","neg","CS","CS","3","category3/CS6.png","","","","",""
"","html-keyboard-response","83","332258","0.0-6.0-6.0-0.14","sxg0rmlh1f","one_one","1","indirect_first","0","NX08US14","0","23","1","1","3","1","","0","1","0","null","","","<div class = 'row'><div class = 'column'><img src = 'usneg/6838.bmp' width = '100%;'></div><div class = 'column'><img src = 'category2/CS6.png' width = '70%;'></div></div>","null","neg","CS","CS","2","category2/CS6.png","","","","",""
"","html-keyboard-response","84","334780","0.0-6.0-6.0-0.15","sxg0rmlh1f","one_one","1","indirect_first","0","NX08US14","0","23","1","1","3","1","","0","1","0","null","","","<div class = 'row'><div class = 'column'><img src = 'usneg/3300.bmp' width = '100%;'></div><div class = 'column'><img src = 'category3/CS6.png' width = '70%;'></div></div>","null","neg","CS","CS","3","category3/CS6.png","","","","",""
"","html-keyboard-response","85","337300","0.0-6.0-6.0-0.16","sxg0rmlh1f","one_one","1","indirect_first","0","NX08US14","0","23","1","1","3","1","","0","1","0","null","","","<div class = 'row'><div class = 'column'><img src = 'uspos/2530.bmp' width = '100%;'></div><div class = 'column'><img src = 'category4/CS2.png' width = '70%;'></div></div>","null","pos","CS","CS","4","category4/CS2.png","","","","",""
"","html-keyboard-response","86","339820","0.0-6.0-6.0-0.17","sxg0rmlh1f","one_one","1","indirect_first","0","NX08US14","0","23","1","1","3","1","","0","1","0","null","","","<div class = 'row'><div class = 'column'><img src = 'usneg/3300.bmp' width = '100%;'></div><div class = 'column'><img src = 'category3/CS6.png' width = '70%;'></div></div>","null","neg","CS","CS","3","category3/CS6.png","","","","",""
"","html-keyboard-response","87","342347","0.0-6.0-6.0-0.18","sxg0rmlh1f","one_one","1","indirect_first","0","NX08US14","0","23","1","1","3","1","","0","1","0","null","","","<div class = 'row'><div class = 'column'><img src = 'uspos/4625.bmp' width = '100%;'></div><div class = 'column'><img src = 'category1/CS3.png' width = '70%;'></div></div>","null","pos","CS","CS","1","category1/CS3.png","","","","",""
"","html-keyboard-response","88","344868","0.0-6.0-6.0-0.19","sxg0rmlh1f","one_one","1","indirect_first","0","NX08US14","0","23","1","1","3","1","","0","1","0","null","","","<div class = 'row'><div class = 'column'><img src = 'uspos/2530.bmp' width = '100%;'></div><div class = 'column'><img src = 'category4/CS2.png' width = '70%;'></div></div>","null","pos","CS","CS","4","category4/CS2.png","","","","",""
"","html-keyboard-response","89","389066","0.0-7.0","sxg0rmlh1f","one_one","1","indirect_first","0","NX08US14","0","23","1","1","3","1","","0","1","0","43692.12000002153","","","<p>Sie sehen nun die chinesischen Zeichen nur ganz kurz. Danach sehen Sie die jeweilige Aussprache der Zeichen als Silbe auf dem Bildschrim. Ihre Aufgabe ist es, für jede Silbe anzugeben, ob diese etwas angenehmes, oder unangenehmes bedeuten könnte. Verlassen Sie sich hier vor allem auf Ihre Intuition.<br><br>Die Zeichen werden nur zur Orientierung dargestellt, beachten Sie sie deshalb nicht. Konzentrieren Sie sich vor allem auf die Silben. <br>Reagieren Sie mit folgenden zwei Tasten: <br><br><b>'D' </b> wenn die Silbe etwas <b>unangenehmes</b> bedeuten könnte. <br><b>'K'</b> wenn die Silbe etwas <b>angenehmes</b> bedeuten könnte. <br><br>Bitte legen Sie nun den Zeigefinger der linken Hand auf die Taste 'D' und den Zeigefinger der rechten Hand auf die Taste 'K'. <br>Reagieren Sie auf jede Silbe so schnell wie möglich. Uns interessiert Ihre spontane Reaktion. <br> <br> <br>Drücken Sie 'D' oder 'K', um die nächste Aufgabe zu starten. </p>","75","","","","","","","","","",""
"","html-keyboard-response","90","392098","0.0-8.0-0.0","sxg0rmlh1f","one_one","1","indirect_first","0","NX08US14","0","23","1","1","3","1","","0","1","0","null","","","<div style=""font-size:60px;"">+</div>","null","","","","","","","","","",""
"","html-keyboard-response","91","392196","0.0-8.0-1.0","sxg0rmlh1f","one_one","1","indirect_first","0","NX08US14","0","23","1","1","3","1","","0","1","0","null","","","<img src = 'category2/CS2.png' width = '100%;'>","null","","","","","","","","","",""
"","html-keyboard-response","92","392463","0.0-8.0-2.0","sxg0rmlh1f","one_one","1","indirect_first","0","NX08US14","0","23","1","1","3","1","","0","1","0","null","","","<img src = 'targets/47.png' width = '100%;'>","null","","","","","","","","","",""
"","html-keyboard-response","93","395247","0.0-8.0-3.0","sxg0rmlh1f","one_one","1","indirect_first","0","NX08US14","0","23","1","1","3","1","","0","1","0","2782.179999863729","","","<img src = 'targets/mask.png' width = '100%;'>","75","neg","GS","GSold","2","category2/CS2.png","targets/47.png","1","indirect","0",""
"","html-keyboard-response","94","396761","0.0-8.0-0.1","sxg0rmlh1f","one_one","1","indirect_first","0","NX08US14","0","23","1","1","3","1","","0","1","0","null","","","<div style=""font-size:60px;"">+</div>","null","","","","","","","","","",""
"","html-keyboard-response","95","396853","0.0-8.0-1.1","sxg0rmlh1f","one_one","1","indirect_first","0","NX08US14","0","23","1","1","3","1","","0","1","0","null","","","<img src = 'category3/CS9.png' width = '100%;'>","null","","","","","","","","","",""
"","html-keyboard-response","96","397125","0.0-8.0-2.1","sxg0rmlh1f","one_one","1","indirect_first","0","NX08US14","0","23","1","1","3","1","","0","1","0","null","","","<img src = 'targets/24.png' width = '100%;'>","null","","","","","","","","","",""
"","html-keyboard-response","97","400735","0.0-8.0-3.1","sxg0rmlh1f","one_one","1","indirect_first","0","NX08US14","0","23","1","1","3","1","","0","1","0","3607.6849999371916","","","<img src = 'targets/mask.png' width = '100%;'>","75","neg","GS","GSold","3","category3/CS9.png","targets/24.png","1","indirect","1",""
"","html-keyboard-response","98","402249","0.0-8.0-0.2","sxg0rmlh1f","one_one","1","indirect_first","0","NX08US14","0","23","1","1","3","1","","0","1","0","null","","","<div style=""font-size:60px;"">+</div>","null","","","","","","","","","",""
"","html-keyboard-response","99","402347","0.0-8.0-1.2","sxg0rmlh1f","one_one","1","indirect_first","0","NX08US14","0","23","1","1","3","1","","0","1","0","null","","","<img src = 'category3/CS7.png' width = '100%;'>","null","","","","","","","","","",""
"","html-keyboard-response","100","402622","0.0-8.0-2.2","sxg0rmlh1f","one_one","1","indirect_first","0","NX08US14","0","23","1","1","3","1","","0","1","0","null","","","<img src = 'targets/12.png' width = '100%;'>","null","","","","","","","","","",""
"","html-keyboard-response","101","406586","0.0-8.0-3.2","sxg0rmlh1f","one_one","1","indirect_first","0","NX08US14","0","23","1","1","3","1","","0","1","0","3961.2299997825176","","","<img src = 'targets/mask.png' width = '100%;'>","75","neg","GS","GSold","3","category3/CS7.png","targets/12.png","1","indirect","2",""
"","html-keyboard-response","102","408099","0.0-8.0-0.3","sxg0rmlh1f","one_one","1","indirect_first","0","NX08US14","0","23","1","1","3","1","","0","1","0","null","","","<div style=""font-size:60px;"">+</div>","null","","","","","","","","","",""
"","html-keyboard-response","103","408196","0.0-8.0-1.3","sxg0rmlh1f","one_one","1","indirect_first","0","NX08US14","0","23","1","1","3","1","","0","1","0","null","","","<img src = 'category2/CS9.png' width = '100%;'>","null","","","","","","","","","",""
"","html-keyboard-response","104","408464","0.0-8.0-2.3","sxg0rmlh1f","one_one","1","indirect_first","0","NX08US14","0","23","1","1","3","1","","0","1","0","null","","","<img src = 'targets/43.png' width = '100%;'>","null","","","","","","","","","",""
"","html-keyboard-response","105","409979","0.0-8.0-3.3","sxg0rmlh1f","one_one","1","indirect_first","0","NX08US14","0","23","1","1","3","1","","0","1","0","1512.1450000442564","","","<img src = 'targets/mask.png' width = '100%;'>","68","neg","GS","GSold","2","category2/CS9.png","targets/43.png","0","indirect","3",""
"","html-keyboard-response","106","411498","0.0-8.0-0.4","sxg0rmlh1f","one_one","1","indirect_first","0","NX08US14","0","23","1","1","3","1","","0","1","0","null","","","<div style=""font-size:60px;"">+</div>","null","","","","","","","","","",""
"","html-keyboard-response","107","411597","0.0-8.0-1.4","sxg0rmlh1f","one_one","1","indirect_first","0","NX08US14","0","23","1","1","3","1","","0","1","0","null","","","<img src = 'category4/CS5.png' width = '100%;'>","null","","","","","","","","","",""
"","html-keyboard-response","108","411864","0.0-8.0-2.4","sxg0rmlh1f","one_one","1","indirect_first","0","NX08US14","0","23","1","1","3","1","","0","1","0","null","","","<img src = 'targets/4.png' width = '100%;'>","null","","","","","","","","","",""
"","html-keyboard-response","109","413487","0.0-8.0-3.4","sxg0rmlh1f","one_one","1","indirect_first","0","NX08US14","0","23","1","1","3","1","","0","1","0","1620.4399999696761","","","<img src = 'targets/mask.png' width = '100%;'>","68","pos","GS","GSold","4","category4/CS5.png","targets/4.png","0","indirect","4",""
"","html-keyboard-response","110","415014","0.0-8.0-0.5","sxg0rmlh1f","one_one","1","indirect_first","0","NX08US14","0","23","1","1","3","1","","0","1","0","null","","","<div style=""font-size:60px;"">+</div>","null","","","","","","","","","",""
"","html-keyboard-response","111","415105","0.0-8.0-1.5","sxg0rmlh1f","one_one","1","indirect_first","0","NX08US14","0","23","1","1","3","1","","0","1","0","null","","","<img src = 'category2/CS6.png' width = '100%;'>","null","","","","","","","","","",""
"","html-keyboard-response","112","415374","0.0-8.0-2.5","sxg0rmlh1f","one_one","1","indirect_first","0","NX08US14","0","23","1","1","3","1","","0","1","0","null","","","<img src = 'targets/35.png' width = '100%;'>","null","","","","","","","","","",""
"","html-keyboard-response","113","416323","0.0-8.0-3.5","sxg0rmlh1f","one_one","1","indirect_first","0","NX08US14","0","23","1","1","3","1","","0","1","0","947.3649999126792","","","<img src = 'targets/mask.png' width = '100%;'>","75","neg","CS","CS","2","category2/CS6.png","targets/35.png","1","indirect","5",""
"","html-keyboard-response","114","417853","0.0-8.0-0.6","sxg0rmlh1f","one_one","1","indirect_first","0","NX08US14","0","23","1","1","3","1","","0","1","0","null","","","<div style=""font-size:60px;"">+</div>","null","","","","","","","","","",""
"","html-keyboard-response","115","417952","0.0-8.0-1.6","sxg0rmlh1f","one_one","1","indirect_first","0","NX08US14","0","23","1","1","3","1","","0","1","0","null","","","<img src = 'category3/CS6.png' width = '100%;'>","null","","","","","","","","","",""
"","html-keyboard-response","116","418212","0.0-8.0-2.6","sxg0rmlh1f","one_one","1","indirect_first","0","NX08US14","0","23","1","1","3","1","","0","1","0","null","","","<img src = 'targets/40.png' width = '100%;'>","null","","","","","","","","","",""
"","html-keyboard-response","117","419617","0.0-8.0-3.6","sxg0rmlh1f","one_one","1","indirect_first","0","NX08US14","0","23","1","1","3","1","","0","1","0","1402.574999956414","","","<img src = 'targets/mask.png' width = '100%;'>","68","neg","CS","CS","3","category3/CS6.png","targets/40.png","0","indirect","6",""
"","html-keyboard-response","118","421123","0.0-8.0-0.7","sxg0rmlh1f","one_one","1","indirect_first","0","NX08US14","0","23","1","1","3","1","","0","1","0","null","","","<div style=""font-size:60px;"">+</div>","null","","","","","","","","","",""
"","html-keyboard-response","119","421224","0.0-8.0-1.7","sxg0rmlh1f","one_one","1","indirect_first","0","NX08US14","0","23","1","1","3","1","","0","1","0","null","","","<img src = 'category4/CS2.png' width = '100%;'>","null","","","","","","","","","",""
"","html-keyboard-response","120","421498","0.0-8.0-2.7","sxg0rmlh1f","one_one","1","indirect_first","0","NX08US14","0","23","1","1","3","1","","0","1","0","null","","","<img src = 'targets/11.png' width = '100%;'>","null","","","","","","","","","",""
"","html-keyboard-response","121","423386","0.0-8.0-3.7","sxg0rmlh1f","one_one","1","indirect_first","0","NX08US14","0","23","1","1","3","1","","0","1","0","1886.034999974072","","","<img src = 'targets/mask.png' width = '100%;'>","75","pos","CS","CS","4","category4/CS2.png","targets/11.png","1","indirect","7",""
"","html-keyboard-response","122","424905","0.0-8.0-0.8","sxg0rmlh1f","one_one","1","indirect_first","0","NX08US14","0","23","1","1","3","1","","0","1","0","null","","","<div style=""font-size:60px;"">+</div>","null","","","","","","","","","",""
"","html-keyboard-response","123","425011","0.0-8.0-1.8","sxg0rmlh1f","one_one","1","indirect_first","0","NX08US14","0","23","1","1","3","1","","0","1","0","null","","","<img src = 'category1/CS1.png' width = '100%;'>","null","","","","","","","","","",""
"","html-keyboard-response","124","425281","0.0-8.0-2.8","sxg0rmlh1f","one_one","1","indirect_first","0","NX08US14","0","23","1","1","3","1","","0","1","0","null","","","<img src = 'targets/17.png' width = '100%;'>","null","","","","","","","","","",""
"","html-keyboard-response","125","426595","0.0-8.0-3.8","sxg0rmlh1f","one_one","1","indirect_first","0","NX08US14","0","23","1","1","3","1","","0","1","0","1311.479999916628","","","<img src = 'targets/mask.png' width = '100%;'>","75","pos","GS","GSold","1","category1/CS1.png","targets/17.png","1","indirect","8",""
"","html-keyboard-response","126","428116","0.0-8.0-0.9","sxg0rmlh1f","one_one","1","indirect_first","0","NX08US14","0","23","1","1","3","1","","0","1","0","null","","","<div style=""font-size:60px;"">+</div>","null","","","","","","","","","",""
"","html-keyboard-response","127","428215","0.0-8.0-1.9","sxg0rmlh1f","one_one","1","indirect_first","0","NX08US14","0","23","1","1","3","1","","0","1","0","null","","","<img src = 'category1/CS3.png' width = '100%;'>","null","","","","","","","","","",""
"","html-keyboard-response","128","428472","0.0-8.0-2.9","sxg0rmlh1f","one_one","1","indirect_first","0","NX08US14","0","23","1","1","3","1","","0","1","0","null","","","<img src = 'targets/9.png' width = '100%;'>","null","","","","","","","","","",""
"","html-keyboard-response","129","429387","0.0-8.0-3.9","sxg0rmlh1f","one_one","1","indirect_first","0","NX08US14","0","23","1","1","3","1","","0","1","0","913.3500000461936","","","<img src = 'targets/mask.png' width = '100%;'>","75","pos","CS","CS","1","category1/CS3.png","targets/9.png","1","indirect","9",""
"","html-keyboard-response","130","430896","0.0-8.0-0.10","sxg0rmlh1f","one_one","1","indirect_first","0","NX08US14","0","23","1","1","3","1","","0","1","0","null","","","<div style=""font-size:60px;"">+</div>","null","","","","","","","","","",""
"","html-keyboard-response","131","430998","0.0-8.0-1.10","sxg0rmlh1f","one_one","1","indirect_first","0","NX08US14","0","23","1","1","3","1","","0","1","0","null","","","<img src = 'category1/CS8.png' width = '100%;'>","null","","","","","","","","","",""
"","html-keyboard-response","132","431264","0.0-8.0-2.10","sxg0rmlh1f","one_one","1","indirect_first","0","NX08US14","0","23","1","1","3","1","","0","1","0","null","","","<img src = 'targets/18.png' width = '100%;'>","null","","","","","","","","","",""
"","html-keyboard-response","133","434936","0.0-8.0-3.10","sxg0rmlh1f","one_one","1","indirect_first","0","NX08US14","0","23","1","1","3","1","","0","1","0","3669.35500013642","","","<img src = 'targets/mask.png' width = '100%;'>","75","pos","GS","GSold","1","category1/CS8.png","targets/18.png","1","indirect","10",""
"","html-keyboard-response","134","436452","0.0-8.0-0.11","sxg0rmlh1f","one_one","1","indirect_first","0","NX08US14","0","23","1","1","3","1","","0","1","0","null","","","<div style=""font-size:60px;"">+</div>","null","","","","","","","","","",""
"","html-keyboard-response","135","436549","0.0-8.0-1.11","sxg0rmlh1f","one_one","1","indirect_first","0","NX08US14","0","23","1","1","3","1","","0","1","0","null","","","<img src = 'category3/CS2.png' width = '100%;'>","null","","","","","","","","","",""
"","html-keyboard-response","136","436815","0.0-8.0-2.11","sxg0rmlh1f","one_one","1","indirect_first","0","NX08US14","0","23","1","1","3","1","","0","1","0","null","","","<img src = 'targets/3.png' width = '100%;'>","null","","","","","","","","","",""
"","html-keyboard-response","137","438020","0.0-8.0-3.11","sxg0rmlh1f","one_one","1","indirect_first","0","NX08US14","0","23","1","1","3","1","","0","1","0","1203.084999928251","","","<img src = 'targets/mask.png' width = '100%;'>","68","neg","GS","GSold","3","category3/CS2.png","targets/3.png","0","indirect","11",""
"","html-keyboard-response","138","439549","0.0-8.0-0.12","sxg0rmlh1f","one_one","1","indirect_first","0","NX08US14","0","23","1","1","3","1","","0","1","0","null","","","<div style=""font-size:60px;"">+</div>","null","","","","","","","","","",""
"","html-keyboard-response","139","439644","0.0-8.0-1.12","sxg0rmlh1f","one_one","1","indirect_first","0","NX08US14","0","23","1","1","3","1","","0","1","0","null","","","<img src = 'category4/CS7.png' width = '100%;'>","null","","","","","","","","","",""
"","html-keyboard-response","140","439924","0.0-8.0-2.12","sxg0rmlh1f","one_one","1","indirect_first","0","NX08US14","0","23","1","1","3","1","","0","1","0","null","","","<img src = 'targets/26.png' width = '100%;'>","null","","","","","","","","","",""
"","html-keyboard-response","141","441029","0.0-8.0-3.12","sxg0rmlh1f","one_one","1","indirect_first","0","NX08US14","0","23","1","1","3","1","","0","1","0","1102.7699999976903","","","<img src = 'targets/mask.png' width = '100%;'>","68","pos","GS","GSold","4","category4/CS7.png","targets/26.png","0","indirect","12",""
"","html-keyboard-response","142","442544","0.0-8.0-0.13","sxg0rmlh1f","one_one","1","indirect_first","0","NX08US14","0","23","1","1","3","1","","0","1","0","null","","","<div style=""font-size:60px;"">+</div>","null","","","","","","","","","",""
"","html-keyboard-response","143","442642","0.0-8.0-1.13","sxg0rmlh1f","one_one","1","indirect_first","0","NX08US14","0","23","1","1","3","1","","0","1","0","null","","","<img src = 'category4/CS3.png' width = '100%;'>","null","","","","","","","","","",""
"","html-keyboard-response","144","442899","0.0-8.0-2.13","sxg0rmlh1f","one_one","1","indirect_first","0","NX08US14","0","23","1","1","3","1","","0","1","0","null","","","<img src = 'targets/7.png' width = '100%;'>","null","","","","","","","","","",""
"","html-keyboard-response","145","444412","0.0-8.0-3.13","sxg0rmlh1f","one_one","1","indirect_first","0","NX08US14","0","23","1","1","3","1","","0","1","0","1511.6949998773634","","","<img src = 'targets/mask.png' width = '100%;'>","75","pos","GS","GSold","4","category4/CS3.png","targets/7.png","1","indirect","13",""
"","html-keyboard-response","146","445922","0.0-8.0-0.14","sxg0rmlh1f","one_one","1","indirect_first","0","NX08US14","0","23","1","1","3","1","","0","1","0","null","","","<div style=""font-size:60px;"">+</div>","null","","","","","","","","","",""
"","html-keyboard-response","147","446025","0.0-8.0-1.14","sxg0rmlh1f","one_one","1","indirect_first","0","NX08US14","0","23","1","1","3","1","","0","1","0","null","","","<img src = 'category1/CS10.png' width = '100%;'>","null","","","","","","","","","",""
"","html-keyboard-response","148","446283","0.0-8.0-2.14","sxg0rmlh1f","one_one","1","indirect_first","0","NX08US14","0","23","1","1","3","1","","0","1","0","null","","","<img src = 'targets/36.png' width = '100%;'>","null","","","","","","","","","",""
"","html-keyboard-response","149","448033","0.0-8.0-3.14","sxg0rmlh1f","one_one","1","indirect_first","0","NX08US14","0","23","1","1","3","1","","0","1","0","1747.4800001364201","","","<img src = 'targets/mask.png' width = '100%;'>","75","pos","GS","GSold","1","category1/CS10.png","targets/36.png","1","indirect","14",""
"","html-keyboard-response","150","449560","0.0-8.0-0.15","sxg0rmlh1f","one_one","1","indirect_first","0","NX08US14","0","23","1","1","3","1","","0","1","0","null","","","<div style=""font-size:60px;"">+</div>","null","","","","","","","","","",""
"","html-keyboard-response","151","449652","0.0-8.0-1.15","sxg0rmlh1f","one_one","1","indirect_first","0","NX08US14","0","23","1","1","3","1","","0","1","0","null","","","<img src = 'category2/CS7.png' width = '100%;'>","null","","","","","","","","","",""
"","html-keyboard-response","152","449913","0.0-8.0-2.15","sxg0rmlh1f","one_one","1","indirect_first","0","NX08US14","0","23","1","1","3","1","","0","1","0","null","","","<img src = 'targets/16.png' width = '100%;'>","null","","","","","","","","","",""
"","html-keyboard-response","153","450900","0.0-8.0-3.15","sxg0rmlh1f","one_one","1","indirect_first","0","NX08US14","0","23","1","1","3","1","","0","1","0","983.8250000029802","","","<img src = 'targets/mask.png' width = '100%;'>","75","neg","GS","GSold","2","category2/CS7.png","targets/16.png","1","indirect","15",""
"","survey-html-form","154","454092","0.0-9.0","sxg0rmlh1f","one_one","1","indirect_first","0","NX08US14","0","23","1","1","3","1","","0","1","0","2675.2899999264628","","{}","","","","","","","","","","","",""
"","html-keyboard-response","155","457125","0.0-10.0-0.0","sxg0rmlh1f","one_one","1","indirect_first","0","NX08US14","0","23","1","1","3","1","","0","1","0","null","","","<div style=""font-size:60px;"">+</div>","null","","","","","","","","","",""
"","html-keyboard-response","156","457218","0.0-10.0-1.0","sxg0rmlh1f","one_one","1","indirect_first","0","NX08US14","0","23","1","1","3","1","","0","1","0","null","","","<img src = 'category1/GS1.png' width = '100%;'>","null","","","","","","","","","",""
"","html-keyboard-response","157","457475","0.0-10.0-2.0","sxg0rmlh1f","one_one","1","indirect_first","0","NX08US14","0","23","1","1","3","1","","0","1","0","null","","","<img src = 'targets/48.png' width = '100%;'>","null","","","","","","","","","",""
"","html-keyboard-response","158","458485","0.0-10.0-3.0","sxg0rmlh1f","one_one","1","indirect_first","0","NX08US14","0","23","1","1","3","1","","0","1","0","1008.4049999713898","","","<img src = 'targets/mask.png' width = '100%;'>","68","pos","GS","GSnew","1","category1/GS1.png","targets/48.png","0","indirect","16",""
"","html-keyboard-response","159","460008","0.0-10.0-0.1","sxg0rmlh1f","one_one","1","indirect_first","0","NX08US14","0","23","1","1","3","1","","0","1","0","null","","","<div style=""font-size:60px;"">+</div>","null","","","","","","","","","",""
"","html-keyboard-response","160","460112","0.0-10.0-1.1","sxg0rmlh1f","one_one","1","indirect_first","0","NX08US14","0","23","1","1","3","1","","0","1","0","null","","","<img src = 'category2/GS2.png' width = '100%;'>","null","","","","","","","","","",""
"","html-keyboard-response","161","460388","0.0-10.0-2.1","sxg0rmlh1f","one_one","1","indirect_first","0","NX08US14","0","23","1","1","3","1","","0","1","0","null","","","<img src = 'targets/32.png' width = '100%;'>","null","","","","","","","","","",""
"","html-keyboard-response","162","462564","0.0-10.0-3.1","sxg0rmlh1f","one_one","1","indirect_first","0","NX08US14","0","23","1","1","3","1","","0","1","0","2173.9400001242757","","","<img src = 'targets/mask.png' width = '100%;'>","75","neg","GS","GSnew","2","category2/GS2.png","targets/32.png","1","indirect","17",""
"","html-keyboard-response","163","464077","0.0-10.0-0.2","sxg0rmlh1f","one_one","1","indirect_first","0","NX08US14","0","23","1","1","3","1","","0","1","0","null","","","<div style=""font-size:60px;"">+</div>","null","","","","","","","","","",""
"","html-keyboard-response","164","464171","0.0-10.0-1.2","sxg0rmlh1f","one_one","1","indirect_first","0","NX08US14","0","23","1","1","3","1","","0","1","0","null","","","<img src = 'category4/lin.png' width = '100%;'>","null","","","","","","","","","",""
"","html-keyboard-response","165","464437","0.0-10.0-2.2","sxg0rmlh1f","one_one","1","indirect_first","0","NX08US14","0","23","1","1","3","1","","0","1","0","null","","","<img src = 'targets/28.png' width = '100%;'>","null","","","","","","","","","",""
"","html-keyboard-response","166","465235","0.0-10.0-3.2","sxg0rmlh1f","one_one","1","indirect_first","0","NX08US14","0","23","1","1","3","1","","0","1","0","795.7000001333654","","","<img src = 'targets/mask.png' width = '100%;'>","75","pos","GS","abstract","4","category4/lin.png","targets/28.png","1","indirect","18",""
"","html-keyboard-response","167","466748","0.0-10.0-0.3","sxg0rmlh1f","one_one","1","indirect_first","0","NX08US14","0","23","1","1","3","1","","0","1","0","null","","","<div style=""font-size:60px;"">+</div>","null","","","","","","","","","",""
"","html-keyboard-response","168","466854","0.0-10.0-1.3","sxg0rmlh1f","one_one","1","indirect_first","0","NX08US14","0","23","1","1","3","1","","0","1","0","null","","","<img src = 'category1/GS2.png' width = '100%;'>","null","","","","","","","","","",""
"","html-keyboard-response","169","467128","0.0-10.0-2.3","sxg0rmlh1f","one_one","1","indirect_first","0","NX08US14","0","23","1","1","3","1","","0","1","0","null","","","<img src = 'targets/2.png' width = '100%;'>","null","","","","","","","","","",""
"","html-keyboard-response","170","469492","0.0-10.0-3.3","sxg0rmlh1f","one_one","1","indirect_first","0","NX08US14","0","23","1","1","3","1","","0","1","0","2361.4999998826534","","","<img src = 'targets/mask.png' width = '100%;'>","68","pos","GS","GSnew","1","category1/GS2.png","targets/2.png","0","indirect","19",""
"","html-keyboard-response","171","471018","0.0-10.0-0.4","sxg0rmlh1f","one_one","1","indirect_first","0","NX08US14","0","23","1","1","3","1","","0","1","0","null","","","<div style=""font-size:60px;"">+</div>","null","","","","","","","","","",""
"","html-keyboard-response","172","471113","0.0-10.0-1.4","sxg0rmlh1f","one_one","1","indirect_first","0","NX08US14","0","23","1","1","3","1","","0","1","0","null","","","<img src = 'category3/GS2.png' width = '100%;'>","null","","","","","","","","","",""
"","html-keyboard-response","173","471387","0.0-10.0-2.4","sxg0rmlh1f","one_one","1","indirect_first","0","NX08US14","0","23","1","1","3","1","","0","1","0","null","","","<img src = 'targets/25.png' width = '100%;'>","null","","","","","","","","","",""
"","html-keyboard-response","174","472495","0.0-10.0-3.4","sxg0rmlh1f","one_one","1","indirect_first","0","NX08US14","0","23","1","1","3","1","","0","1","0","1104.5899998862296","","","<img src = 'targets/mask.png' width = '100%;'>","68","neg","GS","GSnew","3","category3/GS2.png","targets/25.png","0","indirect","20",""
"","html-keyboard-response","175","474018","0.0-10.0-0.5","sxg0rmlh1f","one_one","1","indirect_first","0","NX08US14","0","23","1","1","3","1","","0","1","0","null","","","<div style=""font-size:60px;"">+</div>","null","","","","","","","","","",""
"","html-keyboard-response","176","474122","0.0-10.0-1.5","sxg0rmlh1f","one_one","1","indirect_first","0","NX08US14","0","23","1","1","3","1","","0","1","0","null","","","<img src = 'category3/GS3.png' width = '100%;'>","null","","","","","","","","","",""
"","html-keyboard-response","177","474391","0.0-10.0-2.5","sxg0rmlh1f","one_one","1","indirect_first","0","NX08US14","0","23","1","1","3","1","","0","1","0","null","","","<img src = 'targets/13.png' width = '100%;'>","null","","","","","","","","","",""
"","html-keyboard-response","178","476192","0.0-10.0-3.5","sxg0rmlh1f","one_one","1","indirect_first","0","NX08US14","0","23","1","1","3","1","","0","1","0","1799.2849999573082","","","<img src = 'targets/mask.png' width = '100%;'>","68","neg","GS","GSnew","3","category3/GS3.png","targets/13.png","0","indirect","21",""
"","html-keyboard-response","179","477709","0.0-10.0-0.6","sxg0rmlh1f","one_one","1","indirect_first","0","NX08US14","0","23","1","1","3","1","","0","1","0","null","","","<div style=""font-size:60px;"">+</div>","null","","","","","","","","","",""
"","html-keyboard-response","180","477810","0.0-10.0-1.6","sxg0rmlh1f","one_one","1","indirect_first","0","NX08US14","0","23","1","1","3","1","","0","1","0","null","","","<img src = 'category2/GS3.png' width = '100%;'>","null","","","","","","","","","",""
"","html-keyboard-response","181","478072","0.0-10.0-2.6","sxg0rmlh1f","one_one","1","indirect_first","0","NX08US14","0","23","1","1","3","1","","0","1","0","null","","","<img src = 'targets/44.png' width = '100%;'>","null","","","","","","","","","",""
"","html-keyboard-response","182","479427","0.0-10.0-3.6","sxg0rmlh1f","one_one","1","indirect_first","0","NX08US14","0","23","1","1","3","1","","0","1","0","1353.3349998760968","","","<img src = 'targets/mask.png' width = '100%;'>","75","neg","GS","GSnew","2","category2/GS3.png","targets/44.png","1","indirect","22",""
"","html-keyboard-response","183","480935","0.0-10.0-0.7","sxg0rmlh1f","one_one","1","indirect_first","0","NX08US14","0","23","1","1","3","1","","0","1","0","null","","","<div style=""font-size:60px;"">+</div>","null","","","","","","","","","",""
"","html-keyboard-response","184","481033","0.0-10.0-1.7","sxg0rmlh1f","one_one","1","indirect_first","0","NX08US14","0","23","1","1","3","1","","0","1","0","null","","","<img src = 'category2/men.png' width = '100%;'>","null","","","","","","","","","",""
"","html-keyboard-response","185","481295","0.0-10.0-2.7","sxg0rmlh1f","one_one","1","indirect_first","0","NX08US14","0","23","1","1","3","1","","0","1","0","null","","","<img src = 'targets/27.png' width = '100%;'>","null","","","","","","","","","",""
"","html-keyboard-response","186","482410","0.0-10.0-3.7","sxg0rmlh1f","one_one","1","indirect_first","0","NX08US14","0","23","1","1","3","1","","0","1","0","1113.2849999703467","","","<img src = 'targets/mask.png' width = '100%;'>","75","neg","GS","abstract","2","category2/men.png","targets/27.png","1","indirect","23",""
"","html-keyboard-response","187","483922","0.0-10.0-0.8","sxg0rmlh1f","one_one","1","indirect_first","0","NX08US14","0","23","1","1","3","1","","0","1","0","null","","","<div style=""font-size:60px;"">+</div>","null","","","","","","","","","",""
"","html-keyboard-response","188","484020","0.0-10.0-1.8","sxg0rmlh1f","one_one","1","indirect_first","0","NX08US14","0","23","1","1","3","1","","0","1","0","null","","","<img src = 'category1/ma.png' width = '100%;'>","null","","","","","","","","","",""
"","html-keyboard-response","189","484286","0.0-10.0-2.8","sxg0rmlh1f","one_one","1","indirect_first","0","NX08US14","0","23","1","1","3","1","","0","1","0","null","","","<img src = 'targets/6.png' width = '100%;'>","null","","","","","","","","","",""
"","html-keyboard-response","190","485420","0.0-10.0-3.8","sxg0rmlh1f","one_one","1","indirect_first","0","NX08US14","0","23","1","1","3","1","","0","1","0","1131.8599998485297","","","<img src = 'targets/mask.png' width = '100%;'>","75","pos","GS","abstract","1","category1/ma.png","targets/6.png","1","indirect","24",""
"","html-keyboard-response","191","486945","0.0-10.0-0.9","sxg0rmlh1f","one_one","1","indirect_first","0","NX08US14","0","23","1","1","3","1","","0","1","0","null","","","<div style=""font-size:60px;"">+</div>","null","","","","","","","","","",""
"","html-keyboard-response","192","487041","0.0-10.0-1.9","sxg0rmlh1f","one_one","1","indirect_first","0","NX08US14","0","23","1","1","3","1","","0","1","0","null","","","<img src = 'category4/GS3.png' width = '100%;'>","null","","","","","","","","","",""
"","html-keyboard-response","193","487300","0.0-10.0-2.9","sxg0rmlh1f","one_one","1","indirect_first","0","NX08US14","0","23","1","1","3","1","","0","1","0","null","","","<img src = 'targets/37.png' width = '100%;'>","null","","","","","","","","","",""
"","html-keyboard-response","194","488249","0.0-10.0-3.9","sxg0rmlh1f","one_one","1","indirect_first","0","NX08US14","0","23","1","1","3","1","","0","1","0","947.1299999859184","","","<img src = 'targets/mask.png' width = '100%;'>","68","pos","GS","GSnew","4","category4/GS3.png","targets/37.png","0","indirect","25",""
"","html-keyboard-response","195","489766","0.0-10.0-0.10","sxg0rmlh1f","one_one","1","indirect_first","0","NX08US14","0","23","1","1","3","1","","0","1","0","null","","","<div style=""font-size:60px;"">+</div>","null","","","","","","","","","",""
"","html-keyboard-response","196","489864","0.0-10.0-1.10","sxg0rmlh1f","one_one","1","indirect_first","0","NX08US14","0","23","1","1","3","1","","0","1","0","null","","","<img src = 'category4/GS2.png' width = '100%;'>","null","","","","","","","","","",""
"","html-keyboard-response","197","490137","0.0-10.0-2.10","sxg0rmlh1f","one_one","1","indirect_first","0","NX08US14","0","23","1","1","3","1","","0","1","0","null","","","<img src = 'targets/20.png' width = '100%;'>","null","","","","","","","","","",""
"","html-keyboard-response","198","491863","0.0-10.0-3.10","sxg0rmlh1f","one_one","1","indirect_first","0","NX08US14","0","23","1","1","3","1","","0","1","0","1723.035000031814","","","<img src = 'targets/mask.png' width = '100%;'>","75","pos","GS","GSnew","4","category4/GS2.png","targets/20.png","1","indirect","26",""
"","html-keyboard-response","199","493379","0.0-10.0-0.11","sxg0rmlh1f","one_one","1","indirect_first","0","NX08US14","0","23","1","1","3","1","","0","1","0","null","","","<div style=""font-size:60px;"">+</div>","null","","","","","","","","","",""
"","html-keyboard-response","200","493471","0.0-10.0-1.11","sxg0rmlh1f","one_one","1","indirect_first","0","NX08US14","0","23","1","1","3","1","","0","1","0","null","","","<img src = 'category3/wang.png' width = '100%;'>","null","","","","","","","","","",""
"","html-keyboard-response","201","493731","0.0-10.0-2.11","sxg0rmlh1f","one_one","1","indirect_first","0","NX08US14","0","23","1","1","3","1","","0","1","0","null","","","<img src = 'targets/46.png' width = '100%;'>","null","","","","","","","","","",""
"","html-keyboard-response","202","494497","0.0-10.0-3.11","sxg0rmlh1f","one_one","1","indirect_first","0","NX08US14","0","23","1","1","3","1","","0","1","0","763.5699999518692","","","<img src = 'targets/mask.png' width = '100%;'>","68","neg","GS","abstract","3","category3/wang.png","targets/46.png","0","indirect","27",""
"","html-keyboard-response","203","496012","0.0-10.0-0.12","sxg0rmlh1f","one_one","1","indirect_first","0","NX08US14","0","23","1","1","3","1","","0","1","0","null","","","<div style=""font-size:60px;"">+</div>","null","","","","","","","","","",""
"","html-keyboard-response","204","496106","0.0-10.0-1.12","sxg0rmlh1f","one_one","1","indirect_first","0","NX08US14","0","23","1","1","3","1","","0","1","0","null","","","<img src = 'category4/GS1.png' width = '100%;'>","null","","","","","","","","","",""
"","html-keyboard-response","205","496373","0.0-10.0-2.12","sxg0rmlh1f","one_one","1","indirect_first","0","NX08US14","0","23","1","1","3","1","","0","1","0","null","","","<img src = 'targets/45.png' width = '100%;'>","null","","","","","","","","","",""
"","html-keyboard-response","206","500719","0.0-10.0-3.12","sxg0rmlh1f","one_one","1","indirect_first","0","NX08US14","0","23","1","1","3","1","","0","1","0","4344.6299999486655","","","<img src = 'targets/mask.png' width = '100%;'>","75","pos","GS","GSnew","4","category4/GS1.png","targets/45.png","1","indirect","28",""
"","html-keyboard-response","207","502243","0.0-10.0-0.13","sxg0rmlh1f","one_one","1","indirect_first","0","NX08US14","0","23","1","1","3","1","","0","1","0","null","","","<div style=""font-size:60px;"">+</div>","null","","","","","","","","","",""
"","html-keyboard-response","208","502340","0.0-10.0-1.13","sxg0rmlh1f","one_one","1","indirect_first","0","NX08US14","0","23","1","1","3","1","","0","1","0","null","","","<img src = 'category1/GS3.png' width = '100%;'>","null","","","","","","","","","",""
"","html-keyboard-response","209","502604","0.0-10.0-2.13","sxg0rmlh1f","one_one","1","indirect_first","0","NX08US14","0","23","1","1","3","1","","0","1","0","null","","","<img src = 'targets/34.png' width = '100%;'>","null","","","","","","","","","",""
"","html-keyboard-response","210","503911","0.0-10.0-3.13","sxg0rmlh1f","one_one","1","indirect_first","0","NX08US14","0","23","1","1","3","1","","0","1","0","1304.2399999685585","","","<img src = 'targets/mask.png' width = '100%;'>","68","pos","GS","GSnew","1","category1/GS3.png","targets/34.png","0","indirect","29",""
"","html-keyboard-response","211","505434","0.0-10.0-0.14","sxg0rmlh1f","one_one","1","indirect_first","0","NX08US14","0","23","1","1","3","1","","0","1","0","null","","","<div style=""font-size:60px;"">+</div>","null","","","","","","","","","",""
"","html-keyboard-response","212","505526","0.0-10.0-1.14","sxg0rmlh1f","one_one","1","indirect_first","0","NX08US14","0","23","1","1","3","1","","0","1","0","null","","","<img src = 'category2/GS1.png' width = '100%;'>","null","","","","","","","","","",""
"","html-keyboard-response","213","505784","0.0-10.0-2.14","sxg0rmlh1f","one_one","1","indirect_first","0","NX08US14","0","23","1","1","3","1","","0","1","0","null","","","<img src = 'targets/31.png' width = '100%;'>","null","","","","","","","","","",""
"","html-keyboard-response","214","506689","0.0-10.0-3.14","sxg0rmlh1f","one_one","1","indirect_first","0","NX08US14","0","23","1","1","3","1","","0","1","0","903.2449999358505","","","<img src = 'targets/mask.png' width = '100%;'>","75","neg","GS","GSnew","2","category2/GS1.png","targets/31.png","1","indirect","30",""
"","html-keyboard-response","215","508209","0.0-10.0-0.15","sxg0rmlh1f","one_one","1","indirect_first","0","NX08US14","0","23","1","1","3","1","","0","1","0","null","","","<div style=""font-size:60px;"">+</div>","null","","","","","","","","","",""
"","html-keyboard-response","216","508306","0.0-10.0-1.15","sxg0rmlh1f","one_one","1","indirect_first","0","NX08US14","0","23","1","1","3","1","","0","1","0","null","","","<img src = 'category3/GS1.png' width = '100%;'>","null","","","","","","","","","",""
"","html-keyboard-response","217","508574","0.0-10.0-2.15","sxg0rmlh1f","one_one","1","indirect_first","0","NX08US14","0","23","1","1","3","1","","0","1","0","null","","","<img src = 'targets/23.png' width = '100%;'>","null","","","","","","","","","",""
"","html-keyboard-response","218","509740","0.0-10.0-3.15","sxg0rmlh1f","one_one","1","indirect_first","0","NX08US14","0","23","1","1","3","1","","0","1","0","1166.4599999785423","","","<img src = 'targets/mask.png' width = '100%;'>","68","neg","GS","GSnew","3","category3/GS1.png","targets/23.png","0","indirect","31",""
"","survey-html-form","219","520072","0.0-11.0","sxg0rmlh1f","one_one","1","indirect_first","0","NX08US14","0","23","1","1","3","1","","0","1","0","9820.569999981672","","{}","","","","","","","","","","","",""
"","image-slider-response","220","527696","0.0-12.0-0.0","sxg0rmlh1f","one_one","1","indirect_first","0","NX08US14","0","23","1","1","3","1","","0","1","0","5609.119999920949","","","","","neg","CS","CS","2","category2/CS6.png","targets/35.png","","direct","","-27"
"","image-slider-response","221","531674","0.0-12.0-0.1","sxg0rmlh1f","one_one","1","indirect_first","0","NX08US14","0","23","1","1","3","1","","0","1","0","3973.8600000273436","","","","","neg","GS","GSnew","2","category2/GS3.png","targets/44.png","","direct","","-62"
"","image-slider-response","222","534501","0.0-12.0-0.2","sxg0rmlh1f","one_one","1","indirect_first","0","NX08US14","0","23","1","1","3","1","","0","1","0","2822.9300000239164","","","","","neg","GS","GSold","3","category3/CS7.png","targets/12.png","","direct","","33"
"","image-slider-response","223","537512","0.0-12.0-0.3","sxg0rmlh1f","one_one","1","indirect_first","0","NX08US14","0","23","1","1","3","1","","0","1","0","3007.899999851361","","","","","neg","GS","GSnew","3","category3/GS3.png","targets/13.png","","direct","","-24"
"","image-slider-response","224","546594","0.0-12.0-0.4","sxg0rmlh1f","one_one","1","indirect_first","0","NX08US14","0","23","1","1","3","1","","0","1","0","9078.370000002906","","","","","pos","GS","GSold","1","category1/CS10.png","targets/36.png","","direct","","2"
"","image-slider-response","225","549616","0.0-12.0-0.5","sxg0rmlh1f","one_one","1","indirect_first","0","NX08US14","0","23","1","1","3","1","","0","1","0","3019.2900002002716","","","","","pos","GS","GSnew","4","category4/GS2.png","targets/20.png","","direct","","-20"
"","image-slider-response","226","552404","0.0-12.0-0.6","sxg0rmlh1f","one_one","1","indirect_first","0","NX08US14","0","23","1","1","3","1","","0","1","0","2786.0100001562387","","","","","pos","CS","CS","1","category1/CS3.png","targets/9.png","","direct","","14"
"","image-slider-response","227","554862","0.0-12.0-0.7","sxg0rmlh1f","one_one","1","indirect_first","0","NX08US14","0","23","1","1","3","1","","0","1","0","2455.2350000012666","","","","","neg","GS","GSnew","2","category2/GS1.png","targets/31.png","","direct","","-13"
"","image-slider-response","228","559157","0.0-12.0-0.8","sxg0rmlh1f","one_one","1","indirect_first","0","NX08US14","0","23","1","1","3","1","","0","1","0","4291.044999845326","","","","","pos","GS","abstract","1","category1/ma.png","targets/6.png","","direct","","-39"
"","image-slider-response","229","562355","0.0-12.0-0.9","sxg0rmlh1f","one_one","1","indirect_first","0","NX08US14","0","23","1","1","3","1","","0","1","0","3194.3500000052154","","","","","pos","GS","GSnew","4","category4/GS3.png","targets/37.png","","direct","","55"
"","image-slider-response","230","565167","0.0-12.0-0.10","sxg0rmlh1f","one_one","1","indirect_first","0","NX08US14","0","23","1","1","3","1","","0","1","0","2810.1999999489635","","","","","neg","GS","abstract","3","category3/wang.png","targets/46.png","","direct","","-20"
"","image-slider-response","231","568506","0.0-12.0-0.11","sxg0rmlh1f","one_one","1","indirect_first","0","NX08US14","0","23","1","1","3","1","","0","1","0","3335.8099998440593","","","","","pos","GS","GSnew","4","category4/GS1.png","targets/45.png","","direct","","59"
"","image-slider-response","232","571238","0.0-12.0-0.12","sxg0rmlh1f","one_one","1","indirect_first","0","NX08US14","0","23","1","1","3","1","","0","1","0","2733.9800000190735","","","","","pos","GS","GSold","4","category4/CS5.png","targets/4.png","","direct","","50"
"","image-slider-response","233","573525","0.0-12.0-0.13","sxg0rmlh1f","one_one","1","indirect_first","0","NX08US14","0","23","1","1","3","1","","0","1","0","2283.2899999339134","","","","","pos","GS","GSnew","1","category1/GS1.png","targets/48.png","","direct","","-20"
"","image-slider-response","234","576081","0.0-12.0-0.14","sxg0rmlh1f","one_one","1","indirect_first","0","NX08US14","0","23","1","1","3","1","","0","1","0","2553.685000166297","","","","","pos","GS","GSnew","1","category1/GS2.png","targets/2.png","","direct","","-12"
"","image-slider-response","235","578747","0.0-12.0-0.15","sxg0rmlh1f","one_one","1","indirect_first","0","NX08US14","0","23","1","1","3","1","","0","1","0","2663.304999936372","","","","","pos","GS","GSold","1","category1/CS8.png","targets/18.png","","direct","","53"
"","image-slider-response","236","581370","0.0-12.0-0.16","sxg0rmlh1f","one_one","1","indirect_first","0","NX08US14","0","23","1","1","3","1","","0","1","0","2620.145000051707","","","","","pos","GS","GSold","4","category4/CS3.png","targets/7.png","","direct","","46"
"","image-slider-response","237","583965","0.0-12.0-0.17","sxg0rmlh1f","one_one","1","indirect_first","0","NX08US14","0","23","1","1","3","1","","0","1","0","2593.4399999678135","","","","","pos","GS","GSnew","1","category1/GS3.png","targets/34.png","","direct","","48"
"","image-slider-response","238","586220","0.0-12.0-0.18","sxg0rmlh1f","one_one","1","indirect_first","0","NX08US14","0","23","1","1","3","1","","0","1","0","2252.945000072941","","","","","neg","GS","abstract","2","category2/men.png","targets/27.png","","direct","","-23"
"","image-slider-response","239","588956","0.0-12.0-0.19","sxg0rmlh1f","one_one","1","indirect_first","0","NX08US14","0","23","1","1","3","1","","0","1","0","2733.5900000762194","","","","","neg","GS","GSold","2","category2/CS9.png","targets/43.png","","direct","","28"
"","image-slider-response","240","591464","0.0-12.0-0.20","sxg0rmlh1f","one_one","1","indirect_first","0","NX08US14","0","23","1","1","3","1","","0","1","0","2504.884999943897","","","","","neg","GS","GSnew","3","category3/GS1.png","targets/23.png","","direct","","29"
"","image-slider-response","241","594030","0.0-12.0-0.21","sxg0rmlh1f","one_one","1","indirect_first","0","NX08US14","0","23","1","1","3","1","","0","1","0","2562.9900000058115","","","","","pos","GS","GSold","1","category1/CS1.png","targets/17.png","","direct","","30"
"","image-slider-response","242","598046","0.0-12.0-0.22","sxg0rmlh1f","one_one","1","indirect_first","0","NX08US14","0","23","1","1","3","1","","0","1","0","4013.1950001232326","","","","","neg","GS","GSold","2","category2/CS7.png","targets/16.png","","direct","","67"
"","image-slider-response","243","601370","0.0-12.0-0.23","sxg0rmlh1f","one_one","1","indirect_first","0","NX08US14","0","23","1","1","3","1","","0","1","0","3320.8349999040365","","","","","pos","GS","abstract","4","category4/lin.png","targets/28.png","","direct","","50"
"","image-slider-response","244","605871","0.0-12.0-0.24","sxg0rmlh1f","one_one","1","indirect_first","0","NX08US14","0","23","1","1","3","1","","0","1","0","4498.419999843463","","","","","neg","GS","GSnew","2","category2/GS2.png","targets/32.png","","direct","","-13"
"","image-slider-response","245","608906","0.0-12.0-0.25","sxg0rmlh1f","one_one","1","indirect_first","0","NX08US14","0","23","1","1","3","1","","0","1","0","3031.9799999706447","","","","","neg","GS","GSold","3","category3/CS2.png","targets/3.png","","direct","","28"
"","image-slider-response","246","612928","0.0-12.0-0.26","sxg0rmlh1f","one_one","1","indirect_first","0","NX08US14","0","23","1","1","3","1","","0","1","0","4019.3499999586493","","","","","neg","CS","CS","3","category3/CS6.png","targets/40.png","","direct","","71"
"","image-slider-response","247","615158","0.0-12.0-0.27","sxg0rmlh1f","one_one","1","indirect_first","0","NX08US14","0","23","1","1","3","1","","0","1","0","2227.5200001895428","","","","","neg","GS","GSold","3","category3/CS9.png","targets/24.png","","direct","","1"
"","image-slider-response","248","618530","0.0-12.0-0.28","sxg0rmlh1f","one_one","1","indirect_first","0","NX08US14","0","23","1","1","3","1","","0","1","0","3368.5900000855327","","","","","neg","GS","GSnew","3","category3/GS2.png","targets/25.png","","direct","","31"
"","image-slider-response","249","621383","0.0-12.0-0.29","sxg0rmlh1f","one_one","1","indirect_first","0","NX08US14","0","23","1","1","3","1","","0","1","0","2850.1150000374764","","","","","pos","GS","GSold","4","category4/CS7.png","targets/26.png","","direct","","76"
"","image-slider-response","250","625765","0.0-12.0-0.30","sxg0rmlh1f","one_one","1","indirect_first","0","NX08US14","0","23","1","1","3","1","","0","1","0","4378.509999951348","","","","","pos","CS","CS","4","category4/CS2.png","targets/11.png","","direct","","71"
"","image-slider-response","251","629032","0.0-12.0-0.31","sxg0rmlh1f","one_one","1","indirect_first","0","NX08US14","0","23","1","1","3","1","","0","1","0","3263.685000129044","","","","","neg","GS","GSold","2","category2/CS2.png","targets/47.png","","direct","","51"
"","survey-html-form","252","633135","0.0-13.0","sxg0rmlh1f","one_one","1","indirect_first","0","NX08US14","0","23","1","1","3","1","","0","1","0","4097.225000150502","","{}","","","","","","","","","","","",""
"","image-slider-response","253","639636","0.0-14.0-0.0","sxg0rmlh1f","one_one","1","indirect_first","0","NX08US14","0","23","1","1","3","1","","0","1","0","5491.274999920279","","","","","pos","All","all","1","category1/ma_all.png","","","all","","-15"
"","image-slider-response","254","645202","0.0-14.0-0.1","sxg0rmlh1f","one_one","1","indirect_first","0","NX08US14","0","23","1","1","3","1","","0","1","0","5563.335000071675","","","","","pos","All","all","4","category4/lin_all.png","","","all","","30"
"","image-slider-response","255","648681","0.0-14.0-0.2","sxg0rmlh1f","one_one","1","indirect_first","0","NX08US14","0","23","1","1","3","1","","0","1","0","3477.1650000475347","","","","","neg","All","all","2","category2/men_all.png","","","all","","50"
"","image-slider-response","256","654354","0.0-14.0-0.3","sxg0rmlh1f","one_one","1","indirect_first","0","NX08US14","0","23","1","1","3","1","","0","1","0","5669.854999985546","","","","","neg","All","all","3","category3/wang_all.png","","","all","","-5"
"","survey-text","257","658971","0.0-15.0","sxg0rmlh1f","one_one","1","indirect_first","0","NX08US14","0","23","1","1","3","1","","0","1","0","4597.125000087544","","{""comment"":""""}","","","","","","","","","","","",""
"","survey-html-form","258","672111","0.0-16.0","sxg0rmlh1f","one_one","1","indirect_first","0","NX08US14","0","23","1","1","3","1","","0","1","0","13136.535000056028","","{""hinschauen"":""0"",""ablenkung"":""1"",""gewissenhaft"":""0""}","","","","","","","","","","","",""
