"success","trial_type","trial_index","time_elapsed","internal_node_id","subject","condition","condition_code","measure","measure_code","codeword","gender","age","education","chinese","fach","handedness","comment","hinschauen","ablenkung","gewissenhaft","rt","url","responses","stimulus","key_press","val","type","type_specific","category","cs_selected","response","target","task","indirect","nr_pres"
"true","fullscreen","0","3610","0.0-0.0","hgvwls3ugt","one_one","1","direct_first","1","ER06RA18","0","21","1","0","3","1","","0","1","0","","","","","","","","","","","","","","",""
"","external-html","1","9686","0.0-1.0","hgvwls3ugt","one_one","1","direct_first","1","ER06RA18","0","21","1","0","3","1","","0","1","0","6041.639999999461","text/information.html","","","","","","","","","","","","",""
"","external-html","2","24088","0.0-2.0","hgvwls3ugt","one_one","1","direct_first","1","ER06RA18","0","21","1","0","3","1","","0","1","0","14363.820000000487","text/consent.html","","","","","","","","","","","","",""
"","survey-html-form","3","57142","0.0-3.0","hgvwls3ugt","one_one","1","direct_first","1","ER06RA18","0","21","1","0","3","1","","0","1","0","33045.95500000141","","{""codeword_enter"":""ER06RA18""}","","","","","","","","","","","",""
"","survey-html-form","4","74905","0.0-4.0","hgvwls3ugt","one_one","1","direct_first","1","ER06RA18","0","21","1","0","3","1","","0","1","0","17756.06499999958","","{""age"":""21"",""education"":""1"",""subject"":""3"",""gender"":""0"",""handedness"":""1"",""chinese"":""0""}","","","","","","","","","","","",""
"","survey-html-form","5","77015","0.0-5.0","hgvwls3ugt","one_one","1","direct_first","1","ER06RA18","0","21","1","0","3","1","","0","1","0","2103.929999999309","","{}","","","","","","","","","","","",""
"","html-keyboard-response","6","81024","0.0-6.0-0.0-0.0","hgvwls3ugt","one_one","1","direct_first","1","ER06RA18","0","21","1","0","3","1","","0","1","0","null","","","<div class = 'row'><div class = 'column'><img src = 'category1/CS3.png' width = '70%;'></div><div class = 'column'><img src = 'uspos/5831.bmp' width = '100%;'></div></div>","null","pos","CS","CS","1","category1/CS3.png","","","","",""
"","html-keyboard-response","7","83532","0.0-6.0-0.0-0.1","hgvwls3ugt","one_one","1","direct_first","1","ER06RA18","0","21","1","0","3","1","","0","1","0","null","","","<div class = 'row'><div class = 'column'><img src = 'category3/CS9.png' width = '70%;'></div><div class = 'column'><img src = 'usneg/9290.bmp' width = '100%;'></div></div>","null","neg","CS","CS","3","category3/CS9.png","","","","",""
"","html-keyboard-response","8","86037","0.0-6.0-0.0-0.2","hgvwls3ugt","one_one","1","direct_first","1","ER06RA18","0","21","1","0","3","1","","0","1","0","null","","","<div class = 'row'><div class = 'column'><img src = 'uspos/2360.bmp' width = '100%;'></div><div class = 'column'><img src = 'category4/CS9.png' width = '70%;'></div></div>","null","pos","CS","CS","4","category4/CS9.png","","","","",""
"","html-keyboard-response","9","88544","0.0-6.0-0.0-0.3","hgvwls3ugt","one_one","1","direct_first","1","ER06RA18","0","21","1","0","3","1","","0","1","0","null","","","<div class = 'row'><div class = 'column'><img src = 'uspos/5831.bmp' width = '100%;'></div><div class = 'column'><img src = 'category1/CS3.png' width = '70%;'></div></div>","null","pos","CS","CS","1","category1/CS3.png","","","","",""
"","html-keyboard-response","10","91050","0.0-6.0-0.0-0.4","hgvwls3ugt","one_one","1","direct_first","1","ER06RA18","0","21","1","0","3","1","","0","1","0","null","","","<div class = 'row'><div class = 'column'><img src = 'usneg/9290.bmp' width = '100%;'></div><div class = 'column'><img src = 'category3/CS9.png' width = '70%;'></div></div>","null","neg","CS","CS","3","category3/CS9.png","","","","",""
"","html-keyboard-response","11","93554","0.0-6.0-0.0-0.5","hgvwls3ugt","one_one","1","direct_first","1","ER06RA18","0","21","1","0","3","1","","0","1","0","null","","","<div class = 'row'><div class = 'column'><img src = 'category2/CS4.png' width = '70%;'></div><div class = 'column'><img src = 'usneg/6570.1.bmp' width = '100%;'></div></div>","null","neg","CS","CS","2","category2/CS4.png","","","","",""
"","html-keyboard-response","12","96076","0.0-6.0-0.0-0.6","hgvwls3ugt","one_one","1","direct_first","1","ER06RA18","0","21","1","0","3","1","","0","1","0","null","","","<div class = 'row'><div class = 'column'><img src = 'usneg/9290.bmp' width = '100%;'></div><div class = 'column'><img src = 'category3/CS9.png' width = '70%;'></div></div>","null","neg","CS","CS","3","category3/CS9.png","","","","",""
"","html-keyboard-response","13","98582","0.0-6.0-0.0-0.7","hgvwls3ugt","one_one","1","direct_first","1","ER06RA18","0","21","1","0","3","1","","0","1","0","null","","","<div class = 'row'><div class = 'column'><img src = 'usneg/6570.1.bmp' width = '100%;'></div><div class = 'column'><img src = 'category2/CS4.png' width = '70%;'></div></div>","null","neg","CS","CS","2","category2/CS4.png","","","","",""
"","html-keyboard-response","14","101088","0.0-6.0-0.0-0.8","hgvwls3ugt","one_one","1","direct_first","1","ER06RA18","0","21","1","0","3","1","","0","1","0","null","","","<div class = 'row'><div class = 'column'><img src = 'uspos/2360.bmp' width = '100%;'></div><div class = 'column'><img src = 'category4/CS9.png' width = '70%;'></div></div>","null","pos","CS","CS","4","category4/CS9.png","","","","",""
"","html-keyboard-response","15","103592","0.0-6.0-0.0-0.9","hgvwls3ugt","one_one","1","direct_first","1","ER06RA18","0","21","1","0","3","1","","0","1","0","null","","","<div class = 'row'><div class = 'column'><img src = 'category3/CS9.png' width = '70%;'></div><div class = 'column'><img src = 'usneg/9290.bmp' width = '100%;'></div></div>","null","neg","CS","CS","3","category3/CS9.png","","","","",""
"","html-keyboard-response","16","106097","0.0-6.0-0.0-0.10","hgvwls3ugt","one_one","1","direct_first","1","ER06RA18","0","21","1","0","3","1","","0","1","0","null","","","<div class = 'row'><div class = 'column'><img src = 'usneg/6570.1.bmp' width = '100%;'></div><div class = 'column'><img src = 'category2/CS4.png' width = '70%;'></div></div>","null","neg","CS","CS","2","category2/CS4.png","","","","",""
"","html-keyboard-response","17","108602","0.0-6.0-0.0-0.11","hgvwls3ugt","one_one","1","direct_first","1","ER06RA18","0","21","1","0","3","1","","0","1","0","null","","","<div class = 'row'><div class = 'column'><img src = 'usneg/9290.bmp' width = '100%;'></div><div class = 'column'><img src = 'category3/CS9.png' width = '70%;'></div></div>","null","neg","CS","CS","3","category3/CS9.png","","","","",""
"","html-keyboard-response","18","111108","0.0-6.0-0.0-0.12","hgvwls3ugt","one_one","1","direct_first","1","ER06RA18","0","21","1","0","3","1","","0","1","0","null","","","<div class = 'row'><div class = 'column'><img src = 'category1/CS3.png' width = '70%;'></div><div class = 'column'><img src = 'uspos/5831.bmp' width = '100%;'></div></div>","null","pos","CS","CS","1","category1/CS3.png","","","","",""
"","html-keyboard-response","19","113613","0.0-6.0-0.0-0.13","hgvwls3ugt","one_one","1","direct_first","1","ER06RA18","0","21","1","0","3","1","","0","1","0","null","","","<div class = 'row'><div class = 'column'><img src = 'uspos/2360.bmp' width = '100%;'></div><div class = 'column'><img src = 'category4/CS9.png' width = '70%;'></div></div>","null","pos","CS","CS","4","category4/CS9.png","","","","",""
"","html-keyboard-response","20","116119","0.0-6.0-0.0-0.14","hgvwls3ugt","one_one","1","direct_first","1","ER06RA18","0","21","1","0","3","1","","0","1","0","null","","","<div class = 'row'><div class = 'column'><img src = 'category1/CS3.png' width = '70%;'></div><div class = 'column'><img src = 'uspos/5831.bmp' width = '100%;'></div></div>","null","pos","CS","CS","1","category1/CS3.png","","","","",""
"","html-keyboard-response","21","118623","0.0-6.0-0.0-0.15","hgvwls3ugt","one_one","1","direct_first","1","ER06RA18","0","21","1","0","3","1","","0","1","0","null","","","<div class = 'row'><div class = 'column'><img src = 'category4/CS9.png' width = '70%;'></div><div class = 'column'><img src = 'uspos/2360.bmp' width = '100%;'></div></div>","null","pos","CS","CS","4","category4/CS9.png","","","","",""
"","html-keyboard-response","22","121129","0.0-6.0-0.0-0.16","hgvwls3ugt","one_one","1","direct_first","1","ER06RA18","0","21","1","0","3","1","","0","1","0","null","","","<div class = 'row'><div class = 'column'><img src = 'usneg/6570.1.bmp' width = '100%;'></div><div class = 'column'><img src = 'category2/CS4.png' width = '70%;'></div></div>","null","neg","CS","CS","2","category2/CS4.png","","","","",""
"","html-keyboard-response","23","123635","0.0-6.0-0.0-0.17","hgvwls3ugt","one_one","1","direct_first","1","ER06RA18","0","21","1","0","3","1","","0","1","0","null","","","<div class = 'row'><div class = 'column'><img src = 'uspos/2360.bmp' width = '100%;'></div><div class = 'column'><img src = 'category4/CS9.png' width = '70%;'></div></div>","null","pos","CS","CS","4","category4/CS9.png","","","","",""
"","html-keyboard-response","24","126140","0.0-6.0-0.0-0.18","hgvwls3ugt","one_one","1","direct_first","1","ER06RA18","0","21","1","0","3","1","","0","1","0","null","","","<div class = 'row'><div class = 'column'><img src = 'category2/CS4.png' width = '70%;'></div><div class = 'column'><img src = 'usneg/6570.1.bmp' width = '100%;'></div></div>","null","neg","CS","CS","2","category2/CS4.png","","","","",""
"","html-keyboard-response","25","128644","0.0-6.0-0.0-0.19","hgvwls3ugt","one_one","1","direct_first","1","ER06RA18","0","21","1","0","3","1","","0","1","0","null","","","<div class = 'row'><div class = 'column'><img src = 'category1/CS3.png' width = '70%;'></div><div class = 'column'><img src = 'uspos/5831.bmp' width = '100%;'></div></div>","null","pos","CS","CS","1","category1/CS3.png","","","","",""
"","survey-html-form","26","131413","0.0-6.0-1.0","hgvwls3ugt","one_one","1","direct_first","1","ER06RA18","0","21","1","0","3","1","","0","1","0","2266.560000000056","","{}","","","","","","","","","","","",""
"","html-keyboard-response","27","135420","0.0-6.0-2.0-0.0","hgvwls3ugt","one_one","1","direct_first","1","ER06RA18","0","21","1","0","3","1","","0","1","0","null","","","<div class = 'row'><div class = 'column'><img src = 'category3/CS9.png' width = '70%;'></div><div class = 'column'><img src = 'usneg/9290.bmp' width = '100%;'></div></div>","null","neg","CS","CS","3","category3/CS9.png","","","","",""
"","html-keyboard-response","28","137926","0.0-6.0-2.0-0.1","hgvwls3ugt","one_one","1","direct_first","1","ER06RA18","0","21","1","0","3","1","","0","1","0","null","","","<div class = 'row'><div class = 'column'><img src = 'uspos/2360.bmp' width = '100%;'></div><div class = 'column'><img src = 'category4/CS9.png' width = '70%;'></div></div>","null","pos","CS","CS","4","category4/CS9.png","","","","",""
"","html-keyboard-response","29","140432","0.0-6.0-2.0-0.2","hgvwls3ugt","one_one","1","direct_first","1","ER06RA18","0","21","1","0","3","1","","0","1","0","null","","","<div class = 'row'><div class = 'column'><img src = 'uspos/5831.bmp' width = '100%;'></div><div class = 'column'><img src = 'category1/CS3.png' width = '70%;'></div></div>","null","pos","CS","CS","1","category1/CS3.png","","","","",""
"","html-keyboard-response","30","142937","0.0-6.0-2.0-0.3","hgvwls3ugt","one_one","1","direct_first","1","ER06RA18","0","21","1","0","3","1","","0","1","0","null","","","<div class = 'row'><div class = 'column'><img src = 'category2/CS4.png' width = '70%;'></div><div class = 'column'><img src = 'usneg/6570.1.bmp' width = '100%;'></div></div>","null","neg","CS","CS","2","category2/CS4.png","","","","",""
"","html-keyboard-response","31","145443","0.0-6.0-2.0-0.4","hgvwls3ugt","one_one","1","direct_first","1","ER06RA18","0","21","1","0","3","1","","0","1","0","null","","","<div class = 'row'><div class = 'column'><img src = 'uspos/2360.bmp' width = '100%;'></div><div class = 'column'><img src = 'category4/CS9.png' width = '70%;'></div></div>","null","pos","CS","CS","4","category4/CS9.png","","","","",""
"","html-keyboard-response","32","147951","0.0-6.0-2.0-0.5","hgvwls3ugt","one_one","1","direct_first","1","ER06RA18","0","21","1","0","3","1","","0","1","0","null","","","<div class = 'row'><div class = 'column'><img src = 'usneg/9290.bmp' width = '100%;'></div><div class = 'column'><img src = 'category3/CS9.png' width = '70%;'></div></div>","null","neg","CS","CS","3","category3/CS9.png","","","","",""
"","html-keyboard-response","33","150484","0.0-6.0-2.0-0.6","hgvwls3ugt","one_one","1","direct_first","1","ER06RA18","0","21","1","0","3","1","","0","1","0","null","","","<div class = 'row'><div class = 'column'><img src = 'category2/CS4.png' width = '70%;'></div><div class = 'column'><img src = 'usneg/6570.1.bmp' width = '100%;'></div></div>","null","neg","CS","CS","2","category2/CS4.png","","","","",""
"","html-keyboard-response","34","152990","0.0-6.0-2.0-0.7","hgvwls3ugt","one_one","1","direct_first","1","ER06RA18","0","21","1","0","3","1","","0","1","0","null","","","<div class = 'row'><div class = 'column'><img src = 'usneg/9290.bmp' width = '100%;'></div><div class = 'column'><img src = 'category3/CS9.png' width = '70%;'></div></div>","null","neg","CS","CS","3","category3/CS9.png","","","","",""
"","html-keyboard-response","35","155494","0.0-6.0-2.0-0.8","hgvwls3ugt","one_one","1","direct_first","1","ER06RA18","0","21","1","0","3","1","","0","1","0","null","","","<div class = 'row'><div class = 'column'><img src = 'usneg/6570.1.bmp' width = '100%;'></div><div class = 'column'><img src = 'category2/CS4.png' width = '70%;'></div></div>","null","neg","CS","CS","2","category2/CS4.png","","","","",""
"","html-keyboard-response","36","157999","0.0-6.0-2.0-0.9","hgvwls3ugt","one_one","1","direct_first","1","ER06RA18","0","21","1","0","3","1","","0","1","0","null","","","<div class = 'row'><div class = 'column'><img src = 'category1/CS3.png' width = '70%;'></div><div class = 'column'><img src = 'uspos/5831.bmp' width = '100%;'></div></div>","null","pos","CS","CS","1","category1/CS3.png","","","","",""
"","html-keyboard-response","37","160506","0.0-6.0-2.0-0.10","hgvwls3ugt","one_one","1","direct_first","1","ER06RA18","0","21","1","0","3","1","","0","1","0","null","","","<div class = 'row'><div class = 'column'><img src = 'category4/CS9.png' width = '70%;'></div><div class = 'column'><img src = 'uspos/2360.bmp' width = '100%;'></div></div>","null","pos","CS","CS","4","category4/CS9.png","","","","",""
"","html-keyboard-response","38","163013","0.0-6.0-2.0-0.11","hgvwls3ugt","one_one","1","direct_first","1","ER06RA18","0","21","1","0","3","1","","0","1","0","null","","","<div class = 'row'><div class = 'column'><img src = 'usneg/6570.1.bmp' width = '100%;'></div><div class = 'column'><img src = 'category2/CS4.png' width = '70%;'></div></div>","null","neg","CS","CS","2","category2/CS4.png","","","","",""
"","html-keyboard-response","39","165518","0.0-6.0-2.0-0.12","hgvwls3ugt","one_one","1","direct_first","1","ER06RA18","0","21","1","0","3","1","","0","1","0","null","","","<div class = 'row'><div class = 'column'><img src = 'category3/CS9.png' width = '70%;'></div><div class = 'column'><img src = 'usneg/9290.bmp' width = '100%;'></div></div>","null","neg","CS","CS","3","category3/CS9.png","","","","",""
"","html-keyboard-response","40","168027","0.0-6.0-2.0-0.13","hgvwls3ugt","one_one","1","direct_first","1","ER06RA18","0","21","1","0","3","1","","0","1","0","null","","","<div class = 'row'><div class = 'column'><img src = 'uspos/2360.bmp' width = '100%;'></div><div class = 'column'><img src = 'category4/CS9.png' width = '70%;'></div></div>","null","pos","CS","CS","4","category4/CS9.png","","","","",""
"","html-keyboard-response","41","170534","0.0-6.0-2.0-0.14","hgvwls3ugt","one_one","1","direct_first","1","ER06RA18","0","21","1","0","3","1","","0","1","0","null","","","<div class = 'row'><div class = 'column'><img src = 'uspos/5831.bmp' width = '100%;'></div><div class = 'column'><img src = 'category1/CS3.png' width = '70%;'></div></div>","null","pos","CS","CS","1","category1/CS3.png","","","","",""
"","html-keyboard-response","42","173043","0.0-6.0-2.0-0.15","hgvwls3ugt","one_one","1","direct_first","1","ER06RA18","0","21","1","0","3","1","","0","1","0","null","","","<div class = 'row'><div class = 'column'><img src = 'category4/CS9.png' width = '70%;'></div><div class = 'column'><img src = 'uspos/2360.bmp' width = '100%;'></div></div>","null","pos","CS","CS","4","category4/CS9.png","","","","",""
"","html-keyboard-response","43","175547","0.0-6.0-2.0-0.16","hgvwls3ugt","one_one","1","direct_first","1","ER06RA18","0","21","1","0","3","1","","0","1","0","null","","","<div class = 'row'><div class = 'column'><img src = 'uspos/5831.bmp' width = '100%;'></div><div class = 'column'><img src = 'category1/CS3.png' width = '70%;'></div></div>","null","pos","CS","CS","1","category1/CS3.png","","","","",""
"","html-keyboard-response","44","178053","0.0-6.0-2.0-0.17","hgvwls3ugt","one_one","1","direct_first","1","ER06RA18","0","21","1","0","3","1","","0","1","0","null","","","<div class = 'row'><div class = 'column'><img src = 'usneg/6570.1.bmp' width = '100%;'></div><div class = 'column'><img src = 'category2/CS4.png' width = '70%;'></div></div>","null","neg","CS","CS","2","category2/CS4.png","","","","",""
"","html-keyboard-response","45","180557","0.0-6.0-2.0-0.18","hgvwls3ugt","one_one","1","direct_first","1","ER06RA18","0","21","1","0","3","1","","0","1","0","null","","","<div class = 'row'><div class = 'column'><img src = 'usneg/9290.bmp' width = '100%;'></div><div class = 'column'><img src = 'category3/CS9.png' width = '70%;'></div></div>","null","neg","CS","CS","3","category3/CS9.png","","","","",""
"","html-keyboard-response","46","183063","0.0-6.0-2.0-0.19","hgvwls3ugt","one_one","1","direct_first","1","ER06RA18","0","21","1","0","3","1","","0","1","0","null","","","<div class = 'row'><div class = 'column'><img src = 'uspos/5831.bmp' width = '100%;'></div><div class = 'column'><img src = 'category1/CS3.png' width = '70%;'></div></div>","null","pos","CS","CS","1","category1/CS3.png","","","","",""
"","survey-html-form","47","190475","0.0-6.0-3.0","hgvwls3ugt","one_one","1","direct_first","1","ER06RA18","0","21","1","0","3","1","","0","1","0","6909.440000001283","","{}","","","","","","","","","","","",""
"","html-keyboard-response","48","194484","0.0-6.0-4.0-0.0","hgvwls3ugt","one_one","1","direct_first","1","ER06RA18","0","21","1","0","3","1","","0","1","0","null","","","<div class = 'row'><div class = 'column'><img src = 'category2/CS4.png' width = '70%;'></div><div class = 'column'><img src = 'usneg/6570.1.bmp' width = '100%;'></div></div>","null","neg","CS","CS","2","category2/CS4.png","","","","",""
"","html-keyboard-response","49","196990","0.0-6.0-4.0-0.1","hgvwls3ugt","one_one","1","direct_first","1","ER06RA18","0","21","1","0","3","1","","0","1","0","null","","","<div class = 'row'><div class = 'column'><img src = 'usneg/9290.bmp' width = '100%;'></div><div class = 'column'><img src = 'category3/CS9.png' width = '70%;'></div></div>","null","neg","CS","CS","3","category3/CS9.png","","","","",""
"","html-keyboard-response","50","199495","0.0-6.0-4.0-0.2","hgvwls3ugt","one_one","1","direct_first","1","ER06RA18","0","21","1","0","3","1","","0","1","0","null","","","<div class = 'row'><div class = 'column'><img src = 'uspos/5831.bmp' width = '100%;'></div><div class = 'column'><img src = 'category1/CS3.png' width = '70%;'></div></div>","null","pos","CS","CS","1","category1/CS3.png","","","","",""
"","html-keyboard-response","51","202040","0.0-6.0-4.0-0.3","hgvwls3ugt","one_one","1","direct_first","1","ER06RA18","0","21","1","0","3","1","","0","1","0","null","","","<div class = 'row'><div class = 'column'><img src = 'uspos/2360.bmp' width = '100%;'></div><div class = 'column'><img src = 'category4/CS9.png' width = '70%;'></div></div>","null","pos","CS","CS","4","category4/CS9.png","","","","",""
"","html-keyboard-response","52","204545","0.0-6.0-4.0-0.4","hgvwls3ugt","one_one","1","direct_first","1","ER06RA18","0","21","1","0","3","1","","0","1","0","null","","","<div class = 'row'><div class = 'column'><img src = 'category3/CS9.png' width = '70%;'></div><div class = 'column'><img src = 'usneg/9290.bmp' width = '100%;'></div></div>","null","neg","CS","CS","3","category3/CS9.png","","","","",""
"","html-keyboard-response","53","207050","0.0-6.0-4.0-0.5","hgvwls3ugt","one_one","1","direct_first","1","ER06RA18","0","21","1","0","3","1","","0","1","0","null","","","<div class = 'row'><div class = 'column'><img src = 'uspos/2360.bmp' width = '100%;'></div><div class = 'column'><img src = 'category4/CS9.png' width = '70%;'></div></div>","null","pos","CS","CS","4","category4/CS9.png","","","","",""
"","html-keyboard-response","54","209555","0.0-6.0-4.0-0.6","hgvwls3ugt","one_one","1","direct_first","1","ER06RA18","0","21","1","0","3","1","","0","1","0","null","","","<div class = 'row'><div class = 'column'><img src = 'category2/CS4.png' width = '70%;'></div><div class = 'column'><img src = 'usneg/6570.1.bmp' width = '100%;'></div></div>","null","neg","CS","CS","2","category2/CS4.png","","","","",""
"","html-keyboard-response","55","212061","0.0-6.0-4.0-0.7","hgvwls3ugt","one_one","1","direct_first","1","ER06RA18","0","21","1","0","3","1","","0","1","0","null","","","<div class = 'row'><div class = 'column'><img src = 'uspos/5831.bmp' width = '100%;'></div><div class = 'column'><img src = 'category1/CS3.png' width = '70%;'></div></div>","null","pos","CS","CS","1","category1/CS3.png","","","","",""
"","html-keyboard-response","56","214566","0.0-6.0-4.0-0.8","hgvwls3ugt","one_one","1","direct_first","1","ER06RA18","0","21","1","0","3","1","","0","1","0","null","","","<div class = 'row'><div class = 'column'><img src = 'category4/CS9.png' width = '70%;'></div><div class = 'column'><img src = 'uspos/2360.bmp' width = '100%;'></div></div>","null","pos","CS","CS","4","category4/CS9.png","","","","",""
"","html-keyboard-response","57","217071","0.0-6.0-4.0-0.9","hgvwls3ugt","one_one","1","direct_first","1","ER06RA18","0","21","1","0","3","1","","0","1","0","null","","","<div class = 'row'><div class = 'column'><img src = 'category2/CS4.png' width = '70%;'></div><div class = 'column'><img src = 'usneg/6570.1.bmp' width = '100%;'></div></div>","null","neg","CS","CS","2","category2/CS4.png","","","","",""
"","html-keyboard-response","58","219575","0.0-6.0-4.0-0.10","hgvwls3ugt","one_one","1","direct_first","1","ER06RA18","0","21","1","0","3","1","","0","1","0","null","","","<div class = 'row'><div class = 'column'><img src = 'category4/CS9.png' width = '70%;'></div><div class = 'column'><img src = 'uspos/2360.bmp' width = '100%;'></div></div>","null","pos","CS","CS","4","category4/CS9.png","","","","",""
"","html-keyboard-response","59","222081","0.0-6.0-4.0-0.11","hgvwls3ugt","one_one","1","direct_first","1","ER06RA18","0","21","1","0","3","1","","0","1","0","null","","","<div class = 'row'><div class = 'column'><img src = 'category3/CS9.png' width = '70%;'></div><div class = 'column'><img src = 'usneg/9290.bmp' width = '100%;'></div></div>","null","neg","CS","CS","3","category3/CS9.png","","","","",""
"","html-keyboard-response","60","224586","0.0-6.0-4.0-0.12","hgvwls3ugt","one_one","1","direct_first","1","ER06RA18","0","21","1","0","3","1","","0","1","0","null","","","<div class = 'row'><div class = 'column'><img src = 'category1/CS3.png' width = '70%;'></div><div class = 'column'><img src = 'uspos/5831.bmp' width = '100%;'></div></div>","null","pos","CS","CS","1","category1/CS3.png","","","","",""
"","html-keyboard-response","61","227092","0.0-6.0-4.0-0.13","hgvwls3ugt","one_one","1","direct_first","1","ER06RA18","0","21","1","0","3","1","","0","1","0","null","","","<div class = 'row'><div class = 'column'><img src = 'usneg/9290.bmp' width = '100%;'></div><div class = 'column'><img src = 'category3/CS9.png' width = '70%;'></div></div>","null","neg","CS","CS","3","category3/CS9.png","","","","",""
"","html-keyboard-response","62","229596","0.0-6.0-4.0-0.14","hgvwls3ugt","one_one","1","direct_first","1","ER06RA18","0","21","1","0","3","1","","0","1","0","null","","","<div class = 'row'><div class = 'column'><img src = 'category1/CS3.png' width = '70%;'></div><div class = 'column'><img src = 'uspos/5831.bmp' width = '100%;'></div></div>","null","pos","CS","CS","1","category1/CS3.png","","","","",""
"","html-keyboard-response","63","232102","0.0-6.0-4.0-0.15","hgvwls3ugt","one_one","1","direct_first","1","ER06RA18","0","21","1","0","3","1","","0","1","0","null","","","<div class = 'row'><div class = 'column'><img src = 'category3/CS9.png' width = '70%;'></div><div class = 'column'><img src = 'usneg/9290.bmp' width = '100%;'></div></div>","null","neg","CS","CS","3","category3/CS9.png","","","","",""
"","html-keyboard-response","64","234606","0.0-6.0-4.0-0.16","hgvwls3ugt","one_one","1","direct_first","1","ER06RA18","0","21","1","0","3","1","","0","1","0","null","","","<div class = 'row'><div class = 'column'><img src = 'category2/CS4.png' width = '70%;'></div><div class = 'column'><img src = 'usneg/6570.1.bmp' width = '100%;'></div></div>","null","neg","CS","CS","2","category2/CS4.png","","","","",""
"","html-keyboard-response","65","237110","0.0-6.0-4.0-0.17","hgvwls3ugt","one_one","1","direct_first","1","ER06RA18","0","21","1","0","3","1","","0","1","0","null","","","<div class = 'row'><div class = 'column'><img src = 'category1/CS3.png' width = '70%;'></div><div class = 'column'><img src = 'uspos/5831.bmp' width = '100%;'></div></div>","null","pos","CS","CS","1","category1/CS3.png","","","","",""
"","html-keyboard-response","66","239614","0.0-6.0-4.0-0.18","hgvwls3ugt","one_one","1","direct_first","1","ER06RA18","0","21","1","0","3","1","","0","1","0","null","","","<div class = 'row'><div class = 'column'><img src = 'usneg/6570.1.bmp' width = '100%;'></div><div class = 'column'><img src = 'category2/CS4.png' width = '70%;'></div></div>","null","neg","CS","CS","2","category2/CS4.png","","","","",""
"","html-keyboard-response","67","242121","0.0-6.0-4.0-0.19","hgvwls3ugt","one_one","1","direct_first","1","ER06RA18","0","21","1","0","3","1","","0","1","0","null","","","<div class = 'row'><div class = 'column'><img src = 'category4/CS9.png' width = '70%;'></div><div class = 'column'><img src = 'uspos/2360.bmp' width = '100%;'></div></div>","null","pos","CS","CS","4","category4/CS9.png","","","","",""
"","survey-html-form","68","272798","0.0-6.0-5.0","hgvwls3ugt","one_one","1","direct_first","1","ER06RA18","0","21","1","0","3","1","","0","1","0","30175.054999999702","","{}","","","","","","","","","","","",""
"","html-keyboard-response","69","276841","0.0-6.0-6.0-0.0","hgvwls3ugt","one_one","1","direct_first","1","ER06RA18","0","21","1","0","3","1","","0","1","0","null","","","<div class = 'row'><div class = 'column'><img src = 'uspos/5831.bmp' width = '100%;'></div><div class = 'column'><img src = 'category1/CS3.png' width = '70%;'></div></div>","null","pos","CS","CS","1","category1/CS3.png","","","","",""
"","html-keyboard-response","70","279346","0.0-6.0-6.0-0.1","hgvwls3ugt","one_one","1","direct_first","1","ER06RA18","0","21","1","0","3","1","","0","1","0","null","","","<div class = 'row'><div class = 'column'><img src = 'usneg/9290.bmp' width = '100%;'></div><div class = 'column'><img src = 'category3/CS9.png' width = '70%;'></div></div>","null","neg","CS","CS","3","category3/CS9.png","","","","",""
"","html-keyboard-response","71","281851","0.0-6.0-6.0-0.2","hgvwls3ugt","one_one","1","direct_first","1","ER06RA18","0","21","1","0","3","1","","0","1","0","null","","","<div class = 'row'><div class = 'column'><img src = 'category1/CS3.png' width = '70%;'></div><div class = 'column'><img src = 'uspos/5831.bmp' width = '100%;'></div></div>","null","pos","CS","CS","1","category1/CS3.png","","","","",""
"","html-keyboard-response","72","284356","0.0-6.0-6.0-0.3","hgvwls3ugt","one_one","1","direct_first","1","ER06RA18","0","21","1","0","3","1","","0","1","0","null","","","<div class = 'row'><div class = 'column'><img src = 'category3/CS9.png' width = '70%;'></div><div class = 'column'><img src = 'usneg/9290.bmp' width = '100%;'></div></div>","null","neg","CS","CS","3","category3/CS9.png","","","","",""
"","html-keyboard-response","73","286863","0.0-6.0-6.0-0.4","hgvwls3ugt","one_one","1","direct_first","1","ER06RA18","0","21","1","0","3","1","","0","1","0","null","","","<div class = 'row'><div class = 'column'><img src = 'usneg/6570.1.bmp' width = '100%;'></div><div class = 'column'><img src = 'category2/CS4.png' width = '70%;'></div></div>","null","neg","CS","CS","2","category2/CS4.png","","","","",""
"","html-keyboard-response","74","289373","0.0-6.0-6.0-0.5","hgvwls3ugt","one_one","1","direct_first","1","ER06RA18","0","21","1","0","3","1","","0","1","0","null","","","<div class = 'row'><div class = 'column'><img src = 'category4/CS9.png' width = '70%;'></div><div class = 'column'><img src = 'uspos/2360.bmp' width = '100%;'></div></div>","null","pos","CS","CS","4","category4/CS9.png","","","","",""
"","html-keyboard-response","75","291880","0.0-6.0-6.0-0.6","hgvwls3ugt","one_one","1","direct_first","1","ER06RA18","0","21","1","0","3","1","","0","1","0","null","","","<div class = 'row'><div class = 'column'><img src = 'usneg/9290.bmp' width = '100%;'></div><div class = 'column'><img src = 'category3/CS9.png' width = '70%;'></div></div>","null","neg","CS","CS","3","category3/CS9.png","","","","",""
"","html-keyboard-response","76","294384","0.0-6.0-6.0-0.7","hgvwls3ugt","one_one","1","direct_first","1","ER06RA18","0","21","1","0","3","1","","0","1","0","null","","","<div class = 'row'><div class = 'column'><img src = 'uspos/2360.bmp' width = '100%;'></div><div class = 'column'><img src = 'category4/CS9.png' width = '70%;'></div></div>","null","pos","CS","CS","4","category4/CS9.png","","","","",""
"","html-keyboard-response","77","296891","0.0-6.0-6.0-0.8","hgvwls3ugt","one_one","1","direct_first","1","ER06RA18","0","21","1","0","3","1","","0","1","0","null","","","<div class = 'row'><div class = 'column'><img src = 'category1/CS3.png' width = '70%;'></div><div class = 'column'><img src = 'uspos/5831.bmp' width = '100%;'></div></div>","null","pos","CS","CS","1","category1/CS3.png","","","","",""
"","html-keyboard-response","78","299396","0.0-6.0-6.0-0.9","hgvwls3ugt","one_one","1","direct_first","1","ER06RA18","0","21","1","0","3","1","","0","1","0","null","","","<div class = 'row'><div class = 'column'><img src = 'category3/CS9.png' width = '70%;'></div><div class = 'column'><img src = 'usneg/9290.bmp' width = '100%;'></div></div>","null","neg","CS","CS","3","category3/CS9.png","","","","",""
"","html-keyboard-response","79","301901","0.0-6.0-6.0-0.10","hgvwls3ugt","one_one","1","direct_first","1","ER06RA18","0","21","1","0","3","1","","0","1","0","null","","","<div class = 'row'><div class = 'column'><img src = 'usneg/6570.1.bmp' width = '100%;'></div><div class = 'column'><img src = 'category2/CS4.png' width = '70%;'></div></div>","null","neg","CS","CS","2","category2/CS4.png","","","","",""
"","html-keyboard-response","80","304432","0.0-6.0-6.0-0.11","hgvwls3ugt","one_one","1","direct_first","1","ER06RA18","0","21","1","0","3","1","","0","1","0","null","","","<div class = 'row'><div class = 'column'><img src = 'category1/CS3.png' width = '70%;'></div><div class = 'column'><img src = 'uspos/5831.bmp' width = '100%;'></div></div>","null","pos","CS","CS","1","category1/CS3.png","","","","",""
"","html-keyboard-response","81","306936","0.0-6.0-6.0-0.12","hgvwls3ugt","one_one","1","direct_first","1","ER06RA18","0","21","1","0","3","1","","0","1","0","null","","","<div class = 'row'><div class = 'column'><img src = 'category4/CS9.png' width = '70%;'></div><div class = 'column'><img src = 'uspos/2360.bmp' width = '100%;'></div></div>","null","pos","CS","CS","4","category4/CS9.png","","","","",""
"","html-keyboard-response","82","309442","0.0-6.0-6.0-0.13","hgvwls3ugt","one_one","1","direct_first","1","ER06RA18","0","21","1","0","3","1","","0","1","0","null","","","<div class = 'row'><div class = 'column'><img src = 'uspos/5831.bmp' width = '100%;'></div><div class = 'column'><img src = 'category1/CS3.png' width = '70%;'></div></div>","null","pos","CS","CS","1","category1/CS3.png","","","","",""
"","html-keyboard-response","83","311948","0.0-6.0-6.0-0.14","hgvwls3ugt","one_one","1","direct_first","1","ER06RA18","0","21","1","0","3","1","","0","1","0","null","","","<div class = 'row'><div class = 'column'><img src = 'usneg/6570.1.bmp' width = '100%;'></div><div class = 'column'><img src = 'category2/CS4.png' width = '70%;'></div></div>","null","neg","CS","CS","2","category2/CS4.png","","","","",""
"","html-keyboard-response","84","314508","0.0-6.0-6.0-0.15","hgvwls3ugt","one_one","1","direct_first","1","ER06RA18","0","21","1","0","3","1","","0","1","0","null","","","<div class = 'row'><div class = 'column'><img src = 'uspos/2360.bmp' width = '100%;'></div><div class = 'column'><img src = 'category4/CS9.png' width = '70%;'></div></div>","null","pos","CS","CS","4","category4/CS9.png","","","","",""
"","html-keyboard-response","85","317012","0.0-6.0-6.0-0.16","hgvwls3ugt","one_one","1","direct_first","1","ER06RA18","0","21","1","0","3","1","","0","1","0","null","","","<div class = 'row'><div class = 'column'><img src = 'category2/CS4.png' width = '70%;'></div><div class = 'column'><img src = 'usneg/6570.1.bmp' width = '100%;'></div></div>","null","neg","CS","CS","2","category2/CS4.png","","","","",""
"","html-keyboard-response","86","319517","0.0-6.0-6.0-0.17","hgvwls3ugt","one_one","1","direct_first","1","ER06RA18","0","21","1","0","3","1","","0","1","0","null","","","<div class = 'row'><div class = 'column'><img src = 'uspos/2360.bmp' width = '100%;'></div><div class = 'column'><img src = 'category4/CS9.png' width = '70%;'></div></div>","null","pos","CS","CS","4","category4/CS9.png","","","","",""
"","html-keyboard-response","87","322022","0.0-6.0-6.0-0.18","hgvwls3ugt","one_one","1","direct_first","1","ER06RA18","0","21","1","0","3","1","","0","1","0","null","","","<div class = 'row'><div class = 'column'><img src = 'category2/CS4.png' width = '70%;'></div><div class = 'column'><img src = 'usneg/6570.1.bmp' width = '100%;'></div></div>","null","neg","CS","CS","2","category2/CS4.png","","","","",""
"","html-keyboard-response","88","324528","0.0-6.0-6.0-0.19","hgvwls3ugt","one_one","1","direct_first","1","ER06RA18","0","21","1","0","3","1","","0","1","0","null","","","<div class = 'row'><div class = 'column'><img src = 'usneg/9290.bmp' width = '100%;'></div><div class = 'column'><img src = 'category3/CS9.png' width = '70%;'></div></div>","null","neg","CS","CS","3","category3/CS9.png","","","","",""
"","survey-html-form","89","331129","0.0-7.0","hgvwls3ugt","one_one","1","direct_first","1","ER06RA18","0","21","1","0","3","1","","0","1","0","6097.435000001511","","{}","","","","","","","","","","","",""
"","image-slider-response","90","339066","0.0-8.0-0.0","hgvwls3ugt","one_one","1","direct_first","1","ER06RA18","0","21","1","0","3","1","","0","1","0","5930.985000000859","","","","","pos","GS","abstract","4","category4/lin.png","45","targets/13.png","direct","",""
"","image-slider-response","91","342832","0.0-8.0-0.1","hgvwls3ugt","one_one","1","direct_first","1","ER06RA18","0","21","1","0","3","1","","0","1","0","3763.479999999574","","","","","pos","GS","GSold","4","category4/CS10.png","61","targets/32.png","direct","",""
"","image-slider-response","92","346670","0.0-8.0-0.2","hgvwls3ugt","one_one","1","direct_first","1","ER06RA18","0","21","1","0","3","1","","0","1","0","3835.2250000007334","","","","","neg","GS","GSnew","3","category3/GS1.png","-38","targets/5.png","direct","",""
"","image-slider-response","93","351486","0.0-8.0-0.3","hgvwls3ugt","one_one","1","direct_first","1","ER06RA18","0","21","1","0","3","1","","0","1","0","4813.204999998561","","","","","neg","GS","GSnew","2","category2/GS2.png","-30","targets/23.png","direct","",""
"","image-slider-response","94","355238","0.0-8.0-0.4","hgvwls3ugt","one_one","1","direct_first","1","ER06RA18","0","21","1","0","3","1","","0","1","0","3748.6250000001746","","","","","neg","GS","GSold","3","category3/CS1.png","62","targets/6.png","direct","",""
"","image-slider-response","95","360463","0.0-8.0-0.5","hgvwls3ugt","one_one","1","direct_first","1","ER06RA18","0","21","1","0","3","1","","0","1","0","5221.960000000778","","","","","pos","GS","GSold","4","category4/CS1.png","65","targets/17.png","direct","",""
"","image-slider-response","96","364193","0.0-8.0-0.6","hgvwls3ugt","one_one","1","direct_first","1","ER06RA18","0","21","1","0","3","1","","0","1","0","3726.135000000824","","","","","pos","GS","abstract","1","category1/ma.png","65","targets/35.png","direct","",""
"","image-slider-response","97","367317","0.0-8.0-0.7","hgvwls3ugt","one_one","1","direct_first","1","ER06RA18","0","21","1","0","3","1","","0","1","0","3121.2349999987055","","","","","neg","GS","abstract","3","category3/wang.png","54","targets/47.png","direct","",""
"","image-slider-response","98","370961","0.0-8.0-0.8","hgvwls3ugt","one_one","1","direct_first","1","ER06RA18","0","21","1","0","3","1","","0","1","0","3641.0649999998277","","","","","pos","GS","GSnew","4","category4/GS3.png","-40","targets/10.png","direct","",""
"","image-slider-response","99","374934","0.0-8.0-0.9","hgvwls3ugt","one_one","1","direct_first","1","ER06RA18","0","21","1","0","3","1","","0","1","0","3970.425000001327","","","","","pos","GS","GSold","1","category1/CS4.png","-52","targets/9.png","direct","",""
"","image-slider-response","100","378453","0.0-8.0-0.10","hgvwls3ugt","one_one","1","direct_first","1","ER06RA18","0","21","1","0","3","1","","0","1","0","3516.470000000496","","","","","pos","GS","GSold","4","category4/CS8.png","42","targets/36.png","direct","",""
"","image-slider-response","101","381703","0.0-8.0-0.11","hgvwls3ugt","one_one","1","direct_first","1","ER06RA18","0","21","1","0","3","1","","0","1","0","3245.174999998184","","","","","neg","CS","CS","3","category3/CS9.png","73","targets/46.png","direct","",""
"","image-slider-response","102","386246","0.0-8.0-0.12","hgvwls3ugt","one_one","1","direct_first","1","ER06RA18","0","21","1","0","3","1","","0","1","0","4540.590000000491","","","","","pos","GS","GSold","1","category1/CS5.png","-70","targets/20.png","direct","",""
"","image-slider-response","103","389264","0.0-8.0-0.13","hgvwls3ugt","one_one","1","direct_first","1","ER06RA18","0","21","1","0","3","1","","0","1","0","3013.8700000006356","","","","","neg","GS","GSold","3","category3/CS5.png","71","targets/41.png","direct","",""
"","image-slider-response","104","392961","0.0-8.0-0.14","hgvwls3ugt","one_one","1","direct_first","1","ER06RA18","0","21","1","0","3","1","","0","1","0","3693.8900000004796","","","","","neg","CS","CS","2","category2/CS4.png","-60","targets/31.png","direct","",""
"","image-slider-response","105","396148","0.0-8.0-0.15","hgvwls3ugt","one_one","1","direct_first","1","ER06RA18","0","21","1","0","3","1","","0","1","0","3184.4199999996345","","","","","pos","GS","GSnew","4","category4/GS2.png","72","targets/26.png","direct","",""
"","image-slider-response","106","399874","0.0-8.0-0.16","hgvwls3ugt","one_one","1","direct_first","1","ER06RA18","0","21","1","0","3","1","","0","1","0","3721.325000000419","","","","","neg","GS","GSold","2","category2/CS1.png","77","targets/21.png","direct","",""
"","image-slider-response","107","402675","0.0-8.0-0.17","hgvwls3ugt","one_one","1","direct_first","1","ER06RA18","0","21","1","0","3","1","","0","1","0","2798.310000000114","","","","","neg","GS","GSold","2","category2/CS5.png","-38","targets/7.png","direct","",""
"","image-slider-response","108","406210","0.0-8.0-0.18","hgvwls3ugt","one_one","1","direct_first","1","ER06RA18","0","21","1","0","3","1","","0","1","0","3532.55499999976","","","","","pos","GS","GSold","1","category1/CS6.png","70","targets/14.png","direct","",""
"","image-slider-response","109","409050","0.0-8.0-0.19","hgvwls3ugt","one_one","1","direct_first","1","ER06RA18","0","21","1","0","3","1","","0","1","0","2836.6750000005122","","","","","neg","GS","GSold","2","category2/CS8.png","-45","targets/18.png","direct","",""
"","image-slider-response","110","412452","0.0-8.0-0.20","hgvwls3ugt","one_one","1","direct_first","1","ER06RA18","0","21","1","0","3","1","","0","1","0","3399.5400000003283","","","","","neg","GS","GSnew","2","category2/GS1.png","-42","targets/11.png","direct","",""
"","image-slider-response","111","416210","0.0-8.0-0.21","hgvwls3ugt","one_one","1","direct_first","1","ER06RA18","0","21","1","0","3","1","","0","1","0","3754.390000000014","","","","","pos","CS","CS","1","category1/CS3.png","83","targets/24.png","direct","",""
"","image-slider-response","112","419004","0.0-8.0-0.22","hgvwls3ugt","one_one","1","direct_first","1","ER06RA18","0","21","1","0","3","1","","0","1","0","2790.155000000552","","","","","neg","GS","GSnew","2","category2/GS3.png","-53","targets/8.png","direct","",""
"","image-slider-response","113","421873","0.0-8.0-0.23","hgvwls3ugt","one_one","1","direct_first","1","ER06RA18","0","21","1","0","3","1","","0","1","0","2865.8300000006566","","","","","neg","GS","GSold","3","category3/CS4.png","32","targets/16.png","direct","",""
"","image-slider-response","114","425568","0.0-8.0-0.24","hgvwls3ugt","one_one","1","direct_first","1","ER06RA18","0","21","1","0","3","1","","0","1","0","3692.049999999639","","","","","pos","GS","GSnew","4","category4/GS1.png","63","targets/48.png","direct","",""
"","image-slider-response","115","428646","0.0-8.0-0.25","hgvwls3ugt","one_one","1","direct_first","1","ER06RA18","0","21","1","0","3","1","","0","1","0","3074.8600000006263","","","","","pos","GS","GSnew","1","category1/GS1.png","42","targets/27.png","direct","",""
"","image-slider-response","116","431031","0.0-8.0-0.26","hgvwls3ugt","one_one","1","direct_first","1","ER06RA18","0","21","1","0","3","1","","0","1","0","2382.749999998836","","","","","pos","GS","GSnew","1","category1/GS2.png","33","targets/42.png","direct","",""
"","image-slider-response","117","434287","0.0-8.0-0.27","hgvwls3ugt","one_one","1","direct_first","1","ER06RA18","0","21","1","0","3","1","","0","1","0","3253.469999999681","","","","","pos","CS","CS","4","category4/CS9.png","66","targets/29.png","direct","",""
"","image-slider-response","118","437265","0.0-8.0-0.28","hgvwls3ugt","one_one","1","direct_first","1","ER06RA18","0","21","1","0","3","1","","0","1","0","2974.25999999902","","","","","neg","GS","abstract","2","category2/men.png","50","targets/33.png","direct","",""
"","image-slider-response","119","439951","0.0-8.0-0.29","hgvwls3ugt","one_one","1","direct_first","1","ER06RA18","0","21","1","0","3","1","","0","1","0","2682.93999999878","","","","","neg","GS","GSnew","3","category3/GS2.png","-63","targets/40.png","direct","",""
"","image-slider-response","120","442758","0.0-8.0-0.30","hgvwls3ugt","one_one","1","direct_first","1","ER06RA18","0","21","1","0","3","1","","0","1","0","2805.2700000007753","","","","","neg","GS","GSnew","3","category3/GS3.png","62","targets/2.png","direct","",""
"","image-slider-response","121","448514","0.0-8.0-0.31","hgvwls3ugt","one_one","1","direct_first","1","ER06RA18","0","21","1","0","3","1","","0","1","0","5753.640000000829","","","","","pos","GS","GSnew","1","category1/GS3.png","52","targets/25.png","direct","",""
"","html-keyboard-response","122","456759","0.0-9.0","hgvwls3ugt","one_one","1","direct_first","1","ER06RA18","0","21","1","0","3","1","","0","1","0","8241.990000000456","","","<p>Sie sehen nun die chinesischen Zeichen nur ganz kurz. Danach sehen Sie die jeweilige Aussprache der Zeichen als Silbe auf dem Bildschrim. Ihre Aufgabe ist es, für jede Silbe anzugeben, ob diese etwas angenehmes, oder unangenehmes bedeuten könnte. Verlassen Sie sich hier vor allem auf Ihre Intuition.<br><br>Die Zeichen werden nur zur Orientierung dargestellt, beachten Sie sie deshalb nicht. Konzentrieren Sie sich vor allem auf die Silben. <br>Reagieren Sie mit folgenden zwei Tasten: <br><br><b>'D' </b> wenn die Silbe etwas <b>unangenehmes</b> bedeuten könnte. <br><b>'K'</b> wenn die Silbe etwas <b>angenehmes</b> bedeuten könnte. <br><br>Bitte legen Sie nun den Zeigefinger der linken Hand auf die Taste 'D' und den Zeigefinger der rechten Hand auf die Taste 'K'. <br>Reagieren Sie auf jede Silbe so schnell wie möglich. Uns interessiert Ihre spontane Reaktion. <br> <br> <br>Drücken Sie 'D' oder 'K', um die nächste Aufgabe zu starten. </p>","75","","","","","","","","","",""
"","html-keyboard-response","123","459762","0.0-10.0-0.0","hgvwls3ugt","one_one","1","direct_first","1","ER06RA18","0","21","1","0","3","1","","0","1","0","null","","","<div style=""font-size:60px;"">+</div>","null","","","","","","","","","",""
"","html-keyboard-response","124","459854","0.0-10.0-1.0","hgvwls3ugt","one_one","1","direct_first","1","ER06RA18","0","21","1","0","3","1","","0","1","0","null","","","<img src = 'category3/CS4.png' width = '100%;'>","null","","","","","","","","","",""
"","html-keyboard-response","125","460108","0.0-10.0-2.0","hgvwls3ugt","one_one","1","direct_first","1","ER06RA18","0","21","1","0","3","1","","0","1","0","null","","","<img src = 'targets/16.png' width = '100%;'>","null","","","","","","","","","",""
"","html-keyboard-response","126","462296","0.0-10.0-3.0","hgvwls3ugt","one_one","1","direct_first","1","ER06RA18","0","21","1","0","3","1","","0","1","0","2184.6900000000023","","","<img src = 'targets/mask.png' width = '100%;'>","75","neg","GS","GSold","3","category3/CS4.png","","targets/16.png","indirect","1","0"
"","html-keyboard-response","127","463800","0.0-10.0-0.1","hgvwls3ugt","one_one","1","direct_first","1","ER06RA18","0","21","1","0","3","1","","0","1","0","null","","","<div style=""font-size:60px;"">+</div>","null","","","","","","","","","",""
"","html-keyboard-response","128","463893","0.0-10.0-1.1","hgvwls3ugt","one_one","1","direct_first","1","ER06RA18","0","21","1","0","3","1","","0","1","0","null","","","<img src = 'category4/CS10.png' width = '100%;'>","null","","","","","","","","","",""
"","html-keyboard-response","129","464147","0.0-10.0-2.1","hgvwls3ugt","one_one","1","direct_first","1","ER06RA18","0","21","1","0","3","1","","0","1","0","null","","","<img src = 'targets/32.png' width = '100%;'>","null","","","","","","","","","",""
"","html-keyboard-response","130","465015","0.0-10.0-3.1","hgvwls3ugt","one_one","1","direct_first","1","ER06RA18","0","21","1","0","3","1","","0","1","0","865.6899999987218","","","<img src = 'targets/mask.png' width = '100%;'>","75","pos","GS","GSold","4","category4/CS10.png","","targets/32.png","indirect","1","1"
"","html-keyboard-response","131","466517","0.0-10.0-0.2","hgvwls3ugt","one_one","1","direct_first","1","ER06RA18","0","21","1","0","3","1","","0","1","0","null","","","<div style=""font-size:60px;"">+</div>","null","","","","","","","","","",""
"","html-keyboard-response","132","466611","0.0-10.0-1.2","hgvwls3ugt","one_one","1","direct_first","1","ER06RA18","0","21","1","0","3","1","","0","1","0","null","","","<img src = 'category3/CS1.png' width = '100%;'>","null","","","","","","","","","",""
"","html-keyboard-response","133","466864","0.0-10.0-2.2","hgvwls3ugt","one_one","1","direct_first","1","ER06RA18","0","21","1","0","3","1","","0","1","0","null","","","<img src = 'targets/6.png' width = '100%;'>","null","","","","","","","","","",""
"","html-keyboard-response","134","468648","0.0-10.0-3.2","hgvwls3ugt","one_one","1","direct_first","1","ER06RA18","0","21","1","0","3","1","","0","1","0","1781.954999998561","","","<img src = 'targets/mask.png' width = '100%;'>","68","neg","GS","GSold","3","category3/CS1.png","","targets/6.png","indirect","0","2"
"","html-keyboard-response","135","470153","0.0-10.0-0.3","hgvwls3ugt","one_one","1","direct_first","1","ER06RA18","0","21","1","0","3","1","","0","1","0","null","","","<div style=""font-size:60px;"">+</div>","null","","","","","","","","","",""
"","html-keyboard-response","136","470248","0.0-10.0-1.3","hgvwls3ugt","one_one","1","direct_first","1","ER06RA18","0","21","1","0","3","1","","0","1","0","null","","","<img src = 'category2/CS1.png' width = '100%;'>","null","","","","","","","","","",""
"","html-keyboard-response","137","470502","0.0-10.0-2.3","hgvwls3ugt","one_one","1","direct_first","1","ER06RA18","0","21","1","0","3","1","","0","1","0","null","","","<img src = 'targets/21.png' width = '100%;'>","null","","","","","","","","","",""
"","html-keyboard-response","138","471646","0.0-10.0-3.3","hgvwls3ugt","one_one","1","direct_first","1","ER06RA18","0","21","1","0","3","1","","0","1","0","1142.5899999995017","","","<img src = 'targets/mask.png' width = '100%;'>","75","neg","GS","GSold","2","category2/CS1.png","","targets/21.png","indirect","1","3"
"","html-keyboard-response","139","473149","0.0-10.0-0.4","hgvwls3ugt","one_one","1","direct_first","1","ER06RA18","0","21","1","0","3","1","","0","1","0","null","","","<div style=""font-size:60px;"">+</div>","null","","","","","","","","","",""
"","html-keyboard-response","140","473241","0.0-10.0-1.4","hgvwls3ugt","one_one","1","direct_first","1","ER06RA18","0","21","1","0","3","1","","0","1","0","null","","","<img src = 'category1/CS3.png' width = '100%;'>","null","","","","","","","","","",""
"","html-keyboard-response","141","473494","0.0-10.0-2.4","hgvwls3ugt","one_one","1","direct_first","1","ER06RA18","0","21","1","0","3","1","","0","1","0","null","","","<img src = 'targets/24.png' width = '100%;'>","null","","","","","","","","","",""
"","html-keyboard-response","142","474330","0.0-10.0-3.4","hgvwls3ugt","one_one","1","direct_first","1","ER06RA18","0","21","1","0","3","1","","0","1","0","833.6849999995902","","","<img src = 'targets/mask.png' width = '100%;'>","75","pos","CS","CS","1","category1/CS3.png","","targets/24.png","indirect","1","4"
"","html-keyboard-response","143","475832","0.0-10.0-0.5","hgvwls3ugt","one_one","1","direct_first","1","ER06RA18","0","21","1","0","3","1","","0","1","0","null","","","<div style=""font-size:60px;"">+</div>","null","","","","","","","","","",""
"","html-keyboard-response","144","475924","0.0-10.0-1.5","hgvwls3ugt","one_one","1","direct_first","1","ER06RA18","0","21","1","0","3","1","","0","1","0","null","","","<img src = 'category1/CS5.png' width = '100%;'>","null","","","","","","","","","",""
"","html-keyboard-response","145","476181","0.0-10.0-2.5","hgvwls3ugt","one_one","1","direct_first","1","ER06RA18","0","21","1","0","3","1","","0","1","0","null","","","<img src = 'targets/20.png' width = '100%;'>","null","","","","","","","","","",""
"","html-keyboard-response","146","477171","0.0-10.0-3.5","hgvwls3ugt","one_one","1","direct_first","1","ER06RA18","0","21","1","0","3","1","","0","1","0","987.9500000005937","","","<img src = 'targets/mask.png' width = '100%;'>","75","pos","GS","GSold","1","category1/CS5.png","","targets/20.png","indirect","1","5"
"","html-keyboard-response","147","478674","0.0-10.0-0.6","hgvwls3ugt","one_one","1","direct_first","1","ER06RA18","0","21","1","0","3","1","","0","1","0","null","","","<div style=""font-size:60px;"">+</div>","null","","","","","","","","","",""
"","html-keyboard-response","148","478768","0.0-10.0-1.6","hgvwls3ugt","one_one","1","direct_first","1","ER06RA18","0","21","1","0","3","1","","0","1","0","null","","","<img src = 'category2/CS8.png' width = '100%;'>","null","","","","","","","","","",""
"","html-keyboard-response","149","479021","0.0-10.0-2.6","hgvwls3ugt","one_one","1","direct_first","1","ER06RA18","0","21","1","0","3","1","","0","1","0","null","","","<img src = 'targets/18.png' width = '100%;'>","null","","","","","","","","","",""
"","html-keyboard-response","150","479691","0.0-10.0-3.6","hgvwls3ugt","one_one","1","direct_first","1","ER06RA18","0","21","1","0","3","1","","0","1","0","668.7250000013737","","","<img src = 'targets/mask.png' width = '100%;'>","68","neg","GS","GSold","2","category2/CS8.png","","targets/18.png","indirect","0","6"
"","html-keyboard-response","151","481195","0.0-10.0-0.7","hgvwls3ugt","one_one","1","direct_first","1","ER06RA18","0","21","1","0","3","1","","0","1","0","null","","","<div style=""font-size:60px;"">+</div>","null","","","","","","","","","",""
"","html-keyboard-response","152","481288","0.0-10.0-1.7","hgvwls3ugt","one_one","1","direct_first","1","ER06RA18","0","21","1","0","3","1","","0","1","0","null","","","<img src = 'category1/CS4.png' width = '100%;'>","null","","","","","","","","","",""
"","html-keyboard-response","153","481541","0.0-10.0-2.7","hgvwls3ugt","one_one","1","direct_first","1","ER06RA18","0","21","1","0","3","1","","0","1","0","null","","","<img src = 'targets/9.png' width = '100%;'>","null","","","","","","","","","",""
"","html-keyboard-response","154","482344","0.0-10.0-3.7","hgvwls3ugt","one_one","1","direct_first","1","ER06RA18","0","21","1","0","3","1","","0","1","0","800.9400000009919","","","<img src = 'targets/mask.png' width = '100%;'>","75","pos","GS","GSold","1","category1/CS4.png","","targets/9.png","indirect","1","7"
"","html-keyboard-response","155","483848","0.0-10.0-0.8","hgvwls3ugt","one_one","1","direct_first","1","ER06RA18","0","21","1","0","3","1","","0","1","0","null","","","<div style=""font-size:60px;"">+</div>","null","","","","","","","","","",""
"","html-keyboard-response","156","483941","0.0-10.0-1.8","hgvwls3ugt","one_one","1","direct_first","1","ER06RA18","0","21","1","0","3","1","","0","1","0","null","","","<img src = 'category2/CS4.png' width = '100%;'>","null","","","","","","","","","",""
"","html-keyboard-response","157","484196","0.0-10.0-2.8","hgvwls3ugt","one_one","1","direct_first","1","ER06RA18","0","21","1","0","3","1","","0","1","0","null","","","<img src = 'targets/31.png' width = '100%;'>","null","","","","","","","","","",""
"","html-keyboard-response","158","484851","0.0-10.0-3.8","hgvwls3ugt","one_one","1","direct_first","1","ER06RA18","0","21","1","0","3","1","","0","1","0","653.4899999987683","","","<img src = 'targets/mask.png' width = '100%;'>","75","neg","CS","CS","2","category2/CS4.png","","targets/31.png","indirect","1","8"
"","html-keyboard-response","159","486354","0.0-10.0-0.9","hgvwls3ugt","one_one","1","direct_first","1","ER06RA18","0","21","1","0","3","1","","0","1","0","null","","","<div style=""font-size:60px;"">+</div>","null","","","","","","","","","",""
"","html-keyboard-response","160","486447","0.0-10.0-1.9","hgvwls3ugt","one_one","1","direct_first","1","ER06RA18","0","21","1","0","3","1","","0","1","0","null","","","<img src = 'category1/CS6.png' width = '100%;'>","null","","","","","","","","","",""
"","html-keyboard-response","161","486699","0.0-10.0-2.9","hgvwls3ugt","one_one","1","direct_first","1","ER06RA18","0","21","1","0","3","1","","0","1","0","null","","","<img src = 'targets/14.png' width = '100%;'>","null","","","","","","","","","",""
"","html-keyboard-response","162","487951","0.0-10.0-3.9","hgvwls3ugt","one_one","1","direct_first","1","ER06RA18","0","21","1","0","3","1","","0","1","0","1249.8849999993108","","","<img src = 'targets/mask.png' width = '100%;'>","75","pos","GS","GSold","1","category1/CS6.png","","targets/14.png","indirect","1","9"
"","html-keyboard-response","163","489454","0.0-10.0-0.10","hgvwls3ugt","one_one","1","direct_first","1","ER06RA18","0","21","1","0","3","1","","0","1","0","null","","","<div style=""font-size:60px;"">+</div>","null","","","","","","","","","",""
"","html-keyboard-response","164","489546","0.0-10.0-1.10","hgvwls3ugt","one_one","1","direct_first","1","ER06RA18","0","21","1","0","3","1","","0","1","0","null","","","<img src = 'category4/CS9.png' width = '100%;'>","null","","","","","","","","","",""
"","html-keyboard-response","165","489799","0.0-10.0-2.10","hgvwls3ugt","one_one","1","direct_first","1","ER06RA18","0","21","1","0","3","1","","0","1","0","null","","","<img src = 'targets/29.png' width = '100%;'>","null","","","","","","","","","",""
"","html-keyboard-response","166","491068","0.0-10.0-3.10","hgvwls3ugt","one_one","1","direct_first","1","ER06RA18","0","21","1","0","3","1","","0","1","0","1264.070000001113","","","<img src = 'targets/mask.png' width = '100%;'>","75","pos","CS","CS","4","category4/CS9.png","","targets/29.png","indirect","1","10"
"","html-keyboard-response","167","492571","0.0-10.0-0.11","hgvwls3ugt","one_one","1","direct_first","1","ER06RA18","0","21","1","0","3","1","","0","1","0","null","","","<div style=""font-size:60px;"">+</div>","null","","","","","","","","","",""
"","html-keyboard-response","168","492664","0.0-10.0-1.11","hgvwls3ugt","one_one","1","direct_first","1","ER06RA18","0","21","1","0","3","1","","0","1","0","null","","","<img src = 'category2/CS5.png' width = '100%;'>","null","","","","","","","","","",""
"","html-keyboard-response","169","492916","0.0-10.0-2.11","hgvwls3ugt","one_one","1","direct_first","1","ER06RA18","0","21","1","0","3","1","","0","1","0","null","","","<img src = 'targets/7.png' width = '100%;'>","null","","","","","","","","","",""
"","html-keyboard-response","170","493697","0.0-10.0-3.11","hgvwls3ugt","one_one","1","direct_first","1","ER06RA18","0","21","1","0","3","1","","0","1","0","778.6450000003097","","","<img src = 'targets/mask.png' width = '100%;'>","68","neg","GS","GSold","2","category2/CS5.png","","targets/7.png","indirect","0","11"
"","html-keyboard-response","171","495200","0.0-10.0-0.12","hgvwls3ugt","one_one","1","direct_first","1","ER06RA18","0","21","1","0","3","1","","0","1","0","null","","","<div style=""font-size:60px;"">+</div>","null","","","","","","","","","",""
"","html-keyboard-response","172","495292","0.0-10.0-1.12","hgvwls3ugt","one_one","1","direct_first","1","ER06RA18","0","21","1","0","3","1","","0","1","0","null","","","<img src = 'category4/CS1.png' width = '100%;'>","null","","","","","","","","","",""
"","html-keyboard-response","173","495546","0.0-10.0-2.12","hgvwls3ugt","one_one","1","direct_first","1","ER06RA18","0","21","1","0","3","1","","0","1","0","null","","","<img src = 'targets/17.png' width = '100%;'>","null","","","","","","","","","",""
"","html-keyboard-response","174","496557","0.0-10.0-3.12","hgvwls3ugt","one_one","1","direct_first","1","ER06RA18","0","21","1","0","3","1","","0","1","0","1009.2150000000256","","","<img src = 'targets/mask.png' width = '100%;'>","75","pos","GS","GSold","4","category4/CS1.png","","targets/17.png","indirect","1","12"
"","html-keyboard-response","175","498060","0.0-10.0-0.13","hgvwls3ugt","one_one","1","direct_first","1","ER06RA18","0","21","1","0","3","1","","0","1","0","null","","","<div style=""font-size:60px;"">+</div>","null","","","","","","","","","",""
"","html-keyboard-response","176","498152","0.0-10.0-1.13","hgvwls3ugt","one_one","1","direct_first","1","ER06RA18","0","21","1","0","3","1","","0","1","0","null","","","<img src = 'category3/CS9.png' width = '100%;'>","null","","","","","","","","","",""
"","html-keyboard-response","177","498406","0.0-10.0-2.13","hgvwls3ugt","one_one","1","direct_first","1","ER06RA18","0","21","1","0","3","1","","0","1","0","null","","","<img src = 'targets/46.png' width = '100%;'>","null","","","","","","","","","",""
"","html-keyboard-response","178","499232","0.0-10.0-3.13","hgvwls3ugt","one_one","1","direct_first","1","ER06RA18","0","21","1","0","3","1","","0","1","0","824.1450000004843","","","<img src = 'targets/mask.png' width = '100%;'>","68","neg","CS","CS","3","category3/CS9.png","","targets/46.png","indirect","0","13"
"","html-keyboard-response","179","500736","0.0-10.0-0.14","hgvwls3ugt","one_one","1","direct_first","1","ER06RA18","0","21","1","0","3","1","","0","1","0","null","","","<div style=""font-size:60px;"">+</div>","null","","","","","","","","","",""
"","html-keyboard-response","180","500828","0.0-10.0-1.14","hgvwls3ugt","one_one","1","direct_first","1","ER06RA18","0","21","1","0","3","1","","0","1","0","null","","","<img src = 'category4/CS8.png' width = '100%;'>","null","","","","","","","","","",""
"","html-keyboard-response","181","501081","0.0-10.0-2.14","hgvwls3ugt","one_one","1","direct_first","1","ER06RA18","0","21","1","0","3","1","","0","1","0","null","","","<img src = 'targets/36.png' width = '100%;'>","null","","","","","","","","","",""
"","html-keyboard-response","182","502216","0.0-10.0-3.14","hgvwls3ugt","one_one","1","direct_first","1","ER06RA18","0","21","1","0","3","1","","0","1","0","1133.1749999989988","","","<img src = 'targets/mask.png' width = '100%;'>","68","pos","GS","GSold","4","category4/CS8.png","","targets/36.png","indirect","0","14"
"","html-keyboard-response","183","503719","0.0-10.0-0.15","hgvwls3ugt","one_one","1","direct_first","1","ER06RA18","0","21","1","0","3","1","","0","1","0","null","","","<div style=""font-size:60px;"">+</div>","null","","","","","","","","","",""
"","html-keyboard-response","184","503811","0.0-10.0-1.15","hgvwls3ugt","one_one","1","direct_first","1","ER06RA18","0","21","1","0","3","1","","0","1","0","null","","","<img src = 'category3/CS5.png' width = '100%;'>","null","","","","","","","","","",""
"","html-keyboard-response","185","504064","0.0-10.0-2.15","hgvwls3ugt","one_one","1","direct_first","1","ER06RA18","0","21","1","0","3","1","","0","1","0","null","","","<img src = 'targets/41.png' width = '100%;'>","null","","","","","","","","","",""
"","html-keyboard-response","186","504708","0.0-10.0-3.15","hgvwls3ugt","one_one","1","direct_first","1","ER06RA18","0","21","1","0","3","1","","0","1","0","641.5950000009616","","","<img src = 'targets/mask.png' width = '100%;'>","75","neg","GS","GSold","3","category3/CS5.png","","targets/41.png","indirect","1","15"
"","survey-html-form","187","508381","0.0-11.0","hgvwls3ugt","one_one","1","direct_first","1","ER06RA18","0","21","1","0","3","1","","0","1","0","3170.239999999525","","{}","","","","","","","","","","","",""
"","html-keyboard-response","188","511385","0.0-12.0-0.0","hgvwls3ugt","one_one","1","direct_first","1","ER06RA18","0","21","1","0","3","1","","0","1","0","null","","","<div style=""font-size:60px;"">+</div>","null","","","","","","","","","",""
"","html-keyboard-response","189","511478","0.0-12.0-1.0","hgvwls3ugt","one_one","1","direct_first","1","ER06RA18","0","21","1","0","3","1","","0","1","0","null","","","<img src = 'category1/ma.png' width = '100%;'>","null","","","","","","","","","",""
"","html-keyboard-response","190","511731","0.0-12.0-2.0","hgvwls3ugt","one_one","1","direct_first","1","ER06RA18","0","21","1","0","3","1","","0","1","0","null","","","<img src = 'targets/35.png' width = '100%;'>","null","","","","","","","","","",""
"","html-keyboard-response","191","512374","0.0-12.0-3.0","hgvwls3ugt","one_one","1","direct_first","1","ER06RA18","0","21","1","0","3","1","","0","1","0","641.0550000000512","","","<img src = 'targets/mask.png' width = '100%;'>","75","pos","GS","abstract","1","category1/ma.png","","targets/35.png","indirect","1","16"
"","html-keyboard-response","192","513876","0.0-12.0-0.1","hgvwls3ugt","one_one","1","direct_first","1","ER06RA18","0","21","1","0","3","1","","0","1","0","null","","","<div style=""font-size:60px;"">+</div>","null","","","","","","","","","",""
"","html-keyboard-response","193","513968","0.0-12.0-1.1","hgvwls3ugt","one_one","1","direct_first","1","ER06RA18","0","21","1","0","3","1","","0","1","0","null","","","<img src = 'category2/men.png' width = '100%;'>","null","","","","","","","","","",""
"","html-keyboard-response","194","514221","0.0-12.0-2.1","hgvwls3ugt","one_one","1","direct_first","1","ER06RA18","0","21","1","0","3","1","","0","1","0","null","","","<img src = 'targets/33.png' width = '100%;'>","null","","","","","","","","","",""
"","html-keyboard-response","195","514862","0.0-12.0-3.1","hgvwls3ugt","one_one","1","direct_first","1","ER06RA18","0","21","1","0","3","1","","0","1","0","638.6449999990873","","","<img src = 'targets/mask.png' width = '100%;'>","75","neg","GS","abstract","2","category2/men.png","","targets/33.png","indirect","1","17"
"","html-keyboard-response","196","516368","0.0-12.0-0.2","hgvwls3ugt","one_one","1","direct_first","1","ER06RA18","0","21","1","0","3","1","","0","1","0","null","","","<div style=""font-size:60px;"">+</div>","null","","","","","","","","","",""
"","html-keyboard-response","197","516460","0.0-12.0-1.2","hgvwls3ugt","one_one","1","direct_first","1","ER06RA18","0","21","1","0","3","1","","0","1","0","null","","","<img src = 'category3/GS3.png' width = '100%;'>","null","","","","","","","","","",""
"","html-keyboard-response","198","516713","0.0-12.0-2.2","hgvwls3ugt","one_one","1","direct_first","1","ER06RA18","0","21","1","0","3","1","","0","1","0","null","","","<img src = 'targets/2.png' width = '100%;'>","null","","","","","","","","","",""
"","html-keyboard-response","199","517482","0.0-12.0-3.2","hgvwls3ugt","one_one","1","direct_first","1","ER06RA18","0","21","1","0","3","1","","0","1","0","766.4999999996508","","","<img src = 'targets/mask.png' width = '100%;'>","68","neg","GS","GSnew","3","category3/GS3.png","","targets/2.png","indirect","0","18"
"","html-keyboard-response","200","518986","0.0-12.0-0.3","hgvwls3ugt","one_one","1","direct_first","1","ER06RA18","0","21","1","0","3","1","","0","1","0","null","","","<div style=""font-size:60px;"">+</div>","null","","","","","","","","","",""
"","html-keyboard-response","201","519079","0.0-12.0-1.3","hgvwls3ugt","one_one","1","direct_first","1","ER06RA18","0","21","1","0","3","1","","0","1","0","null","","","<img src = 'category2/GS3.png' width = '100%;'>","null","","","","","","","","","",""
"","html-keyboard-response","202","519334","0.0-12.0-2.3","hgvwls3ugt","one_one","1","direct_first","1","ER06RA18","0","21","1","0","3","1","","0","1","0","null","","","<img src = 'targets/8.png' width = '100%;'>","null","","","","","","","","","",""
"","html-keyboard-response","203","519857","0.0-12.0-3.3","hgvwls3ugt","one_one","1","direct_first","1","ER06RA18","0","21","1","0","3","1","","0","1","0","521.8800000002375","","","<img src = 'targets/mask.png' width = '100%;'>","75","neg","GS","GSnew","2","category2/GS3.png","","targets/8.png","indirect","1","19"
"","html-keyboard-response","204","521361","0.0-12.0-0.4","hgvwls3ugt","one_one","1","direct_first","1","ER06RA18","0","21","1","0","3","1","","0","1","0","null","","","<div style=""font-size:60px;"">+</div>","null","","","","","","","","","",""
"","html-keyboard-response","205","521453","0.0-12.0-1.4","hgvwls3ugt","one_one","1","direct_first","1","ER06RA18","0","21","1","0","3","1","","0","1","0","null","","","<img src = 'category2/GS2.png' width = '100%;'>","null","","","","","","","","","",""
"","html-keyboard-response","206","521705","0.0-12.0-2.4","hgvwls3ugt","one_one","1","direct_first","1","ER06RA18","0","21","1","0","3","1","","0","1","0","null","","","<img src = 'targets/23.png' width = '100%;'>","null","","","","","","","","","",""
"","html-keyboard-response","207","522929","0.0-12.0-3.4","hgvwls3ugt","one_one","1","direct_first","1","ER06RA18","0","21","1","0","3","1","","0","1","0","1221.7750000000233","","","<img src = 'targets/mask.png' width = '100%;'>","68","neg","GS","GSnew","2","category2/GS2.png","","targets/23.png","indirect","0","20"
"","html-keyboard-response","208","524434","0.0-12.0-0.5","hgvwls3ugt","one_one","1","direct_first","1","ER06RA18","0","21","1","0","3","1","","0","1","0","null","","","<div style=""font-size:60px;"">+</div>","null","","","","","","","","","",""
"","html-keyboard-response","209","524525","0.0-12.0-1.5","hgvwls3ugt","one_one","1","direct_first","1","ER06RA18","0","21","1","0","3","1","","0","1","0","null","","","<img src = 'category4/lin.png' width = '100%;'>","null","","","","","","","","","",""
"","html-keyboard-response","210","524778","0.0-12.0-2.5","hgvwls3ugt","one_one","1","direct_first","1","ER06RA18","0","21","1","0","3","1","","0","1","0","null","","","<img src = 'targets/13.png' width = '100%;'>","null","","","","","","","","","",""
"","html-keyboard-response","211","525357","0.0-12.0-3.5","hgvwls3ugt","one_one","1","direct_first","1","ER06RA18","0","21","1","0","3","1","","0","1","0","577.4199999996927","","","<img src = 'targets/mask.png' width = '100%;'>","75","pos","GS","abstract","4","category4/lin.png","","targets/13.png","indirect","1","21"
"","html-keyboard-response","212","526860","0.0-12.0-0.6","hgvwls3ugt","one_one","1","direct_first","1","ER06RA18","0","21","1","0","3","1","","0","1","0","null","","","<div style=""font-size:60px;"">+</div>","null","","","","","","","","","",""
"","html-keyboard-response","213","526953","0.0-12.0-1.6","hgvwls3ugt","one_one","1","direct_first","1","ER06RA18","0","21","1","0","3","1","","0","1","0","null","","","<img src = 'category1/GS2.png' width = '100%;'>","null","","","","","","","","","",""
"","html-keyboard-response","214","527206","0.0-12.0-2.6","hgvwls3ugt","one_one","1","direct_first","1","ER06RA18","0","21","1","0","3","1","","0","1","0","null","","","<img src = 'targets/42.png' width = '100%;'>","null","","","","","","","","","",""
"","html-keyboard-response","215","528458","0.0-12.0-3.6","hgvwls3ugt","one_one","1","direct_first","1","ER06RA18","0","21","1","0","3","1","","0","1","0","1249.8199999991339","","","<img src = 'targets/mask.png' width = '100%;'>","75","pos","GS","GSnew","1","category1/GS2.png","","targets/42.png","indirect","1","22"
"","html-keyboard-response","216","529961","0.0-12.0-0.7","hgvwls3ugt","one_one","1","direct_first","1","ER06RA18","0","21","1","0","3","1","","0","1","0","null","","","<div style=""font-size:60px;"">+</div>","null","","","","","","","","","",""
"","html-keyboard-response","217","530053","0.0-12.0-1.7","hgvwls3ugt","one_one","1","direct_first","1","ER06RA18","0","21","1","0","3","1","","0","1","0","null","","","<img src = 'category4/GS1.png' width = '100%;'>","null","","","","","","","","","",""
"","html-keyboard-response","218","530307","0.0-12.0-2.7","hgvwls3ugt","one_one","1","direct_first","1","ER06RA18","0","21","1","0","3","1","","0","1","0","null","","","<img src = 'targets/48.png' width = '100%;'>","null","","","","","","","","","",""
"","html-keyboard-response","219","531093","0.0-12.0-3.7","hgvwls3ugt","one_one","1","direct_first","1","ER06RA18","0","21","1","0","3","1","","0","1","0","782.2400000004563","","","<img src = 'targets/mask.png' width = '100%;'>","75","pos","GS","GSnew","4","category4/GS1.png","","targets/48.png","indirect","1","23"
"","html-keyboard-response","220","532596","0.0-12.0-0.8","hgvwls3ugt","one_one","1","direct_first","1","ER06RA18","0","21","1","0","3","1","","0","1","0","null","","","<div style=""font-size:60px;"">+</div>","null","","","","","","","","","",""
"","html-keyboard-response","221","532689","0.0-12.0-1.8","hgvwls3ugt","one_one","1","direct_first","1","ER06RA18","0","21","1","0","3","1","","0","1","0","null","","","<img src = 'category3/GS1.png' width = '100%;'>","null","","","","","","","","","",""
"","html-keyboard-response","222","532942","0.0-12.0-2.8","hgvwls3ugt","one_one","1","direct_first","1","ER06RA18","0","21","1","0","3","1","","0","1","0","null","","","<img src = 'targets/5.png' width = '100%;'>","null","","","","","","","","","",""
"","html-keyboard-response","223","533487","0.0-12.0-3.8","hgvwls3ugt","one_one","1","direct_first","1","ER06RA18","0","21","1","0","3","1","","0","1","0","543.5899999993853","","","<img src = 'targets/mask.png' width = '100%;'>","68","neg","GS","GSnew","3","category3/GS1.png","","targets/5.png","indirect","0","24"
"","html-keyboard-response","224","534991","0.0-12.0-0.9","hgvwls3ugt","one_one","1","direct_first","1","ER06RA18","0","21","1","0","3","1","","0","1","0","null","","","<div style=""font-size:60px;"">+</div>","null","","","","","","","","","",""
"","html-keyboard-response","225","535083","0.0-12.0-1.9","hgvwls3ugt","one_one","1","direct_first","1","ER06RA18","0","21","1","0","3","1","","0","1","0","null","","","<img src = 'category3/wang.png' width = '100%;'>","null","","","","","","","","","",""
"","html-keyboard-response","226","535337","0.0-12.0-2.9","hgvwls3ugt","one_one","1","direct_first","1","ER06RA18","0","21","1","0","3","1","","0","1","0","null","","","<img src = 'targets/47.png' width = '100%;'>","null","","","","","","","","","",""
"","html-keyboard-response","227","536321","0.0-12.0-3.9","hgvwls3ugt","one_one","1","direct_first","1","ER06RA18","0","21","1","0","3","1","","0","1","0","980.8099999990081","","","<img src = 'targets/mask.png' width = '100%;'>","75","neg","GS","abstract","3","category3/wang.png","","targets/47.png","indirect","1","25"
"","html-keyboard-response","228","537824","0.0-12.0-0.10","hgvwls3ugt","one_one","1","direct_first","1","ER06RA18","0","21","1","0","3","1","","0","1","0","null","","","<div style=""font-size:60px;"">+</div>","null","","","","","","","","","",""
"","html-keyboard-response","229","537917","0.0-12.0-1.10","hgvwls3ugt","one_one","1","direct_first","1","ER06RA18","0","21","1","0","3","1","","0","1","0","null","","","<img src = 'category3/GS2.png' width = '100%;'>","null","","","","","","","","","",""
"","html-keyboard-response","230","538171","0.0-12.0-2.10","hgvwls3ugt","one_one","1","direct_first","1","ER06RA18","0","21","1","0","3","1","","0","1","0","null","","","<img src = 'targets/40.png' width = '100%;'>","null","","","","","","","","","",""
"","html-keyboard-response","231","538641","0.0-12.0-3.10","hgvwls3ugt","one_one","1","direct_first","1","ER06RA18","0","21","1","0","3","1","","0","1","0","468.2749999993248","","","<img src = 'targets/mask.png' width = '100%;'>","75","neg","GS","GSnew","3","category3/GS2.png","","targets/40.png","indirect","1","26"
"","html-keyboard-response","232","540143","0.0-12.0-0.11","hgvwls3ugt","one_one","1","direct_first","1","ER06RA18","0","21","1","0","3","1","","0","1","0","null","","","<div style=""font-size:60px;"">+</div>","null","","","","","","","","","",""
"","html-keyboard-response","233","540236","0.0-12.0-1.11","hgvwls3ugt","one_one","1","direct_first","1","ER06RA18","0","21","1","0","3","1","","0","1","0","null","","","<img src = 'category1/GS3.png' width = '100%;'>","null","","","","","","","","","",""
"","html-keyboard-response","234","540489","0.0-12.0-2.11","hgvwls3ugt","one_one","1","direct_first","1","ER06RA18","0","21","1","0","3","1","","0","1","0","null","","","<img src = 'targets/25.png' width = '100%;'>","null","","","","","","","","","",""
"","html-keyboard-response","235","541045","0.0-12.0-3.11","hgvwls3ugt","one_one","1","direct_first","1","ER06RA18","0","21","1","0","3","1","","0","1","0","554.1550000015413","","","<img src = 'targets/mask.png' width = '100%;'>","75","pos","GS","GSnew","1","category1/GS3.png","","targets/25.png","indirect","1","27"
"","html-keyboard-response","236","542550","0.0-12.0-0.12","hgvwls3ugt","one_one","1","direct_first","1","ER06RA18","0","21","1","0","3","1","","0","1","0","null","","","<div style=""font-size:60px;"">+</div>","null","","","","","","","","","",""
"","html-keyboard-response","237","542643","0.0-12.0-1.12","hgvwls3ugt","one_one","1","direct_first","1","ER06RA18","0","21","1","0","3","1","","0","1","0","null","","","<img src = 'category2/GS1.png' width = '100%;'>","null","","","","","","","","","",""
"","html-keyboard-response","238","542896","0.0-12.0-2.12","hgvwls3ugt","one_one","1","direct_first","1","ER06RA18","0","21","1","0","3","1","","0","1","0","null","","","<img src = 'targets/11.png' width = '100%;'>","null","","","","","","","","","",""
"","html-keyboard-response","239","543584","0.0-12.0-3.12","hgvwls3ugt","one_one","1","direct_first","1","ER06RA18","0","21","1","0","3","1","","0","1","0","686.1450000014156","","","<img src = 'targets/mask.png' width = '100%;'>","75","neg","GS","GSnew","2","category2/GS1.png","","targets/11.png","indirect","1","28"
"","html-keyboard-response","240","545085","0.0-12.0-0.13","hgvwls3ugt","one_one","1","direct_first","1","ER06RA18","0","21","1","0","3","1","","0","1","0","null","","","<div style=""font-size:60px;"">+</div>","null","","","","","","","","","",""
"","html-keyboard-response","241","545178","0.0-12.0-1.13","hgvwls3ugt","one_one","1","direct_first","1","ER06RA18","0","21","1","0","3","1","","0","1","0","null","","","<img src = 'category4/GS3.png' width = '100%;'>","null","","","","","","","","","",""
"","html-keyboard-response","242","545433","0.0-12.0-2.13","hgvwls3ugt","one_one","1","direct_first","1","ER06RA18","0","21","1","0","3","1","","0","1","0","null","","","<img src = 'targets/10.png' width = '100%;'>","null","","","","","","","","","",""
"","html-keyboard-response","243","546805","0.0-12.0-3.13","hgvwls3ugt","one_one","1","direct_first","1","ER06RA18","0","21","1","0","3","1","","0","1","0","1369.3449999991572","","","<img src = 'targets/mask.png' width = '100%;'>","75","pos","GS","GSnew","4","category4/GS3.png","","targets/10.png","indirect","1","29"
"","html-keyboard-response","244","548308","0.0-12.0-0.14","hgvwls3ugt","one_one","1","direct_first","1","ER06RA18","0","21","1","0","3","1","","0","1","0","null","","","<div style=""font-size:60px;"">+</div>","null","","","","","","","","","",""
"","html-keyboard-response","245","548401","0.0-12.0-1.14","hgvwls3ugt","one_one","1","direct_first","1","ER06RA18","0","21","1","0","3","1","","0","1","0","null","","","<img src = 'category1/GS1.png' width = '100%;'>","null","","","","","","","","","",""
"","html-keyboard-response","246","548655","0.0-12.0-2.14","hgvwls3ugt","one_one","1","direct_first","1","ER06RA18","0","21","1","0","3","1","","0","1","0","null","","","<img src = 'targets/27.png' width = '100%;'>","null","","","","","","","","","",""
"","html-keyboard-response","247","549086","0.0-12.0-3.14","hgvwls3ugt","one_one","1","direct_first","1","ER06RA18","0","21","1","0","3","1","","0","1","0","429.19999999855645","","","<img src = 'targets/mask.png' width = '100%;'>","68","pos","GS","GSnew","1","category1/GS1.png","","targets/27.png","indirect","0","30"
"","html-keyboard-response","248","550587","0.0-12.0-0.15","hgvwls3ugt","one_one","1","direct_first","1","ER06RA18","0","21","1","0","3","1","","0","1","0","null","","","<div style=""font-size:60px;"">+</div>","null","","","","","","","","","",""
"","html-keyboard-response","249","550679","0.0-12.0-1.15","hgvwls3ugt","one_one","1","direct_first","1","ER06RA18","0","21","1","0","3","1","","0","1","0","null","","","<img src = 'category4/GS2.png' width = '100%;'>","null","","","","","","","","","",""
"","html-keyboard-response","250","550931","0.0-12.0-2.15","hgvwls3ugt","one_one","1","direct_first","1","ER06RA18","0","21","1","0","3","1","","0","1","0","null","","","<img src = 'targets/26.png' width = '100%;'>","null","","","","","","","","","",""
"","html-keyboard-response","251","551474","0.0-12.0-3.15","hgvwls3ugt","one_one","1","direct_first","1","ER06RA18","0","21","1","0","3","1","","0","1","0","540.4249999992317","","","<img src = 'targets/mask.png' width = '100%;'>","68","pos","GS","GSnew","4","category4/GS2.png","","targets/26.png","indirect","0","31"
"","survey-html-form","252","556264","0.0-13.0","hgvwls3ugt","one_one","1","direct_first","1","ER06RA18","0","21","1","0","3","1","","0","1","0","4287.639999998617","","{}","","","","","","","","","","","",""
"","image-slider-response","253","560972","0.0-14.0-0.0","hgvwls3ugt","one_one","1","direct_first","1","ER06RA18","0","21","1","0","3","1","","0","1","0","3697.5700000001816","","","","","neg","All","all","3","category3/wang_all.png","46","","all","",""
"","image-slider-response","254","563803","0.0-14.0-0.1","hgvwls3ugt","one_one","1","direct_first","1","ER06RA18","0","21","1","0","3","1","","0","1","0","2829.1149999985937","","","","","pos","All","all","1","category1/ma_all.png","51","","all","",""
"","image-slider-response","255","566944","0.0-14.0-0.2","hgvwls3ugt","one_one","1","direct_first","1","ER06RA18","0","21","1","0","3","1","","0","1","0","3138.6700000002747","","","","","pos","All","all","4","category4/lin_all.png","45","","all","",""
"","image-slider-response","256","571966","0.0-14.0-0.3","hgvwls3ugt","one_one","1","direct_first","1","ER06RA18","0","21","1","0","3","1","","0","1","0","5019.220000000205","","","","","neg","All","all","2","category2/men_all.png","15","","all","",""
"","survey-text","257","574421","0.0-15.0","hgvwls3ugt","one_one","1","direct_first","1","ER06RA18","0","21","1","0","3","1","","0","1","0","2435.620000000228","","{""comment"":""""}","","","","","","","","","","","",""
"","survey-html-form","258","583338","0.0-16.0","hgvwls3ugt","one_one","1","direct_first","1","ER06RA18","0","21","1","0","3","1","","0","1","0","8911.664999999572","","{""hinschauen"":""0"",""ablenkung"":""1"",""gewissenhaft"":""0""}","","","","","","","","","","","",""
