"success","trial_type","trial_index","time_elapsed","internal_node_id","subject","condition","condition_code","measure","measure_code","codeword","gender","age","education","chinese","fach","handedness","comment","hinschauen","ablenkung","gewissenhaft","rt","url","responses","stimulus","key_press","val","type","type_specific","category","cs_selected","response","target","task","indirect","nr_pres"
"true","fullscreen","0","35028","0.0-0.0","ybbwtrgqb1","one_one","1","direct_first","1","er08ef29","0","23","1","1","3","1","","0","1","0","","","","","","","","","","","","","","",""
"","external-html","1","68682","0.0-1.0","ybbwtrgqb1","one_one","1","direct_first","1","er08ef29","0","23","1","1","3","1","","0","1","0","33284.999999999985","text/information.html","","","","","","","","","","","","",""
"","external-html","2","88837","0.0-2.0","ybbwtrgqb1","one_one","1","direct_first","1","er08ef29","0","23","1","1","3","1","","0","1","0","19976","text/consent.html","","","","","","","","","","","","",""
"","survey-html-form","3","153335","0.0-3.0","ybbwtrgqb1","one_one","1","direct_first","1","er08ef29","0","23","1","1","3","1","","0","1","0","64495","","{""codeword_enter"":""er08ef29""}","","","","","","","","","","","",""
"","survey-html-form","4","168169","0.0-4.0","ybbwtrgqb1","one_one","1","direct_first","1","er08ef29","0","23","1","1","3","1","","0","1","0","14831","","{""age"":""23"",""education"":""1"",""subject"":""3"",""gender"":""0"",""handedness"":""1"",""chinese"":""1""}","","","","","","","","","","","",""
"","survey-html-form","5","170458","0.0-5.0","ybbwtrgqb1","one_one","1","direct_first","1","er08ef29","0","23","1","1","3","1","","0","1","0","2287","","{}","","","","","","","","","","","",""
"","html-keyboard-response","6","174464","0.0-6.0-0.0-0.0","ybbwtrgqb1","one_one","1","direct_first","1","er08ef29","0","23","1","1","3","1","","0","1","0","null","","","<div class = 'row'><div class = 'column'><img src = 'category4/CS10.png' width = '70%;'></div><div class = 'column'><img src = 'usneg/2141.bmp' width = '100%;'></div></div>","null","neg","CS","CS","4","category4/CS10.png","","","","",""
"","html-keyboard-response","7","176968","0.0-6.0-0.0-0.1","ybbwtrgqb1","one_one","1","direct_first","1","er08ef29","0","23","1","1","3","1","","0","1","0","null","","","<div class = 'row'><div class = 'column'><img src = 'uspos/2208.bmp' width = '100%;'></div><div class = 'column'><img src = 'category2/CS7.png' width = '70%;'></div></div>","null","pos","CS","CS","2","category2/CS7.png","","","","",""
"","html-keyboard-response","8","179471","0.0-6.0-0.0-0.2","ybbwtrgqb1","one_one","1","direct_first","1","er08ef29","0","23","1","1","3","1","","0","1","0","null","","","<div class = 'row'><div class = 'column'><img src = 'category4/CS10.png' width = '70%;'></div><div class = 'column'><img src = 'usneg/2141.bmp' width = '100%;'></div></div>","null","neg","CS","CS","4","category4/CS10.png","","","","",""
"","html-keyboard-response","9","181974","0.0-6.0-0.0-0.3","ybbwtrgqb1","one_one","1","direct_first","1","er08ef29","0","23","1","1","3","1","","0","1","0","null","","","<div class = 'row'><div class = 'column'><img src = 'category2/CS7.png' width = '70%;'></div><div class = 'column'><img src = 'uspos/2208.bmp' width = '100%;'></div></div>","null","pos","CS","CS","2","category2/CS7.png","","","","",""
"","html-keyboard-response","10","184478","0.0-6.0-0.0-0.4","ybbwtrgqb1","one_one","1","direct_first","1","er08ef29","0","23","1","1","3","1","","0","1","0","null","","","<div class = 'row'><div class = 'column'><img src = 'category1/CS4.png' width = '70%;'></div><div class = 'column'><img src = 'usneg/8485.bmp' width = '100%;'></div></div>","null","neg","CS","CS","1","category1/CS4.png","","","","",""
"","html-keyboard-response","11","186982","0.0-6.0-0.0-0.5","ybbwtrgqb1","one_one","1","direct_first","1","er08ef29","0","23","1","1","3","1","","0","1","0","null","","","<div class = 'row'><div class = 'column'><img src = 'category2/CS7.png' width = '70%;'></div><div class = 'column'><img src = 'uspos/2208.bmp' width = '100%;'></div></div>","null","pos","CS","CS","2","category2/CS7.png","","","","",""
"","html-keyboard-response","12","189485","0.0-6.0-0.0-0.6","ybbwtrgqb1","one_one","1","direct_first","1","er08ef29","0","23","1","1","3","1","","0","1","0","null","","","<div class = 'row'><div class = 'column'><img src = 'category3/CS8.png' width = '70%;'></div><div class = 'column'><img src = 'uspos/8540.bmp' width = '100%;'></div></div>","null","pos","CS","CS","3","category3/CS8.png","","","","",""
"","html-keyboard-response","13","191989","0.0-6.0-0.0-0.7","ybbwtrgqb1","one_one","1","direct_first","1","er08ef29","0","23","1","1","3","1","","0","1","0","null","","","<div class = 'row'><div class = 'column'><img src = 'category1/CS4.png' width = '70%;'></div><div class = 'column'><img src = 'usneg/8485.bmp' width = '100%;'></div></div>","null","neg","CS","CS","1","category1/CS4.png","","","","",""
"","html-keyboard-response","14","194493","0.0-6.0-0.0-0.8","ybbwtrgqb1","one_one","1","direct_first","1","er08ef29","0","23","1","1","3","1","","0","1","0","null","","","<div class = 'row'><div class = 'column'><img src = 'uspos/2208.bmp' width = '100%;'></div><div class = 'column'><img src = 'category2/CS7.png' width = '70%;'></div></div>","null","pos","CS","CS","2","category2/CS7.png","","","","",""
"","html-keyboard-response","15","196996","0.0-6.0-0.0-0.9","ybbwtrgqb1","one_one","1","direct_first","1","er08ef29","0","23","1","1","3","1","","0","1","0","null","","","<div class = 'row'><div class = 'column'><img src = 'category1/CS4.png' width = '70%;'></div><div class = 'column'><img src = 'usneg/8485.bmp' width = '100%;'></div></div>","null","neg","CS","CS","1","category1/CS4.png","","","","",""
"","html-keyboard-response","16","199500","0.0-6.0-0.0-0.10","ybbwtrgqb1","one_one","1","direct_first","1","er08ef29","0","23","1","1","3","1","","0","1","0","null","","","<div class = 'row'><div class = 'column'><img src = 'uspos/8540.bmp' width = '100%;'></div><div class = 'column'><img src = 'category3/CS8.png' width = '70%;'></div></div>","null","pos","CS","CS","3","category3/CS8.png","","","","",""
"","html-keyboard-response","17","202003","0.0-6.0-0.0-0.11","ybbwtrgqb1","one_one","1","direct_first","1","er08ef29","0","23","1","1","3","1","","0","1","0","null","","","<div class = 'row'><div class = 'column'><img src = 'category4/CS10.png' width = '70%;'></div><div class = 'column'><img src = 'usneg/2141.bmp' width = '100%;'></div></div>","null","neg","CS","CS","4","category4/CS10.png","","","","",""
"","html-keyboard-response","18","204507","0.0-6.0-0.0-0.12","ybbwtrgqb1","one_one","1","direct_first","1","er08ef29","0","23","1","1","3","1","","0","1","0","null","","","<div class = 'row'><div class = 'column'><img src = 'category1/CS4.png' width = '70%;'></div><div class = 'column'><img src = 'usneg/8485.bmp' width = '100%;'></div></div>","null","neg","CS","CS","1","category1/CS4.png","","","","",""
"","html-keyboard-response","19","207011","0.0-6.0-0.0-0.13","ybbwtrgqb1","one_one","1","direct_first","1","er08ef29","0","23","1","1","3","1","","0","1","0","null","","","<div class = 'row'><div class = 'column'><img src = 'uspos/8540.bmp' width = '100%;'></div><div class = 'column'><img src = 'category3/CS8.png' width = '70%;'></div></div>","null","pos","CS","CS","3","category3/CS8.png","","","","",""
"","html-keyboard-response","20","209514","0.0-6.0-0.0-0.14","ybbwtrgqb1","one_one","1","direct_first","1","er08ef29","0","23","1","1","3","1","","0","1","0","null","","","<div class = 'row'><div class = 'column'><img src = 'usneg/2141.bmp' width = '100%;'></div><div class = 'column'><img src = 'category4/CS10.png' width = '70%;'></div></div>","null","neg","CS","CS","4","category4/CS10.png","","","","",""
"","html-keyboard-response","21","212023","0.0-6.0-0.0-0.15","ybbwtrgqb1","one_one","1","direct_first","1","er08ef29","0","23","1","1","3","1","","0","1","0","null","","","<div class = 'row'><div class = 'column'><img src = 'uspos/8540.bmp' width = '100%;'></div><div class = 'column'><img src = 'category3/CS8.png' width = '70%;'></div></div>","null","pos","CS","CS","3","category3/CS8.png","","","","",""
"","html-keyboard-response","22","214527","0.0-6.0-0.0-0.16","ybbwtrgqb1","one_one","1","direct_first","1","er08ef29","0","23","1","1","3","1","","0","1","0","null","","","<div class = 'row'><div class = 'column'><img src = 'usneg/8485.bmp' width = '100%;'></div><div class = 'column'><img src = 'category1/CS4.png' width = '70%;'></div></div>","null","neg","CS","CS","1","category1/CS4.png","","","","",""
"","html-keyboard-response","23","217036","0.0-6.0-0.0-0.17","ybbwtrgqb1","one_one","1","direct_first","1","er08ef29","0","23","1","1","3","1","","0","1","0","null","","","<div class = 'row'><div class = 'column'><img src = 'uspos/8540.bmp' width = '100%;'></div><div class = 'column'><img src = 'category3/CS8.png' width = '70%;'></div></div>","null","pos","CS","CS","3","category3/CS8.png","","","","",""
"","html-keyboard-response","24","219540","0.0-6.0-0.0-0.18","ybbwtrgqb1","one_one","1","direct_first","1","er08ef29","0","23","1","1","3","1","","0","1","0","null","","","<div class = 'row'><div class = 'column'><img src = 'usneg/2141.bmp' width = '100%;'></div><div class = 'column'><img src = 'category4/CS10.png' width = '70%;'></div></div>","null","neg","CS","CS","4","category4/CS10.png","","","","",""
"","html-keyboard-response","25","222048","0.0-6.0-0.0-0.19","ybbwtrgqb1","one_one","1","direct_first","1","er08ef29","0","23","1","1","3","1","","0","1","0","null","","","<div class = 'row'><div class = 'column'><img src = 'uspos/2208.bmp' width = '100%;'></div><div class = 'column'><img src = 'category2/CS7.png' width = '70%;'></div></div>","null","pos","CS","CS","2","category2/CS7.png","","","","",""
"","survey-html-form","26","224279","0.0-6.0-1.0","ybbwtrgqb1","one_one","1","direct_first","1","er08ef29","0","23","1","1","3","1","","0","1","0","1727.999999999971","","{}","","","","","","","","","","","",""
"","html-keyboard-response","27","228282","0.0-6.0-2.0-0.0","ybbwtrgqb1","one_one","1","direct_first","1","er08ef29","0","23","1","1","3","1","","0","1","0","null","","","<div class = 'row'><div class = 'column'><img src = 'usneg/2141.bmp' width = '100%;'></div><div class = 'column'><img src = 'category4/CS10.png' width = '70%;'></div></div>","null","neg","CS","CS","4","category4/CS10.png","","","","",""
"","html-keyboard-response","28","230786","0.0-6.0-2.0-0.1","ybbwtrgqb1","one_one","1","direct_first","1","er08ef29","0","23","1","1","3","1","","0","1","0","null","","","<div class = 'row'><div class = 'column'><img src = 'uspos/8540.bmp' width = '100%;'></div><div class = 'column'><img src = 'category3/CS8.png' width = '70%;'></div></div>","null","pos","CS","CS","3","category3/CS8.png","","","","",""
"","html-keyboard-response","29","233289","0.0-6.0-2.0-0.2","ybbwtrgqb1","one_one","1","direct_first","1","er08ef29","0","23","1","1","3","1","","0","1","0","null","","","<div class = 'row'><div class = 'column'><img src = 'category2/CS7.png' width = '70%;'></div><div class = 'column'><img src = 'uspos/2208.bmp' width = '100%;'></div></div>","null","pos","CS","CS","2","category2/CS7.png","","","","",""
"","html-keyboard-response","30","235793","0.0-6.0-2.0-0.3","ybbwtrgqb1","one_one","1","direct_first","1","er08ef29","0","23","1","1","3","1","","0","1","0","null","","","<div class = 'row'><div class = 'column'><img src = 'uspos/8540.bmp' width = '100%;'></div><div class = 'column'><img src = 'category3/CS8.png' width = '70%;'></div></div>","null","pos","CS","CS","3","category3/CS8.png","","","","",""
"","html-keyboard-response","31","238297","0.0-6.0-2.0-0.4","ybbwtrgqb1","one_one","1","direct_first","1","er08ef29","0","23","1","1","3","1","","0","1","0","null","","","<div class = 'row'><div class = 'column'><img src = 'usneg/8485.bmp' width = '100%;'></div><div class = 'column'><img src = 'category1/CS4.png' width = '70%;'></div></div>","null","neg","CS","CS","1","category1/CS4.png","","","","",""
"","html-keyboard-response","32","240801","0.0-6.0-2.0-0.5","ybbwtrgqb1","one_one","1","direct_first","1","er08ef29","0","23","1","1","3","1","","0","1","0","null","","","<div class = 'row'><div class = 'column'><img src = 'usneg/2141.bmp' width = '100%;'></div><div class = 'column'><img src = 'category4/CS10.png' width = '70%;'></div></div>","null","neg","CS","CS","4","category4/CS10.png","","","","",""
"","html-keyboard-response","33","243304","0.0-6.0-2.0-0.6","ybbwtrgqb1","one_one","1","direct_first","1","er08ef29","0","23","1","1","3","1","","0","1","0","null","","","<div class = 'row'><div class = 'column'><img src = 'category2/CS7.png' width = '70%;'></div><div class = 'column'><img src = 'uspos/2208.bmp' width = '100%;'></div></div>","null","pos","CS","CS","2","category2/CS7.png","","","","",""
"","html-keyboard-response","34","245808","0.0-6.0-2.0-0.7","ybbwtrgqb1","one_one","1","direct_first","1","er08ef29","0","23","1","1","3","1","","0","1","0","null","","","<div class = 'row'><div class = 'column'><img src = 'category3/CS8.png' width = '70%;'></div><div class = 'column'><img src = 'uspos/8540.bmp' width = '100%;'></div></div>","null","pos","CS","CS","3","category3/CS8.png","","","","",""
"","html-keyboard-response","35","248312","0.0-6.0-2.0-0.8","ybbwtrgqb1","one_one","1","direct_first","1","er08ef29","0","23","1","1","3","1","","0","1","0","null","","","<div class = 'row'><div class = 'column'><img src = 'category1/CS4.png' width = '70%;'></div><div class = 'column'><img src = 'usneg/8485.bmp' width = '100%;'></div></div>","null","neg","CS","CS","1","category1/CS4.png","","","","",""
"","html-keyboard-response","36","250816","0.0-6.0-2.0-0.9","ybbwtrgqb1","one_one","1","direct_first","1","er08ef29","0","23","1","1","3","1","","0","1","0","null","","","<div class = 'row'><div class = 'column'><img src = 'uspos/2208.bmp' width = '100%;'></div><div class = 'column'><img src = 'category2/CS7.png' width = '70%;'></div></div>","null","pos","CS","CS","2","category2/CS7.png","","","","",""
"","html-keyboard-response","37","253319","0.0-6.0-2.0-0.10","ybbwtrgqb1","one_one","1","direct_first","1","er08ef29","0","23","1","1","3","1","","0","1","0","null","","","<div class = 'row'><div class = 'column'><img src = 'category4/CS10.png' width = '70%;'></div><div class = 'column'><img src = 'usneg/2141.bmp' width = '100%;'></div></div>","null","neg","CS","CS","4","category4/CS10.png","","","","",""
"","html-keyboard-response","38","255823","0.0-6.0-2.0-0.11","ybbwtrgqb1","one_one","1","direct_first","1","er08ef29","0","23","1","1","3","1","","0","1","0","null","","","<div class = 'row'><div class = 'column'><img src = 'uspos/8540.bmp' width = '100%;'></div><div class = 'column'><img src = 'category3/CS8.png' width = '70%;'></div></div>","null","pos","CS","CS","3","category3/CS8.png","","","","",""
"","html-keyboard-response","39","258326","0.0-6.0-2.0-0.12","ybbwtrgqb1","one_one","1","direct_first","1","er08ef29","0","23","1","1","3","1","","0","1","0","null","","","<div class = 'row'><div class = 'column'><img src = 'category4/CS10.png' width = '70%;'></div><div class = 'column'><img src = 'usneg/2141.bmp' width = '100%;'></div></div>","null","neg","CS","CS","4","category4/CS10.png","","","","",""
"","html-keyboard-response","40","260830","0.0-6.0-2.0-0.13","ybbwtrgqb1","one_one","1","direct_first","1","er08ef29","0","23","1","1","3","1","","0","1","0","null","","","<div class = 'row'><div class = 'column'><img src = 'usneg/8485.bmp' width = '100%;'></div><div class = 'column'><img src = 'category1/CS4.png' width = '70%;'></div></div>","null","neg","CS","CS","1","category1/CS4.png","","","","",""
"","html-keyboard-response","41","263333","0.0-6.0-2.0-0.14","ybbwtrgqb1","one_one","1","direct_first","1","er08ef29","0","23","1","1","3","1","","0","1","0","null","","","<div class = 'row'><div class = 'column'><img src = 'uspos/2208.bmp' width = '100%;'></div><div class = 'column'><img src = 'category2/CS7.png' width = '70%;'></div></div>","null","pos","CS","CS","2","category2/CS7.png","","","","",""
"","html-keyboard-response","42","265837","0.0-6.0-2.0-0.15","ybbwtrgqb1","one_one","1","direct_first","1","er08ef29","0","23","1","1","3","1","","0","1","0","null","","","<div class = 'row'><div class = 'column'><img src = 'category1/CS4.png' width = '70%;'></div><div class = 'column'><img src = 'usneg/8485.bmp' width = '100%;'></div></div>","null","neg","CS","CS","1","category1/CS4.png","","","","",""
"","html-keyboard-response","43","268340","0.0-6.0-2.0-0.16","ybbwtrgqb1","one_one","1","direct_first","1","er08ef29","0","23","1","1","3","1","","0","1","0","null","","","<div class = 'row'><div class = 'column'><img src = 'category4/CS10.png' width = '70%;'></div><div class = 'column'><img src = 'usneg/2141.bmp' width = '100%;'></div></div>","null","neg","CS","CS","4","category4/CS10.png","","","","",""
"","html-keyboard-response","44","270844","0.0-6.0-2.0-0.17","ybbwtrgqb1","one_one","1","direct_first","1","er08ef29","0","23","1","1","3","1","","0","1","0","null","","","<div class = 'row'><div class = 'column'><img src = 'usneg/8485.bmp' width = '100%;'></div><div class = 'column'><img src = 'category1/CS4.png' width = '70%;'></div></div>","null","neg","CS","CS","1","category1/CS4.png","","","","",""
"","html-keyboard-response","45","273348","0.0-6.0-2.0-0.18","ybbwtrgqb1","one_one","1","direct_first","1","er08ef29","0","23","1","1","3","1","","0","1","0","null","","","<div class = 'row'><div class = 'column'><img src = 'uspos/2208.bmp' width = '100%;'></div><div class = 'column'><img src = 'category2/CS7.png' width = '70%;'></div></div>","null","pos","CS","CS","2","category2/CS7.png","","","","",""
"","html-keyboard-response","46","275852","0.0-6.0-2.0-0.19","ybbwtrgqb1","one_one","1","direct_first","1","er08ef29","0","23","1","1","3","1","","0","1","0","null","","","<div class = 'row'><div class = 'column'><img src = 'category3/CS8.png' width = '70%;'></div><div class = 'column'><img src = 'uspos/8540.bmp' width = '100%;'></div></div>","null","pos","CS","CS","3","category3/CS8.png","","","","",""
"","survey-html-form","47","285235","0.0-6.0-3.0","ybbwtrgqb1","one_one","1","direct_first","1","er08ef29","0","23","1","1","3","1","","0","1","0","8881","","{}","","","","","","","","","","","",""
"","html-keyboard-response","48","289238","0.0-6.0-4.0-0.0","ybbwtrgqb1","one_one","1","direct_first","1","er08ef29","0","23","1","1","3","1","","0","1","0","null","","","<div class = 'row'><div class = 'column'><img src = 'category1/CS4.png' width = '70%;'></div><div class = 'column'><img src = 'usneg/8485.bmp' width = '100%;'></div></div>","null","neg","CS","CS","1","category1/CS4.png","","","","",""
"","html-keyboard-response","49","291742","0.0-6.0-4.0-0.1","ybbwtrgqb1","one_one","1","direct_first","1","er08ef29","0","23","1","1","3","1","","0","1","0","null","","","<div class = 'row'><div class = 'column'><img src = 'uspos/8540.bmp' width = '100%;'></div><div class = 'column'><img src = 'category3/CS8.png' width = '70%;'></div></div>","null","pos","CS","CS","3","category3/CS8.png","","","","",""
"","html-keyboard-response","50","294245","0.0-6.0-4.0-0.2","ybbwtrgqb1","one_one","1","direct_first","1","er08ef29","0","23","1","1","3","1","","0","1","0","null","","","<div class = 'row'><div class = 'column'><img src = 'usneg/2141.bmp' width = '100%;'></div><div class = 'column'><img src = 'category4/CS10.png' width = '70%;'></div></div>","null","neg","CS","CS","4","category4/CS10.png","","","","",""
"","html-keyboard-response","51","296749","0.0-6.0-4.0-0.3","ybbwtrgqb1","one_one","1","direct_first","1","er08ef29","0","23","1","1","3","1","","0","1","0","null","","","<div class = 'row'><div class = 'column'><img src = 'category1/CS4.png' width = '70%;'></div><div class = 'column'><img src = 'usneg/8485.bmp' width = '100%;'></div></div>","null","neg","CS","CS","1","category1/CS4.png","","","","",""
"","html-keyboard-response","52","299253","0.0-6.0-4.0-0.4","ybbwtrgqb1","one_one","1","direct_first","1","er08ef29","0","23","1","1","3","1","","0","1","0","null","","","<div class = 'row'><div class = 'column'><img src = 'category3/CS8.png' width = '70%;'></div><div class = 'column'><img src = 'uspos/8540.bmp' width = '100%;'></div></div>","null","pos","CS","CS","3","category3/CS8.png","","","","",""
"","html-keyboard-response","53","301756","0.0-6.0-4.0-0.5","ybbwtrgqb1","one_one","1","direct_first","1","er08ef29","0","23","1","1","3","1","","0","1","0","null","","","<div class = 'row'><div class = 'column'><img src = 'usneg/2141.bmp' width = '100%;'></div><div class = 'column'><img src = 'category4/CS10.png' width = '70%;'></div></div>","null","neg","CS","CS","4","category4/CS10.png","","","","",""
"","html-keyboard-response","54","304260","0.0-6.0-4.0-0.6","ybbwtrgqb1","one_one","1","direct_first","1","er08ef29","0","23","1","1","3","1","","0","1","0","null","","","<div class = 'row'><div class = 'column'><img src = 'uspos/8540.bmp' width = '100%;'></div><div class = 'column'><img src = 'category3/CS8.png' width = '70%;'></div></div>","null","pos","CS","CS","3","category3/CS8.png","","","","",""
"","html-keyboard-response","55","306764","0.0-6.0-4.0-0.7","ybbwtrgqb1","one_one","1","direct_first","1","er08ef29","0","23","1","1","3","1","","0","1","0","null","","","<div class = 'row'><div class = 'column'><img src = 'category4/CS10.png' width = '70%;'></div><div class = 'column'><img src = 'usneg/2141.bmp' width = '100%;'></div></div>","null","neg","CS","CS","4","category4/CS10.png","","","","",""
"","html-keyboard-response","56","309267","0.0-6.0-4.0-0.8","ybbwtrgqb1","one_one","1","direct_first","1","er08ef29","0","23","1","1","3","1","","0","1","0","null","","","<div class = 'row'><div class = 'column'><img src = 'uspos/2208.bmp' width = '100%;'></div><div class = 'column'><img src = 'category2/CS7.png' width = '70%;'></div></div>","null","pos","CS","CS","2","category2/CS7.png","","","","",""
"","html-keyboard-response","57","311772","0.0-6.0-4.0-0.9","ybbwtrgqb1","one_one","1","direct_first","1","er08ef29","0","23","1","1","3","1","","0","1","0","null","","","<div class = 'row'><div class = 'column'><img src = 'category3/CS8.png' width = '70%;'></div><div class = 'column'><img src = 'uspos/8540.bmp' width = '100%;'></div></div>","null","pos","CS","CS","3","category3/CS8.png","","","","",""
"","html-keyboard-response","58","314279","0.0-6.0-4.0-0.10","ybbwtrgqb1","one_one","1","direct_first","1","er08ef29","0","23","1","1","3","1","","0","1","0","null","","","<div class = 'row'><div class = 'column'><img src = 'category2/CS7.png' width = '70%;'></div><div class = 'column'><img src = 'uspos/2208.bmp' width = '100%;'></div></div>","null","pos","CS","CS","2","category2/CS7.png","","","","",""
"","html-keyboard-response","59","316785","0.0-6.0-4.0-0.11","ybbwtrgqb1","one_one","1","direct_first","1","er08ef29","0","23","1","1","3","1","","0","1","0","null","","","<div class = 'row'><div class = 'column'><img src = 'usneg/8485.bmp' width = '100%;'></div><div class = 'column'><img src = 'category1/CS4.png' width = '70%;'></div></div>","null","neg","CS","CS","1","category1/CS4.png","","","","",""
"","html-keyboard-response","60","319292","0.0-6.0-4.0-0.12","ybbwtrgqb1","one_one","1","direct_first","1","er08ef29","0","23","1","1","3","1","","0","1","0","null","","","<div class = 'row'><div class = 'column'><img src = 'category2/CS7.png' width = '70%;'></div><div class = 'column'><img src = 'uspos/2208.bmp' width = '100%;'></div></div>","null","pos","CS","CS","2","category2/CS7.png","","","","",""
"","html-keyboard-response","61","321798","0.0-6.0-4.0-0.13","ybbwtrgqb1","one_one","1","direct_first","1","er08ef29","0","23","1","1","3","1","","0","1","0","null","","","<div class = 'row'><div class = 'column'><img src = 'usneg/8485.bmp' width = '100%;'></div><div class = 'column'><img src = 'category1/CS4.png' width = '70%;'></div></div>","null","neg","CS","CS","1","category1/CS4.png","","","","",""
"","html-keyboard-response","62","324304","0.0-6.0-4.0-0.14","ybbwtrgqb1","one_one","1","direct_first","1","er08ef29","0","23","1","1","3","1","","0","1","0","null","","","<div class = 'row'><div class = 'column'><img src = 'category4/CS10.png' width = '70%;'></div><div class = 'column'><img src = 'usneg/2141.bmp' width = '100%;'></div></div>","null","neg","CS","CS","4","category4/CS10.png","","","","",""
"","html-keyboard-response","63","326809","0.0-6.0-4.0-0.15","ybbwtrgqb1","one_one","1","direct_first","1","er08ef29","0","23","1","1","3","1","","0","1","0","null","","","<div class = 'row'><div class = 'column'><img src = 'category2/CS7.png' width = '70%;'></div><div class = 'column'><img src = 'uspos/2208.bmp' width = '100%;'></div></div>","null","pos","CS","CS","2","category2/CS7.png","","","","",""
"","html-keyboard-response","64","329314","0.0-6.0-4.0-0.16","ybbwtrgqb1","one_one","1","direct_first","1","er08ef29","0","23","1","1","3","1","","0","1","0","null","","","<div class = 'row'><div class = 'column'><img src = 'uspos/8540.bmp' width = '100%;'></div><div class = 'column'><img src = 'category3/CS8.png' width = '70%;'></div></div>","null","pos","CS","CS","3","category3/CS8.png","","","","",""
"","html-keyboard-response","65","331820","0.0-6.0-4.0-0.17","ybbwtrgqb1","one_one","1","direct_first","1","er08ef29","0","23","1","1","3","1","","0","1","0","null","","","<div class = 'row'><div class = 'column'><img src = 'category2/CS7.png' width = '70%;'></div><div class = 'column'><img src = 'uspos/2208.bmp' width = '100%;'></div></div>","null","pos","CS","CS","2","category2/CS7.png","","","","",""
"","html-keyboard-response","66","334323","0.0-6.0-4.0-0.18","ybbwtrgqb1","one_one","1","direct_first","1","er08ef29","0","23","1","1","3","1","","0","1","0","null","","","<div class = 'row'><div class = 'column'><img src = 'category4/CS10.png' width = '70%;'></div><div class = 'column'><img src = 'usneg/2141.bmp' width = '100%;'></div></div>","null","neg","CS","CS","4","category4/CS10.png","","","","",""
"","html-keyboard-response","67","336828","0.0-6.0-4.0-0.19","ybbwtrgqb1","one_one","1","direct_first","1","er08ef29","0","23","1","1","3","1","","0","1","0","null","","","<div class = 'row'><div class = 'column'><img src = 'category1/CS4.png' width = '70%;'></div><div class = 'column'><img src = 'usneg/8485.bmp' width = '100%;'></div></div>","null","neg","CS","CS","1","category1/CS4.png","","","","",""
"","survey-html-form","68","360952","0.0-6.0-5.0","ybbwtrgqb1","one_one","1","direct_first","1","er08ef29","0","23","1","1","3","1","","0","1","0","23617","","{}","","","","","","","","","","","",""
"","html-keyboard-response","69","364961","0.0-6.0-6.0-0.0","ybbwtrgqb1","one_one","1","direct_first","1","er08ef29","0","23","1","1","3","1","","0","1","0","null","","","<div class = 'row'><div class = 'column'><img src = 'category3/CS8.png' width = '70%;'></div><div class = 'column'><img src = 'uspos/8540.bmp' width = '100%;'></div></div>","null","pos","CS","CS","3","category3/CS8.png","","","","",""
"","html-keyboard-response","70","367465","0.0-6.0-6.0-0.1","ybbwtrgqb1","one_one","1","direct_first","1","er08ef29","0","23","1","1","3","1","","0","1","0","null","","","<div class = 'row'><div class = 'column'><img src = 'usneg/2141.bmp' width = '100%;'></div><div class = 'column'><img src = 'category4/CS10.png' width = '70%;'></div></div>","null","neg","CS","CS","4","category4/CS10.png","","","","",""
"","html-keyboard-response","71","369969","0.0-6.0-6.0-0.2","ybbwtrgqb1","one_one","1","direct_first","1","er08ef29","0","23","1","1","3","1","","0","1","0","null","","","<div class = 'row'><div class = 'column'><img src = 'uspos/8540.bmp' width = '100%;'></div><div class = 'column'><img src = 'category3/CS8.png' width = '70%;'></div></div>","null","pos","CS","CS","3","category3/CS8.png","","","","",""
"","html-keyboard-response","72","372472","0.0-6.0-6.0-0.3","ybbwtrgqb1","one_one","1","direct_first","1","er08ef29","0","23","1","1","3","1","","0","1","0","null","","","<div class = 'row'><div class = 'column'><img src = 'category2/CS7.png' width = '70%;'></div><div class = 'column'><img src = 'uspos/2208.bmp' width = '100%;'></div></div>","null","pos","CS","CS","2","category2/CS7.png","","","","",""
"","html-keyboard-response","73","374976","0.0-6.0-6.0-0.4","ybbwtrgqb1","one_one","1","direct_first","1","er08ef29","0","23","1","1","3","1","","0","1","0","null","","","<div class = 'row'><div class = 'column'><img src = 'usneg/8485.bmp' width = '100%;'></div><div class = 'column'><img src = 'category1/CS4.png' width = '70%;'></div></div>","null","neg","CS","CS","1","category1/CS4.png","","","","",""
"","html-keyboard-response","74","377481","0.0-6.0-6.0-0.5","ybbwtrgqb1","one_one","1","direct_first","1","er08ef29","0","23","1","1","3","1","","0","1","0","null","","","<div class = 'row'><div class = 'column'><img src = 'category3/CS8.png' width = '70%;'></div><div class = 'column'><img src = 'uspos/8540.bmp' width = '100%;'></div></div>","null","pos","CS","CS","3","category3/CS8.png","","","","",""
"","html-keyboard-response","75","379985","0.0-6.0-6.0-0.6","ybbwtrgqb1","one_one","1","direct_first","1","er08ef29","0","23","1","1","3","1","","0","1","0","null","","","<div class = 'row'><div class = 'column'><img src = 'usneg/2141.bmp' width = '100%;'></div><div class = 'column'><img src = 'category4/CS10.png' width = '70%;'></div></div>","null","neg","CS","CS","4","category4/CS10.png","","","","",""
"","html-keyboard-response","76","382491","0.0-6.0-6.0-0.7","ybbwtrgqb1","one_one","1","direct_first","1","er08ef29","0","23","1","1","3","1","","0","1","0","null","","","<div class = 'row'><div class = 'column'><img src = 'usneg/8485.bmp' width = '100%;'></div><div class = 'column'><img src = 'category1/CS4.png' width = '70%;'></div></div>","null","neg","CS","CS","1","category1/CS4.png","","","","",""
"","html-keyboard-response","77","384995","0.0-6.0-6.0-0.8","ybbwtrgqb1","one_one","1","direct_first","1","er08ef29","0","23","1","1","3","1","","0","1","0","null","","","<div class = 'row'><div class = 'column'><img src = 'category2/CS7.png' width = '70%;'></div><div class = 'column'><img src = 'uspos/2208.bmp' width = '100%;'></div></div>","null","pos","CS","CS","2","category2/CS7.png","","","","",""
"","html-keyboard-response","78","387498","0.0-6.0-6.0-0.9","ybbwtrgqb1","one_one","1","direct_first","1","er08ef29","0","23","1","1","3","1","","0","1","0","null","","","<div class = 'row'><div class = 'column'><img src = 'usneg/8485.bmp' width = '100%;'></div><div class = 'column'><img src = 'category1/CS4.png' width = '70%;'></div></div>","null","neg","CS","CS","1","category1/CS4.png","","","","",""
"","html-keyboard-response","79","390002","0.0-6.0-6.0-0.10","ybbwtrgqb1","one_one","1","direct_first","1","er08ef29","0","23","1","1","3","1","","0","1","0","null","","","<div class = 'row'><div class = 'column'><img src = 'uspos/2208.bmp' width = '100%;'></div><div class = 'column'><img src = 'category2/CS7.png' width = '70%;'></div></div>","null","pos","CS","CS","2","category2/CS7.png","","","","",""
"","html-keyboard-response","80","392506","0.0-6.0-6.0-0.11","ybbwtrgqb1","one_one","1","direct_first","1","er08ef29","0","23","1","1","3","1","","0","1","0","null","","","<div class = 'row'><div class = 'column'><img src = 'category4/CS10.png' width = '70%;'></div><div class = 'column'><img src = 'usneg/2141.bmp' width = '100%;'></div></div>","null","neg","CS","CS","4","category4/CS10.png","","","","",""
"","html-keyboard-response","81","395012","0.0-6.0-6.0-0.12","ybbwtrgqb1","one_one","1","direct_first","1","er08ef29","0","23","1","1","3","1","","0","1","0","null","","","<div class = 'row'><div class = 'column'><img src = 'usneg/8485.bmp' width = '100%;'></div><div class = 'column'><img src = 'category1/CS4.png' width = '70%;'></div></div>","null","neg","CS","CS","1","category1/CS4.png","","","","",""
"","html-keyboard-response","82","397516","0.0-6.0-6.0-0.13","ybbwtrgqb1","one_one","1","direct_first","1","er08ef29","0","23","1","1","3","1","","0","1","0","null","","","<div class = 'row'><div class = 'column'><img src = 'usneg/2141.bmp' width = '100%;'></div><div class = 'column'><img src = 'category4/CS10.png' width = '70%;'></div></div>","null","neg","CS","CS","4","category4/CS10.png","","","","",""
"","html-keyboard-response","83","400023","0.0-6.0-6.0-0.14","ybbwtrgqb1","one_one","1","direct_first","1","er08ef29","0","23","1","1","3","1","","0","1","0","null","","","<div class = 'row'><div class = 'column'><img src = 'category3/CS8.png' width = '70%;'></div><div class = 'column'><img src = 'uspos/8540.bmp' width = '100%;'></div></div>","null","pos","CS","CS","3","category3/CS8.png","","","","",""
"","html-keyboard-response","84","402527","0.0-6.0-6.0-0.15","ybbwtrgqb1","one_one","1","direct_first","1","er08ef29","0","23","1","1","3","1","","0","1","0","null","","","<div class = 'row'><div class = 'column'><img src = 'category2/CS7.png' width = '70%;'></div><div class = 'column'><img src = 'uspos/2208.bmp' width = '100%;'></div></div>","null","pos","CS","CS","2","category2/CS7.png","","","","",""
"","html-keyboard-response","85","405036","0.0-6.0-6.0-0.16","ybbwtrgqb1","one_one","1","direct_first","1","er08ef29","0","23","1","1","3","1","","0","1","0","null","","","<div class = 'row'><div class = 'column'><img src = 'category4/CS10.png' width = '70%;'></div><div class = 'column'><img src = 'usneg/2141.bmp' width = '100%;'></div></div>","null","neg","CS","CS","4","category4/CS10.png","","","","",""
"","html-keyboard-response","86","407540","0.0-6.0-6.0-0.17","ybbwtrgqb1","one_one","1","direct_first","1","er08ef29","0","23","1","1","3","1","","0","1","0","null","","","<div class = 'row'><div class = 'column'><img src = 'usneg/8485.bmp' width = '100%;'></div><div class = 'column'><img src = 'category1/CS4.png' width = '70%;'></div></div>","null","neg","CS","CS","1","category1/CS4.png","","","","",""
"","html-keyboard-response","87","410043","0.0-6.0-6.0-0.18","ybbwtrgqb1","one_one","1","direct_first","1","er08ef29","0","23","1","1","3","1","","0","1","0","null","","","<div class = 'row'><div class = 'column'><img src = 'uspos/8540.bmp' width = '100%;'></div><div class = 'column'><img src = 'category3/CS8.png' width = '70%;'></div></div>","null","pos","CS","CS","3","category3/CS8.png","","","","",""
"","html-keyboard-response","88","412547","0.0-6.0-6.0-0.19","ybbwtrgqb1","one_one","1","direct_first","1","er08ef29","0","23","1","1","3","1","","0","1","0","null","","","<div class = 'row'><div class = 'column'><img src = 'uspos/2208.bmp' width = '100%;'></div><div class = 'column'><img src = 'category2/CS7.png' width = '70%;'></div></div>","null","pos","CS","CS","2","category2/CS7.png","","","","",""
"","survey-html-form","89","424149","0.0-7.0","ybbwtrgqb1","one_one","1","direct_first","1","er08ef29","0","23","1","1","3","1","","0","1","0","11101","","{}","","","","","","","","","","","",""
"","image-slider-response","90","432192","0.0-8.0-0.0","ybbwtrgqb1","one_one","1","direct_first","1","er08ef29","0","23","1","1","3","1","","0","1","0","6038.999999999942","","","","","neg","CS","CS","1","category1/CS4.png","-61","targets/33.png","direct","",""
"","image-slider-response","91","440436","0.0-8.0-0.1","ybbwtrgqb1","one_one","1","direct_first","1","er08ef29","0","23","1","1","3","1","","0","1","0","8241","","","","","pos","GS","GSold","2","category2/CS1.png","24","targets/42.png","direct","",""
"","image-slider-response","92","444537","0.0-8.0-0.2","ybbwtrgqb1","one_one","1","direct_first","1","er08ef29","0","23","1","1","3","1","","0","1","0","4097.999999999942","","","","","pos","GS","GSold","2","category2/CS4.png","-29","targets/26.png","direct","",""
"","image-slider-response","93","460147","0.0-8.0-0.3","ybbwtrgqb1","one_one","1","direct_first","1","er08ef29","0","23","1","1","3","1","","0","1","0","15608","","","","","neg","GS","GSnew","4","category4/GS3.png","3","targets/45.png","direct","",""
"","image-slider-response","94","464698","0.0-8.0-0.4","ybbwtrgqb1","one_one","1","direct_first","1","er08ef29","0","23","1","1","3","1","","0","1","0","4549","","","","","neg","GS","GSnew","4","category4/GS1.png","36","targets/34.png","direct","",""
"","image-slider-response","95","468948","0.0-8.0-0.5","ybbwtrgqb1","one_one","1","direct_first","1","er08ef29","0","23","1","1","3","1","","0","1","0","4248","","","","","pos","GS","GSnew","2","category2/GS1.png","21","targets/25.png","direct","",""
"","image-slider-response","96","472120","0.0-8.0-0.6","ybbwtrgqb1","one_one","1","direct_first","1","er08ef29","0","23","1","1","3","1","","0","1","0","3170","","","","","pos","GS","GSold","2","category2/CS10.png","75","targets/6.png","direct","",""
"","image-slider-response","97","478465","0.0-8.0-0.7","ybbwtrgqb1","one_one","1","direct_first","1","er08ef29","0","23","1","1","3","1","","0","1","0","6343","","","","","pos","GS","GSold","3","category3/CS1.png","16","targets/14.png","direct","",""
"","image-slider-response","98","482362","0.0-8.0-0.8","ybbwtrgqb1","one_one","1","direct_first","1","er08ef29","0","23","1","1","3","1","","0","1","0","3895","","","","","neg","GS","GSold","1","category1/CS9.png","-32","targets/7.png","direct","",""
"","image-slider-response","99","485591","0.0-8.0-0.9","ybbwtrgqb1","one_one","1","direct_first","1","er08ef29","0","23","1","1","3","1","","0","1","0","3226.999999999942","","","","","pos","GS","GSnew","3","category3/GS3.png","28","targets/4.png","direct","",""
"","image-slider-response","100","488675","0.0-8.0-0.10","ybbwtrgqb1","one_one","1","direct_first","1","er08ef29","0","23","1","1","3","1","","0","1","0","3081.999999999942","","","","","pos","GS","GSold","3","category3/CS5.png","5","targets/17.png","direct","",""
"","image-slider-response","101","492394","0.0-8.0-0.11","ybbwtrgqb1","one_one","1","direct_first","1","er08ef29","0","23","1","1","3","1","","0","1","0","3716.999999999942","","","","","neg","GS","GSold","4","category4/CS4.png","58","targets/18.png","direct","",""
"","image-slider-response","102","496072","0.0-8.0-0.12","ybbwtrgqb1","one_one","1","direct_first","1","er08ef29","0","23","1","1","3","1","","0","1","0","3675.000000000058","","","","","pos","GS","GSnew","2","category2/GS3.png","-35","targets/15.png","direct","",""
"","image-slider-response","103","500125","0.0-8.0-0.13","ybbwtrgqb1","one_one","1","direct_first","1","er08ef29","0","23","1","1","3","1","","0","1","0","4051","","","","","neg","GS","GSold","4","category4/CS5.png","-1","targets/43.png","direct","",""
"","image-slider-response","104","503558","0.0-8.0-0.14","ybbwtrgqb1","one_one","1","direct_first","1","er08ef29","0","23","1","1","3","1","","0","1","0","3431","","","","","neg","GS","GSold","4","category4/CS9.png","13","targets/12.png","direct","",""
"","image-slider-response","105","507674","0.0-8.0-0.15","ybbwtrgqb1","one_one","1","direct_first","1","er08ef29","0","23","1","1","3","1","","0","1","0","4114","","","","","neg","CS","CS","4","category4/CS10.png","-42","targets/29.png","direct","",""
"","image-slider-response","106","511207","0.0-8.0-0.16","ybbwtrgqb1","one_one","1","direct_first","1","er08ef29","0","23","1","1","3","1","","0","1","0","3531","","","","","pos","GS","abstract","3","category3/wang.png","34","targets/48.png","direct","",""
"","image-slider-response","107","513457","0.0-8.0-0.17","ybbwtrgqb1","one_one","1","direct_first","1","er08ef29","0","23","1","1","3","1","","0","1","0","2248","","","","","neg","GS","GSnew","4","category4/GS2.png","-43","targets/28.png","direct","",""
"","image-slider-response","108","517055","0.0-8.0-0.18","ybbwtrgqb1","one_one","1","direct_first","1","er08ef29","0","23","1","1","3","1","","0","1","0","3596","","","","","neg","GS","GSnew","1","category1/GS2.png","-57","targets/27.png","direct","",""
"","image-slider-response","109","519395","0.0-8.0-0.19","ybbwtrgqb1","one_one","1","direct_first","1","er08ef29","0","23","1","1","3","1","","0","1","0","2337","","","","","neg","GS","GSnew","1","category1/GS3.png","-12","targets/2.png","direct","",""
"","image-slider-response","110","521654","0.0-8.0-0.20","ybbwtrgqb1","one_one","1","direct_first","1","er08ef29","0","23","1","1","3","1","","0","1","0","2256","","","","","neg","GS","abstract","1","category1/ma.png","16","targets/31.png","direct","",""
"","image-slider-response","111","524452","0.0-8.0-0.21","ybbwtrgqb1","one_one","1","direct_first","1","er08ef29","0","23","1","1","3","1","","0","1","0","2794","","","","","pos","GS","abstract","2","category2/men.png","30","targets/8.png","direct","",""
"","image-slider-response","112","529752","0.0-8.0-0.22","ybbwtrgqb1","one_one","1","direct_first","1","er08ef29","0","23","1","1","3","1","","0","1","0","5299","","","","","neg","GS","GSnew","1","category1/GS1.png","-12","targets/21.png","direct","",""
"","image-slider-response","113","535510","0.0-8.0-0.23","ybbwtrgqb1","one_one","1","direct_first","1","er08ef29","0","23","1","1","3","1","","0","1","0","5756","","","","","pos","CS","CS","2","category2/CS7.png","47","targets/11.png","direct","",""
"","image-slider-response","114","539187","0.0-8.0-0.24","ybbwtrgqb1","one_one","1","direct_first","1","er08ef29","0","23","1","1","3","1","","0","1","0","3671","","","","","neg","GS","GSold","1","category1/CS10.png","14","targets/16.png","direct","",""
"","image-slider-response","115","542018","0.0-8.0-0.25","ybbwtrgqb1","one_one","1","direct_first","1","er08ef29","0","23","1","1","3","1","","0","1","0","2827.9999999998836","","","","","pos","GS","GSnew","2","category2/GS2.png","32","targets/30.png","direct","",""
"","image-slider-response","116","545052","0.0-8.0-0.26","ybbwtrgqb1","one_one","1","direct_first","1","er08ef29","0","23","1","1","3","1","","0","1","0","3031","","","","","neg","GS","abstract","4","category4/lin.png","33","targets/36.png","direct","",""
"","image-slider-response","117","547545","0.0-8.0-0.27","ybbwtrgqb1","one_one","1","direct_first","1","er08ef29","0","23","1","1","3","1","","0","1","0","2491","","","","","pos","GS","GSnew","3","category3/GS2.png","-54","targets/40.png","direct","",""
"","image-slider-response","118","551185","0.0-8.0-0.28","ybbwtrgqb1","one_one","1","direct_first","1","er08ef29","0","23","1","1","3","1","","0","1","0","3637.9999999998836","","","","","pos","CS","CS","3","category3/CS8.png","24","targets/5.png","direct","",""
"","image-slider-response","119","556307","0.0-8.0-0.29","ybbwtrgqb1","one_one","1","direct_first","1","er08ef29","0","23","1","1","3","1","","0","1","0","5119","","","","","pos","GS","GSnew","3","category3/GS1.png","16","targets/24.png","direct","",""
"","image-slider-response","120","558735","0.0-8.0-0.30","ybbwtrgqb1","one_one","1","direct_first","1","er08ef29","0","23","1","1","3","1","","0","1","0","2425","","","","","pos","GS","GSold","3","category3/CS6.png","-28","targets/20.png","direct","",""
"","image-slider-response","121","561444","0.0-8.0-0.31","ybbwtrgqb1","one_one","1","direct_first","1","er08ef29","0","23","1","1","3","1","","0","1","0","2707","","","","","neg","GS","GSold","1","category1/CS5.png","-44","targets/32.png","direct","",""
"","html-keyboard-response","122","602973","0.0-9.0","ybbwtrgqb1","one_one","1","direct_first","1","er08ef29","0","23","1","1","3","1","","0","1","0","41526","","","<p>Sie sehen nun die chinesischen Zeichen nur ganz kurz. Danach sehen Sie die jeweilige Aussprache der Zeichen als Silbe auf dem Bildschrim. Ihre Aufgabe ist es, für jede Silbe anzugeben, ob diese etwas angenehmes, oder unangenehmes bedeuten könnte. Verlassen Sie sich hier vor allem auf Ihre Intuition.<br><br>Die Zeichen werden nur zur Orientierung dargestellt, beachten Sie sie deshalb nicht. Konzentrieren Sie sich vor allem auf die Silben. <br>Reagieren Sie mit folgenden zwei Tasten: <br><br><b>'D' </b> wenn die Silbe etwas <b>unangenehmes</b> bedeuten könnte. <br><b>'K'</b> wenn die Silbe etwas <b>angenehmes</b> bedeuten könnte. <br><br>Bitte legen Sie nun den Zeigefinger der linken Hand auf die Taste 'D' und den Zeigefinger der rechten Hand auf die Taste 'K'. <br>Reagieren Sie auf jede Silbe so schnell wie möglich. Uns interessiert Ihre spontane Reaktion. <br> <br> <br>Drücken Sie 'D' oder 'K', um die nächste Aufgabe zu starten. </p>","75","","","","","","","","","",""
"","html-keyboard-response","123","605976","0.0-10.0-0.0","ybbwtrgqb1","one_one","1","direct_first","1","er08ef29","0","23","1","1","3","1","","0","1","0","null","","","<div style=""font-size:60px;"">+</div>","null","","","","","","","","","",""
"","html-keyboard-response","124","606069","0.0-10.0-1.0","ybbwtrgqb1","one_one","1","direct_first","1","er08ef29","0","23","1","1","3","1","","0","1","0","null","","","<img src = 'category3/CS6.png' width = '100%;'>","null","","","","","","","","","",""
"","html-keyboard-response","125","606322","0.0-10.0-2.0","ybbwtrgqb1","one_one","1","direct_first","1","er08ef29","0","23","1","1","3","1","","0","1","0","null","","","<img src = 'targets/20.png' width = '100%;'>","null","","","","","","","","","",""
"","html-keyboard-response","126","610508","0.0-10.0-3.0","ybbwtrgqb1","one_one","1","direct_first","1","er08ef29","0","23","1","1","3","1","","0","1","0","4183","","","<img src = 'targets/mask.png' width = '100%;'>","75","pos","GS","GSold","3","category3/CS6.png","","targets/20.png","indirect","1","0"
"","html-keyboard-response","127","612012","0.0-10.0-0.1","ybbwtrgqb1","one_one","1","direct_first","1","er08ef29","0","23","1","1","3","1","","0","1","0","null","","","<div style=""font-size:60px;"">+</div>","null","","","","","","","","","",""
"","html-keyboard-response","128","612105","0.0-10.0-1.1","ybbwtrgqb1","one_one","1","direct_first","1","er08ef29","0","23","1","1","3","1","","0","1","0","null","","","<img src = 'category4/CS10.png' width = '100%;'>","null","","","","","","","","","",""
"","html-keyboard-response","129","612358","0.0-10.0-2.1","ybbwtrgqb1","one_one","1","direct_first","1","er08ef29","0","23","1","1","3","1","","0","1","0","null","","","<img src = 'targets/29.png' width = '100%;'>","null","","","","","","","","","",""
"","html-keyboard-response","130","616715","0.0-10.0-3.1","ybbwtrgqb1","one_one","1","direct_first","1","er08ef29","0","23","1","1","3","1","","0","1","0","4356","","","<img src = 'targets/mask.png' width = '100%;'>","68","neg","CS","CS","4","category4/CS10.png","","targets/29.png","indirect","0","1"
"","html-keyboard-response","131","618219","0.0-10.0-0.2","ybbwtrgqb1","one_one","1","direct_first","1","er08ef29","0","23","1","1","3","1","","0","1","0","null","","","<div style=""font-size:60px;"">+</div>","null","","","","","","","","","",""
"","html-keyboard-response","132","618311","0.0-10.0-1.2","ybbwtrgqb1","one_one","1","direct_first","1","er08ef29","0","23","1","1","3","1","","0","1","0","null","","","<img src = 'category4/CS5.png' width = '100%;'>","null","","","","","","","","","",""
"","html-keyboard-response","133","618565","0.0-10.0-2.2","ybbwtrgqb1","one_one","1","direct_first","1","er08ef29","0","23","1","1","3","1","","0","1","0","null","","","<img src = 'targets/43.png' width = '100%;'>","null","","","","","","","","","",""
"","html-keyboard-response","134","620390","0.0-10.0-3.2","ybbwtrgqb1","one_one","1","direct_first","1","er08ef29","0","23","1","1","3","1","","0","1","0","1823.9999999998836","","","<img src = 'targets/mask.png' width = '100%;'>","68","neg","GS","GSold","4","category4/CS5.png","","targets/43.png","indirect","0","2"
"","html-keyboard-response","135","621894","0.0-10.0-0.3","ybbwtrgqb1","one_one","1","direct_first","1","er08ef29","0","23","1","1","3","1","","0","1","0","null","","","<div style=""font-size:60px;"">+</div>","null","","","","","","","","","",""
"","html-keyboard-response","136","621986","0.0-10.0-1.3","ybbwtrgqb1","one_one","1","direct_first","1","er08ef29","0","23","1","1","3","1","","0","1","0","null","","","<img src = 'category2/CS1.png' width = '100%;'>","null","","","","","","","","","",""
"","html-keyboard-response","137","622239","0.0-10.0-2.3","ybbwtrgqb1","one_one","1","direct_first","1","er08ef29","0","23","1","1","3","1","","0","1","0","null","","","<img src = 'targets/42.png' width = '100%;'>","null","","","","","","","","","",""
"","html-keyboard-response","138","624961","0.0-10.0-3.3","ybbwtrgqb1","one_one","1","direct_first","1","er08ef29","0","23","1","1","3","1","","0","1","0","2720","","","<img src = 'targets/mask.png' width = '100%;'>","75","pos","GS","GSold","2","category2/CS1.png","","targets/42.png","indirect","1","3"
"","html-keyboard-response","139","626465","0.0-10.0-0.4","ybbwtrgqb1","one_one","1","direct_first","1","er08ef29","0","23","1","1","3","1","","0","1","0","null","","","<div style=""font-size:60px;"">+</div>","null","","","","","","","","","",""
"","html-keyboard-response","140","626557","0.0-10.0-1.4","ybbwtrgqb1","one_one","1","direct_first","1","er08ef29","0","23","1","1","3","1","","0","1","0","null","","","<img src = 'category1/CS9.png' width = '100%;'>","null","","","","","","","","","",""
"","html-keyboard-response","141","626810","0.0-10.0-2.4","ybbwtrgqb1","one_one","1","direct_first","1","er08ef29","0","23","1","1","3","1","","0","1","0","null","","","<img src = 'targets/7.png' width = '100%;'>","null","","","","","","","","","",""
"","html-keyboard-response","142","627752","0.0-10.0-3.4","ybbwtrgqb1","one_one","1","direct_first","1","er08ef29","0","23","1","1","3","1","","0","1","0","940.9999999998836","","","<img src = 'targets/mask.png' width = '100%;'>","68","neg","GS","GSold","1","category1/CS9.png","","targets/7.png","indirect","0","4"
"","html-keyboard-response","143","629256","0.0-10.0-0.5","ybbwtrgqb1","one_one","1","direct_first","1","er08ef29","0","23","1","1","3","1","","0","1","0","null","","","<div style=""font-size:60px;"">+</div>","null","","","","","","","","","",""
"","html-keyboard-response","144","629352","0.0-10.0-1.5","ybbwtrgqb1","one_one","1","direct_first","1","er08ef29","0","23","1","1","3","1","","0","1","0","null","","","<img src = 'category4/CS4.png' width = '100%;'>","null","","","","","","","","","",""
"","html-keyboard-response","145","629605","0.0-10.0-2.5","ybbwtrgqb1","one_one","1","direct_first","1","er08ef29","0","23","1","1","3","1","","0","1","0","null","","","<img src = 'targets/18.png' width = '100%;'>","null","","","","","","","","","",""
"","html-keyboard-response","146","630289","0.0-10.0-3.5","ybbwtrgqb1","one_one","1","direct_first","1","er08ef29","0","23","1","1","3","1","","0","1","0","683","","","<img src = 'targets/mask.png' width = '100%;'>","68","neg","GS","GSold","4","category4/CS4.png","","targets/18.png","indirect","0","5"
"","html-keyboard-response","147","631792","0.0-10.0-0.6","ybbwtrgqb1","one_one","1","direct_first","1","er08ef29","0","23","1","1","3","1","","0","1","0","null","","","<div style=""font-size:60px;"">+</div>","null","","","","","","","","","",""
"","html-keyboard-response","148","631885","0.0-10.0-1.6","ybbwtrgqb1","one_one","1","direct_first","1","er08ef29","0","23","1","1","3","1","","0","1","0","null","","","<img src = 'category3/CS1.png' width = '100%;'>","null","","","","","","","","","",""
"","html-keyboard-response","149","632138","0.0-10.0-2.6","ybbwtrgqb1","one_one","1","direct_first","1","er08ef29","0","23","1","1","3","1","","0","1","0","null","","","<img src = 'targets/14.png' width = '100%;'>","null","","","","","","","","","",""
"","html-keyboard-response","150","633037","0.0-10.0-3.6","ybbwtrgqb1","one_one","1","direct_first","1","er08ef29","0","23","1","1","3","1","","0","1","0","897.0000000001164","","","<img src = 'targets/mask.png' width = '100%;'>","75","pos","GS","GSold","3","category3/CS1.png","","targets/14.png","indirect","1","6"
"","html-keyboard-response","151","634541","0.0-10.0-0.7","ybbwtrgqb1","one_one","1","direct_first","1","er08ef29","0","23","1","1","3","1","","0","1","0","null","","","<div style=""font-size:60px;"">+</div>","null","","","","","","","","","",""
"","html-keyboard-response","152","634632","0.0-10.0-1.7","ybbwtrgqb1","one_one","1","direct_first","1","er08ef29","0","23","1","1","3","1","","0","1","0","null","","","<img src = 'category3/CS5.png' width = '100%;'>","null","","","","","","","","","",""
"","html-keyboard-response","153","634885","0.0-10.0-2.7","ybbwtrgqb1","one_one","1","direct_first","1","er08ef29","0","23","1","1","3","1","","0","1","0","null","","","<img src = 'targets/17.png' width = '100%;'>","null","","","","","","","","","",""
"","html-keyboard-response","154","636359","0.0-10.0-3.7","ybbwtrgqb1","one_one","1","direct_first","1","er08ef29","0","23","1","1","3","1","","0","1","0","1473","","","<img src = 'targets/mask.png' width = '100%;'>","68","pos","GS","GSold","3","category3/CS5.png","","targets/17.png","indirect","0","7"
"","html-keyboard-response","155","637863","0.0-10.0-0.8","ybbwtrgqb1","one_one","1","direct_first","1","er08ef29","0","23","1","1","3","1","","0","1","0","null","","","<div style=""font-size:60px;"">+</div>","null","","","","","","","","","",""
"","html-keyboard-response","156","637955","0.0-10.0-1.8","ybbwtrgqb1","one_one","1","direct_first","1","er08ef29","0","23","1","1","3","1","","0","1","0","null","","","<img src = 'category1/CS10.png' width = '100%;'>","null","","","","","","","","","",""
"","html-keyboard-response","157","638207","0.0-10.0-2.8","ybbwtrgqb1","one_one","1","direct_first","1","er08ef29","0","23","1","1","3","1","","0","1","0","null","","","<img src = 'targets/16.png' width = '100%;'>","null","","","","","","","","","",""
"","html-keyboard-response","158","639436","0.0-10.0-3.8","ybbwtrgqb1","one_one","1","direct_first","1","er08ef29","0","23","1","1","3","1","","0","1","0","1227.0000000001164","","","<img src = 'targets/mask.png' width = '100%;'>","75","neg","GS","GSold","1","category1/CS10.png","","targets/16.png","indirect","1","8"
"","html-keyboard-response","159","640940","0.0-10.0-0.9","ybbwtrgqb1","one_one","1","direct_first","1","er08ef29","0","23","1","1","3","1","","0","1","0","null","","","<div style=""font-size:60px;"">+</div>","null","","","","","","","","","",""
"","html-keyboard-response","160","641032","0.0-10.0-1.9","ybbwtrgqb1","one_one","1","direct_first","1","er08ef29","0","23","1","1","3","1","","0","1","0","null","","","<img src = 'category1/CS4.png' width = '100%;'>","null","","","","","","","","","",""
"","html-keyboard-response","161","641285","0.0-10.0-2.9","ybbwtrgqb1","one_one","1","direct_first","1","er08ef29","0","23","1","1","3","1","","0","1","0","null","","","<img src = 'targets/33.png' width = '100%;'>","null","","","","","","","","","",""
"","html-keyboard-response","162","642060","0.0-10.0-3.9","ybbwtrgqb1","one_one","1","direct_first","1","er08ef29","0","23","1","1","3","1","","0","1","0","774","","","<img src = 'targets/mask.png' width = '100%;'>","75","neg","CS","CS","1","category1/CS4.png","","targets/33.png","indirect","1","9"
"","html-keyboard-response","163","643564","0.0-10.0-0.10","ybbwtrgqb1","one_one","1","direct_first","1","er08ef29","0","23","1","1","3","1","","0","1","0","null","","","<div style=""font-size:60px;"">+</div>","null","","","","","","","","","",""
"","html-keyboard-response","164","643659","0.0-10.0-1.10","ybbwtrgqb1","one_one","1","direct_first","1","er08ef29","0","23","1","1","3","1","","0","1","0","null","","","<img src = 'category2/CS7.png' width = '100%;'>","null","","","","","","","","","",""
"","html-keyboard-response","165","643913","0.0-10.0-2.10","ybbwtrgqb1","one_one","1","direct_first","1","er08ef29","0","23","1","1","3","1","","0","1","0","null","","","<img src = 'targets/11.png' width = '100%;'>","null","","","","","","","","","",""
"","html-keyboard-response","166","644756","0.0-10.0-3.10","ybbwtrgqb1","one_one","1","direct_first","1","er08ef29","0","23","1","1","3","1","","0","1","0","842","","","<img src = 'targets/mask.png' width = '100%;'>","75","pos","CS","CS","2","category2/CS7.png","","targets/11.png","indirect","1","10"
"","html-keyboard-response","167","646260","0.0-10.0-0.11","ybbwtrgqb1","one_one","1","direct_first","1","er08ef29","0","23","1","1","3","1","","0","1","0","null","","","<div style=""font-size:60px;"">+</div>","null","","","","","","","","","",""
"","html-keyboard-response","168","646352","0.0-10.0-1.11","ybbwtrgqb1","one_one","1","direct_first","1","er08ef29","0","23","1","1","3","1","","0","1","0","null","","","<img src = 'category4/CS9.png' width = '100%;'>","null","","","","","","","","","",""
"","html-keyboard-response","169","646606","0.0-10.0-2.11","ybbwtrgqb1","one_one","1","direct_first","1","er08ef29","0","23","1","1","3","1","","0","1","0","null","","","<img src = 'targets/12.png' width = '100%;'>","null","","","","","","","","","",""
"","html-keyboard-response","170","647684","0.0-10.0-3.11","ybbwtrgqb1","one_one","1","direct_first","1","er08ef29","0","23","1","1","3","1","","0","1","0","1077","","","<img src = 'targets/mask.png' width = '100%;'>","75","neg","GS","GSold","4","category4/CS9.png","","targets/12.png","indirect","1","11"
"","html-keyboard-response","171","649188","0.0-10.0-0.12","ybbwtrgqb1","one_one","1","direct_first","1","er08ef29","0","23","1","1","3","1","","0","1","0","null","","","<div style=""font-size:60px;"">+</div>","null","","","","","","","","","",""
"","html-keyboard-response","172","649280","0.0-10.0-1.12","ybbwtrgqb1","one_one","1","direct_first","1","er08ef29","0","23","1","1","3","1","","0","1","0","null","","","<img src = 'category2/CS10.png' width = '100%;'>","null","","","","","","","","","",""
"","html-keyboard-response","173","649533","0.0-10.0-2.12","ybbwtrgqb1","one_one","1","direct_first","1","er08ef29","0","23","1","1","3","1","","0","1","0","null","","","<img src = 'targets/6.png' width = '100%;'>","null","","","","","","","","","",""
"","html-keyboard-response","174","650362","0.0-10.0-3.12","ybbwtrgqb1","one_one","1","direct_first","1","er08ef29","0","23","1","1","3","1","","0","1","0","827","","","<img src = 'targets/mask.png' width = '100%;'>","68","pos","GS","GSold","2","category2/CS10.png","","targets/6.png","indirect","0","12"
"","html-keyboard-response","175","651866","0.0-10.0-0.13","ybbwtrgqb1","one_one","1","direct_first","1","er08ef29","0","23","1","1","3","1","","0","1","0","null","","","<div style=""font-size:60px;"">+</div>","null","","","","","","","","","",""
"","html-keyboard-response","176","651958","0.0-10.0-1.13","ybbwtrgqb1","one_one","1","direct_first","1","er08ef29","0","23","1","1","3","1","","0","1","0","null","","","<img src = 'category3/CS8.png' width = '100%;'>","null","","","","","","","","","",""
"","html-keyboard-response","177","652211","0.0-10.0-2.13","ybbwtrgqb1","one_one","1","direct_first","1","er08ef29","0","23","1","1","3","1","","0","1","0","null","","","<img src = 'targets/5.png' width = '100%;'>","null","","","","","","","","","",""
"","html-keyboard-response","178","652872","0.0-10.0-3.13","ybbwtrgqb1","one_one","1","direct_first","1","er08ef29","0","23","1","1","3","1","","0","1","0","659","","","<img src = 'targets/mask.png' width = '100%;'>","75","pos","CS","CS","3","category3/CS8.png","","targets/5.png","indirect","1","13"
"","html-keyboard-response","179","654376","0.0-10.0-0.14","ybbwtrgqb1","one_one","1","direct_first","1","er08ef29","0","23","1","1","3","1","","0","1","0","null","","","<div style=""font-size:60px;"">+</div>","null","","","","","","","","","",""
"","html-keyboard-response","180","654468","0.0-10.0-1.14","ybbwtrgqb1","one_one","1","direct_first","1","er08ef29","0","23","1","1","3","1","","0","1","0","null","","","<img src = 'category2/CS4.png' width = '100%;'>","null","","","","","","","","","",""
"","html-keyboard-response","181","654723","0.0-10.0-2.14","ybbwtrgqb1","one_one","1","direct_first","1","er08ef29","0","23","1","1","3","1","","0","1","0","null","","","<img src = 'targets/26.png' width = '100%;'>","null","","","","","","","","","",""
"","html-keyboard-response","182","655630","0.0-10.0-3.14","ybbwtrgqb1","one_one","1","direct_first","1","er08ef29","0","23","1","1","3","1","","0","1","0","905","","","<img src = 'targets/mask.png' width = '100%;'>","68","pos","GS","GSold","2","category2/CS4.png","","targets/26.png","indirect","0","14"
"","html-keyboard-response","183","657134","0.0-10.0-0.15","ybbwtrgqb1","one_one","1","direct_first","1","er08ef29","0","23","1","1","3","1","","0","1","0","null","","","<div style=""font-size:60px;"">+</div>","null","","","","","","","","","",""
"","html-keyboard-response","184","657226","0.0-10.0-1.15","ybbwtrgqb1","one_one","1","direct_first","1","er08ef29","0","23","1","1","3","1","","0","1","0","null","","","<img src = 'category1/CS5.png' width = '100%;'>","null","","","","","","","","","",""
"","html-keyboard-response","185","657479","0.0-10.0-2.15","ybbwtrgqb1","one_one","1","direct_first","1","er08ef29","0","23","1","1","3","1","","0","1","0","null","","","<img src = 'targets/32.png' width = '100%;'>","null","","","","","","","","","",""
"","html-keyboard-response","186","658413","0.0-10.0-3.15","ybbwtrgqb1","one_one","1","direct_first","1","er08ef29","0","23","1","1","3","1","","0","1","0","932","","","<img src = 'targets/mask.png' width = '100%;'>","75","neg","GS","GSold","1","category1/CS5.png","","targets/32.png","indirect","1","15"
"","survey-html-form","187","668927","0.0-11.0","ybbwtrgqb1","one_one","1","direct_first","1","er08ef29","0","23","1","1","3","1","","0","1","0","10011","","{}","","","","","","","","","","","",""
"","html-keyboard-response","188","671930","0.0-12.0-0.0","ybbwtrgqb1","one_one","1","direct_first","1","er08ef29","0","23","1","1","3","1","","0","1","0","null","","","<div style=""font-size:60px;"">+</div>","null","","","","","","","","","",""
"","html-keyboard-response","189","672026","0.0-12.0-1.0","ybbwtrgqb1","one_one","1","direct_first","1","er08ef29","0","23","1","1","3","1","","0","1","0","null","","","<img src = 'category1/GS1.png' width = '100%;'>","null","","","","","","","","","",""
"","html-keyboard-response","190","672279","0.0-12.0-2.0","ybbwtrgqb1","one_one","1","direct_first","1","er08ef29","0","23","1","1","3","1","","0","1","0","null","","","<img src = 'targets/21.png' width = '100%;'>","null","","","","","","","","","",""
"","html-keyboard-response","191","673753","0.0-12.0-3.0","ybbwtrgqb1","one_one","1","direct_first","1","er08ef29","0","23","1","1","3","1","","0","1","0","1472","","","<img src = 'targets/mask.png' width = '100%;'>","68","neg","GS","GSnew","1","category1/GS1.png","","targets/21.png","indirect","0","16"
"","html-keyboard-response","192","675256","0.0-12.0-0.1","ybbwtrgqb1","one_one","1","direct_first","1","er08ef29","0","23","1","1","3","1","","0","1","0","null","","","<div style=""font-size:60px;"">+</div>","null","","","","","","","","","",""
"","html-keyboard-response","193","675349","0.0-12.0-1.1","ybbwtrgqb1","one_one","1","direct_first","1","er08ef29","0","23","1","1","3","1","","0","1","0","null","","","<img src = 'category2/men.png' width = '100%;'>","null","","","","","","","","","",""
"","html-keyboard-response","194","675602","0.0-12.0-2.1","ybbwtrgqb1","one_one","1","direct_first","1","er08ef29","0","23","1","1","3","1","","0","1","0","null","","","<img src = 'targets/8.png' width = '100%;'>","null","","","","","","","","","",""
"","html-keyboard-response","195","676461","0.0-12.0-3.1","ybbwtrgqb1","one_one","1","direct_first","1","er08ef29","0","23","1","1","3","1","","0","1","0","857.0000000001164","","","<img src = 'targets/mask.png' width = '100%;'>","75","pos","GS","abstract","2","category2/men.png","","targets/8.png","indirect","1","17"
"","html-keyboard-response","196","677964","0.0-12.0-0.2","ybbwtrgqb1","one_one","1","direct_first","1","er08ef29","0","23","1","1","3","1","","0","1","0","null","","","<div style=""font-size:60px;"">+</div>","null","","","","","","","","","",""
"","html-keyboard-response","197","678056","0.0-12.0-1.2","ybbwtrgqb1","one_one","1","direct_first","1","er08ef29","0","23","1","1","3","1","","0","1","0","null","","","<img src = 'category4/lin.png' width = '100%;'>","null","","","","","","","","","",""
"","html-keyboard-response","198","678308","0.0-12.0-2.2","ybbwtrgqb1","one_one","1","direct_first","1","er08ef29","0","23","1","1","3","1","","0","1","0","null","","","<img src = 'targets/36.png' width = '100%;'>","null","","","","","","","","","",""
"","html-keyboard-response","199","680036","0.0-12.0-3.2","ybbwtrgqb1","one_one","1","direct_first","1","er08ef29","0","23","1","1","3","1","","0","1","0","1726","","","<img src = 'targets/mask.png' width = '100%;'>","68","neg","GS","abstract","4","category4/lin.png","","targets/36.png","indirect","0","18"
"","html-keyboard-response","200","681540","0.0-12.0-0.3","ybbwtrgqb1","one_one","1","direct_first","1","er08ef29","0","23","1","1","3","1","","0","1","0","null","","","<div style=""font-size:60px;"">+</div>","null","","","","","","","","","",""
"","html-keyboard-response","201","681633","0.0-12.0-1.3","ybbwtrgqb1","one_one","1","direct_first","1","er08ef29","0","23","1","1","3","1","","0","1","0","null","","","<img src = 'category2/GS2.png' width = '100%;'>","null","","","","","","","","","",""
"","html-keyboard-response","202","681886","0.0-12.0-2.3","ybbwtrgqb1","one_one","1","direct_first","1","er08ef29","0","23","1","1","3","1","","0","1","0","null","","","<img src = 'targets/30.png' width = '100%;'>","null","","","","","","","","","",""
"","html-keyboard-response","203","682740","0.0-12.0-3.3","ybbwtrgqb1","one_one","1","direct_first","1","er08ef29","0","23","1","1","3","1","","0","1","0","852.0000000001164","","","<img src = 'targets/mask.png' width = '100%;'>","75","pos","GS","GSnew","2","category2/GS2.png","","targets/30.png","indirect","1","19"
"","html-keyboard-response","204","684243","0.0-12.0-0.4","ybbwtrgqb1","one_one","1","direct_first","1","er08ef29","0","23","1","1","3","1","","0","1","0","null","","","<div style=""font-size:60px;"">+</div>","null","","","","","","","","","",""
"","html-keyboard-response","205","684335","0.0-12.0-1.4","ybbwtrgqb1","one_one","1","direct_first","1","er08ef29","0","23","1","1","3","1","","0","1","0","null","","","<img src = 'category4/GS2.png' width = '100%;'>","null","","","","","","","","","",""
"","html-keyboard-response","206","684588","0.0-12.0-2.4","ybbwtrgqb1","one_one","1","direct_first","1","er08ef29","0","23","1","1","3","1","","0","1","0","null","","","<img src = 'targets/28.png' width = '100%;'>","null","","","","","","","","","",""
"","html-keyboard-response","207","685696","0.0-12.0-3.4","ybbwtrgqb1","one_one","1","direct_first","1","er08ef29","0","23","1","1","3","1","","0","1","0","1107.0000000001164","","","<img src = 'targets/mask.png' width = '100%;'>","68","neg","GS","GSnew","4","category4/GS2.png","","targets/28.png","indirect","0","20"
"","html-keyboard-response","208","687200","0.0-12.0-0.5","ybbwtrgqb1","one_one","1","direct_first","1","er08ef29","0","23","1","1","3","1","","0","1","0","null","","","<div style=""font-size:60px;"">+</div>","null","","","","","","","","","",""
"","html-keyboard-response","209","687295","0.0-12.0-1.5","ybbwtrgqb1","one_one","1","direct_first","1","er08ef29","0","23","1","1","3","1","","0","1","0","null","","","<img src = 'category3/wang.png' width = '100%;'>","null","","","","","","","","","",""
"","html-keyboard-response","210","687549","0.0-12.0-2.5","ybbwtrgqb1","one_one","1","direct_first","1","er08ef29","0","23","1","1","3","1","","0","1","0","null","","","<img src = 'targets/48.png' width = '100%;'>","null","","","","","","","","","",""
"","html-keyboard-response","211","688335","0.0-12.0-3.5","ybbwtrgqb1","one_one","1","direct_first","1","er08ef29","0","23","1","1","3","1","","0","1","0","785.0000000001164","","","<img src = 'targets/mask.png' width = '100%;'>","75","pos","GS","abstract","3","category3/wang.png","","targets/48.png","indirect","1","21"
"","html-keyboard-response","212","689839","0.0-12.0-0.6","ybbwtrgqb1","one_one","1","direct_first","1","er08ef29","0","23","1","1","3","1","","0","1","0","null","","","<div style=""font-size:60px;"">+</div>","null","","","","","","","","","",""
"","html-keyboard-response","213","689931","0.0-12.0-1.6","ybbwtrgqb1","one_one","1","direct_first","1","er08ef29","0","23","1","1","3","1","","0","1","0","null","","","<img src = 'category4/GS1.png' width = '100%;'>","null","","","","","","","","","",""
"","html-keyboard-response","214","690184","0.0-12.0-2.6","ybbwtrgqb1","one_one","1","direct_first","1","er08ef29","0","23","1","1","3","1","","0","1","0","null","","","<img src = 'targets/34.png' width = '100%;'>","null","","","","","","","","","",""
"","html-keyboard-response","215","690732","0.0-12.0-3.6","ybbwtrgqb1","one_one","1","direct_first","1","er08ef29","0","23","1","1","3","1","","0","1","0","547","","","<img src = 'targets/mask.png' width = '100%;'>","75","neg","GS","GSnew","4","category4/GS1.png","","targets/34.png","indirect","1","22"
"","html-keyboard-response","216","692235","0.0-12.0-0.7","ybbwtrgqb1","one_one","1","direct_first","1","er08ef29","0","23","1","1","3","1","","0","1","0","null","","","<div style=""font-size:60px;"">+</div>","null","","","","","","","","","",""
"","html-keyboard-response","217","692327","0.0-12.0-1.7","ybbwtrgqb1","one_one","1","direct_first","1","er08ef29","0","23","1","1","3","1","","0","1","0","null","","","<img src = 'category3/GS2.png' width = '100%;'>","null","","","","","","","","","",""
"","html-keyboard-response","218","692581","0.0-12.0-2.7","ybbwtrgqb1","one_one","1","direct_first","1","er08ef29","0","23","1","1","3","1","","0","1","0","null","","","<img src = 'targets/40.png' width = '100%;'>","null","","","","","","","","","",""
"","html-keyboard-response","219","693343","0.0-12.0-3.7","ybbwtrgqb1","one_one","1","direct_first","1","er08ef29","0","23","1","1","3","1","","0","1","0","761","","","<img src = 'targets/mask.png' width = '100%;'>","68","pos","GS","GSnew","3","category3/GS2.png","","targets/40.png","indirect","0","23"
"","html-keyboard-response","220","694846","0.0-12.0-0.8","ybbwtrgqb1","one_one","1","direct_first","1","er08ef29","0","23","1","1","3","1","","0","1","0","null","","","<div style=""font-size:60px;"">+</div>","null","","","","","","","","","",""
"","html-keyboard-response","221","694939","0.0-12.0-1.8","ybbwtrgqb1","one_one","1","direct_first","1","er08ef29","0","23","1","1","3","1","","0","1","0","null","","","<img src = 'category4/GS3.png' width = '100%;'>","null","","","","","","","","","",""
"","html-keyboard-response","222","695192","0.0-12.0-2.8","ybbwtrgqb1","one_one","1","direct_first","1","er08ef29","0","23","1","1","3","1","","0","1","0","null","","","<img src = 'targets/45.png' width = '100%;'>","null","","","","","","","","","",""
"","html-keyboard-response","223","696321","0.0-12.0-3.8","ybbwtrgqb1","one_one","1","direct_first","1","er08ef29","0","23","1","1","3","1","","0","1","0","1128.0000000001164","","","<img src = 'targets/mask.png' width = '100%;'>","68","neg","GS","GSnew","4","category4/GS3.png","","targets/45.png","indirect","0","24"
"","html-keyboard-response","224","697825","0.0-12.0-0.9","ybbwtrgqb1","one_one","1","direct_first","1","er08ef29","0","23","1","1","3","1","","0","1","0","null","","","<div style=""font-size:60px;"">+</div>","null","","","","","","","","","",""
"","html-keyboard-response","225","697917","0.0-12.0-1.9","ybbwtrgqb1","one_one","1","direct_first","1","er08ef29","0","23","1","1","3","1","","0","1","0","null","","","<img src = 'category2/GS1.png' width = '100%;'>","null","","","","","","","","","",""
"","html-keyboard-response","226","698173","0.0-12.0-2.9","ybbwtrgqb1","one_one","1","direct_first","1","er08ef29","0","23","1","1","3","1","","0","1","0","null","","","<img src = 'targets/25.png' width = '100%;'>","null","","","","","","","","","",""
"","html-keyboard-response","227","698752","0.0-12.0-3.9","ybbwtrgqb1","one_one","1","direct_first","1","er08ef29","0","23","1","1","3","1","","0","1","0","578","","","<img src = 'targets/mask.png' width = '100%;'>","75","pos","GS","GSnew","2","category2/GS1.png","","targets/25.png","indirect","1","25"
"","html-keyboard-response","228","700256","0.0-12.0-0.10","ybbwtrgqb1","one_one","1","direct_first","1","er08ef29","0","23","1","1","3","1","","0","1","0","null","","","<div style=""font-size:60px;"">+</div>","null","","","","","","","","","",""
"","html-keyboard-response","229","700348","0.0-12.0-1.10","ybbwtrgqb1","one_one","1","direct_first","1","er08ef29","0","23","1","1","3","1","","0","1","0","null","","","<img src = 'category1/GS2.png' width = '100%;'>","null","","","","","","","","","",""
"","html-keyboard-response","230","700600","0.0-12.0-2.10","ybbwtrgqb1","one_one","1","direct_first","1","er08ef29","0","23","1","1","3","1","","0","1","0","null","","","<img src = 'targets/27.png' width = '100%;'>","null","","","","","","","","","",""
"","html-keyboard-response","231","705475","0.0-12.0-3.10","ybbwtrgqb1","one_one","1","direct_first","1","er08ef29","0","23","1","1","3","1","","0","1","0","4873","","","<img src = 'targets/mask.png' width = '100%;'>","75","neg","GS","GSnew","1","category1/GS2.png","","targets/27.png","indirect","1","26"
"","html-keyboard-response","232","706978","0.0-12.0-0.11","ybbwtrgqb1","one_one","1","direct_first","1","er08ef29","0","23","1","1","3","1","","0","1","0","null","","","<div style=""font-size:60px;"">+</div>","null","","","","","","","","","",""
"","html-keyboard-response","233","707071","0.0-12.0-1.11","ybbwtrgqb1","one_one","1","direct_first","1","er08ef29","0","23","1","1","3","1","","0","1","0","null","","","<img src = 'category3/GS1.png' width = '100%;'>","null","","","","","","","","","",""
"","html-keyboard-response","234","707324","0.0-12.0-2.11","ybbwtrgqb1","one_one","1","direct_first","1","er08ef29","0","23","1","1","3","1","","0","1","0","null","","","<img src = 'targets/24.png' width = '100%;'>","null","","","","","","","","","",""
"","html-keyboard-response","235","708158","0.0-12.0-3.11","ybbwtrgqb1","one_one","1","direct_first","1","er08ef29","0","23","1","1","3","1","","0","1","0","831","","","<img src = 'targets/mask.png' width = '100%;'>","68","pos","GS","GSnew","3","category3/GS1.png","","targets/24.png","indirect","0","27"
"","html-keyboard-response","236","709661","0.0-12.0-0.12","ybbwtrgqb1","one_one","1","direct_first","1","er08ef29","0","23","1","1","3","1","","0","1","0","null","","","<div style=""font-size:60px;"">+</div>","null","","","","","","","","","",""
"","html-keyboard-response","237","709754","0.0-12.0-1.12","ybbwtrgqb1","one_one","1","direct_first","1","er08ef29","0","23","1","1","3","1","","0","1","0","null","","","<img src = 'category1/GS3.png' width = '100%;'>","null","","","","","","","","","",""
"","html-keyboard-response","238","710007","0.0-12.0-2.12","ybbwtrgqb1","one_one","1","direct_first","1","er08ef29","0","23","1","1","3","1","","0","1","0","null","","","<img src = 'targets/2.png' width = '100%;'>","null","","","","","","","","","",""
"","html-keyboard-response","239","710710","0.0-12.0-3.12","ybbwtrgqb1","one_one","1","direct_first","1","er08ef29","0","23","1","1","3","1","","0","1","0","701","","","<img src = 'targets/mask.png' width = '100%;'>","75","neg","GS","GSnew","1","category1/GS3.png","","targets/2.png","indirect","1","28"
"","html-keyboard-response","240","712213","0.0-12.0-0.13","ybbwtrgqb1","one_one","1","direct_first","1","er08ef29","0","23","1","1","3","1","","0","1","0","null","","","<div style=""font-size:60px;"">+</div>","null","","","","","","","","","",""
"","html-keyboard-response","241","712306","0.0-12.0-1.13","ybbwtrgqb1","one_one","1","direct_first","1","er08ef29","0","23","1","1","3","1","","0","1","0","null","","","<img src = 'category3/GS3.png' width = '100%;'>","null","","","","","","","","","",""
"","html-keyboard-response","242","712562","0.0-12.0-2.13","ybbwtrgqb1","one_one","1","direct_first","1","er08ef29","0","23","1","1","3","1","","0","1","0","null","","","<img src = 'targets/4.png' width = '100%;'>","null","","","","","","","","","",""
"","html-keyboard-response","243","713215","0.0-12.0-3.13","ybbwtrgqb1","one_one","1","direct_first","1","er08ef29","0","23","1","1","3","1","","0","1","0","651","","","<img src = 'targets/mask.png' width = '100%;'>","68","pos","GS","GSnew","3","category3/GS3.png","","targets/4.png","indirect","0","29"
"","html-keyboard-response","244","714718","0.0-12.0-0.14","ybbwtrgqb1","one_one","1","direct_first","1","er08ef29","0","23","1","1","3","1","","0","1","0","null","","","<div style=""font-size:60px;"">+</div>","null","","","","","","","","","",""
"","html-keyboard-response","245","714811","0.0-12.0-1.14","ybbwtrgqb1","one_one","1","direct_first","1","er08ef29","0","23","1","1","3","1","","0","1","0","null","","","<img src = 'category1/ma.png' width = '100%;'>","null","","","","","","","","","",""
"","html-keyboard-response","246","715064","0.0-12.0-2.14","ybbwtrgqb1","one_one","1","direct_first","1","er08ef29","0","23","1","1","3","1","","0","1","0","null","","","<img src = 'targets/31.png' width = '100%;'>","null","","","","","","","","","",""
"","html-keyboard-response","247","715862","0.0-12.0-3.14","ybbwtrgqb1","one_one","1","direct_first","1","er08ef29","0","23","1","1","3","1","","0","1","0","796","","","<img src = 'targets/mask.png' width = '100%;'>","68","neg","GS","abstract","1","category1/ma.png","","targets/31.png","indirect","0","30"
"","html-keyboard-response","248","717365","0.0-12.0-0.15","ybbwtrgqb1","one_one","1","direct_first","1","er08ef29","0","23","1","1","3","1","","0","1","0","null","","","<div style=""font-size:60px;"">+</div>","null","","","","","","","","","",""
"","html-keyboard-response","249","717458","0.0-12.0-1.15","ybbwtrgqb1","one_one","1","direct_first","1","er08ef29","0","23","1","1","3","1","","0","1","0","null","","","<img src = 'category2/GS3.png' width = '100%;'>","null","","","","","","","","","",""
"","html-keyboard-response","250","717711","0.0-12.0-2.15","ybbwtrgqb1","one_one","1","direct_first","1","er08ef29","0","23","1","1","3","1","","0","1","0","null","","","<img src = 'targets/15.png' width = '100%;'>","null","","","","","","","","","",""
"","html-keyboard-response","251","718587","0.0-12.0-3.15","ybbwtrgqb1","one_one","1","direct_first","1","er08ef29","0","23","1","1","3","1","","0","1","0","875","","","<img src = 'targets/mask.png' width = '100%;'>","68","pos","GS","GSnew","2","category2/GS3.png","","targets/15.png","indirect","0","31"
"","survey-html-form","252","731474","0.0-13.0","ybbwtrgqb1","one_one","1","direct_first","1","er08ef29","0","23","1","1","3","1","","0","1","0","12385","","{}","","","","","","","","","","","",""
"","image-slider-response","253","741811","0.0-14.0-0.0","ybbwtrgqb1","one_one","1","direct_first","1","er08ef29","0","23","1","1","3","1","","0","1","0","9333","","","","","pos","All","all","2","category2/men_all.png","-3","","all","",""
"","image-slider-response","254","757078","0.0-14.0-0.1","ybbwtrgqb1","one_one","1","direct_first","1","er08ef29","0","23","1","1","3","1","","0","1","0","15264","","","","","pos","All","all","3","category3/wang_all.png","20","","all","",""
"","image-slider-response","255","760217","0.0-14.0-0.2","ybbwtrgqb1","one_one","1","direct_first","1","er08ef29","0","23","1","1","3","1","","0","1","0","3135","","","","","neg","All","all","1","category1/ma_all.png","-37","","all","",""
"","image-slider-response","256","766945","0.0-14.0-0.3","ybbwtrgqb1","one_one","1","direct_first","1","er08ef29","0","23","1","1","3","1","","0","1","0","6725","","","","","neg","All","all","4","category4/lin_all.png","-4","","all","",""
"","survey-text","257","769581","0.0-15.0","ybbwtrgqb1","one_one","1","direct_first","1","er08ef29","0","23","1","1","3","1","","0","1","0","2634","","{""comment"":""""}","","","","","","","","","","","",""
"","survey-html-form","258","784809","0.0-16.0","ybbwtrgqb1","one_one","1","direct_first","1","er08ef29","0","23","1","1","3","1","","0","1","0","15225","","{""hinschauen"":""0"",""ablenkung"":""1"",""gewissenhaft"":""0""}","","","","","","","","","","","",""
