"success","trial_type","trial_index","time_elapsed","internal_node_id","subject","condition","condition_code","measure","measure_code","codeword","gender","age","education","chinese","fach","handedness","comment","hinschauen","ablenkung","gewissenhaft","rt","url","responses","stimulus","key_press","val","type","type_specific","category","cs_selected","response","target","task","indirect","nr_pres"
"true","fullscreen","0","24584","0.0-0.0","yh49jczx6h","many_one","0","direct_first","1","ed07nk19","0","21","1","1","3","1","","0","0","0","","","","","","","","","","","","","","",""
"","external-html","1","72652","0.0-1.0","yh49jczx6h","many_one","0","direct_first","1","ed07nk19","0","21","1","1","3","1","","0","0","0","47971","text/information.html","","","","","","","","","","","","",""
"","external-html","2","95235","0.0-2.0","yh49jczx6h","many_one","0","direct_first","1","ed07nk19","0","21","1","1","3","1","","0","0","0","22453","text/consent.html","","","","","","","","","","","","",""
"","survey-html-form","3","232268","0.0-3.0","yh49jczx6h","many_one","0","direct_first","1","ed07nk19","0","21","1","1","3","1","","0","0","0","137027","","{""codeword_enter"":""ed07nk19""}","","","","","","","","","","","",""
"","survey-html-form","4","262340","0.0-4.0","yh49jczx6h","many_one","0","direct_first","1","ed07nk19","0","21","1","1","3","1","","0","0","0","30065","","{""age"":""21"",""education"":""1"",""subject"":""3"",""gender"":""0"",""handedness"":""1"",""chinese"":""1""}","","","","","","","","","","","",""
"","survey-html-form","5","297506","0.0-5.0","yh49jczx6h","many_one","0","direct_first","1","ed07nk19","0","21","1","1","3","1","","0","0","0","35162","","{}","","","","","","","","","","","",""
"","html-keyboard-response","6","301544","0.0-6.0-0.0-0.0","yh49jczx6h","many_one","0","direct_first","1","ed07nk19","0","21","1","1","3","1","","0","0","0","null","","","<div class = 'row'><div class = 'column'><img src = 'category4/CS4.png' width = '70%;'></div><div class = 'column'><img src = 'usneg/9560.bmp' width = '100%;'></div></div>","null","neg","CS","CS","4","category4/CS4.png","","","","",""
"","html-keyboard-response","7","304073","0.0-6.0-0.0-0.1","yh49jczx6h","many_one","0","direct_first","1","ed07nk19","0","21","1","1","3","1","","0","0","0","null","","","<div class = 'row'><div class = 'column'><img src = 'usneg/9050.bmp' width = '100%;'></div><div class = 'column'><img src = 'category1/CS8.png' width = '70%;'></div></div>","null","neg","CS","CS","1","category1/CS8.png","","","","",""
"","html-keyboard-response","8","306593","0.0-6.0-0.0-0.2","yh49jczx6h","many_one","0","direct_first","1","ed07nk19","0","21","1","1","3","1","","0","0","0","null","","","<div class = 'row'><div class = 'column'><img src = 'category2/CS10.png' width = '70%;'></div><div class = 'column'><img src = 'uspos/5621.bmp' width = '100%;'></div></div>","null","pos","CS","CS","2","category2/CS10.png","","","","",""
"","html-keyboard-response","9","309123","0.0-6.0-0.0-0.3","yh49jczx6h","many_one","0","direct_first","1","ed07nk19","0","21","1","1","3","1","","0","0","0","null","","","<div class = 'row'><div class = 'column'><img src = 'category3/CS6.png' width = '70%;'></div><div class = 'column'><img src = 'uspos/1460.bmp' width = '100%;'></div></div>","null","pos","CS","CS","3","category3/CS6.png","","","","",""
"","html-keyboard-response","10","311653","0.0-6.0-0.0-0.4","yh49jczx6h","many_one","0","direct_first","1","ed07nk19","0","21","1","1","3","1","","0","0","0","null","","","<div class = 'row'><div class = 'column'><img src = 'category2/CS9.png' width = '70%;'></div><div class = 'column'><img src = 'uspos/2530.bmp' width = '100%;'></div></div>","null","pos","CS","CS","2","category2/CS9.png","","","","",""
"","html-keyboard-response","11","314183","0.0-6.0-0.0-0.5","yh49jczx6h","many_one","0","direct_first","1","ed07nk19","0","21","1","1","3","1","","0","0","0","null","","","<div class = 'row'><div class = 'column'><img src = 'category1/CS1.png' width = '70%;'></div><div class = 'column'><img src = 'usneg/3181.bmp' width = '100%;'></div></div>","null","neg","CS","CS","1","category1/CS1.png","","","","",""
"","html-keyboard-response","12","316713","0.0-6.0-0.0-0.6","yh49jczx6h","many_one","0","direct_first","1","ed07nk19","0","21","1","1","3","1","","0","0","0","null","","","<div class = 'row'><div class = 'column'><img src = 'uspos/2057.bmp' width = '100%;'></div><div class = 'column'><img src = 'category3/CS8.png' width = '70%;'></div></div>","null","pos","CS","CS","3","category3/CS8.png","","","","",""
"","html-keyboard-response","13","319244","0.0-6.0-0.0-0.7","yh49jczx6h","many_one","0","direct_first","1","ed07nk19","0","21","1","1","3","1","","0","0","0","null","","","<div class = 'row'><div class = 'column'><img src = 'uspos/5600.bmp' width = '100%;'></div><div class = 'column'><img src = 'category3/CS1.png' width = '70%;'></div></div>","null","pos","CS","CS","3","category3/CS1.png","","","","",""
"","html-keyboard-response","14","321763","0.0-6.0-0.0-0.8","yh49jczx6h","many_one","0","direct_first","1","ed07nk19","0","21","1","1","3","1","","0","0","0","null","","","<div class = 'row'><div class = 'column'><img src = 'category4/CS6.png' width = '70%;'></div><div class = 'column'><img src = 'usneg/9635.2.bmp' width = '100%;'></div></div>","null","neg","CS","CS","4","category4/CS6.png","","","","",""
"","html-keyboard-response","15","324293","0.0-6.0-0.0-0.9","yh49jczx6h","many_one","0","direct_first","1","ed07nk19","0","21","1","1","3","1","","0","0","0","null","","","<div class = 'row'><div class = 'column'><img src = 'category1/CS10.png' width = '70%;'></div><div class = 'column'><img src = 'usneg/9290.bmp' width = '100%;'></div></div>","null","neg","CS","CS","1","category1/CS10.png","","","","",""
"","html-keyboard-response","16","326822","0.0-6.0-0.0-0.10","yh49jczx6h","many_one","0","direct_first","1","ed07nk19","0","21","1","1","3","1","","0","0","0","null","","","<div class = 'row'><div class = 'column'><img src = 'category2/CS6.png' width = '70%;'></div><div class = 'column'><img src = 'uspos/5831.bmp' width = '100%;'></div></div>","null","pos","CS","CS","2","category2/CS6.png","","","","",""
"","html-keyboard-response","17","329353","0.0-6.0-0.0-0.11","yh49jczx6h","many_one","0","direct_first","1","ed07nk19","0","21","1","1","3","1","","0","0","0","null","","","<div class = 'row'><div class = 'column'><img src = 'category1/CS7.png' width = '70%;'></div><div class = 'column'><img src = 'usneg/9220.bmp' width = '100%;'></div></div>","null","neg","CS","CS","1","category1/CS7.png","","","","",""
"","html-keyboard-response","18","331872","0.0-6.0-0.0-0.12","yh49jczx6h","many_one","0","direct_first","1","ed07nk19","0","21","1","1","3","1","","0","0","0","null","","","<div class = 'row'><div class = 'column'><img src = 'usneg/3300.bmp' width = '100%;'></div><div class = 'column'><img src = 'category4/CS2.png' width = '70%;'></div></div>","null","neg","CS","CS","4","category4/CS2.png","","","","",""
"","html-keyboard-response","19","334403","0.0-6.0-0.0-0.13","yh49jczx6h","many_one","0","direct_first","1","ed07nk19","0","21","1","1","3","1","","0","0","0","null","","","<div class = 'row'><div class = 'column'><img src = 'category2/CS7.png' width = '70%;'></div><div class = 'column'><img src = 'uspos/2165.bmp' width = '100%;'></div></div>","null","pos","CS","CS","2","category2/CS7.png","","","","",""
"","html-keyboard-response","20","336933","0.0-6.0-0.0-0.14","yh49jczx6h","many_one","0","direct_first","1","ed07nk19","0","21","1","1","3","1","","0","0","0","null","","","<div class = 'row'><div class = 'column'><img src = 'usneg/9280.bmp' width = '100%;'></div><div class = 'column'><img src = 'category4/CS5.png' width = '70%;'></div></div>","null","neg","CS","CS","4","category4/CS5.png","","","","",""
"","html-keyboard-response","21","339453","0.0-6.0-0.0-0.15","yh49jczx6h","many_one","0","direct_first","1","ed07nk19","0","21","1","1","3","1","","0","0","0","null","","","<div class = 'row'><div class = 'column'><img src = 'category1/CS9.png' width = '70%;'></div><div class = 'column'><img src = 'usneg/1280.bmp' width = '100%;'></div></div>","null","neg","CS","CS","1","category1/CS9.png","","","","",""
"","html-keyboard-response","22","341983","0.0-6.0-0.0-0.16","yh49jczx6h","many_one","0","direct_first","1","ed07nk19","0","21","1","1","3","1","","0","0","0","null","","","<div class = 'row'><div class = 'column'><img src = 'uspos/5470.bmp' width = '100%;'></div><div class = 'column'><img src = 'category3/CS9.png' width = '70%;'></div></div>","null","pos","CS","CS","3","category3/CS9.png","","","","",""
"","html-keyboard-response","23","344513","0.0-6.0-0.0-0.17","yh49jczx6h","many_one","0","direct_first","1","ed07nk19","0","21","1","1","3","1","","0","0","0","null","","","<div class = 'row'><div class = 'column'><img src = 'usneg/9435.bmp' width = '100%;'></div><div class = 'column'><img src = 'category4/CS10.png' width = '70%;'></div></div>","null","neg","CS","CS","4","category4/CS10.png","","","","",""
"","html-keyboard-response","24","347043","0.0-6.0-0.0-0.18","yh49jczx6h","many_one","0","direct_first","1","ed07nk19","0","21","1","1","3","1","","0","0","0","null","","","<div class = 'row'><div class = 'column'><img src = 'uspos/1710.bmp' width = '100%;'></div><div class = 'column'><img src = 'category2/CS5.png' width = '70%;'></div></div>","null","pos","CS","CS","2","category2/CS5.png","","","","",""
"","html-keyboard-response","25","349563","0.0-6.0-0.0-0.19","yh49jczx6h","many_one","0","direct_first","1","ed07nk19","0","21","1","1","3","1","","0","0","0","null","","","<div class = 'row'><div class = 'column'><img src = 'category3/CS10.png' width = '70%;'></div><div class = 'column'><img src = 'uspos/2040.bmp' width = '100%;'></div></div>","null","pos","CS","CS","3","category3/CS10.png","","","","",""
"","survey-html-form","26","360086","0.0-6.0-1.0","yh49jczx6h","many_one","0","direct_first","1","ed07nk19","0","21","1","1","3","1","","0","0","0","10002","","{}","","","","","","","","","","","",""
"","html-keyboard-response","27","364113","0.0-6.0-2.0-0.0","yh49jczx6h","many_one","0","direct_first","1","ed07nk19","0","21","1","1","3","1","","0","0","0","null","","","<div class = 'row'><div class = 'column'><img src = 'usneg/9220.bmp' width = '100%;'></div><div class = 'column'><img src = 'category1/CS7.png' width = '70%;'></div></div>","null","neg","CS","CS","1","category1/CS7.png","","","","",""
"","html-keyboard-response","28","366642","0.0-6.0-2.0-0.1","yh49jczx6h","many_one","0","direct_first","1","ed07nk19","0","21","1","1","3","1","","0","0","0","null","","","<div class = 'row'><div class = 'column'><img src = 'uspos/2530.bmp' width = '100%;'></div><div class = 'column'><img src = 'category2/CS9.png' width = '70%;'></div></div>","null","pos","CS","CS","2","category2/CS9.png","","","","",""
"","html-keyboard-response","29","369162","0.0-6.0-2.0-0.2","yh49jczx6h","many_one","0","direct_first","1","ed07nk19","0","21","1","1","3","1","","0","0","0","null","","","<div class = 'row'><div class = 'column'><img src = 'usneg/3300.bmp' width = '100%;'></div><div class = 'column'><img src = 'category4/CS2.png' width = '70%;'></div></div>","null","neg","CS","CS","4","category4/CS2.png","","","","",""
"","html-keyboard-response","30","371693","0.0-6.0-2.0-0.3","yh49jczx6h","many_one","0","direct_first","1","ed07nk19","0","21","1","1","3","1","","0","0","0","null","","","<div class = 'row'><div class = 'column'><img src = 'category1/CS8.png' width = '70%;'></div><div class = 'column'><img src = 'usneg/9050.bmp' width = '100%;'></div></div>","null","neg","CS","CS","1","category1/CS8.png","","","","",""
"","html-keyboard-response","31","374232","0.0-6.0-2.0-0.4","yh49jczx6h","many_one","0","direct_first","1","ed07nk19","0","21","1","1","3","1","","0","0","0","null","","","<div class = 'row'><div class = 'column'><img src = 'uspos/2040.bmp' width = '100%;'></div><div class = 'column'><img src = 'category3/CS10.png' width = '70%;'></div></div>","null","pos","CS","CS","3","category3/CS10.png","","","","",""
"","html-keyboard-response","32","376763","0.0-6.0-2.0-0.5","yh49jczx6h","many_one","0","direct_first","1","ed07nk19","0","21","1","1","3","1","","0","0","0","null","","","<div class = 'row'><div class = 'column'><img src = 'category2/CS5.png' width = '70%;'></div><div class = 'column'><img src = 'uspos/1710.bmp' width = '100%;'></div></div>","null","pos","CS","CS","2","category2/CS5.png","","","","",""
"","html-keyboard-response","33","379302","0.0-6.0-2.0-0.6","yh49jczx6h","many_one","0","direct_first","1","ed07nk19","0","21","1","1","3","1","","0","0","0","null","","","<div class = 'row'><div class = 'column'><img src = 'uspos/5600.bmp' width = '100%;'></div><div class = 'column'><img src = 'category3/CS1.png' width = '70%;'></div></div>","null","pos","CS","CS","3","category3/CS1.png","","","","",""
"","html-keyboard-response","34","381833","0.0-6.0-2.0-0.7","yh49jczx6h","many_one","0","direct_first","1","ed07nk19","0","21","1","1","3","1","","0","0","0","null","","","<div class = 'row'><div class = 'column'><img src = 'category2/CS10.png' width = '70%;'></div><div class = 'column'><img src = 'uspos/5621.bmp' width = '100%;'></div></div>","null","pos","CS","CS","2","category2/CS10.png","","","","",""
"","html-keyboard-response","35","384363","0.0-6.0-2.0-0.8","yh49jczx6h","many_one","0","direct_first","1","ed07nk19","0","21","1","1","3","1","","0","0","0","null","","","<div class = 'row'><div class = 'column'><img src = 'usneg/3181.bmp' width = '100%;'></div><div class = 'column'><img src = 'category1/CS1.png' width = '70%;'></div></div>","null","neg","CS","CS","1","category1/CS1.png","","","","",""
"","html-keyboard-response","36","386892","0.0-6.0-2.0-0.9","yh49jczx6h","many_one","0","direct_first","1","ed07nk19","0","21","1","1","3","1","","0","0","0","null","","","<div class = 'row'><div class = 'column'><img src = 'category2/CS6.png' width = '70%;'></div><div class = 'column'><img src = 'uspos/5831.bmp' width = '100%;'></div></div>","null","pos","CS","CS","2","category2/CS6.png","","","","",""
"","html-keyboard-response","37","389412","0.0-6.0-2.0-0.10","yh49jczx6h","many_one","0","direct_first","1","ed07nk19","0","21","1","1","3","1","","0","0","0","null","","","<div class = 'row'><div class = 'column'><img src = 'usneg/9635.2.bmp' width = '100%;'></div><div class = 'column'><img src = 'category4/CS6.png' width = '70%;'></div></div>","null","neg","CS","CS","4","category4/CS6.png","","","","",""
"","html-keyboard-response","38","391942","0.0-6.0-2.0-0.11","yh49jczx6h","many_one","0","direct_first","1","ed07nk19","0","21","1","1","3","1","","0","0","0","null","","","<div class = 'row'><div class = 'column'><img src = 'category1/CS10.png' width = '70%;'></div><div class = 'column'><img src = 'usneg/9290.bmp' width = '100%;'></div></div>","null","neg","CS","CS","1","category1/CS10.png","","","","",""
"","html-keyboard-response","39","394473","0.0-6.0-2.0-0.12","yh49jczx6h","many_one","0","direct_first","1","ed07nk19","0","21","1","1","3","1","","0","0","0","null","","","<div class = 'row'><div class = 'column'><img src = 'uspos/2165.bmp' width = '100%;'></div><div class = 'column'><img src = 'category2/CS7.png' width = '70%;'></div></div>","null","pos","CS","CS","2","category2/CS7.png","","","","",""
"","html-keyboard-response","40","397003","0.0-6.0-2.0-0.13","yh49jczx6h","many_one","0","direct_first","1","ed07nk19","0","21","1","1","3","1","","0","0","0","null","","","<div class = 'row'><div class = 'column'><img src = 'uspos/2057.bmp' width = '100%;'></div><div class = 'column'><img src = 'category3/CS8.png' width = '70%;'></div></div>","null","pos","CS","CS","3","category3/CS8.png","","","","",""
"","html-keyboard-response","41","399542","0.0-6.0-2.0-0.14","yh49jczx6h","many_one","0","direct_first","1","ed07nk19","0","21","1","1","3","1","","0","0","0","null","","","<div class = 'row'><div class = 'column'><img src = 'uspos/1460.bmp' width = '100%;'></div><div class = 'column'><img src = 'category3/CS6.png' width = '70%;'></div></div>","null","pos","CS","CS","3","category3/CS6.png","","","","",""
"","html-keyboard-response","42","402063","0.0-6.0-2.0-0.15","yh49jczx6h","many_one","0","direct_first","1","ed07nk19","0","21","1","1","3","1","","0","0","0","null","","","<div class = 'row'><div class = 'column'><img src = 'uspos/5470.bmp' width = '100%;'></div><div class = 'column'><img src = 'category3/CS9.png' width = '70%;'></div></div>","null","pos","CS","CS","3","category3/CS9.png","","","","",""
"","html-keyboard-response","43","404583","0.0-6.0-2.0-0.16","yh49jczx6h","many_one","0","direct_first","1","ed07nk19","0","21","1","1","3","1","","0","0","0","null","","","<div class = 'row'><div class = 'column'><img src = 'usneg/9560.bmp' width = '100%;'></div><div class = 'column'><img src = 'category4/CS4.png' width = '70%;'></div></div>","null","neg","CS","CS","4","category4/CS4.png","","","","",""
"","html-keyboard-response","44","407113","0.0-6.0-2.0-0.17","yh49jczx6h","many_one","0","direct_first","1","ed07nk19","0","21","1","1","3","1","","0","0","0","null","","","<div class = 'row'><div class = 'column'><img src = 'category4/CS5.png' width = '70%;'></div><div class = 'column'><img src = 'usneg/9280.bmp' width = '100%;'></div></div>","null","neg","CS","CS","4","category4/CS5.png","","","","",""
"","html-keyboard-response","45","409642","0.0-6.0-2.0-0.18","yh49jczx6h","many_one","0","direct_first","1","ed07nk19","0","21","1","1","3","1","","0","0","0","null","","","<div class = 'row'><div class = 'column'><img src = 'usneg/1280.bmp' width = '100%;'></div><div class = 'column'><img src = 'category1/CS9.png' width = '70%;'></div></div>","null","neg","CS","CS","1","category1/CS9.png","","","","",""
"","html-keyboard-response","46","412182","0.0-6.0-2.0-0.19","yh49jczx6h","many_one","0","direct_first","1","ed07nk19","0","21","1","1","3","1","","0","0","0","null","","","<div class = 'row'><div class = 'column'><img src = 'category4/CS10.png' width = '70%;'></div><div class = 'column'><img src = 'usneg/9435.bmp' width = '100%;'></div></div>","null","neg","CS","CS","4","category4/CS10.png","","","","",""
"","survey-html-form","47","425406","0.0-6.0-3.0","yh49jczx6h","many_one","0","direct_first","1","ed07nk19","0","21","1","1","3","1","","0","0","0","12714","","{}","","","","","","","","","","","",""
"","html-keyboard-response","48","429443","0.0-6.0-4.0-0.0","yh49jczx6h","many_one","0","direct_first","1","ed07nk19","0","21","1","1","3","1","","0","0","0","null","","","<div class = 'row'><div class = 'column'><img src = 'uspos/2040.bmp' width = '100%;'></div><div class = 'column'><img src = 'category3/CS10.png' width = '70%;'></div></div>","null","pos","CS","CS","3","category3/CS10.png","","","","",""
"","html-keyboard-response","49","431972","0.0-6.0-4.0-0.1","yh49jczx6h","many_one","0","direct_first","1","ed07nk19","0","21","1","1","3","1","","0","0","0","null","","","<div class = 'row'><div class = 'column'><img src = 'category3/CS8.png' width = '70%;'></div><div class = 'column'><img src = 'uspos/2057.bmp' width = '100%;'></div></div>","null","pos","CS","CS","3","category3/CS8.png","","","","",""
"","html-keyboard-response","50","434503","0.0-6.0-4.0-0.2","yh49jczx6h","many_one","0","direct_first","1","ed07nk19","0","21","1","1","3","1","","0","0","0","null","","","<div class = 'row'><div class = 'column'><img src = 'usneg/9280.bmp' width = '100%;'></div><div class = 'column'><img src = 'category4/CS5.png' width = '70%;'></div></div>","null","neg","CS","CS","4","category4/CS5.png","","","","",""
"","html-keyboard-response","51","437032","0.0-6.0-4.0-0.3","yh49jczx6h","many_one","0","direct_first","1","ed07nk19","0","21","1","1","3","1","","0","0","0","null","","","<div class = 'row'><div class = 'column'><img src = 'category3/CS1.png' width = '70%;'></div><div class = 'column'><img src = 'uspos/5600.bmp' width = '100%;'></div></div>","null","pos","CS","CS","3","category3/CS1.png","","","","",""
"","html-keyboard-response","52","439553","0.0-6.0-4.0-0.4","yh49jczx6h","many_one","0","direct_first","1","ed07nk19","0","21","1","1","3","1","","0","0","0","null","","","<div class = 'row'><div class = 'column'><img src = 'category4/CS4.png' width = '70%;'></div><div class = 'column'><img src = 'usneg/9560.bmp' width = '100%;'></div></div>","null","neg","CS","CS","4","category4/CS4.png","","","","",""
"","html-keyboard-response","53","442091","0.0-6.0-4.0-0.5","yh49jczx6h","many_one","0","direct_first","1","ed07nk19","0","21","1","1","3","1","","0","0","0","null","","","<div class = 'row'><div class = 'column'><img src = 'category1/CS7.png' width = '70%;'></div><div class = 'column'><img src = 'usneg/9220.bmp' width = '100%;'></div></div>","null","neg","CS","CS","1","category1/CS7.png","","","","",""
"","html-keyboard-response","54","444613","0.0-6.0-4.0-0.6","yh49jczx6h","many_one","0","direct_first","1","ed07nk19","0","21","1","1","3","1","","0","0","0","null","","","<div class = 'row'><div class = 'column'><img src = 'category2/CS5.png' width = '70%;'></div><div class = 'column'><img src = 'uspos/1710.bmp' width = '100%;'></div></div>","null","pos","CS","CS","2","category2/CS5.png","","","","",""
"","html-keyboard-response","55","447143","0.0-6.0-4.0-0.7","yh49jczx6h","many_one","0","direct_first","1","ed07nk19","0","21","1","1","3","1","","0","0","0","null","","","<div class = 'row'><div class = 'column'><img src = 'category2/CS9.png' width = '70%;'></div><div class = 'column'><img src = 'uspos/2530.bmp' width = '100%;'></div></div>","null","pos","CS","CS","2","category2/CS9.png","","","","",""
"","html-keyboard-response","56","449673","0.0-6.0-4.0-0.8","yh49jczx6h","many_one","0","direct_first","1","ed07nk19","0","21","1","1","3","1","","0","0","0","null","","","<div class = 'row'><div class = 'column'><img src = 'category1/CS8.png' width = '70%;'></div><div class = 'column'><img src = 'usneg/9050.bmp' width = '100%;'></div></div>","null","neg","CS","CS","1","category1/CS8.png","","","","",""
"","html-keyboard-response","57","452183","0.0-6.0-4.0-0.9","yh49jczx6h","many_one","0","direct_first","1","ed07nk19","0","21","1","1","3","1","","0","0","0","null","","","<div class = 'row'><div class = 'column'><img src = 'category2/CS7.png' width = '70%;'></div><div class = 'column'><img src = 'uspos/2165.bmp' width = '100%;'></div></div>","null","pos","CS","CS","2","category2/CS7.png","","","","",""
"","html-keyboard-response","58","454723","0.0-6.0-4.0-0.10","yh49jczx6h","many_one","0","direct_first","1","ed07nk19","0","21","1","1","3","1","","0","0","0","null","","","<div class = 'row'><div class = 'column'><img src = 'usneg/3300.bmp' width = '100%;'></div><div class = 'column'><img src = 'category4/CS2.png' width = '70%;'></div></div>","null","neg","CS","CS","4","category4/CS2.png","","","","",""
"","html-keyboard-response","59","457253","0.0-6.0-4.0-0.11","yh49jczx6h","many_one","0","direct_first","1","ed07nk19","0","21","1","1","3","1","","0","0","0","null","","","<div class = 'row'><div class = 'column'><img src = 'category3/CS9.png' width = '70%;'></div><div class = 'column'><img src = 'uspos/5470.bmp' width = '100%;'></div></div>","null","pos","CS","CS","3","category3/CS9.png","","","","",""
"","html-keyboard-response","60","459772","0.0-6.0-4.0-0.12","yh49jczx6h","many_one","0","direct_first","1","ed07nk19","0","21","1","1","3","1","","0","0","0","null","","","<div class = 'row'><div class = 'column'><img src = 'category1/CS10.png' width = '70%;'></div><div class = 'column'><img src = 'usneg/9290.bmp' width = '100%;'></div></div>","null","neg","CS","CS","1","category1/CS10.png","","","","",""
"","html-keyboard-response","61","462302","0.0-6.0-4.0-0.13","yh49jczx6h","many_one","0","direct_first","1","ed07nk19","0","21","1","1","3","1","","0","0","0","null","","","<div class = 'row'><div class = 'column'><img src = 'category4/CS6.png' width = '70%;'></div><div class = 'column'><img src = 'usneg/9635.2.bmp' width = '100%;'></div></div>","null","neg","CS","CS","4","category4/CS6.png","","","","",""
"","html-keyboard-response","62","464833","0.0-6.0-4.0-0.14","yh49jczx6h","many_one","0","direct_first","1","ed07nk19","0","21","1","1","3","1","","0","0","0","null","","","<div class = 'row'><div class = 'column'><img src = 'category2/CS10.png' width = '70%;'></div><div class = 'column'><img src = 'uspos/5621.bmp' width = '100%;'></div></div>","null","pos","CS","CS","2","category2/CS10.png","","","","",""
"","html-keyboard-response","63","467362","0.0-6.0-4.0-0.15","yh49jczx6h","many_one","0","direct_first","1","ed07nk19","0","21","1","1","3","1","","0","0","0","null","","","<div class = 'row'><div class = 'column'><img src = 'uspos/1460.bmp' width = '100%;'></div><div class = 'column'><img src = 'category3/CS6.png' width = '70%;'></div></div>","null","pos","CS","CS","3","category3/CS6.png","","","","",""
"","html-keyboard-response","64","469892","0.0-6.0-4.0-0.16","yh49jczx6h","many_one","0","direct_first","1","ed07nk19","0","21","1","1","3","1","","0","0","0","null","","","<div class = 'row'><div class = 'column'><img src = 'usneg/1280.bmp' width = '100%;'></div><div class = 'column'><img src = 'category1/CS9.png' width = '70%;'></div></div>","null","neg","CS","CS","1","category1/CS9.png","","","","",""
"","html-keyboard-response","65","472434","0.0-6.0-4.0-0.17","yh49jczx6h","many_one","0","direct_first","1","ed07nk19","0","21","1","1","3","1","","0","0","0","null","","","<div class = 'row'><div class = 'column'><img src = 'usneg/3181.bmp' width = '100%;'></div><div class = 'column'><img src = 'category1/CS1.png' width = '70%;'></div></div>","null","neg","CS","CS","1","category1/CS1.png","","","","",""
"","html-keyboard-response","66","474952","0.0-6.0-4.0-0.18","yh49jczx6h","many_one","0","direct_first","1","ed07nk19","0","21","1","1","3","1","","0","0","0","null","","","<div class = 'row'><div class = 'column'><img src = 'uspos/5831.bmp' width = '100%;'></div><div class = 'column'><img src = 'category2/CS6.png' width = '70%;'></div></div>","null","pos","CS","CS","2","category2/CS6.png","","","","",""
"","html-keyboard-response","67","477482","0.0-6.0-4.0-0.19","yh49jczx6h","many_one","0","direct_first","1","ed07nk19","0","21","1","1","3","1","","0","0","0","null","","","<div class = 'row'><div class = 'column'><img src = 'category4/CS10.png' width = '70%;'></div><div class = 'column'><img src = 'usneg/9435.bmp' width = '100%;'></div></div>","null","neg","CS","CS","4","category4/CS10.png","","","","",""
"","survey-html-form","68","480557","0.0-6.0-5.0","yh49jczx6h","many_one","0","direct_first","1","ed07nk19","0","21","1","1","3","1","","0","0","0","2563","","{}","","","","","","","","","","","",""
"","html-keyboard-response","69","484593","0.0-6.0-6.0-0.0","yh49jczx6h","many_one","0","direct_first","1","ed07nk19","0","21","1","1","3","1","","0","0","0","null","","","<div class = 'row'><div class = 'column'><img src = 'category2/CS7.png' width = '70%;'></div><div class = 'column'><img src = 'uspos/2165.bmp' width = '100%;'></div></div>","null","pos","CS","CS","2","category2/CS7.png","","","","",""
"","html-keyboard-response","70","487132","0.0-6.0-6.0-0.1","yh49jczx6h","many_one","0","direct_first","1","ed07nk19","0","21","1","1","3","1","","0","0","0","null","","","<div class = 'row'><div class = 'column'><img src = 'category2/CS5.png' width = '70%;'></div><div class = 'column'><img src = 'uspos/1710.bmp' width = '100%;'></div></div>","null","pos","CS","CS","2","category2/CS5.png","","","","",""
"","html-keyboard-response","71","489662","0.0-6.0-6.0-0.2","yh49jczx6h","many_one","0","direct_first","1","ed07nk19","0","21","1","1","3","1","","0","0","0","null","","","<div class = 'row'><div class = 'column'><img src = 'uspos/2057.bmp' width = '100%;'></div><div class = 'column'><img src = 'category3/CS8.png' width = '70%;'></div></div>","null","pos","CS","CS","3","category3/CS8.png","","","","",""
"","html-keyboard-response","72","492193","0.0-6.0-6.0-0.3","yh49jczx6h","many_one","0","direct_first","1","ed07nk19","0","21","1","1","3","1","","0","0","0","null","","","<div class = 'row'><div class = 'column'><img src = 'category2/CS10.png' width = '70%;'></div><div class = 'column'><img src = 'uspos/5621.bmp' width = '100%;'></div></div>","null","pos","CS","CS","2","category2/CS10.png","","","","",""
"","html-keyboard-response","73","494732","0.0-6.0-6.0-0.4","yh49jczx6h","many_one","0","direct_first","1","ed07nk19","0","21","1","1","3","1","","0","0","0","null","","","<div class = 'row'><div class = 'column'><img src = 'usneg/1280.bmp' width = '100%;'></div><div class = 'column'><img src = 'category1/CS9.png' width = '70%;'></div></div>","null","neg","CS","CS","1","category1/CS9.png","","","","",""
"","html-keyboard-response","74","497252","0.0-6.0-6.0-0.5","yh49jczx6h","many_one","0","direct_first","1","ed07nk19","0","21","1","1","3","1","","0","0","0","null","","","<div class = 'row'><div class = 'column'><img src = 'category2/CS9.png' width = '70%;'></div><div class = 'column'><img src = 'uspos/2530.bmp' width = '100%;'></div></div>","null","pos","CS","CS","2","category2/CS9.png","","","","",""
"","html-keyboard-response","75","499783","0.0-6.0-6.0-0.6","yh49jczx6h","many_one","0","direct_first","1","ed07nk19","0","21","1","1","3","1","","0","0","0","null","","","<div class = 'row'><div class = 'column'><img src = 'category1/CS1.png' width = '70%;'></div><div class = 'column'><img src = 'usneg/3181.bmp' width = '100%;'></div></div>","null","neg","CS","CS","1","category1/CS1.png","","","","",""
"","html-keyboard-response","76","502312","0.0-6.0-6.0-0.7","yh49jczx6h","many_one","0","direct_first","1","ed07nk19","0","21","1","1","3","1","","0","0","0","null","","","<div class = 'row'><div class = 'column'><img src = 'category1/CS10.png' width = '70%;'></div><div class = 'column'><img src = 'usneg/9290.bmp' width = '100%;'></div></div>","null","neg","CS","CS","1","category1/CS10.png","","","","",""
"","html-keyboard-response","77","504843","0.0-6.0-6.0-0.8","yh49jczx6h","many_one","0","direct_first","1","ed07nk19","0","21","1","1","3","1","","0","0","0","null","","","<div class = 'row'><div class = 'column'><img src = 'category4/CS6.png' width = '70%;'></div><div class = 'column'><img src = 'usneg/9635.2.bmp' width = '100%;'></div></div>","null","neg","CS","CS","4","category4/CS6.png","","","","",""
"","html-keyboard-response","78","507362","0.0-6.0-6.0-0.9","yh49jczx6h","many_one","0","direct_first","1","ed07nk19","0","21","1","1","3","1","","0","0","0","null","","","<div class = 'row'><div class = 'column'><img src = 'category4/CS2.png' width = '70%;'></div><div class = 'column'><img src = 'usneg/3300.bmp' width = '100%;'></div></div>","null","neg","CS","CS","4","category4/CS2.png","","","","",""
"","html-keyboard-response","79","509892","0.0-6.0-6.0-0.10","yh49jczx6h","many_one","0","direct_first","1","ed07nk19","0","21","1","1","3","1","","0","0","0","null","","","<div class = 'row'><div class = 'column'><img src = 'uspos/5600.bmp' width = '100%;'></div><div class = 'column'><img src = 'category3/CS1.png' width = '70%;'></div></div>","null","pos","CS","CS","3","category3/CS1.png","","","","",""
"","html-keyboard-response","80","512412","0.0-6.0-6.0-0.11","yh49jczx6h","many_one","0","direct_first","1","ed07nk19","0","21","1","1","3","1","","0","0","0","null","","","<div class = 'row'><div class = 'column'><img src = 'uspos/5470.bmp' width = '100%;'></div><div class = 'column'><img src = 'category3/CS9.png' width = '70%;'></div></div>","null","pos","CS","CS","3","category3/CS9.png","","","","",""
"","html-keyboard-response","81","514943","0.0-6.0-6.0-0.12","yh49jczx6h","many_one","0","direct_first","1","ed07nk19","0","21","1","1","3","1","","0","0","0","null","","","<div class = 'row'><div class = 'column'><img src = 'category4/CS5.png' width = '70%;'></div><div class = 'column'><img src = 'usneg/9280.bmp' width = '100%;'></div></div>","null","neg","CS","CS","4","category4/CS5.png","","","","",""
"","html-keyboard-response","82","517472","0.0-6.0-6.0-0.13","yh49jczx6h","many_one","0","direct_first","1","ed07nk19","0","21","1","1","3","1","","0","0","0","null","","","<div class = 'row'><div class = 'column'><img src = 'category4/CS4.png' width = '70%;'></div><div class = 'column'><img src = 'usneg/9560.bmp' width = '100%;'></div></div>","null","neg","CS","CS","4","category4/CS4.png","","","","",""
"","html-keyboard-response","83","520012","0.0-6.0-6.0-0.14","yh49jczx6h","many_one","0","direct_first","1","ed07nk19","0","21","1","1","3","1","","0","0","0","null","","","<div class = 'row'><div class = 'column'><img src = 'category4/CS10.png' width = '70%;'></div><div class = 'column'><img src = 'usneg/9435.bmp' width = '100%;'></div></div>","null","neg","CS","CS","4","category4/CS10.png","","","","",""
"","html-keyboard-response","84","522542","0.0-6.0-6.0-0.15","yh49jczx6h","many_one","0","direct_first","1","ed07nk19","0","21","1","1","3","1","","0","0","0","null","","","<div class = 'row'><div class = 'column'><img src = 'usneg/9050.bmp' width = '100%;'></div><div class = 'column'><img src = 'category1/CS8.png' width = '70%;'></div></div>","null","neg","CS","CS","1","category1/CS8.png","","","","",""
"","html-keyboard-response","85","525062","0.0-6.0-6.0-0.16","yh49jczx6h","many_one","0","direct_first","1","ed07nk19","0","21","1","1","3","1","","0","0","0","null","","","<div class = 'row'><div class = 'column'><img src = 'usneg/9220.bmp' width = '100%;'></div><div class = 'column'><img src = 'category1/CS7.png' width = '70%;'></div></div>","null","neg","CS","CS","1","category1/CS7.png","","","","",""
"","html-keyboard-response","86","527592","0.0-6.0-6.0-0.17","yh49jczx6h","many_one","0","direct_first","1","ed07nk19","0","21","1","1","3","1","","0","0","0","null","","","<div class = 'row'><div class = 'column'><img src = 'category2/CS6.png' width = '70%;'></div><div class = 'column'><img src = 'uspos/5831.bmp' width = '100%;'></div></div>","null","pos","CS","CS","2","category2/CS6.png","","","","",""
"","html-keyboard-response","87","530113","0.0-6.0-6.0-0.18","yh49jczx6h","many_one","0","direct_first","1","ed07nk19","0","21","1","1","3","1","","0","0","0","null","","","<div class = 'row'><div class = 'column'><img src = 'category3/CS10.png' width = '70%;'></div><div class = 'column'><img src = 'uspos/2040.bmp' width = '100%;'></div></div>","null","pos","CS","CS","3","category3/CS10.png","","","","",""
"","html-keyboard-response","88","532643","0.0-6.0-6.0-0.19","yh49jczx6h","many_one","0","direct_first","1","ed07nk19","0","21","1","1","3","1","","0","0","0","null","","","<div class = 'row'><div class = 'column'><img src = 'category3/CS6.png' width = '70%;'></div><div class = 'column'><img src = 'uspos/1460.bmp' width = '100%;'></div></div>","null","pos","CS","CS","3","category3/CS6.png","","","","",""
"","survey-html-form","89","550955","0.0-7.0","yh49jczx6h","many_one","0","direct_first","1","ed07nk19","0","21","1","1","3","1","","0","0","0","17792","","{}","","","","","","","","","","","",""
"","image-slider-response","90","562789","0.0-8.0-0.0","yh49jczx6h","many_one","0","direct_first","1","ed07nk19","0","21","1","1","3","1","","0","0","0","9787","","","","","pos","GS","GSnew","3","category3/GS1.png","-21","targets/13.png","direct","",""
"","image-slider-response","91","569437","0.0-8.0-0.1","yh49jczx6h","many_one","0","direct_first","1","ed07nk19","0","21","1","1","3","1","","0","0","0","6641","","","","","neg","GS","abstract","1","category1/ma.png","-9","targets/11.png","direct","",""
"","image-slider-response","92","575365","0.0-8.0-0.2","yh49jczx6h","many_one","0","direct_first","1","ed07nk19","0","21","1","1","3","1","","0","0","0","5925","","","","","neg","GS","GSnew","4","category4/GS2.png","33","targets/27.png","direct","",""
"","image-slider-response","93","580807","0.0-8.0-0.3","yh49jczx6h","many_one","0","direct_first","1","ed07nk19","0","21","1","1","3","1","","0","0","0","5438","","","","","pos","CS","CS","2","category2/CS10.png","44","targets/33.png","direct","",""
"","image-slider-response","94","587155","0.0-8.0-0.4","yh49jczx6h","many_one","0","direct_first","1","ed07nk19","0","21","1","1","3","1","","0","0","0","6345","","","","","neg","GS","GSnew","1","category1/GS1.png","-2","targets/36.png","direct","",""
"","image-slider-response","95","594895","0.0-8.0-0.5","yh49jczx6h","many_one","0","direct_first","1","ed07nk19","0","21","1","1","3","1","","0","0","0","7736","","","","","neg","CS","CS","4","category4/CS4.png","19","targets/32.png","direct","",""
"","image-slider-response","96","601026","0.0-8.0-0.6","yh49jczx6h","many_one","0","direct_first","1","ed07nk19","0","21","1","1","3","1","","0","0","0","6126","","","","","pos","CS","CS","3","category3/CS10.png","40","targets/16.png","direct","",""
"","image-slider-response","97","606437","0.0-8.0-0.7","yh49jczx6h","many_one","0","direct_first","1","ed07nk19","0","21","1","1","3","1","","0","0","0","5408","","","","","pos","CS","CS","3","category3/CS1.png","43","targets/20.png","direct","",""
"","image-slider-response","98","613265","0.0-8.0-0.8","yh49jczx6h","many_one","0","direct_first","1","ed07nk19","0","21","1","1","3","1","","0","0","0","6823","","","","","pos","GS","GSnew","2","category2/GS2.png","-24","targets/10.png","direct","",""
"","image-slider-response","99","617276","0.0-8.0-0.9","yh49jczx6h","many_one","0","direct_first","1","ed07nk19","0","21","1","1","3","1","","0","0","0","4009","","","","","pos","CS","CS","2","category2/CS6.png","-40","targets/44.png","direct","",""
"","image-slider-response","100","621676","0.0-8.0-0.10","yh49jczx6h","many_one","0","direct_first","1","ed07nk19","0","21","1","1","3","1","","0","0","0","4395","","","","","neg","GS","GSnew","1","category1/GS2.png","-32","targets/45.png","direct","",""
"","image-slider-response","101","626121","0.0-8.0-0.11","yh49jczx6h","many_one","0","direct_first","1","ed07nk19","0","21","1","1","3","1","","0","0","0","4441","","","","","neg","GS","GSnew","1","category1/GS3.png","-41","targets/48.png","direct","",""
"","image-slider-response","102","630617","0.0-8.0-0.12","yh49jczx6h","many_one","0","direct_first","1","ed07nk19","0","21","1","1","3","1","","0","0","0","4490","","","","","neg","CS","CS","4","category4/CS2.png","27","targets/26.png","direct","",""
"","image-slider-response","103","634665","0.0-8.0-0.13","yh49jczx6h","many_one","0","direct_first","1","ed07nk19","0","21","1","1","3","1","","0","0","0","4045","","","","","pos","CS","CS","2","category2/CS5.png","18","targets/22.png","direct","",""
"","image-slider-response","104","638565","0.0-8.0-0.14","yh49jczx6h","many_one","0","direct_first","1","ed07nk19","0","21","1","1","3","1","","0","0","0","3896","","","","","neg","GS","GSnew","4","category4/GS1.png","20","targets/38.png","direct","",""
"","image-slider-response","105","642191","0.0-8.0-0.15","yh49jczx6h","many_one","0","direct_first","1","ed07nk19","0","21","1","1","3","1","","0","0","0","3621","","","","","pos","GS","GSnew","2","category2/GS1.png","-25","targets/35.png","direct","",""
"","image-slider-response","106","647135","0.0-8.0-0.16","yh49jczx6h","many_one","0","direct_first","1","ed07nk19","0","21","1","1","3","1","","0","0","0","4940","","","","","pos","GS","abstract","2","category2/men.png","-37","targets/25.png","direct","",""
"","image-slider-response","107","650735","0.0-8.0-0.17","yh49jczx6h","many_one","0","direct_first","1","ed07nk19","0","21","1","1","3","1","","0","0","0","3596","","","","","neg","CS","CS","4","category4/CS10.png","-27","targets/30.png","direct","",""
"","image-slider-response","108","655097","0.0-8.0-0.18","yh49jczx6h","many_one","0","direct_first","1","ed07nk19","0","21","1","1","3","1","","0","0","0","4358","","","","","neg","GS","GSold","1","category1/CS5.png","-45","targets/37.png","direct","",""
"","image-slider-response","109","658859","0.0-8.0-0.19","yh49jczx6h","many_one","0","direct_first","1","ed07nk19","0","21","1","1","3","1","","0","0","0","3757","","","","","pos","GS","GSold","3","category3/CS5.png","28","targets/43.png","direct","",""
"","image-slider-response","110","663956","0.0-8.0-0.20","yh49jczx6h","many_one","0","direct_first","1","ed07nk19","0","21","1","1","3","1","","0","0","0","5093","","","","","pos","GS","GSnew","3","category3/GS3.png","47","targets/15.png","direct","",""
"","image-slider-response","111","669906","0.0-8.0-0.21","yh49jczx6h","many_one","0","direct_first","1","ed07nk19","0","21","1","1","3","1","","0","0","0","5948","","","","","pos","CS","CS","3","category3/CS8.png","-41","targets/1.png","direct","",""
"","image-slider-response","112","673415","0.0-8.0-0.22","yh49jczx6h","many_one","0","direct_first","1","ed07nk19","0","21","1","1","3","1","","0","0","0","3505","","","","","neg","GS","GSold","4","category4/CS9.png","-9","targets/46.png","direct","",""
"","image-slider-response","113","677195","0.0-8.0-0.23","yh49jczx6h","many_one","0","direct_first","1","ed07nk19","0","21","1","1","3","1","","0","0","0","3777","","","","","pos","GS","GSold","2","category2/CS2.png","25","targets/4.png","direct","",""
"","image-slider-response","114","681125","0.0-8.0-0.24","yh49jczx6h","many_one","0","direct_first","1","ed07nk19","0","21","1","1","3","1","","0","0","0","3926","","","","","pos","CS","CS","3","category3/CS6.png","41","targets/2.png","direct","",""
"","image-slider-response","115","684890","0.0-8.0-0.25","yh49jczx6h","many_one","0","direct_first","1","ed07nk19","0","21","1","1","3","1","","0","0","0","3761","","","","","neg","CS","CS","1","category1/CS9.png","-39","targets/6.png","direct","",""
"","image-slider-response","116","688126","0.0-8.0-0.26","yh49jczx6h","many_one","0","direct_first","1","ed07nk19","0","21","1","1","3","1","","0","0","0","3233","","","","","neg","GS","GSold","1","category1/CS4.png","-35","targets/47.png","direct","",""
"","image-slider-response","117","691956","0.0-8.0-0.27","yh49jczx6h","many_one","0","direct_first","1","ed07nk19","0","21","1","1","3","1","","0","0","0","3826","","","","","neg","CS","CS","1","category1/CS10.png","34","targets/19.png","direct","",""
"","image-slider-response","118","696479","0.0-8.0-0.28","yh49jczx6h","many_one","0","direct_first","1","ed07nk19","0","21","1","1","3","1","","0","0","0","4519","","","","","pos","CS","CS","3","category3/CS9.png","82","targets/18.png","direct","",""
"","image-slider-response","119","700445","0.0-8.0-0.29","yh49jczx6h","many_one","0","direct_first","1","ed07nk19","0","21","1","1","3","1","","0","0","0","3961","","","","","neg","GS","abstract","4","category4/lin.png","-18","targets/41.png","direct","",""
"","image-slider-response","120","705039","0.0-8.0-0.30","yh49jczx6h","many_one","0","direct_first","1","ed07nk19","0","21","1","1","3","1","","0","0","0","4589","","","","","neg","CS","CS","4","category4/CS6.png","51","targets/28.png","direct","",""
"","image-slider-response","121","708885","0.0-8.0-0.31","yh49jczx6h","many_one","0","direct_first","1","ed07nk19","0","21","1","1","3","1","","0","0","0","3841","","","","","pos","CS","CS","2","category2/CS7.png","52","targets/29.png","direct","",""
"","image-slider-response","122","712483","0.0-8.0-0.32","yh49jczx6h","many_one","0","direct_first","1","ed07nk19","0","21","1","1","3","1","","0","0","0","3594","","","","","neg","CS","CS","1","category1/CS1.png","45","targets/31.png","direct","",""
"","image-slider-response","123","716345","0.0-8.0-0.33","yh49jczx6h","many_one","0","direct_first","1","ed07nk19","0","21","1","1","3","1","","0","0","0","3860","","","","","pos","GS","GSold","2","category2/CS3.png","45","targets/3.png","direct","",""
"","image-slider-response","124","719915","0.0-8.0-0.34","yh49jczx6h","many_one","0","direct_first","1","ed07nk19","0","21","1","1","3","1","","0","0","0","3567","","","","","pos","GS","GSnew","2","category2/GS3.png","-28","targets/34.png","direct","",""
"","image-slider-response","125","723175","0.0-8.0-0.35","yh49jczx6h","many_one","0","direct_first","1","ed07nk19","0","21","1","1","3","1","","0","0","0","3257","","","","","neg","GS","GSnew","4","category4/GS3.png","-41","targets/9.png","direct","",""
"","image-slider-response","126","729403","0.0-8.0-0.36","yh49jczx6h","many_one","0","direct_first","1","ed07nk19","0","21","1","1","3","1","","0","0","0","6224","","","","","neg","CS","CS","1","category1/CS8.png","-49","targets/7.png","direct","",""
"","image-slider-response","127","733348","0.0-8.0-0.37","yh49jczx6h","many_one","0","direct_first","1","ed07nk19","0","21","1","1","3","1","","0","0","0","3941","","","","","pos","GS","GSold","3","category3/CS3.png","48","targets/17.png","direct","",""
"","image-slider-response","128","737795","0.0-8.0-0.38","yh49jczx6h","many_one","0","direct_first","1","ed07nk19","0","21","1","1","3","1","","0","0","0","4443","","","","","pos","GS","GSold","3","category3/CS2.png","45","targets/12.png","direct","",""
"","image-slider-response","129","741358","0.0-8.0-0.39","yh49jczx6h","many_one","0","direct_first","1","ed07nk19","0","21","1","1","3","1","","0","0","0","3561","","","","","pos","CS","CS","2","category2/CS9.png","-49","targets/8.png","direct","",""
"","image-slider-response","130","744556","0.0-8.0-0.40","yh49jczx6h","many_one","0","direct_first","1","ed07nk19","0","21","1","1","3","1","","0","0","0","3193","","","","","neg","CS","CS","4","category4/CS5.png","-41","targets/14.png","direct","",""
"","image-slider-response","131","748104","0.0-8.0-0.41","yh49jczx6h","many_one","0","direct_first","1","ed07nk19","0","21","1","1","3","1","","0","0","0","3545","","","","","neg","GS","GSold","4","category4/CS7.png","25","targets/24.png","direct","",""
"","image-slider-response","132","751567","0.0-8.0-0.42","yh49jczx6h","many_one","0","direct_first","1","ed07nk19","0","21","1","1","3","1","","0","0","0","3459","","","","","neg","GS","GSold","1","category1/CS6.png","31","targets/21.png","direct","",""
"","image-slider-response","133","755715","0.0-8.0-0.43","yh49jczx6h","many_one","0","direct_first","1","ed07nk19","0","21","1","1","3","1","","0","0","0","4146","","","","","pos","GS","GSold","2","category2/CS4.png","-39","targets/5.png","direct","",""
"","image-slider-response","134","760945","0.0-8.0-0.44","yh49jczx6h","many_one","0","direct_first","1","ed07nk19","0","21","1","1","3","1","","0","0","0","5226","","","","","pos","GS","abstract","3","category3/wang.png","44","targets/23.png","direct","",""
"","image-slider-response","135","765106","0.0-8.0-0.45","yh49jczx6h","many_one","0","direct_first","1","ed07nk19","0","21","1","1","3","1","","0","0","0","4157","","","","","neg","GS","GSold","4","category4/CS3.png","-35","targets/42.png","direct","",""
"","image-slider-response","136","768725","0.0-8.0-0.46","yh49jczx6h","many_one","0","direct_first","1","ed07nk19","0","21","1","1","3","1","","0","0","0","3616","","","","","pos","GS","GSnew","3","category3/GS2.png","46","targets/40.png","direct","",""
"","image-slider-response","137","772005","0.0-8.0-0.47","yh49jczx6h","many_one","0","direct_first","1","ed07nk19","0","21","1","1","3","1","","0","0","0","3277","","","","","neg","CS","CS","1","category1/CS7.png","45","targets/39.png","direct","",""
"","html-keyboard-response","138","816259","0.0-9.0","yh49jczx6h","many_one","0","direct_first","1","ed07nk19","0","21","1","1","3","1","","0","0","0","44250","","","<p>Sie sehen nun die chinesischen Zeichen nur ganz kurz. Danach sehen Sie die jeweilige Aussprache der Zeichen als Silbe auf dem Bildschrim. Ihre Aufgabe ist es, für jede Silbe anzugeben, ob diese etwas angenehmes, oder unangenehmes bedeuten könnte. Verlassen Sie sich hier vor allem auf Ihre Intuition.<br><br>Die Zeichen werden nur zur Orientierung dargestellt, beachten Sie sie deshalb nicht. Konzentrieren Sie sich vor allem auf die Silben. <br>Reagieren Sie mit folgenden zwei Tasten: <br><br><b>'D' </b> wenn die Silbe etwas <b>unangenehmes</b> bedeuten könnte. <br><b>'K'</b> wenn die Silbe etwas <b>angenehmes</b> bedeuten könnte. <br><br>Bitte legen Sie nun den Zeigefinger der linken Hand auf die Taste 'D' und den Zeigefinger der rechten Hand auf die Taste 'K'. <br>Reagieren Sie auf jede Silbe so schnell wie möglich. Uns interessiert Ihre spontane Reaktion. <br> <br> <br>Drücken Sie 'D' oder 'K', um die nächste Aufgabe zu starten. </p>","68","","","","","","","","","",""
"","html-keyboard-response","139","819282","0.0-10.0-0.0","yh49jczx6h","many_one","0","direct_first","1","ed07nk19","0","21","1","1","3","1","","0","0","0","null","","","<div style=""font-size:60px;"">+</div>","null","","","","","","","","","",""
"","html-keyboard-response","140","819392","0.0-10.0-1.0","yh49jczx6h","many_one","0","direct_first","1","ed07nk19","0","21","1","1","3","1","","0","0","0","null","","","<img src = 'category1/CS8.png' width = '100%;'>","null","","","","","","","","","",""
"","html-keyboard-response","141","819658","0.0-10.0-2.0","yh49jczx6h","many_one","0","direct_first","1","ed07nk19","0","21","1","1","3","1","","0","0","0","null","","","<img src = 'targets/7.png' width = '100%;'>","null","","","","","","","","","",""
"","html-keyboard-response","142","821814","0.0-10.0-3.0","yh49jczx6h","many_one","0","direct_first","1","ed07nk19","0","21","1","1","3","1","","0","0","0","2153","","","<img src = 'targets/mask.png' width = '100%;'>","68","neg","CS","CS","1","category1/CS8.png","","targets/7.png","indirect","0","0"
"","html-keyboard-response","143","823342","0.0-10.0-0.1","yh49jczx6h","many_one","0","direct_first","1","ed07nk19","0","21","1","1","3","1","","0","0","0","null","","","<div style=""font-size:60px;"">+</div>","null","","","","","","","","","",""
"","html-keyboard-response","144","823439","0.0-10.0-1.1","yh49jczx6h","many_one","0","direct_first","1","ed07nk19","0","21","1","1","3","1","","0","0","0","null","","","<img src = 'category4/CS10.png' width = '100%;'>","null","","","","","","","","","",""
"","html-keyboard-response","145","823705","0.0-10.0-2.1","yh49jczx6h","many_one","0","direct_first","1","ed07nk19","0","21","1","1","3","1","","0","0","0","null","","","<img src = 'targets/30.png' width = '100%;'>","null","","","","","","","","","",""
"","html-keyboard-response","146","825266","0.0-10.0-3.1","yh49jczx6h","many_one","0","direct_first","1","ed07nk19","0","21","1","1","3","1","","0","0","0","1561","","","<img src = 'targets/mask.png' width = '100%;'>","75","neg","CS","CS","4","category4/CS10.png","","targets/30.png","indirect","1","1"
"","html-keyboard-response","147","826782","0.0-10.0-0.2","yh49jczx6h","many_one","0","direct_first","1","ed07nk19","0","21","1","1","3","1","","0","0","0","null","","","<div style=""font-size:60px;"">+</div>","null","","","","","","","","","",""
"","html-keyboard-response","148","826885","0.0-10.0-1.2","yh49jczx6h","many_one","0","direct_first","1","ed07nk19","0","21","1","1","3","1","","0","0","0","null","","","<img src = 'category4/CS4.png' width = '100%;'>","null","","","","","","","","","",""
"","html-keyboard-response","149","827152","0.0-10.0-2.2","yh49jczx6h","many_one","0","direct_first","1","ed07nk19","0","21","1","1","3","1","","0","0","0","null","","","<img src = 'targets/32.png' width = '100%;'>","null","","","","","","","","","",""
"","html-keyboard-response","150","830141","0.0-10.0-3.2","yh49jczx6h","many_one","0","direct_first","1","ed07nk19","0","21","1","1","3","1","","0","0","0","2987","","","<img src = 'targets/mask.png' width = '100%;'>","68","neg","CS","CS","4","category4/CS4.png","","targets/32.png","indirect","0","2"
"","html-keyboard-response","151","831663","0.0-10.0-0.3","yh49jczx6h","many_one","0","direct_first","1","ed07nk19","0","21","1","1","3","1","","0","0","0","null","","","<div style=""font-size:60px;"">+</div>","null","","","","","","","","","",""
"","html-keyboard-response","152","831764","0.0-10.0-1.3","yh49jczx6h","many_one","0","direct_first","1","ed07nk19","0","21","1","1","3","1","","0","0","0","null","","","<img src = 'category4/CS5.png' width = '100%;'>","null","","","","","","","","","",""
"","html-keyboard-response","153","832032","0.0-10.0-2.3","yh49jczx6h","many_one","0","direct_first","1","ed07nk19","0","21","1","1","3","1","","0","0","0","null","","","<img src = 'targets/14.png' width = '100%;'>","null","","","","","","","","","",""
"","html-keyboard-response","154","832771","0.0-10.0-3.3","yh49jczx6h","many_one","0","direct_first","1","ed07nk19","0","21","1","1","3","1","","0","0","0","738","","","<img src = 'targets/mask.png' width = '100%;'>","75","neg","CS","CS","4","category4/CS5.png","","targets/14.png","indirect","1","3"
"","html-keyboard-response","155","834302","0.0-10.0-0.4","yh49jczx6h","many_one","0","direct_first","1","ed07nk19","0","21","1","1","3","1","","0","0","0","null","","","<div style=""font-size:60px;"">+</div>","null","","","","","","","","","",""
"","html-keyboard-response","156","834396","0.0-10.0-1.4","yh49jczx6h","many_one","0","direct_first","1","ed07nk19","0","21","1","1","3","1","","0","0","0","null","","","<img src = 'category3/CS1.png' width = '100%;'>","null","","","","","","","","","",""
"","html-keyboard-response","157","834663","0.0-10.0-2.4","yh49jczx6h","many_one","0","direct_first","1","ed07nk19","0","21","1","1","3","1","","0","0","0","null","","","<img src = 'targets/20.png' width = '100%;'>","null","","","","","","","","","",""
"","html-keyboard-response","158","835710","0.0-10.0-3.4","yh49jczx6h","many_one","0","direct_first","1","ed07nk19","0","21","1","1","3","1","","0","0","0","1045","","","<img src = 'targets/mask.png' width = '100%;'>","75","pos","CS","CS","3","category3/CS1.png","","targets/20.png","indirect","1","4"
"","html-keyboard-response","159","837232","0.0-10.0-0.5","yh49jczx6h","many_one","0","direct_first","1","ed07nk19","0","21","1","1","3","1","","0","0","0","null","","","<div style=""font-size:60px;"">+</div>","null","","","","","","","","","",""
"","html-keyboard-response","160","837327","0.0-10.0-1.5","yh49jczx6h","many_one","0","direct_first","1","ed07nk19","0","21","1","1","3","1","","0","0","0","null","","","<img src = 'category4/CS6.png' width = '100%;'>","null","","","","","","","","","",""
"","html-keyboard-response","161","837593","0.0-10.0-2.5","yh49jczx6h","many_one","0","direct_first","1","ed07nk19","0","21","1","1","3","1","","0","0","0","null","","","<img src = 'targets/28.png' width = '100%;'>","null","","","","","","","","","",""
"","html-keyboard-response","162","838869","0.0-10.0-3.5","yh49jczx6h","many_one","0","direct_first","1","ed07nk19","0","21","1","1","3","1","","0","0","0","1276","","","<img src = 'targets/mask.png' width = '100%;'>","68","neg","CS","CS","4","category4/CS6.png","","targets/28.png","indirect","0","5"
"","html-keyboard-response","163","840392","0.0-10.0-0.6","yh49jczx6h","many_one","0","direct_first","1","ed07nk19","0","21","1","1","3","1","","0","0","0","null","","","<div style=""font-size:60px;"">+</div>","null","","","","","","","","","",""
"","html-keyboard-response","164","840492","0.0-10.0-1.6","yh49jczx6h","many_one","0","direct_first","1","ed07nk19","0","21","1","1","3","1","","0","0","0","null","","","<img src = 'category2/CS5.png' width = '100%;'>","null","","","","","","","","","",""
"","html-keyboard-response","165","840755","0.0-10.0-2.6","yh49jczx6h","many_one","0","direct_first","1","ed07nk19","0","21","1","1","3","1","","0","0","0","null","","","<img src = 'targets/22.png' width = '100%;'>","null","","","","","","","","","",""
"","html-keyboard-response","166","842162","0.0-10.0-3.6","yh49jczx6h","many_one","0","direct_first","1","ed07nk19","0","21","1","1","3","1","","0","0","0","1406","","","<img src = 'targets/mask.png' width = '100%;'>","75","pos","CS","CS","2","category2/CS5.png","","targets/22.png","indirect","1","6"
"","html-keyboard-response","167","843702","0.0-10.0-0.7","yh49jczx6h","many_one","0","direct_first","1","ed07nk19","0","21","1","1","3","1","","0","0","0","null","","","<div style=""font-size:60px;"">+</div>","null","","","","","","","","","",""
"","html-keyboard-response","168","843804","0.0-10.0-1.7","yh49jczx6h","many_one","0","direct_first","1","ed07nk19","0","21","1","1","3","1","","0","0","0","null","","","<img src = 'category2/CS10.png' width = '100%;'>","null","","","","","","","","","",""
"","html-keyboard-response","169","844071","0.0-10.0-2.7","yh49jczx6h","many_one","0","direct_first","1","ed07nk19","0","21","1","1","3","1","","0","0","0","null","","","<img src = 'targets/33.png' width = '100%;'>","null","","","","","","","","","",""
"","html-keyboard-response","170","845134","0.0-10.0-3.7","yh49jczx6h","many_one","0","direct_first","1","ed07nk19","0","21","1","1","3","1","","0","0","0","1062","","","<img src = 'targets/mask.png' width = '100%;'>","75","pos","CS","CS","2","category2/CS10.png","","targets/33.png","indirect","1","7"
"","html-keyboard-response","171","846672","0.0-10.0-0.8","yh49jczx6h","many_one","0","direct_first","1","ed07nk19","0","21","1","1","3","1","","0","0","0","null","","","<div style=""font-size:60px;"">+</div>","null","","","","","","","","","",""
"","html-keyboard-response","172","846770","0.0-10.0-1.8","yh49jczx6h","many_one","0","direct_first","1","ed07nk19","0","21","1","1","3","1","","0","0","0","null","","","<img src = 'category4/CS3.png' width = '100%;'>","null","","","","","","","","","",""
"","html-keyboard-response","173","847035","0.0-10.0-2.8","yh49jczx6h","many_one","0","direct_first","1","ed07nk19","0","21","1","1","3","1","","0","0","0","null","","","<img src = 'targets/42.png' width = '100%;'>","null","","","","","","","","","",""
"","html-keyboard-response","174","848451","0.0-10.0-3.8","yh49jczx6h","many_one","0","direct_first","1","ed07nk19","0","21","1","1","3","1","","0","0","0","1415","","","<img src = 'targets/mask.png' width = '100%;'>","68","neg","GS","GSold","4","category4/CS3.png","","targets/42.png","indirect","0","8"
"","html-keyboard-response","175","849982","0.0-10.0-0.9","yh49jczx6h","many_one","0","direct_first","1","ed07nk19","0","21","1","1","3","1","","0","0","0","null","","","<div style=""font-size:60px;"">+</div>","null","","","","","","","","","",""
"","html-keyboard-response","176","850082","0.0-10.0-1.9","yh49jczx6h","many_one","0","direct_first","1","ed07nk19","0","21","1","1","3","1","","0","0","0","null","","","<img src = 'category1/CS10.png' width = '100%;'>","null","","","","","","","","","",""
"","html-keyboard-response","177","850342","0.0-10.0-2.9","yh49jczx6h","many_one","0","direct_first","1","ed07nk19","0","21","1","1","3","1","","0","0","0","null","","","<img src = 'targets/19.png' width = '100%;'>","null","","","","","","","","","",""
"","html-keyboard-response","178","851846","0.0-10.0-3.9","yh49jczx6h","many_one","0","direct_first","1","ed07nk19","0","21","1","1","3","1","","0","0","0","1503","","","<img src = 'targets/mask.png' width = '100%;'>","68","neg","CS","CS","1","category1/CS10.png","","targets/19.png","indirect","0","9"
"","html-keyboard-response","179","853373","0.0-10.0-0.10","yh49jczx6h","many_one","0","direct_first","1","ed07nk19","0","21","1","1","3","1","","0","0","0","null","","","<div style=""font-size:60px;"">+</div>","null","","","","","","","","","",""
"","html-keyboard-response","180","853480","0.0-10.0-1.10","yh49jczx6h","many_one","0","direct_first","1","ed07nk19","0","21","1","1","3","1","","0","0","0","null","","","<img src = 'category4/CS2.png' width = '100%;'>","null","","","","","","","","","",""
"","html-keyboard-response","181","853747","0.0-10.0-2.10","yh49jczx6h","many_one","0","direct_first","1","ed07nk19","0","21","1","1","3","1","","0","0","0","null","","","<img src = 'targets/26.png' width = '100%;'>","null","","","","","","","","","",""
"","html-keyboard-response","182","854884","0.0-10.0-3.10","yh49jczx6h","many_one","0","direct_first","1","ed07nk19","0","21","1","1","3","1","","0","0","0","1137","","","<img src = 'targets/mask.png' width = '100%;'>","68","neg","CS","CS","4","category4/CS2.png","","targets/26.png","indirect","0","10"
"","html-keyboard-response","183","856392","0.0-10.0-0.11","yh49jczx6h","many_one","0","direct_first","1","ed07nk19","0","21","1","1","3","1","","0","0","0","null","","","<div style=""font-size:60px;"">+</div>","null","","","","","","","","","",""
"","html-keyboard-response","184","856493","0.0-10.0-1.11","yh49jczx6h","many_one","0","direct_first","1","ed07nk19","0","21","1","1","3","1","","0","0","0","null","","","<img src = 'category2/CS6.png' width = '100%;'>","null","","","","","","","","","",""
"","html-keyboard-response","185","856762","0.0-10.0-2.11","yh49jczx6h","many_one","0","direct_first","1","ed07nk19","0","21","1","1","3","1","","0","0","0","null","","","<img src = 'targets/44.png' width = '100%;'>","null","","","","","","","","","",""
"","html-keyboard-response","186","857749","0.0-10.0-3.11","yh49jczx6h","many_one","0","direct_first","1","ed07nk19","0","21","1","1","3","1","","0","0","0","987","","","<img src = 'targets/mask.png' width = '100%;'>","75","pos","CS","CS","2","category2/CS6.png","","targets/44.png","indirect","1","11"
"","html-keyboard-response","187","859262","0.0-10.0-0.12","yh49jczx6h","many_one","0","direct_first","1","ed07nk19","0","21","1","1","3","1","","0","0","0","null","","","<div style=""font-size:60px;"">+</div>","null","","","","","","","","","",""
"","html-keyboard-response","188","859359","0.0-10.0-1.12","yh49jczx6h","many_one","0","direct_first","1","ed07nk19","0","21","1","1","3","1","","0","0","0","null","","","<img src = 'category4/CS7.png' width = '100%;'>","null","","","","","","","","","",""
"","html-keyboard-response","189","859624","0.0-10.0-2.12","yh49jczx6h","many_one","0","direct_first","1","ed07nk19","0","21","1","1","3","1","","0","0","0","null","","","<img src = 'targets/24.png' width = '100%;'>","null","","","","","","","","","",""
"","html-keyboard-response","190","860733","0.0-10.0-3.12","yh49jczx6h","many_one","0","direct_first","1","ed07nk19","0","21","1","1","3","1","","0","0","0","1108","","","<img src = 'targets/mask.png' width = '100%;'>","75","neg","GS","GSold","4","category4/CS7.png","","targets/24.png","indirect","1","12"
"","html-keyboard-response","191","862272","0.0-10.0-0.13","yh49jczx6h","many_one","0","direct_first","1","ed07nk19","0","21","1","1","3","1","","0","0","0","null","","","<div style=""font-size:60px;"">+</div>","null","","","","","","","","","",""
"","html-keyboard-response","192","862371","0.0-10.0-1.13","yh49jczx6h","many_one","0","direct_first","1","ed07nk19","0","21","1","1","3","1","","0","0","0","null","","","<img src = 'category1/CS7.png' width = '100%;'>","null","","","","","","","","","",""
"","html-keyboard-response","193","862639","0.0-10.0-2.13","yh49jczx6h","many_one","0","direct_first","1","ed07nk19","0","21","1","1","3","1","","0","0","0","null","","","<img src = 'targets/39.png' width = '100%;'>","null","","","","","","","","","",""
"","html-keyboard-response","194","863672","0.0-10.0-3.13","yh49jczx6h","many_one","0","direct_first","1","ed07nk19","0","21","1","1","3","1","","0","0","0","1032","","","<img src = 'targets/mask.png' width = '100%;'>","75","neg","CS","CS","1","category1/CS7.png","","targets/39.png","indirect","1","13"
"","html-keyboard-response","195","865202","0.0-10.0-0.14","yh49jczx6h","many_one","0","direct_first","1","ed07nk19","0","21","1","1","3","1","","0","0","0","null","","","<div style=""font-size:60px;"">+</div>","null","","","","","","","","","",""
"","html-keyboard-response","196","865304","0.0-10.0-1.14","yh49jczx6h","many_one","0","direct_first","1","ed07nk19","0","21","1","1","3","1","","0","0","0","null","","","<img src = 'category3/CS6.png' width = '100%;'>","null","","","","","","","","","",""
"","html-keyboard-response","197","865571","0.0-10.0-2.14","yh49jczx6h","many_one","0","direct_first","1","ed07nk19","0","21","1","1","3","1","","0","0","0","null","","","<img src = 'targets/2.png' width = '100%;'>","null","","","","","","","","","",""
"","html-keyboard-response","198","866363","0.0-10.0-3.14","yh49jczx6h","many_one","0","direct_first","1","ed07nk19","0","21","1","1","3","1","","0","0","0","793","","","<img src = 'targets/mask.png' width = '100%;'>","75","pos","CS","CS","3","category3/CS6.png","","targets/2.png","indirect","1","14"
"","html-keyboard-response","199","867902","0.0-10.0-0.15","yh49jczx6h","many_one","0","direct_first","1","ed07nk19","0","21","1","1","3","1","","0","0","0","null","","","<div style=""font-size:60px;"">+</div>","null","","","","","","","","","",""
"","html-keyboard-response","200","868012","0.0-10.0-1.15","yh49jczx6h","many_one","0","direct_first","1","ed07nk19","0","21","1","1","3","1","","0","0","0","null","","","<img src = 'category3/CS9.png' width = '100%;'>","null","","","","","","","","","",""
"","html-keyboard-response","201","868284","0.0-10.0-2.15","yh49jczx6h","many_one","0","direct_first","1","ed07nk19","0","21","1","1","3","1","","0","0","0","null","","","<img src = 'targets/18.png' width = '100%;'>","null","","","","","","","","","",""
"","html-keyboard-response","202","868991","0.0-10.0-3.15","yh49jczx6h","many_one","0","direct_first","1","ed07nk19","0","21","1","1","3","1","","0","0","0","706","","","<img src = 'targets/mask.png' width = '100%;'>","68","pos","CS","CS","3","category3/CS9.png","","targets/18.png","indirect","0","15"
"","html-keyboard-response","203","870511","0.0-10.0-0.16","yh49jczx6h","many_one","0","direct_first","1","ed07nk19","0","21","1","1","3","1","","0","0","0","null","","","<div style=""font-size:60px;"">+</div>","null","","","","","","","","","",""
"","html-keyboard-response","204","870616","0.0-10.0-1.16","yh49jczx6h","many_one","0","direct_first","1","ed07nk19","0","21","1","1","3","1","","0","0","0","null","","","<img src = 'category4/CS9.png' width = '100%;'>","null","","","","","","","","","",""
"","html-keyboard-response","205","870881","0.0-10.0-2.16","yh49jczx6h","many_one","0","direct_first","1","ed07nk19","0","21","1","1","3","1","","0","0","0","null","","","<img src = 'targets/46.png' width = '100%;'>","null","","","","","","","","","",""
"","html-keyboard-response","206","871587","0.0-10.0-3.16","yh49jczx6h","many_one","0","direct_first","1","ed07nk19","0","21","1","1","3","1","","0","0","0","706","","","<img src = 'targets/mask.png' width = '100%;'>","75","neg","GS","GSold","4","category4/CS9.png","","targets/46.png","indirect","1","16"
"","html-keyboard-response","207","873122","0.0-10.0-0.17","yh49jczx6h","many_one","0","direct_first","1","ed07nk19","0","21","1","1","3","1","","0","0","0","null","","","<div style=""font-size:60px;"">+</div>","null","","","","","","","","","",""
"","html-keyboard-response","208","873214","0.0-10.0-1.17","yh49jczx6h","many_one","0","direct_first","1","ed07nk19","0","21","1","1","3","1","","0","0","0","null","","","<img src = 'category1/CS9.png' width = '100%;'>","null","","","","","","","","","",""
"","html-keyboard-response","209","873481","0.0-10.0-2.17","yh49jczx6h","many_one","0","direct_first","1","ed07nk19","0","21","1","1","3","1","","0","0","0","null","","","<img src = 'targets/6.png' width = '100%;'>","null","","","","","","","","","",""
"","html-keyboard-response","210","874263","0.0-10.0-3.17","yh49jczx6h","many_one","0","direct_first","1","ed07nk19","0","21","1","1","3","1","","0","0","0","781","","","<img src = 'targets/mask.png' width = '100%;'>","75","neg","CS","CS","1","category1/CS9.png","","targets/6.png","indirect","1","17"
"","html-keyboard-response","211","875792","0.0-10.0-0.18","yh49jczx6h","many_one","0","direct_first","1","ed07nk19","0","21","1","1","3","1","","0","0","0","null","","","<div style=""font-size:60px;"">+</div>","null","","","","","","","","","",""
"","html-keyboard-response","212","875895","0.0-10.0-1.18","yh49jczx6h","many_one","0","direct_first","1","ed07nk19","0","21","1","1","3","1","","0","0","0","null","","","<img src = 'category1/CS1.png' width = '100%;'>","null","","","","","","","","","",""
"","html-keyboard-response","213","876162","0.0-10.0-2.18","yh49jczx6h","many_one","0","direct_first","1","ed07nk19","0","21","1","1","3","1","","0","0","0","null","","","<img src = 'targets/31.png' width = '100%;'>","null","","","","","","","","","",""
"","html-keyboard-response","214","876971","0.0-10.0-3.18","yh49jczx6h","many_one","0","direct_first","1","ed07nk19","0","21","1","1","3","1","","0","0","0","807","","","<img src = 'targets/mask.png' width = '100%;'>","68","neg","CS","CS","1","category1/CS1.png","","targets/31.png","indirect","0","18"
"","html-keyboard-response","215","878492","0.0-10.0-0.19","yh49jczx6h","many_one","0","direct_first","1","ed07nk19","0","21","1","1","3","1","","0","0","0","null","","","<div style=""font-size:60px;"">+</div>","null","","","","","","","","","",""
"","html-keyboard-response","216","878592","0.0-10.0-1.19","yh49jczx6h","many_one","0","direct_first","1","ed07nk19","0","21","1","1","3","1","","0","0","0","null","","","<img src = 'category3/CS10.png' width = '100%;'>","null","","","","","","","","","",""
"","html-keyboard-response","217","878852","0.0-10.0-2.19","yh49jczx6h","many_one","0","direct_first","1","ed07nk19","0","21","1","1","3","1","","0","0","0","null","","","<img src = 'targets/16.png' width = '100%;'>","null","","","","","","","","","",""
"","html-keyboard-response","218","879656","0.0-10.0-3.19","yh49jczx6h","many_one","0","direct_first","1","ed07nk19","0","21","1","1","3","1","","0","0","0","802","","","<img src = 'targets/mask.png' width = '100%;'>","75","pos","CS","CS","3","category3/CS10.png","","targets/16.png","indirect","1","19"
"","html-keyboard-response","219","881192","0.0-10.0-0.20","yh49jczx6h","many_one","0","direct_first","1","ed07nk19","0","21","1","1","3","1","","0","0","0","null","","","<div style=""font-size:60px;"">+</div>","null","","","","","","","","","",""
"","html-keyboard-response","220","881291","0.0-10.0-1.20","yh49jczx6h","many_one","0","direct_first","1","ed07nk19","0","21","1","1","3","1","","0","0","0","null","","","<img src = 'category3/CS8.png' width = '100%;'>","null","","","","","","","","","",""
"","html-keyboard-response","221","881558","0.0-10.0-2.20","yh49jczx6h","many_one","0","direct_first","1","ed07nk19","0","21","1","1","3","1","","0","0","0","null","","","<img src = 'targets/1.png' width = '100%;'>","null","","","","","","","","","",""
"","html-keyboard-response","222","882480","0.0-10.0-3.20","yh49jczx6h","many_one","0","direct_first","1","ed07nk19","0","21","1","1","3","1","","0","0","0","921","","","<img src = 'targets/mask.png' width = '100%;'>","75","pos","CS","CS","3","category3/CS8.png","","targets/1.png","indirect","1","20"
"","html-keyboard-response","223","884012","0.0-10.0-0.21","yh49jczx6h","many_one","0","direct_first","1","ed07nk19","0","21","1","1","3","1","","0","0","0","null","","","<div style=""font-size:60px;"">+</div>","null","","","","","","","","","",""
"","html-keyboard-response","224","884104","0.0-10.0-1.21","yh49jczx6h","many_one","0","direct_first","1","ed07nk19","0","21","1","1","3","1","","0","0","0","null","","","<img src = 'category2/CS7.png' width = '100%;'>","null","","","","","","","","","",""
"","html-keyboard-response","225","884372","0.0-10.0-2.21","yh49jczx6h","many_one","0","direct_first","1","ed07nk19","0","21","1","1","3","1","","0","0","0","null","","","<img src = 'targets/29.png' width = '100%;'>","null","","","","","","","","","",""
"","html-keyboard-response","226","885252","0.0-10.0-3.21","yh49jczx6h","many_one","0","direct_first","1","ed07nk19","0","21","1","1","3","1","","0","0","0","878","","","<img src = 'targets/mask.png' width = '100%;'>","75","pos","CS","CS","2","category2/CS7.png","","targets/29.png","indirect","1","21"
"","html-keyboard-response","227","886782","0.0-10.0-0.22","yh49jczx6h","many_one","0","direct_first","1","ed07nk19","0","21","1","1","3","1","","0","0","0","null","","","<div style=""font-size:60px;"">+</div>","null","","","","","","","","","",""
"","html-keyboard-response","228","886887","0.0-10.0-1.22","yh49jczx6h","many_one","0","direct_first","1","ed07nk19","0","21","1","1","3","1","","0","0","0","null","","","<img src = 'category2/CS9.png' width = '100%;'>","null","","","","","","","","","",""
"","html-keyboard-response","229","887151","0.0-10.0-2.22","yh49jczx6h","many_one","0","direct_first","1","ed07nk19","0","21","1","1","3","1","","0","0","0","null","","","<img src = 'targets/8.png' width = '100%;'>","null","","","","","","","","","",""
"","html-keyboard-response","230","887913","0.0-10.0-3.22","yh49jczx6h","many_one","0","direct_first","1","ed07nk19","0","21","1","1","3","1","","0","0","0","760","","","<img src = 'targets/mask.png' width = '100%;'>","75","pos","CS","CS","2","category2/CS9.png","","targets/8.png","indirect","1","22"
"","html-keyboard-response","231","889432","0.0-10.0-0.23","yh49jczx6h","many_one","0","direct_first","1","ed07nk19","0","21","1","1","3","1","","0","0","0","null","","","<div style=""font-size:60px;"">+</div>","null","","","","","","","","","",""
"","html-keyboard-response","232","889533","0.0-10.0-1.23","yh49jczx6h","many_one","0","direct_first","1","ed07nk19","0","21","1","1","3","1","","0","0","0","null","","","<img src = 'category3/CS5.png' width = '100%;'>","null","","","","","","","","","",""
"","html-keyboard-response","233","889800","0.0-10.0-2.23","yh49jczx6h","many_one","0","direct_first","1","ed07nk19","0","21","1","1","3","1","","0","0","0","null","","","<img src = 'targets/43.png' width = '100%;'>","null","","","","","","","","","",""
"","html-keyboard-response","234","890569","0.0-10.0-3.23","yh49jczx6h","many_one","0","direct_first","1","ed07nk19","0","21","1","1","3","1","","0","0","0","768","","","<img src = 'targets/mask.png' width = '100%;'>","68","pos","GS","GSold","3","category3/CS5.png","","targets/43.png","indirect","0","23"
"","survey-html-form","235","895567","0.0-11.0","yh49jczx6h","many_one","0","direct_first","1","ed07nk19","0","21","1","1","3","1","","0","0","0","4494","","{}","","","","","","","","","","","",""
"","html-keyboard-response","236","898582","0.0-12.0-0.0","yh49jczx6h","many_one","0","direct_first","1","ed07nk19","0","21","1","1","3","1","","0","0","0","null","","","<div style=""font-size:60px;"">+</div>","null","","","","","","","","","",""
"","html-keyboard-response","237","898692","0.0-12.0-1.0","yh49jczx6h","many_one","0","direct_first","1","ed07nk19","0","21","1","1","3","1","","0","0","0","null","","","<img src = 'category2/CS3.png' width = '100%;'>","null","","","","","","","","","",""
"","html-keyboard-response","238","898960","0.0-12.0-2.0","yh49jczx6h","many_one","0","direct_first","1","ed07nk19","0","21","1","1","3","1","","0","0","0","null","","","<img src = 'targets/3.png' width = '100%;'>","null","","","","","","","","","",""
"","html-keyboard-response","239","899695","0.0-12.0-3.0","yh49jczx6h","many_one","0","direct_first","1","ed07nk19","0","21","1","1","3","1","","0","0","0","733","","","<img src = 'targets/mask.png' width = '100%;'>","75","pos","GS","GSold","2","category2/CS3.png","","targets/3.png","indirect","1","24"
"","html-keyboard-response","240","901221","0.0-12.0-0.1","yh49jczx6h","many_one","0","direct_first","1","ed07nk19","0","21","1","1","3","1","","0","0","0","null","","","<div style=""font-size:60px;"">+</div>","null","","","","","","","","","",""
"","html-keyboard-response","241","901325","0.0-12.0-1.1","yh49jczx6h","many_one","0","direct_first","1","ed07nk19","0","21","1","1","3","1","","0","0","0","null","","","<img src = 'category4/lin.png' width = '100%;'>","null","","","","","","","","","",""
"","html-keyboard-response","242","901591","0.0-12.0-2.1","yh49jczx6h","many_one","0","direct_first","1","ed07nk19","0","21","1","1","3","1","","0","0","0","null","","","<img src = 'targets/41.png' width = '100%;'>","null","","","","","","","","","",""
"","html-keyboard-response","243","903808","0.0-12.0-3.1","yh49jczx6h","many_one","0","direct_first","1","ed07nk19","0","21","1","1","3","1","","0","0","0","2216","","","<img src = 'targets/mask.png' width = '100%;'>","68","neg","GS","abstract","4","category4/lin.png","","targets/41.png","indirect","0","25"
"","html-keyboard-response","244","905332","0.0-12.0-0.2","yh49jczx6h","many_one","0","direct_first","1","ed07nk19","0","21","1","1","3","1","","0","0","0","null","","","<div style=""font-size:60px;"">+</div>","null","","","","","","","","","",""
"","html-keyboard-response","245","905432","0.0-12.0-1.2","yh49jczx6h","many_one","0","direct_first","1","ed07nk19","0","21","1","1","3","1","","0","0","0","null","","","<img src = 'category3/GS1.png' width = '100%;'>","null","","","","","","","","","",""
"","html-keyboard-response","246","905703","0.0-12.0-2.2","yh49jczx6h","many_one","0","direct_first","1","ed07nk19","0","21","1","1","3","1","","0","0","0","null","","","<img src = 'targets/13.png' width = '100%;'>","null","","","","","","","","","",""
"","html-keyboard-response","247","907612","0.0-12.0-3.2","yh49jczx6h","many_one","0","direct_first","1","ed07nk19","0","21","1","1","3","1","","0","0","0","1908","","","<img src = 'targets/mask.png' width = '100%;'>","75","pos","GS","GSnew","3","category3/GS1.png","","targets/13.png","indirect","1","26"
"","html-keyboard-response","248","909132","0.0-12.0-0.3","yh49jczx6h","many_one","0","direct_first","1","ed07nk19","0","21","1","1","3","1","","0","0","0","null","","","<div style=""font-size:60px;"">+</div>","null","","","","","","","","","",""
"","html-keyboard-response","249","909234","0.0-12.0-1.3","yh49jczx6h","many_one","0","direct_first","1","ed07nk19","0","21","1","1","3","1","","0","0","0","null","","","<img src = 'category3/CS3.png' width = '100%;'>","null","","","","","","","","","",""
"","html-keyboard-response","250","909501","0.0-12.0-2.3","yh49jczx6h","many_one","0","direct_first","1","ed07nk19","0","21","1","1","3","1","","0","0","0","null","","","<img src = 'targets/17.png' width = '100%;'>","null","","","","","","","","","",""
"","html-keyboard-response","251","910339","0.0-12.0-3.3","yh49jczx6h","many_one","0","direct_first","1","ed07nk19","0","21","1","1","3","1","","0","0","0","837","","","<img src = 'targets/mask.png' width = '100%;'>","68","pos","GS","GSold","3","category3/CS3.png","","targets/17.png","indirect","0","27"
"","html-keyboard-response","252","911862","0.0-12.0-0.4","yh49jczx6h","many_one","0","direct_first","1","ed07nk19","0","21","1","1","3","1","","0","0","0","null","","","<div style=""font-size:60px;"">+</div>","null","","","","","","","","","",""
"","html-keyboard-response","253","911964","0.0-12.0-1.4","yh49jczx6h","many_one","0","direct_first","1","ed07nk19","0","21","1","1","3","1","","0","0","0","null","","","<img src = 'category1/CS6.png' width = '100%;'>","null","","","","","","","","","",""
"","html-keyboard-response","254","912232","0.0-12.0-2.4","yh49jczx6h","many_one","0","direct_first","1","ed07nk19","0","21","1","1","3","1","","0","0","0","null","","","<img src = 'targets/21.png' width = '100%;'>","null","","","","","","","","","",""
"","html-keyboard-response","255","913138","0.0-12.0-3.4","yh49jczx6h","many_one","0","direct_first","1","ed07nk19","0","21","1","1","3","1","","0","0","0","904","","","<img src = 'targets/mask.png' width = '100%;'>","75","neg","GS","GSold","1","category1/CS6.png","","targets/21.png","indirect","1","28"
"","html-keyboard-response","256","914661","0.0-12.0-0.5","yh49jczx6h","many_one","0","direct_first","1","ed07nk19","0","21","1","1","3","1","","0","0","0","null","","","<div style=""font-size:60px;"">+</div>","null","","","","","","","","","",""
"","html-keyboard-response","257","914764","0.0-12.0-1.5","yh49jczx6h","many_one","0","direct_first","1","ed07nk19","0","21","1","1","3","1","","0","0","0","null","","","<img src = 'category4/GS3.png' width = '100%;'>","null","","","","","","","","","",""
"","html-keyboard-response","258","915030","0.0-12.0-2.5","yh49jczx6h","many_one","0","direct_first","1","ed07nk19","0","21","1","1","3","1","","0","0","0","null","","","<img src = 'targets/9.png' width = '100%;'>","null","","","","","","","","","",""
"","html-keyboard-response","259","915944","0.0-12.0-3.5","yh49jczx6h","many_one","0","direct_first","1","ed07nk19","0","21","1","1","3","1","","0","0","0","915","","","<img src = 'targets/mask.png' width = '100%;'>","75","neg","GS","GSnew","4","category4/GS3.png","","targets/9.png","indirect","1","29"
"","html-keyboard-response","260","917483","0.0-12.0-0.6","yh49jczx6h","many_one","0","direct_first","1","ed07nk19","0","21","1","1","3","1","","0","0","0","null","","","<div style=""font-size:60px;"">+</div>","null","","","","","","","","","",""
"","html-keyboard-response","261","917578","0.0-12.0-1.6","yh49jczx6h","many_one","0","direct_first","1","ed07nk19","0","21","1","1","3","1","","0","0","0","null","","","<img src = 'category1/CS5.png' width = '100%;'>","null","","","","","","","","","",""
"","html-keyboard-response","262","917843","0.0-12.0-2.6","yh49jczx6h","many_one","0","direct_first","1","ed07nk19","0","21","1","1","3","1","","0","0","0","null","","","<img src = 'targets/37.png' width = '100%;'>","null","","","","","","","","","",""
"","html-keyboard-response","263","918496","0.0-12.0-3.6","yh49jczx6h","many_one","0","direct_first","1","ed07nk19","0","21","1","1","3","1","","0","0","0","652","","","<img src = 'targets/mask.png' width = '100%;'>","75","neg","GS","GSold","1","category1/CS5.png","","targets/37.png","indirect","1","30"
"","html-keyboard-response","264","920012","0.0-12.0-0.7","yh49jczx6h","many_one","0","direct_first","1","ed07nk19","0","21","1","1","3","1","","0","0","0","null","","","<div style=""font-size:60px;"">+</div>","null","","","","","","","","","",""
"","html-keyboard-response","265","920109","0.0-12.0-1.7","yh49jczx6h","many_one","0","direct_first","1","ed07nk19","0","21","1","1","3","1","","0","0","0","null","","","<img src = 'category1/GS1.png' width = '100%;'>","null","","","","","","","","","",""
"","html-keyboard-response","266","920375","0.0-12.0-2.7","yh49jczx6h","many_one","0","direct_first","1","ed07nk19","0","21","1","1","3","1","","0","0","0","null","","","<img src = 'targets/36.png' width = '100%;'>","null","","","","","","","","","",""
"","html-keyboard-response","267","921188","0.0-12.0-3.7","yh49jczx6h","many_one","0","direct_first","1","ed07nk19","0","21","1","1","3","1","","0","0","0","811","","","<img src = 'targets/mask.png' width = '100%;'>","68","neg","GS","GSnew","1","category1/GS1.png","","targets/36.png","indirect","0","31"
"","html-keyboard-response","268","922712","0.0-12.0-0.8","yh49jczx6h","many_one","0","direct_first","1","ed07nk19","0","21","1","1","3","1","","0","0","0","null","","","<div style=""font-size:60px;"">+</div>","null","","","","","","","","","",""
"","html-keyboard-response","269","922807","0.0-12.0-1.8","yh49jczx6h","many_one","0","direct_first","1","ed07nk19","0","21","1","1","3","1","","0","0","0","null","","","<img src = 'category3/GS3.png' width = '100%;'>","null","","","","","","","","","",""
"","html-keyboard-response","270","923073","0.0-12.0-2.8","yh49jczx6h","many_one","0","direct_first","1","ed07nk19","0","21","1","1","3","1","","0","0","0","null","","","<img src = 'targets/15.png' width = '100%;'>","null","","","","","","","","","",""
"","html-keyboard-response","271","923995","0.0-12.0-3.8","yh49jczx6h","many_one","0","direct_first","1","ed07nk19","0","21","1","1","3","1","","0","0","0","920","","","<img src = 'targets/mask.png' width = '100%;'>","75","pos","GS","GSnew","3","category3/GS3.png","","targets/15.png","indirect","1","32"
"","html-keyboard-response","272","925512","0.0-12.0-0.9","yh49jczx6h","many_one","0","direct_first","1","ed07nk19","0","21","1","1","3","1","","0","0","0","null","","","<div style=""font-size:60px;"">+</div>","null","","","","","","","","","",""
"","html-keyboard-response","273","925621","0.0-12.0-1.9","yh49jczx6h","many_one","0","direct_first","1","ed07nk19","0","21","1","1","3","1","","0","0","0","null","","","<img src = 'category2/CS2.png' width = '100%;'>","null","","","","","","","","","",""
"","html-keyboard-response","274","925888","0.0-12.0-2.9","yh49jczx6h","many_one","0","direct_first","1","ed07nk19","0","21","1","1","3","1","","0","0","0","null","","","<img src = 'targets/4.png' width = '100%;'>","null","","","","","","","","","",""
"","html-keyboard-response","275","926787","0.0-12.0-3.9","yh49jczx6h","many_one","0","direct_first","1","ed07nk19","0","21","1","1","3","1","","0","0","0","898","","","<img src = 'targets/mask.png' width = '100%;'>","75","pos","GS","GSold","2","category2/CS2.png","","targets/4.png","indirect","1","33"
"","html-keyboard-response","276","928302","0.0-12.0-0.10","yh49jczx6h","many_one","0","direct_first","1","ed07nk19","0","21","1","1","3","1","","0","0","0","null","","","<div style=""font-size:60px;"">+</div>","null","","","","","","","","","",""
"","html-keyboard-response","277","928403","0.0-12.0-1.10","yh49jczx6h","many_one","0","direct_first","1","ed07nk19","0","21","1","1","3","1","","0","0","0","null","","","<img src = 'category4/GS1.png' width = '100%;'>","null","","","","","","","","","",""
"","html-keyboard-response","278","928668","0.0-12.0-2.10","yh49jczx6h","many_one","0","direct_first","1","ed07nk19","0","21","1","1","3","1","","0","0","0","null","","","<img src = 'targets/38.png' width = '100%;'>","null","","","","","","","","","",""
"","html-keyboard-response","279","929474","0.0-12.0-3.10","yh49jczx6h","many_one","0","direct_first","1","ed07nk19","0","21","1","1","3","1","","0","0","0","803","","","<img src = 'targets/mask.png' width = '100%;'>","68","neg","GS","GSnew","4","category4/GS1.png","","targets/38.png","indirect","0","34"
"","html-keyboard-response","280","930981","0.0-12.0-0.11","yh49jczx6h","many_one","0","direct_first","1","ed07nk19","0","21","1","1","3","1","","0","0","0","null","","","<div style=""font-size:60px;"">+</div>","null","","","","","","","","","",""
"","html-keyboard-response","281","931082","0.0-12.0-1.11","yh49jczx6h","many_one","0","direct_first","1","ed07nk19","0","21","1","1","3","1","","0","0","0","null","","","<img src = 'category1/CS4.png' width = '100%;'>","null","","","","","","","","","",""
"","html-keyboard-response","282","931350","0.0-12.0-2.11","yh49jczx6h","many_one","0","direct_first","1","ed07nk19","0","21","1","1","3","1","","0","0","0","null","","","<img src = 'targets/47.png' width = '100%;'>","null","","","","","","","","","",""
"","html-keyboard-response","283","932284","0.0-12.0-3.11","yh49jczx6h","many_one","0","direct_first","1","ed07nk19","0","21","1","1","3","1","","0","0","0","934","","","<img src = 'targets/mask.png' width = '100%;'>","68","neg","GS","GSold","1","category1/CS4.png","","targets/47.png","indirect","0","35"
"","html-keyboard-response","284","933812","0.0-12.0-0.12","yh49jczx6h","many_one","0","direct_first","1","ed07nk19","0","21","1","1","3","1","","0","0","0","null","","","<div style=""font-size:60px;"">+</div>","null","","","","","","","","","",""
"","html-keyboard-response","285","933914","0.0-12.0-1.12","yh49jczx6h","many_one","0","direct_first","1","ed07nk19","0","21","1","1","3","1","","0","0","0","null","","","<img src = 'category2/men.png' width = '100%;'>","null","","","","","","","","","",""
"","html-keyboard-response","286","934180","0.0-12.0-2.12","yh49jczx6h","many_one","0","direct_first","1","ed07nk19","0","21","1","1","3","1","","0","0","0","null","","","<img src = 'targets/25.png' width = '100%;'>","null","","","","","","","","","",""
"","html-keyboard-response","287","934880","0.0-12.0-3.12","yh49jczx6h","many_one","0","direct_first","1","ed07nk19","0","21","1","1","3","1","","0","0","0","697","","","<img src = 'targets/mask.png' width = '100%;'>","75","pos","GS","abstract","2","category2/men.png","","targets/25.png","indirect","1","36"
"","html-keyboard-response","288","936392","0.0-12.0-0.13","yh49jczx6h","many_one","0","direct_first","1","ed07nk19","0","21","1","1","3","1","","0","0","0","null","","","<div style=""font-size:60px;"">+</div>","null","","","","","","","","","",""
"","html-keyboard-response","289","936494","0.0-12.0-1.13","yh49jczx6h","many_one","0","direct_first","1","ed07nk19","0","21","1","1","3","1","","0","0","0","null","","","<img src = 'category3/GS2.png' width = '100%;'>","null","","","","","","","","","",""
"","html-keyboard-response","290","936762","0.0-12.0-2.13","yh49jczx6h","many_one","0","direct_first","1","ed07nk19","0","21","1","1","3","1","","0","0","0","null","","","<img src = 'targets/40.png' width = '100%;'>","null","","","","","","","","","",""
"","html-keyboard-response","291","937431","0.0-12.0-3.13","yh49jczx6h","many_one","0","direct_first","1","ed07nk19","0","21","1","1","3","1","","0","0","0","669","","","<img src = 'targets/mask.png' width = '100%;'>","75","pos","GS","GSnew","3","category3/GS2.png","","targets/40.png","indirect","1","37"
"","html-keyboard-response","292","938962","0.0-12.0-0.14","yh49jczx6h","many_one","0","direct_first","1","ed07nk19","0","21","1","1","3","1","","0","0","0","null","","","<div style=""font-size:60px;"">+</div>","null","","","","","","","","","",""
"","html-keyboard-response","293","939060","0.0-12.0-1.14","yh49jczx6h","many_one","0","direct_first","1","ed07nk19","0","21","1","1","3","1","","0","0","0","null","","","<img src = 'category1/GS2.png' width = '100%;'>","null","","","","","","","","","",""
"","html-keyboard-response","294","939326","0.0-12.0-2.14","yh49jczx6h","many_one","0","direct_first","1","ed07nk19","0","21","1","1","3","1","","0","0","0","null","","","<img src = 'targets/45.png' width = '100%;'>","null","","","","","","","","","",""
"","html-keyboard-response","295","940369","0.0-12.0-3.14","yh49jczx6h","many_one","0","direct_first","1","ed07nk19","0","21","1","1","3","1","","0","0","0","1042","","","<img src = 'targets/mask.png' width = '100%;'>","75","neg","GS","GSnew","1","category1/GS2.png","","targets/45.png","indirect","1","38"
"","html-keyboard-response","296","941892","0.0-12.0-0.15","yh49jczx6h","many_one","0","direct_first","1","ed07nk19","0","21","1","1","3","1","","0","0","0","null","","","<div style=""font-size:60px;"">+</div>","null","","","","","","","","","",""
"","html-keyboard-response","297","941991","0.0-12.0-1.15","yh49jczx6h","many_one","0","direct_first","1","ed07nk19","0","21","1","1","3","1","","0","0","0","null","","","<img src = 'category3/wang.png' width = '100%;'>","null","","","","","","","","","",""
"","html-keyboard-response","298","942257","0.0-12.0-2.15","yh49jczx6h","many_one","0","direct_first","1","ed07nk19","0","21","1","1","3","1","","0","0","0","null","","","<img src = 'targets/23.png' width = '100%;'>","null","","","","","","","","","",""
"","html-keyboard-response","299","943258","0.0-12.0-3.15","yh49jczx6h","many_one","0","direct_first","1","ed07nk19","0","21","1","1","3","1","","0","0","0","1000","","","<img src = 'targets/mask.png' width = '100%;'>","75","pos","GS","abstract","3","category3/wang.png","","targets/23.png","indirect","1","39"
"","html-keyboard-response","300","944782","0.0-12.0-0.16","yh49jczx6h","many_one","0","direct_first","1","ed07nk19","0","21","1","1","3","1","","0","0","0","null","","","<div style=""font-size:60px;"">+</div>","null","","","","","","","","","",""
"","html-keyboard-response","301","944889","0.0-12.0-1.16","yh49jczx6h","many_one","0","direct_first","1","ed07nk19","0","21","1","1","3","1","","0","0","0","null","","","<img src = 'category3/CS2.png' width = '100%;'>","null","","","","","","","","","",""
"","html-keyboard-response","302","945154","0.0-12.0-2.16","yh49jczx6h","many_one","0","direct_first","1","ed07nk19","0","21","1","1","3","1","","0","0","0","null","","","<img src = 'targets/12.png' width = '100%;'>","null","","","","","","","","","",""
"","html-keyboard-response","303","946004","0.0-12.0-3.16","yh49jczx6h","many_one","0","direct_first","1","ed07nk19","0","21","1","1","3","1","","0","0","0","849","","","<img src = 'targets/mask.png' width = '100%;'>","68","pos","GS","GSold","3","category3/CS2.png","","targets/12.png","indirect","0","40"
"","html-keyboard-response","304","947542","0.0-12.0-0.17","yh49jczx6h","many_one","0","direct_first","1","ed07nk19","0","21","1","1","3","1","","0","0","0","null","","","<div style=""font-size:60px;"">+</div>","null","","","","","","","","","",""
"","html-keyboard-response","305","947636","0.0-12.0-1.17","yh49jczx6h","many_one","0","direct_first","1","ed07nk19","0","21","1","1","3","1","","0","0","0","null","","","<img src = 'category2/CS4.png' width = '100%;'>","null","","","","","","","","","",""
"","html-keyboard-response","306","947902","0.0-12.0-2.17","yh49jczx6h","many_one","0","direct_first","1","ed07nk19","0","21","1","1","3","1","","0","0","0","null","","","<img src = 'targets/5.png' width = '100%;'>","null","","","","","","","","","",""
"","html-keyboard-response","307","948496","0.0-12.0-3.17","yh49jczx6h","many_one","0","direct_first","1","ed07nk19","0","21","1","1","3","1","","0","0","0","592","","","<img src = 'targets/mask.png' width = '100%;'>","75","pos","GS","GSold","2","category2/CS4.png","","targets/5.png","indirect","1","41"
"","html-keyboard-response","308","950012","0.0-12.0-0.18","yh49jczx6h","many_one","0","direct_first","1","ed07nk19","0","21","1","1","3","1","","0","0","0","null","","","<div style=""font-size:60px;"">+</div>","null","","","","","","","","","",""
"","html-keyboard-response","309","950118","0.0-12.0-1.18","yh49jczx6h","many_one","0","direct_first","1","ed07nk19","0","21","1","1","3","1","","0","0","0","null","","","<img src = 'category1/GS3.png' width = '100%;'>","null","","","","","","","","","",""
"","html-keyboard-response","310","950383","0.0-12.0-2.18","yh49jczx6h","many_one","0","direct_first","1","ed07nk19","0","21","1","1","3","1","","0","0","0","null","","","<img src = 'targets/48.png' width = '100%;'>","null","","","","","","","","","",""
"","html-keyboard-response","311","950903","0.0-12.0-3.18","yh49jczx6h","many_one","0","direct_first","1","ed07nk19","0","21","1","1","3","1","","0","0","0","519","","","<img src = 'targets/mask.png' width = '100%;'>","75","neg","GS","GSnew","1","category1/GS3.png","","targets/48.png","indirect","1","42"
"","html-keyboard-response","312","952422","0.0-12.0-0.19","yh49jczx6h","many_one","0","direct_first","1","ed07nk19","0","21","1","1","3","1","","0","0","0","null","","","<div style=""font-size:60px;"">+</div>","null","","","","","","","","","",""
"","html-keyboard-response","313","952514","0.0-12.0-1.19","yh49jczx6h","many_one","0","direct_first","1","ed07nk19","0","21","1","1","3","1","","0","0","0","null","","","<img src = 'category2/GS2.png' width = '100%;'>","null","","","","","","","","","",""
"","html-keyboard-response","314","952782","0.0-12.0-2.19","yh49jczx6h","many_one","0","direct_first","1","ed07nk19","0","21","1","1","3","1","","0","0","0","null","","","<img src = 'targets/10.png' width = '100%;'>","null","","","","","","","","","",""
"","html-keyboard-response","315","953433","0.0-12.0-3.19","yh49jczx6h","many_one","0","direct_first","1","ed07nk19","0","21","1","1","3","1","","0","0","0","649","","","<img src = 'targets/mask.png' width = '100%;'>","75","pos","GS","GSnew","2","category2/GS2.png","","targets/10.png","indirect","1","43"
"","html-keyboard-response","316","954973","0.0-12.0-0.20","yh49jczx6h","many_one","0","direct_first","1","ed07nk19","0","21","1","1","3","1","","0","0","0","null","","","<div style=""font-size:60px;"">+</div>","null","","","","","","","","","",""
"","html-keyboard-response","317","955081","0.0-12.0-1.20","yh49jczx6h","many_one","0","direct_first","1","ed07nk19","0","21","1","1","3","1","","0","0","0","null","","","<img src = 'category4/GS2.png' width = '100%;'>","null","","","","","","","","","",""
"","html-keyboard-response","318","955347","0.0-12.0-2.20","yh49jczx6h","many_one","0","direct_first","1","ed07nk19","0","21","1","1","3","1","","0","0","0","null","","","<img src = 'targets/27.png' width = '100%;'>","null","","","","","","","","","",""
"","html-keyboard-response","319","956069","0.0-12.0-3.20","yh49jczx6h","many_one","0","direct_first","1","ed07nk19","0","21","1","1","3","1","","0","0","0","722","","","<img src = 'targets/mask.png' width = '100%;'>","75","neg","GS","GSnew","4","category4/GS2.png","","targets/27.png","indirect","1","44"
"","html-keyboard-response","320","957591","0.0-12.0-0.21","yh49jczx6h","many_one","0","direct_first","1","ed07nk19","0","21","1","1","3","1","","0","0","0","null","","","<div style=""font-size:60px;"">+</div>","null","","","","","","","","","",""
"","html-keyboard-response","321","957694","0.0-12.0-1.21","yh49jczx6h","many_one","0","direct_first","1","ed07nk19","0","21","1","1","3","1","","0","0","0","null","","","<img src = 'category2/GS3.png' width = '100%;'>","null","","","","","","","","","",""
"","html-keyboard-response","322","957961","0.0-12.0-2.21","yh49jczx6h","many_one","0","direct_first","1","ed07nk19","0","21","1","1","3","1","","0","0","0","null","","","<img src = 'targets/34.png' width = '100%;'>","null","","","","","","","","","",""
"","html-keyboard-response","323","958551","0.0-12.0-3.21","yh49jczx6h","many_one","0","direct_first","1","ed07nk19","0","21","1","1","3","1","","0","0","0","589","","","<img src = 'targets/mask.png' width = '100%;'>","68","pos","GS","GSnew","2","category2/GS3.png","","targets/34.png","indirect","0","45"
"","html-keyboard-response","324","960082","0.0-12.0-0.22","yh49jczx6h","many_one","0","direct_first","1","ed07nk19","0","21","1","1","3","1","","0","0","0","null","","","<div style=""font-size:60px;"">+</div>","null","","","","","","","","","",""
"","html-keyboard-response","325","960176","0.0-12.0-1.22","yh49jczx6h","many_one","0","direct_first","1","ed07nk19","0","21","1","1","3","1","","0","0","0","null","","","<img src = 'category2/GS1.png' width = '100%;'>","null","","","","","","","","","",""
"","html-keyboard-response","326","960442","0.0-12.0-2.22","yh49jczx6h","many_one","0","direct_first","1","ed07nk19","0","21","1","1","3","1","","0","0","0","null","","","<img src = 'targets/35.png' width = '100%;'>","null","","","","","","","","","",""
"","html-keyboard-response","327","961005","0.0-12.0-3.22","yh49jczx6h","many_one","0","direct_first","1","ed07nk19","0","21","1","1","3","1","","0","0","0","562","","","<img src = 'targets/mask.png' width = '100%;'>","75","pos","GS","GSnew","2","category2/GS1.png","","targets/35.png","indirect","1","46"
"","html-keyboard-response","328","962542","0.0-12.0-0.23","yh49jczx6h","many_one","0","direct_first","1","ed07nk19","0","21","1","1","3","1","","0","0","0","null","","","<div style=""font-size:60px;"">+</div>","null","","","","","","","","","",""
"","html-keyboard-response","329","962640","0.0-12.0-1.23","yh49jczx6h","many_one","0","direct_first","1","ed07nk19","0","21","1","1","3","1","","0","0","0","null","","","<img src = 'category1/ma.png' width = '100%;'>","null","","","","","","","","","",""
"","html-keyboard-response","330","962907","0.0-12.0-2.23","yh49jczx6h","many_one","0","direct_first","1","ed07nk19","0","21","1","1","3","1","","0","0","0","null","","","<img src = 'targets/11.png' width = '100%;'>","null","","","","","","","","","",""
"","html-keyboard-response","331","963578","0.0-12.0-3.23","yh49jczx6h","many_one","0","direct_first","1","ed07nk19","0","21","1","1","3","1","","0","0","0","669","","","<img src = 'targets/mask.png' width = '100%;'>","75","neg","GS","abstract","1","category1/ma.png","","targets/11.png","indirect","1","47"
"","survey-html-form","332","976035","0.0-13.0","yh49jczx6h","many_one","0","direct_first","1","ed07nk19","0","21","1","1","3","1","","0","0","0","11948","","{}","","","","","","","","","","","",""
