"success","trial_type","trial_index","time_elapsed","internal_node_id","subject","condition","condition_code","measure","measure_code","codeword","gender","age","education","chinese","fach","handedness","comment","hinschauen","ablenkung","gewissenhaft","rt","url","responses","stimulus","key_press","val","type","type_specific","category","cs_selected","target","indirect","task","nr_pres","response"
"true","fullscreen","0","7041","0.0-0.0","kdcueo0qoe","many_one","0","indirect_first","0","Hm06Er11","0","31","1","1","3","1","","0","1","0","","","","","","","","","","","","","","",""
"","external-html","1","25260","0.0-1.0","kdcueo0qoe","many_one","0","indirect_first","0","Hm06Er11","0","31","1","1","3","1","","0","1","0","18187.92499997653","text/information.html","","","","","","","","","","","","",""
"","external-html","2","43501","0.0-2.0","kdcueo0qoe","many_one","0","indirect_first","0","Hm06Er11","0","31","1","1","3","1","","0","1","0","18119.2850000225","text/consent.html","","","","","","","","","","","","",""
"","survey-html-form","3","73613","0.0-3.0","kdcueo0qoe","many_one","0","indirect_first","0","Hm06Er11","0","31","1","1","3","1","","0","1","0","30110.979999881238","","{""codeword_enter"":""Hm06Er11""}","","","","","","","","","","","",""
"","survey-html-form","4","87252","0.0-4.0","kdcueo0qoe","many_one","0","indirect_first","0","Hm06Er11","0","31","1","1","3","1","","0","1","0","13638.375000096858","","{""age"":""31"",""education"":""1"",""subject"":""3"",""gender"":""0"",""handedness"":""1"",""chinese"":""1""}","","","","","","","","","","","",""
"","survey-html-form","5","89156","0.0-5.0","kdcueo0qoe","many_one","0","indirect_first","0","Hm06Er11","0","31","1","1","3","1","","0","1","0","1902.5250000413507","","{}","","","","","","","","","","","",""
"","html-keyboard-response","6","93167","0.0-6.0-0.0-0.0","kdcueo0qoe","many_one","0","indirect_first","0","Hm06Er11","0","31","1","1","3","1","","0","1","0","null","","","<div class = 'row'><div class = 'column'><img src = 'uspos/1710.bmp' width = '100%;'></div><div class = 'column'><img src = 'category4/CS4.png' width = '70%;'></div></div>","null","pos","CS","CS","4","category4/CS4.png","","","","",""
"","html-keyboard-response","7","95681","0.0-6.0-0.0-0.1","kdcueo0qoe","many_one","0","indirect_first","0","Hm06Er11","0","31","1","1","3","1","","0","1","0","null","","","<div class = 'row'><div class = 'column'><img src = 'category4/CS3.png' width = '70%;'></div><div class = 'column'><img src = 'uspos/8080.bmp' width = '100%;'></div></div>","null","pos","CS","CS","4","category4/CS3.png","","","","",""
"","html-keyboard-response","8","98208","0.0-6.0-0.0-0.2","kdcueo0qoe","many_one","0","indirect_first","0","Hm06Er11","0","31","1","1","3","1","","0","1","0","null","","","<div class = 'row'><div class = 'column'><img src = 'category1/CS4.png' width = '70%;'></div><div class = 'column'><img src = 'usneg/9041.bmp' width = '100%;'></div></div>","null","neg","CS","CS","1","category1/CS4.png","","","","",""
"","html-keyboard-response","9","100728","0.0-6.0-0.0-0.3","kdcueo0qoe","many_one","0","indirect_first","0","Hm06Er11","0","31","1","1","3","1","","0","1","0","null","","","<div class = 'row'><div class = 'column'><img src = 'usneg/9290.bmp' width = '100%;'></div><div class = 'column'><img src = 'category1/CS2.png' width = '70%;'></div></div>","null","neg","CS","CS","1","category1/CS2.png","","","","",""
"","html-keyboard-response","10","103245","0.0-6.0-0.0-0.4","kdcueo0qoe","many_one","0","indirect_first","0","Hm06Er11","0","31","1","1","3","1","","0","1","0","null","","","<div class = 'row'><div class = 'column'><img src = 'usneg/9342.bmp' width = '100%;'></div><div class = 'column'><img src = 'category2/CS3.png' width = '70%;'></div></div>","null","neg","CS","CS","2","category2/CS3.png","","","","",""
"","html-keyboard-response","11","105759","0.0-6.0-0.0-0.5","kdcueo0qoe","many_one","0","indirect_first","0","Hm06Er11","0","31","1","1","3","1","","0","1","0","null","","","<div class = 'row'><div class = 'column'><img src = 'usneg/2141.bmp' width = '100%;'></div><div class = 'column'><img src = 'category2/CS8.png' width = '70%;'></div></div>","null","neg","CS","CS","2","category2/CS8.png","","","","",""
"","html-keyboard-response","12","108288","0.0-6.0-0.0-0.6","kdcueo0qoe","many_one","0","indirect_first","0","Hm06Er11","0","31","1","1","3","1","","0","1","0","null","","","<div class = 'row'><div class = 'column'><img src = 'category4/CS8.png' width = '70%;'></div><div class = 'column'><img src = 'uspos/2160.bmp' width = '100%;'></div></div>","null","pos","CS","CS","4","category4/CS8.png","","","","",""
"","html-keyboard-response","13","110807","0.0-6.0-0.0-0.7","kdcueo0qoe","many_one","0","indirect_first","0","Hm06Er11","0","31","1","1","3","1","","0","1","0","null","","","<div class = 'row'><div class = 'column'><img src = 'category2/CS5.png' width = '70%;'></div><div class = 'column'><img src = 'usneg/2750.bmp' width = '100%;'></div></div>","null","neg","CS","CS","2","category2/CS5.png","","","","",""
"","html-keyboard-response","14","113326","0.0-6.0-0.0-0.8","kdcueo0qoe","many_one","0","indirect_first","0","Hm06Er11","0","31","1","1","3","1","","0","1","0","null","","","<div class = 'row'><div class = 'column'><img src = 'category3/CS9.png' width = '70%;'></div><div class = 'column'><img src = 'uspos/8190.bmp' width = '100%;'></div></div>","null","pos","CS","CS","3","category3/CS9.png","","","","",""
"","html-keyboard-response","15","115850","0.0-6.0-0.0-0.9","kdcueo0qoe","many_one","0","indirect_first","0","Hm06Er11","0","31","1","1","3","1","","0","1","0","null","","","<div class = 'row'><div class = 'column'><img src = 'category3/CS2.png' width = '70%;'></div><div class = 'column'><img src = 'uspos/2311.bmp' width = '100%;'></div></div>","null","pos","CS","CS","3","category3/CS2.png","","","","",""
"","html-keyboard-response","16","118367","0.0-6.0-0.0-0.10","kdcueo0qoe","many_one","0","indirect_first","0","Hm06Er11","0","31","1","1","3","1","","0","1","0","null","","","<div class = 'row'><div class = 'column'><img src = 'usneg/2900.bmp' width = '100%;'></div><div class = 'column'><img src = 'category1/CS8.png' width = '70%;'></div></div>","null","neg","CS","CS","1","category1/CS8.png","","","","",""
"","html-keyboard-response","17","120875","0.0-6.0-0.0-0.11","kdcueo0qoe","many_one","0","indirect_first","0","Hm06Er11","0","31","1","1","3","1","","0","1","0","null","","","<div class = 'row'><div class = 'column'><img src = 'uspos/5700.bmp' width = '100%;'></div><div class = 'column'><img src = 'category3/CS8.png' width = '70%;'></div></div>","null","pos","CS","CS","3","category3/CS8.png","","","","",""
"","html-keyboard-response","18","123390","0.0-6.0-0.0-0.12","kdcueo0qoe","many_one","0","indirect_first","0","Hm06Er11","0","31","1","1","3","1","","0","1","0","null","","","<div class = 'row'><div class = 'column'><img src = 'category2/CS1.png' width = '70%;'></div><div class = 'column'><img src = 'usneg/9560.bmp' width = '100%;'></div></div>","null","neg","CS","CS","2","category2/CS1.png","","","","",""
"","html-keyboard-response","19","125901","0.0-6.0-0.0-0.13","kdcueo0qoe","many_one","0","indirect_first","0","Hm06Er11","0","31","1","1","3","1","","0","1","0","null","","","<div class = 'row'><div class = 'column'><img src = 'category3/CS3.png' width = '70%;'></div><div class = 'column'><img src = 'uspos/2208.bmp' width = '100%;'></div></div>","null","pos","CS","CS","3","category3/CS3.png","","","","",""
"","html-keyboard-response","20","128505","0.0-6.0-0.0-0.14","kdcueo0qoe","many_one","0","indirect_first","0","Hm06Er11","0","31","1","1","3","1","","0","1","0","null","","","<div class = 'row'><div class = 'column'><img src = 'usneg/6570.1.bmp' width = '100%;'></div><div class = 'column'><img src = 'category1/CS10.png' width = '70%;'></div></div>","null","neg","CS","CS","1","category1/CS10.png","","","","",""
"","html-keyboard-response","21","132509","0.0-6.0-0.0-0.15","kdcueo0qoe","many_one","0","indirect_first","0","Hm06Er11","0","31","1","1","3","1","","0","1","0","null","","","<div class = 'row'><div class = 'column'><img src = 'uspos/5470.bmp' width = '100%;'></div><div class = 'column'><img src = 'category4/CS5.png' width = '70%;'></div></div>","null","pos","CS","CS","4","category4/CS5.png","","","","",""
"","html-keyboard-response","22","135526","0.0-6.0-0.0-0.16","kdcueo0qoe","many_one","0","indirect_first","0","Hm06Er11","0","31","1","1","3","1","","0","1","0","null","","","<div class = 'row'><div class = 'column'><img src = 'category4/CS2.png' width = '70%;'></div><div class = 'column'><img src = 'uspos/8350.bmp' width = '100%;'></div></div>","null","pos","CS","CS","4","category4/CS2.png","","","","",""
"","html-keyboard-response","23","138513","0.0-6.0-0.0-0.17","kdcueo0qoe","many_one","0","indirect_first","0","Hm06Er11","0","31","1","1","3","1","","0","1","0","null","","","<div class = 'row'><div class = 'column'><img src = 'usneg/9920.bmp' width = '100%;'></div><div class = 'column'><img src = 'category2/CS10.png' width = '70%;'></div></div>","null","neg","CS","CS","2","category2/CS10.png","","","","",""
"","html-keyboard-response","24","142508","0.0-6.0-0.0-0.18","kdcueo0qoe","many_one","0","indirect_first","0","Hm06Er11","0","31","1","1","3","1","","0","1","0","null","","","<div class = 'row'><div class = 'column'><img src = 'category1/CS9.png' width = '70%;'></div><div class = 'column'><img src = 'usneg/9330.bmp' width = '100%;'></div></div>","null","neg","CS","CS","1","category1/CS9.png","","","","",""
"","html-keyboard-response","25","146502","0.0-6.0-0.0-0.19","kdcueo0qoe","many_one","0","indirect_first","0","Hm06Er11","0","31","1","1","3","1","","0","1","0","null","","","<div class = 'row'><div class = 'column'><img src = 'uspos/1463.bmp' width = '100%;'></div><div class = 'column'><img src = 'category3/CS4.png' width = '70%;'></div></div>","null","pos","CS","CS","3","category3/CS4.png","","","","",""
"","survey-html-form","26","150396","0.0-6.0-1.0","kdcueo0qoe","many_one","0","indirect_first","0","Hm06Er11","0","31","1","1","3","1","","0","1","0","3390.1450000703335","","{}","","","","","","","","","","","",""
"","html-keyboard-response","27","154403","0.0-6.0-2.0-0.0","kdcueo0qoe","many_one","0","indirect_first","0","Hm06Er11","0","31","1","1","3","1","","0","1","0","null","","","<div class = 'row'><div class = 'column'><img src = 'category2/CS5.png' width = '70%;'></div><div class = 'column'><img src = 'usneg/2750.bmp' width = '100%;'></div></div>","null","neg","CS","CS","2","category2/CS5.png","","","","",""
"","html-keyboard-response","28","157508","0.0-6.0-2.0-0.1","kdcueo0qoe","many_one","0","indirect_first","0","Hm06Er11","0","31","1","1","3","1","","0","1","0","null","","","<div class = 'row'><div class = 'column'><img src = 'category4/CS5.png' width = '70%;'></div><div class = 'column'><img src = 'uspos/5470.bmp' width = '100%;'></div></div>","null","pos","CS","CS","4","category4/CS5.png","","","","",""
"","html-keyboard-response","29","161503","0.0-6.0-2.0-0.2","kdcueo0qoe","many_one","0","indirect_first","0","Hm06Er11","0","31","1","1","3","1","","0","1","0","null","","","<div class = 'row'><div class = 'column'><img src = 'category1/CS10.png' width = '70%;'></div><div class = 'column'><img src = 'usneg/6570.1.bmp' width = '100%;'></div></div>","null","neg","CS","CS","1","category1/CS10.png","","","","",""
"","html-keyboard-response","30","165501","0.0-6.0-2.0-0.3","kdcueo0qoe","many_one","0","indirect_first","0","Hm06Er11","0","31","1","1","3","1","","0","1","0","null","","","<div class = 'row'><div class = 'column'><img src = 'category4/CS2.png' width = '70%;'></div><div class = 'column'><img src = 'uspos/8350.bmp' width = '100%;'></div></div>","null","pos","CS","CS","4","category4/CS2.png","","","","",""
"","html-keyboard-response","31","168516","0.0-6.0-2.0-0.4","kdcueo0qoe","many_one","0","indirect_first","0","Hm06Er11","0","31","1","1","3","1","","0","1","0","null","","","<div class = 'row'><div class = 'column'><img src = 'usneg/9342.bmp' width = '100%;'></div><div class = 'column'><img src = 'category2/CS3.png' width = '70%;'></div></div>","null","neg","CS","CS","2","category2/CS3.png","","","","",""
"","html-keyboard-response","32","172503","0.0-6.0-2.0-0.5","kdcueo0qoe","many_one","0","indirect_first","0","Hm06Er11","0","31","1","1","3","1","","0","1","0","null","","","<div class = 'row'><div class = 'column'><img src = 'usneg/9560.bmp' width = '100%;'></div><div class = 'column'><img src = 'category2/CS1.png' width = '70%;'></div></div>","null","neg","CS","CS","2","category2/CS1.png","","","","",""
"","html-keyboard-response","33","175720","0.0-6.0-2.0-0.6","kdcueo0qoe","many_one","0","indirect_first","0","Hm06Er11","0","31","1","1","3","1","","0","1","0","null","","","<div class = 'row'><div class = 'column'><img src = 'category3/CS9.png' width = '70%;'></div><div class = 'column'><img src = 'uspos/8190.bmp' width = '100%;'></div></div>","null","pos","CS","CS","3","category3/CS9.png","","","","",""
"","html-keyboard-response","34","178501","0.0-6.0-2.0-0.7","kdcueo0qoe","many_one","0","indirect_first","0","Hm06Er11","0","31","1","1","3","1","","0","1","0","null","","","<div class = 'row'><div class = 'column'><img src = 'usneg/9330.bmp' width = '100%;'></div><div class = 'column'><img src = 'category1/CS9.png' width = '70%;'></div></div>","null","neg","CS","CS","1","category1/CS9.png","","","","",""
"","html-keyboard-response","35","182504","0.0-6.0-2.0-0.8","kdcueo0qoe","many_one","0","indirect_first","0","Hm06Er11","0","31","1","1","3","1","","0","1","0","null","","","<div class = 'row'><div class = 'column'><img src = 'category1/CS8.png' width = '70%;'></div><div class = 'column'><img src = 'usneg/2900.bmp' width = '100%;'></div></div>","null","neg","CS","CS","1","category1/CS8.png","","","","",""
"","html-keyboard-response","36","186509","0.0-6.0-2.0-0.9","kdcueo0qoe","many_one","0","indirect_first","0","Hm06Er11","0","31","1","1","3","1","","0","1","0","null","","","<div class = 'row'><div class = 'column'><img src = 'usneg/2141.bmp' width = '100%;'></div><div class = 'column'><img src = 'category2/CS8.png' width = '70%;'></div></div>","null","neg","CS","CS","2","category2/CS8.png","","","","",""
"","html-keyboard-response","37","190512","0.0-6.0-2.0-0.10","kdcueo0qoe","many_one","0","indirect_first","0","Hm06Er11","0","31","1","1","3","1","","0","1","0","null","","","<div class = 'row'><div class = 'column'><img src = 'category4/CS8.png' width = '70%;'></div><div class = 'column'><img src = 'uspos/2160.bmp' width = '100%;'></div></div>","null","pos","CS","CS","4","category4/CS8.png","","","","",""
"","html-keyboard-response","38","194512","0.0-6.0-2.0-0.11","kdcueo0qoe","many_one","0","indirect_first","0","Hm06Er11","0","31","1","1","3","1","","0","1","0","null","","","<div class = 'row'><div class = 'column'><img src = 'uspos/2208.bmp' width = '100%;'></div><div class = 'column'><img src = 'category3/CS3.png' width = '70%;'></div></div>","null","pos","CS","CS","3","category3/CS3.png","","","","",""
"","html-keyboard-response","39","198508","0.0-6.0-2.0-0.12","kdcueo0qoe","many_one","0","indirect_first","0","Hm06Er11","0","31","1","1","3","1","","0","1","0","null","","","<div class = 'row'><div class = 'column'><img src = 'category4/CS3.png' width = '70%;'></div><div class = 'column'><img src = 'uspos/8080.bmp' width = '100%;'></div></div>","null","pos","CS","CS","4","category4/CS3.png","","","","",""
"","html-keyboard-response","40","202509","0.0-6.0-2.0-0.13","kdcueo0qoe","many_one","0","indirect_first","0","Hm06Er11","0","31","1","1","3","1","","0","1","0","null","","","<div class = 'row'><div class = 'column'><img src = 'uspos/2311.bmp' width = '100%;'></div><div class = 'column'><img src = 'category3/CS2.png' width = '70%;'></div></div>","null","pos","CS","CS","3","category3/CS2.png","","","","",""
"","html-keyboard-response","41","206264","0.0-6.0-2.0-0.14","kdcueo0qoe","many_one","0","indirect_first","0","Hm06Er11","0","31","1","1","3","1","","0","1","0","null","","","<div class = 'row'><div class = 'column'><img src = 'uspos/5700.bmp' width = '100%;'></div><div class = 'column'><img src = 'category3/CS8.png' width = '70%;'></div></div>","null","pos","CS","CS","3","category3/CS8.png","","","","",""
"","html-keyboard-response","42","208790","0.0-6.0-2.0-0.15","kdcueo0qoe","many_one","0","indirect_first","0","Hm06Er11","0","31","1","1","3","1","","0","1","0","null","","","<div class = 'row'><div class = 'column'><img src = 'usneg/9920.bmp' width = '100%;'></div><div class = 'column'><img src = 'category2/CS10.png' width = '70%;'></div></div>","null","neg","CS","CS","2","category2/CS10.png","","","","",""
"","html-keyboard-response","43","211307","0.0-6.0-2.0-0.16","kdcueo0qoe","many_one","0","indirect_first","0","Hm06Er11","0","31","1","1","3","1","","0","1","0","null","","","<div class = 'row'><div class = 'column'><img src = 'usneg/9041.bmp' width = '100%;'></div><div class = 'column'><img src = 'category1/CS4.png' width = '70%;'></div></div>","null","neg","CS","CS","1","category1/CS4.png","","","","",""
"","html-keyboard-response","44","214502","0.0-6.0-2.0-0.17","kdcueo0qoe","many_one","0","indirect_first","0","Hm06Er11","0","31","1","1","3","1","","0","1","0","null","","","<div class = 'row'><div class = 'column'><img src = 'category1/CS2.png' width = '70%;'></div><div class = 'column'><img src = 'usneg/9290.bmp' width = '100%;'></div></div>","null","neg","CS","CS","1","category1/CS2.png","","","","",""
"","html-keyboard-response","45","218512","0.0-6.0-2.0-0.18","kdcueo0qoe","many_one","0","indirect_first","0","Hm06Er11","0","31","1","1","3","1","","0","1","0","null","","","<div class = 'row'><div class = 'column'><img src = 'category4/CS4.png' width = '70%;'></div><div class = 'column'><img src = 'uspos/1710.bmp' width = '100%;'></div></div>","null","pos","CS","CS","4","category4/CS4.png","","","","",""
"","html-keyboard-response","46","222502","0.0-6.0-2.0-0.19","kdcueo0qoe","many_one","0","indirect_first","0","Hm06Er11","0","31","1","1","3","1","","0","1","0","null","","","<div class = 'row'><div class = 'column'><img src = 'category3/CS4.png' width = '70%;'></div><div class = 'column'><img src = 'uspos/1463.bmp' width = '100%;'></div></div>","null","pos","CS","CS","3","category3/CS4.png","","","","",""
"","survey-html-form","47","226517","0.0-6.0-3.0","kdcueo0qoe","many_one","0","indirect_first","0","Hm06Er11","0","31","1","1","3","1","","0","1","0","3009.0649998746812","","{}","","","","","","","","","","","",""
"","html-keyboard-response","48","231511","0.0-6.0-4.0-0.0","kdcueo0qoe","many_one","0","indirect_first","0","Hm06Er11","0","31","1","1","3","1","","0","1","0","null","","","<div class = 'row'><div class = 'column'><img src = 'category1/CS10.png' width = '70%;'></div><div class = 'column'><img src = 'usneg/6570.1.bmp' width = '100%;'></div></div>","null","neg","CS","CS","1","category1/CS10.png","","","","",""
"","html-keyboard-response","49","235510","0.0-6.0-4.0-0.1","kdcueo0qoe","many_one","0","indirect_first","0","Hm06Er11","0","31","1","1","3","1","","0","1","0","null","","","<div class = 'row'><div class = 'column'><img src = 'uspos/1463.bmp' width = '100%;'></div><div class = 'column'><img src = 'category3/CS4.png' width = '70%;'></div></div>","null","pos","CS","CS","3","category3/CS4.png","","","","",""
"","html-keyboard-response","50","239499","0.0-6.0-4.0-0.2","kdcueo0qoe","many_one","0","indirect_first","0","Hm06Er11","0","31","1","1","3","1","","0","1","0","null","","","<div class = 'row'><div class = 'column'><img src = 'uspos/8190.bmp' width = '100%;'></div><div class = 'column'><img src = 'category3/CS9.png' width = '70%;'></div></div>","null","pos","CS","CS","3","category3/CS9.png","","","","",""
"","html-keyboard-response","51","243513","0.0-6.0-4.0-0.3","kdcueo0qoe","many_one","0","indirect_first","0","Hm06Er11","0","31","1","1","3","1","","0","1","0","null","","","<div class = 'row'><div class = 'column'><img src = 'category4/CS8.png' width = '70%;'></div><div class = 'column'><img src = 'uspos/2160.bmp' width = '100%;'></div></div>","null","pos","CS","CS","4","category4/CS8.png","","","","",""
"","html-keyboard-response","52","247511","0.0-6.0-4.0-0.4","kdcueo0qoe","many_one","0","indirect_first","0","Hm06Er11","0","31","1","1","3","1","","0","1","0","null","","","<div class = 'row'><div class = 'column'><img src = 'uspos/8350.bmp' width = '100%;'></div><div class = 'column'><img src = 'category4/CS2.png' width = '70%;'></div></div>","null","pos","CS","CS","4","category4/CS2.png","","","","",""
"","html-keyboard-response","53","251510","0.0-6.0-4.0-0.5","kdcueo0qoe","many_one","0","indirect_first","0","Hm06Er11","0","31","1","1","3","1","","0","1","0","null","","","<div class = 'row'><div class = 'column'><img src = 'uspos/8080.bmp' width = '100%;'></div><div class = 'column'><img src = 'category4/CS3.png' width = '70%;'></div></div>","null","pos","CS","CS","4","category4/CS3.png","","","","",""
"","html-keyboard-response","54","255499","0.0-6.0-4.0-0.6","kdcueo0qoe","many_one","0","indirect_first","0","Hm06Er11","0","31","1","1","3","1","","0","1","0","null","","","<div class = 'row'><div class = 'column'><img src = 'category2/CS3.png' width = '70%;'></div><div class = 'column'><img src = 'usneg/9342.bmp' width = '100%;'></div></div>","null","neg","CS","CS","2","category2/CS3.png","","","","",""
"","html-keyboard-response","55","259513","0.0-6.0-4.0-0.7","kdcueo0qoe","many_one","0","indirect_first","0","Hm06Er11","0","31","1","1","3","1","","0","1","0","null","","","<div class = 'row'><div class = 'column'><img src = 'category1/CS4.png' width = '70%;'></div><div class = 'column'><img src = 'usneg/9041.bmp' width = '100%;'></div></div>","null","neg","CS","CS","1","category1/CS4.png","","","","",""
"","html-keyboard-response","56","263509","0.0-6.0-4.0-0.8","kdcueo0qoe","many_one","0","indirect_first","0","Hm06Er11","0","31","1","1","3","1","","0","1","0","null","","","<div class = 'row'><div class = 'column'><img src = 'category1/CS9.png' width = '70%;'></div><div class = 'column'><img src = 'usneg/9330.bmp' width = '100%;'></div></div>","null","neg","CS","CS","1","category1/CS9.png","","","","",""
"","html-keyboard-response","57","267509","0.0-6.0-4.0-0.9","kdcueo0qoe","many_one","0","indirect_first","0","Hm06Er11","0","31","1","1","3","1","","0","1","0","null","","","<div class = 'row'><div class = 'column'><img src = 'usneg/2750.bmp' width = '100%;'></div><div class = 'column'><img src = 'category2/CS5.png' width = '70%;'></div></div>","null","neg","CS","CS","2","category2/CS5.png","","","","",""
"","html-keyboard-response","58","271505","0.0-6.0-4.0-0.10","kdcueo0qoe","many_one","0","indirect_first","0","Hm06Er11","0","31","1","1","3","1","","0","1","0","null","","","<div class = 'row'><div class = 'column'><img src = 'category4/CS4.png' width = '70%;'></div><div class = 'column'><img src = 'uspos/1710.bmp' width = '100%;'></div></div>","null","pos","CS","CS","4","category4/CS4.png","","","","",""
"","html-keyboard-response","59","274507","0.0-6.0-4.0-0.11","kdcueo0qoe","many_one","0","indirect_first","0","Hm06Er11","0","31","1","1","3","1","","0","1","0","null","","","<div class = 'row'><div class = 'column'><img src = 'category2/CS1.png' width = '70%;'></div><div class = 'column'><img src = 'usneg/9560.bmp' width = '100%;'></div></div>","null","neg","CS","CS","2","category2/CS1.png","","","","",""
"","html-keyboard-response","60","277511","0.0-6.0-4.0-0.12","kdcueo0qoe","many_one","0","indirect_first","0","Hm06Er11","0","31","1","1","3","1","","0","1","0","null","","","<div class = 'row'><div class = 'column'><img src = 'uspos/5700.bmp' width = '100%;'></div><div class = 'column'><img src = 'category3/CS8.png' width = '70%;'></div></div>","null","pos","CS","CS","3","category3/CS8.png","","","","",""
"","html-keyboard-response","61","281509","0.0-6.0-4.0-0.13","kdcueo0qoe","many_one","0","indirect_first","0","Hm06Er11","0","31","1","1","3","1","","0","1","0","null","","","<div class = 'row'><div class = 'column'><img src = 'category4/CS5.png' width = '70%;'></div><div class = 'column'><img src = 'uspos/5470.bmp' width = '100%;'></div></div>","null","pos","CS","CS","4","category4/CS5.png","","","","",""
"","html-keyboard-response","62","285507","0.0-6.0-4.0-0.14","kdcueo0qoe","many_one","0","indirect_first","0","Hm06Er11","0","31","1","1","3","1","","0","1","0","null","","","<div class = 'row'><div class = 'column'><img src = 'uspos/2311.bmp' width = '100%;'></div><div class = 'column'><img src = 'category3/CS2.png' width = '70%;'></div></div>","null","pos","CS","CS","3","category3/CS2.png","","","","",""
"","html-keyboard-response","63","289509","0.0-6.0-4.0-0.15","kdcueo0qoe","many_one","0","indirect_first","0","Hm06Er11","0","31","1","1","3","1","","0","1","0","null","","","<div class = 'row'><div class = 'column'><img src = 'category2/CS10.png' width = '70%;'></div><div class = 'column'><img src = 'usneg/9920.bmp' width = '100%;'></div></div>","null","neg","CS","CS","2","category2/CS10.png","","","","",""
"","html-keyboard-response","64","293510","0.0-6.0-4.0-0.16","kdcueo0qoe","many_one","0","indirect_first","0","Hm06Er11","0","31","1","1","3","1","","0","1","0","null","","","<div class = 'row'><div class = 'column'><img src = 'usneg/2900.bmp' width = '100%;'></div><div class = 'column'><img src = 'category1/CS8.png' width = '70%;'></div></div>","null","neg","CS","CS","1","category1/CS8.png","","","","",""
"","html-keyboard-response","65","297511","0.0-6.0-4.0-0.17","kdcueo0qoe","many_one","0","indirect_first","0","Hm06Er11","0","31","1","1","3","1","","0","1","0","null","","","<div class = 'row'><div class = 'column'><img src = 'usneg/9290.bmp' width = '100%;'></div><div class = 'column'><img src = 'category1/CS2.png' width = '70%;'></div></div>","null","neg","CS","CS","1","category1/CS2.png","","","","",""
"","html-keyboard-response","66","301512","0.0-6.0-4.0-0.18","kdcueo0qoe","many_one","0","indirect_first","0","Hm06Er11","0","31","1","1","3","1","","0","1","0","null","","","<div class = 'row'><div class = 'column'><img src = 'category2/CS8.png' width = '70%;'></div><div class = 'column'><img src = 'usneg/2141.bmp' width = '100%;'></div></div>","null","neg","CS","CS","2","category2/CS8.png","","","","",""
"","html-keyboard-response","67","304430","0.0-6.0-4.0-0.19","kdcueo0qoe","many_one","0","indirect_first","0","Hm06Er11","0","31","1","1","3","1","","0","1","0","null","","","<div class = 'row'><div class = 'column'><img src = 'category3/CS3.png' width = '70%;'></div><div class = 'column'><img src = 'uspos/2208.bmp' width = '100%;'></div></div>","null","pos","CS","CS","3","category3/CS3.png","","","","",""
"","survey-html-form","68","337972","0.0-6.0-5.0","kdcueo0qoe","many_one","0","indirect_first","0","Hm06Er11","0","31","1","1","3","1","","0","1","0","33034.944999963045","","{}","","","","","","","","","","","",""
"","html-keyboard-response","69","342507","0.0-6.0-6.0-0.0","kdcueo0qoe","many_one","0","indirect_first","0","Hm06Er11","0","31","1","1","3","1","","0","1","0","null","","","<div class = 'row'><div class = 'column'><img src = 'category3/CS8.png' width = '70%;'></div><div class = 'column'><img src = 'uspos/5700.bmp' width = '100%;'></div></div>","null","pos","CS","CS","3","category3/CS8.png","","","","",""
"","html-keyboard-response","70","345529","0.0-6.0-6.0-0.1","kdcueo0qoe","many_one","0","indirect_first","0","Hm06Er11","0","31","1","1","3","1","","0","1","0","null","","","<div class = 'row'><div class = 'column'><img src = 'category1/CS8.png' width = '70%;'></div><div class = 'column'><img src = 'usneg/2900.bmp' width = '100%;'></div></div>","null","neg","CS","CS","1","category1/CS8.png","","","","",""
"","html-keyboard-response","71","348509","0.0-6.0-6.0-0.2","kdcueo0qoe","many_one","0","indirect_first","0","Hm06Er11","0","31","1","1","3","1","","0","1","0","null","","","<div class = 'row'><div class = 'column'><img src = 'usneg/9041.bmp' width = '100%;'></div><div class = 'column'><img src = 'category1/CS4.png' width = '70%;'></div></div>","null","neg","CS","CS","1","category1/CS4.png","","","","",""
"","html-keyboard-response","72","352510","0.0-6.0-6.0-0.3","kdcueo0qoe","many_one","0","indirect_first","0","Hm06Er11","0","31","1","1","3","1","","0","1","0","null","","","<div class = 'row'><div class = 'column'><img src = 'uspos/5470.bmp' width = '100%;'></div><div class = 'column'><img src = 'category4/CS5.png' width = '70%;'></div></div>","null","pos","CS","CS","4","category4/CS5.png","","","","",""
"","html-keyboard-response","73","356513","0.0-6.0-6.0-0.4","kdcueo0qoe","many_one","0","indirect_first","0","Hm06Er11","0","31","1","1","3","1","","0","1","0","null","","","<div class = 'row'><div class = 'column'><img src = 'category1/CS10.png' width = '70%;'></div><div class = 'column'><img src = 'usneg/6570.1.bmp' width = '100%;'></div></div>","null","neg","CS","CS","1","category1/CS10.png","","","","",""
"","html-keyboard-response","74","360499","0.0-6.0-6.0-0.5","kdcueo0qoe","many_one","0","indirect_first","0","Hm06Er11","0","31","1","1","3","1","","0","1","0","null","","","<div class = 'row'><div class = 'column'><img src = 'usneg/9290.bmp' width = '100%;'></div><div class = 'column'><img src = 'category1/CS2.png' width = '70%;'></div></div>","null","neg","CS","CS","1","category1/CS2.png","","","","",""
"","html-keyboard-response","75","364506","0.0-6.0-6.0-0.6","kdcueo0qoe","many_one","0","indirect_first","0","Hm06Er11","0","31","1","1","3","1","","0","1","0","null","","","<div class = 'row'><div class = 'column'><img src = 'category3/CS3.png' width = '70%;'></div><div class = 'column'><img src = 'uspos/2208.bmp' width = '100%;'></div></div>","null","pos","CS","CS","3","category3/CS3.png","","","","",""
"","html-keyboard-response","76","368500","0.0-6.0-6.0-0.7","kdcueo0qoe","many_one","0","indirect_first","0","Hm06Er11","0","31","1","1","3","1","","0","1","0","null","","","<div class = 'row'><div class = 'column'><img src = 'category2/CS8.png' width = '70%;'></div><div class = 'column'><img src = 'usneg/2141.bmp' width = '100%;'></div></div>","null","neg","CS","CS","2","category2/CS8.png","","","","",""
"","html-keyboard-response","77","372088","0.0-6.0-6.0-0.8","kdcueo0qoe","many_one","0","indirect_first","0","Hm06Er11","0","31","1","1","3","1","","0","1","0","null","","","<div class = 'row'><div class = 'column'><img src = 'uspos/2160.bmp' width = '100%;'></div><div class = 'column'><img src = 'category4/CS8.png' width = '70%;'></div></div>","null","pos","CS","CS","4","category4/CS8.png","","","","",""
"","html-keyboard-response","78","375500","0.0-6.0-6.0-0.9","kdcueo0qoe","many_one","0","indirect_first","0","Hm06Er11","0","31","1","1","3","1","","0","1","0","null","","","<div class = 'row'><div class = 'column'><img src = 'uspos/8190.bmp' width = '100%;'></div><div class = 'column'><img src = 'category3/CS9.png' width = '70%;'></div></div>","null","pos","CS","CS","3","category3/CS9.png","","","","",""
"","html-keyboard-response","79","379509","0.0-6.0-6.0-0.10","kdcueo0qoe","many_one","0","indirect_first","0","Hm06Er11","0","31","1","1","3","1","","0","1","0","null","","","<div class = 'row'><div class = 'column'><img src = 'category1/CS9.png' width = '70%;'></div><div class = 'column'><img src = 'usneg/9330.bmp' width = '100%;'></div></div>","null","neg","CS","CS","1","category1/CS9.png","","","","",""
"","html-keyboard-response","80","383504","0.0-6.0-6.0-0.11","kdcueo0qoe","many_one","0","indirect_first","0","Hm06Er11","0","31","1","1","3","1","","0","1","0","null","","","<div class = 'row'><div class = 'column'><img src = 'uspos/1463.bmp' width = '100%;'></div><div class = 'column'><img src = 'category3/CS4.png' width = '70%;'></div></div>","null","pos","CS","CS","3","category3/CS4.png","","","","",""
"","html-keyboard-response","81","387506","0.0-6.0-6.0-0.12","kdcueo0qoe","many_one","0","indirect_first","0","Hm06Er11","0","31","1","1","3","1","","0","1","0","null","","","<div class = 'row'><div class = 'column'><img src = 'category2/CS3.png' width = '70%;'></div><div class = 'column'><img src = 'usneg/9342.bmp' width = '100%;'></div></div>","null","neg","CS","CS","2","category2/CS3.png","","","","",""
"","html-keyboard-response","82","391505","0.0-6.0-6.0-0.13","kdcueo0qoe","many_one","0","indirect_first","0","Hm06Er11","0","31","1","1","3","1","","0","1","0","null","","","<div class = 'row'><div class = 'column'><img src = 'uspos/8350.bmp' width = '100%;'></div><div class = 'column'><img src = 'category4/CS2.png' width = '70%;'></div></div>","null","pos","CS","CS","4","category4/CS2.png","","","","",""
"","html-keyboard-response","83","395503","0.0-6.0-6.0-0.14","kdcueo0qoe","many_one","0","indirect_first","0","Hm06Er11","0","31","1","1","3","1","","0","1","0","null","","","<div class = 'row'><div class = 'column'><img src = 'category2/CS5.png' width = '70%;'></div><div class = 'column'><img src = 'usneg/2750.bmp' width = '100%;'></div></div>","null","neg","CS","CS","2","category2/CS5.png","","","","",""
"","html-keyboard-response","84","399500","0.0-6.0-6.0-0.15","kdcueo0qoe","many_one","0","indirect_first","0","Hm06Er11","0","31","1","1","3","1","","0","1","0","null","","","<div class = 'row'><div class = 'column'><img src = 'category3/CS2.png' width = '70%;'></div><div class = 'column'><img src = 'uspos/2311.bmp' width = '100%;'></div></div>","null","pos","CS","CS","3","category3/CS2.png","","","","",""
"","html-keyboard-response","85","403502","0.0-6.0-6.0-0.16","kdcueo0qoe","many_one","0","indirect_first","0","Hm06Er11","0","31","1","1","3","1","","0","1","0","null","","","<div class = 'row'><div class = 'column'><img src = 'uspos/1710.bmp' width = '100%;'></div><div class = 'column'><img src = 'category4/CS4.png' width = '70%;'></div></div>","null","pos","CS","CS","4","category4/CS4.png","","","","",""
"","html-keyboard-response","86","407514","0.0-6.0-6.0-0.17","kdcueo0qoe","many_one","0","indirect_first","0","Hm06Er11","0","31","1","1","3","1","","0","1","0","null","","","<div class = 'row'><div class = 'column'><img src = 'usneg/9920.bmp' width = '100%;'></div><div class = 'column'><img src = 'category2/CS10.png' width = '70%;'></div></div>","null","neg","CS","CS","2","category2/CS10.png","","","","",""
"","html-keyboard-response","87","411507","0.0-6.0-6.0-0.18","kdcueo0qoe","many_one","0","indirect_first","0","Hm06Er11","0","31","1","1","3","1","","0","1","0","null","","","<div class = 'row'><div class = 'column'><img src = 'uspos/8080.bmp' width = '100%;'></div><div class = 'column'><img src = 'category4/CS3.png' width = '70%;'></div></div>","null","pos","CS","CS","4","category4/CS3.png","","","","",""
"","html-keyboard-response","88","414502","0.0-6.0-6.0-0.19","kdcueo0qoe","many_one","0","indirect_first","0","Hm06Er11","0","31","1","1","3","1","","0","1","0","null","","","<div class = 'row'><div class = 'column'><img src = 'usneg/9560.bmp' width = '100%;'></div><div class = 'column'><img src = 'category2/CS1.png' width = '70%;'></div></div>","null","neg","CS","CS","2","category2/CS1.png","","","","",""
"","html-keyboard-response","89","429292","0.0-7.0","kdcueo0qoe","many_one","0","indirect_first","0","Hm06Er11","0","31","1","1","3","1","","0","1","0","14281.364999944344","","","<p>Sie sehen nun die chinesischen Zeichen nur ganz kurz. Danach sehen Sie die jeweilige Aussprache der Zeichen als Silbe auf dem Bildschrim. Ihre Aufgabe ist es, für jede Silbe anzugeben, ob diese etwas angenehmes, oder unangenehmes bedeuten könnte. Verlassen Sie sich hier vor allem auf Ihre Intuition.<br><br>Die Zeichen werden nur zur Orientierung dargestellt, beachten Sie sie deshalb nicht. Konzentrieren Sie sich vor allem auf die Silben. <br>Reagieren Sie mit folgenden zwei Tasten: <br><br><b>'D' </b> wenn die Silbe etwas <b>unangenehmes</b> bedeuten könnte. <br><b>'K'</b> wenn die Silbe etwas <b>angenehmes</b> bedeuten könnte. <br><br>Bitte legen Sie nun den Zeigefinger der linken Hand auf die Taste 'D' und den Zeigefinger der rechten Hand auf die Taste 'K'. <br>Reagieren Sie auf jede Silbe so schnell wie möglich. Uns interessiert Ihre spontane Reaktion. <br> <br> <br>Drücken Sie 'D' oder 'K', um die nächste Aufgabe zu starten. </p>","75","","","","","","","","","",""
"","html-keyboard-response","90","432309","0.0-8.0-0.0","kdcueo0qoe","many_one","0","indirect_first","0","Hm06Er11","0","31","1","1","3","1","","0","1","0","null","","","<div style=""font-size:60px;"">+</div>","null","","","","","","","","","",""
"","html-keyboard-response","91","432412","0.0-8.0-1.0","kdcueo0qoe","many_one","0","indirect_first","0","Hm06Er11","0","31","1","1","3","1","","0","1","0","null","","","<img src = 'category1/CS8.png' width = '100%;'>","null","","","","","","","","","",""
"","html-keyboard-response","92","432673","0.0-8.0-2.0","kdcueo0qoe","many_one","0","indirect_first","0","Hm06Er11","0","31","1","1","3","1","","0","1","0","null","","","<img src = 'targets/11.png' width = '100%;'>","null","","","","","","","","","",""
"","html-keyboard-response","93","435892","0.0-8.0-3.0","kdcueo0qoe","many_one","0","indirect_first","0","Hm06Er11","0","31","1","1","3","1","","0","1","0","3218.9650000073016","","","<img src = 'targets/mask.png' width = '100%;'>","68","neg","CS","CS","1","category1/CS8.png","targets/11.png","0","indirect","0",""
"","html-keyboard-response","94","437411","0.0-8.0-0.1","kdcueo0qoe","many_one","0","indirect_first","0","Hm06Er11","0","31","1","1","3","1","","0","1","0","null","","","<div style=""font-size:60px;"">+</div>","null","","","","","","","","","",""
"","html-keyboard-response","95","437506","0.0-8.0-1.1","kdcueo0qoe","many_one","0","indirect_first","0","Hm06Er11","0","31","1","1","3","1","","0","1","0","null","","","<img src = 'category2/CS5.png' width = '100%;'>","null","","","","","","","","","",""
"","html-keyboard-response","96","437776","0.0-8.0-2.1","kdcueo0qoe","many_one","0","indirect_first","0","Hm06Er11","0","31","1","1","3","1","","0","1","0","null","","","<img src = 'targets/23.png' width = '100%;'>","null","","","","","","","","","",""
"","html-keyboard-response","97","439868","0.0-8.0-3.1","kdcueo0qoe","many_one","0","indirect_first","0","Hm06Er11","0","31","1","1","3","1","","0","1","0","2091.6699999943376","","","<img src = 'targets/mask.png' width = '100%;'>","75","neg","CS","CS","2","category2/CS5.png","targets/23.png","1","indirect","1",""
"","html-keyboard-response","98","441371","0.0-8.0-0.2","kdcueo0qoe","many_one","0","indirect_first","0","Hm06Er11","0","31","1","1","3","1","","0","1","0","null","","","<div style=""font-size:60px;"">+</div>","null","","","","","","","","","",""
"","html-keyboard-response","99","441463","0.0-8.0-1.2","kdcueo0qoe","many_one","0","indirect_first","0","Hm06Er11","0","31","1","1","3","1","","0","1","0","null","","","<img src = 'category2/CS10.png' width = '100%;'>","null","","","","","","","","","",""
"","html-keyboard-response","100","441735","0.0-8.0-2.2","kdcueo0qoe","many_one","0","indirect_first","0","Hm06Er11","0","31","1","1","3","1","","0","1","0","null","","","<img src = 'targets/17.png' width = '100%;'>","null","","","","","","","","","",""
"","html-keyboard-response","101","442476","0.0-8.0-3.2","kdcueo0qoe","many_one","0","indirect_first","0","Hm06Er11","0","31","1","1","3","1","","0","1","0","741.0449997987598","","","<img src = 'targets/mask.png' width = '100%;'>","68","neg","CS","CS","2","category2/CS10.png","targets/17.png","0","indirect","2",""
"","html-keyboard-response","102","443982","0.0-8.0-0.3","kdcueo0qoe","many_one","0","indirect_first","0","Hm06Er11","0","31","1","1","3","1","","0","1","0","null","","","<div style=""font-size:60px;"">+</div>","null","","","","","","","","","",""
"","html-keyboard-response","103","444077","0.0-8.0-1.3","kdcueo0qoe","many_one","0","indirect_first","0","Hm06Er11","0","31","1","1","3","1","","0","1","0","null","","","<img src = 'category4/CS4.png' width = '100%;'>","null","","","","","","","","","",""
"","html-keyboard-response","104","444348","0.0-8.0-2.3","kdcueo0qoe","many_one","0","indirect_first","0","Hm06Er11","0","31","1","1","3","1","","0","1","0","null","","","<img src = 'targets/7.png' width = '100%;'>","null","","","","","","","","","",""
"","html-keyboard-response","105","445108","0.0-8.0-3.3","kdcueo0qoe","many_one","0","indirect_first","0","Hm06Er11","0","31","1","1","3","1","","0","1","0","759.8700001835823","","","<img src = 'targets/mask.png' width = '100%;'>","68","pos","CS","CS","4","category4/CS4.png","targets/7.png","0","indirect","3",""
"","html-keyboard-response","106","446624","0.0-8.0-0.4","kdcueo0qoe","many_one","0","indirect_first","0","Hm06Er11","0","31","1","1","3","1","","0","1","0","null","","","<div style=""font-size:60px;"">+</div>","null","","","","","","","","","",""
"","html-keyboard-response","107","446727","0.0-8.0-1.4","kdcueo0qoe","many_one","0","indirect_first","0","Hm06Er11","0","31","1","1","3","1","","0","1","0","null","","","<img src = 'category3/CS2.png' width = '100%;'>","null","","","","","","","","","",""
"","html-keyboard-response","108","446987","0.0-8.0-2.4","kdcueo0qoe","many_one","0","indirect_first","0","Hm06Er11","0","31","1","1","3","1","","0","1","0","null","","","<img src = 'targets/15.png' width = '100%;'>","null","","","","","","","","","",""
"","html-keyboard-response","109","447692","0.0-8.0-3.4","kdcueo0qoe","many_one","0","indirect_first","0","Hm06Er11","0","31","1","1","3","1","","0","1","0","704.1700000409037","","","<img src = 'targets/mask.png' width = '100%;'>","68","pos","CS","CS","3","category3/CS2.png","targets/15.png","0","indirect","4",""
"","html-keyboard-response","110","449214","0.0-8.0-0.5","kdcueo0qoe","many_one","0","indirect_first","0","Hm06Er11","0","31","1","1","3","1","","0","1","0","null","","","<div style=""font-size:60px;"">+</div>","null","","","","","","","","","",""
"","html-keyboard-response","111","449315","0.0-8.0-1.5","kdcueo0qoe","many_one","0","indirect_first","0","Hm06Er11","0","31","1","1","3","1","","0","1","0","null","","","<img src = 'category1/CS10.png' width = '100%;'>","null","","","","","","","","","",""
"","html-keyboard-response","112","449586","0.0-8.0-2.5","kdcueo0qoe","many_one","0","indirect_first","0","Hm06Er11","0","31","1","1","3","1","","0","1","0","null","","","<img src = 'targets/20.png' width = '100%;'>","null","","","","","","","","","",""
"","html-keyboard-response","113","450772","0.0-8.0-3.5","kdcueo0qoe","many_one","0","indirect_first","0","Hm06Er11","0","31","1","1","3","1","","0","1","0","1185.4499999899417","","","<img src = 'targets/mask.png' width = '100%;'>","75","neg","CS","CS","1","category1/CS10.png","targets/20.png","1","indirect","5",""
"","html-keyboard-response","114","452288","0.0-8.0-0.6","kdcueo0qoe","many_one","0","indirect_first","0","Hm06Er11","0","31","1","1","3","1","","0","1","0","null","","","<div style=""font-size:60px;"">+</div>","null","","","","","","","","","",""
"","html-keyboard-response","115","452394","0.0-8.0-1.6","kdcueo0qoe","many_one","0","indirect_first","0","Hm06Er11","0","31","1","1","3","1","","0","1","0","null","","","<img src = 'category4/CS3.png' width = '100%;'>","null","","","","","","","","","",""
"","html-keyboard-response","116","452665","0.0-8.0-2.6","kdcueo0qoe","many_one","0","indirect_first","0","Hm06Er11","0","31","1","1","3","1","","0","1","0","null","","","<img src = 'targets/19.png' width = '100%;'>","null","","","","","","","","","",""
"","html-keyboard-response","117","453188","0.0-8.0-3.6","kdcueo0qoe","many_one","0","indirect_first","0","Hm06Er11","0","31","1","1","3","1","","0","1","0","522.6650000549853","","","<img src = 'targets/mask.png' width = '100%;'>","75","pos","CS","CS","4","category4/CS3.png","targets/19.png","1","indirect","6",""
"","html-keyboard-response","118","454705","0.0-8.0-0.7","kdcueo0qoe","many_one","0","indirect_first","0","Hm06Er11","0","31","1","1","3","1","","0","1","0","null","","","<div style=""font-size:60px;"">+</div>","null","","","","","","","","","",""
"","html-keyboard-response","119","454806","0.0-8.0-1.7","kdcueo0qoe","many_one","0","indirect_first","0","Hm06Er11","0","31","1","1","3","1","","0","1","0","null","","","<img src = 'category4/CS8.png' width = '100%;'>","null","","","","","","","","","",""
"","html-keyboard-response","120","455076","0.0-8.0-2.7","kdcueo0qoe","many_one","0","indirect_first","0","Hm06Er11","0","31","1","1","3","1","","0","1","0","null","","","<img src = 'targets/25.png' width = '100%;'>","null","","","","","","","","","",""
"","html-keyboard-response","121","455644","0.0-8.0-3.7","kdcueo0qoe","many_one","0","indirect_first","0","Hm06Er11","0","31","1","1","3","1","","0","1","0","567.3199999146163","","","<img src = 'targets/mask.png' width = '100%;'>","75","pos","CS","CS","4","category4/CS8.png","targets/25.png","1","indirect","7",""
"","html-keyboard-response","122","457161","0.0-8.0-0.8","kdcueo0qoe","many_one","0","indirect_first","0","Hm06Er11","0","31","1","1","3","1","","0","1","0","null","","","<div style=""font-size:60px;"">+</div>","null","","","","","","","","","",""
"","html-keyboard-response","123","457259","0.0-8.0-1.8","kdcueo0qoe","many_one","0","indirect_first","0","Hm06Er11","0","31","1","1","3","1","","0","1","0","null","","","<img src = 'category3/CS3.png' width = '100%;'>","null","","","","","","","","","",""
"","html-keyboard-response","124","457530","0.0-8.0-2.8","kdcueo0qoe","many_one","0","indirect_first","0","Hm06Er11","0","31","1","1","3","1","","0","1","0","null","","","<img src = 'targets/13.png' width = '100%;'>","null","","","","","","","","","",""
"","html-keyboard-response","125","458332","0.0-8.0-3.8","kdcueo0qoe","many_one","0","indirect_first","0","Hm06Er11","0","31","1","1","3","1","","0","1","0","801.6200000420213","","","<img src = 'targets/mask.png' width = '100%;'>","68","pos","CS","CS","3","category3/CS3.png","targets/13.png","0","indirect","8",""
"","html-keyboard-response","126","459849","0.0-8.0-0.9","kdcueo0qoe","many_one","0","indirect_first","0","Hm06Er11","0","31","1","1","3","1","","0","1","0","null","","","<div style=""font-size:60px;"">+</div>","null","","","","","","","","","",""
"","html-keyboard-response","127","459950","0.0-8.0-1.9","kdcueo0qoe","many_one","0","indirect_first","0","Hm06Er11","0","31","1","1","3","1","","0","1","0","null","","","<img src = 'category3/CS8.png' width = '100%;'>","null","","","","","","","","","",""
"","html-keyboard-response","128","460222","0.0-8.0-2.9","kdcueo0qoe","many_one","0","indirect_first","0","Hm06Er11","0","31","1","1","3","1","","0","1","0","null","","","<img src = 'targets/41.png' width = '100%;'>","null","","","","","","","","","",""
"","html-keyboard-response","129","460740","0.0-8.0-3.9","kdcueo0qoe","many_one","0","indirect_first","0","Hm06Er11","0","31","1","1","3","1","","0","1","0","517.5000000745058","","","<img src = 'targets/mask.png' width = '100%;'>","68","pos","CS","CS","3","category3/CS8.png","targets/41.png","0","indirect","9",""
"","html-keyboard-response","130","462268","0.0-8.0-0.10","kdcueo0qoe","many_one","0","indirect_first","0","Hm06Er11","0","31","1","1","3","1","","0","1","0","null","","","<div style=""font-size:60px;"">+</div>","null","","","","","","","","","",""
"","html-keyboard-response","131","462363","0.0-8.0-1.10","kdcueo0qoe","many_one","0","indirect_first","0","Hm06Er11","0","31","1","1","3","1","","0","1","0","null","","","<img src = 'category4/CS10.png' width = '100%;'>","null","","","","","","","","","",""
"","html-keyboard-response","132","462635","0.0-8.0-2.10","kdcueo0qoe","many_one","0","indirect_first","0","Hm06Er11","0","31","1","1","3","1","","0","1","0","null","","","<img src = 'targets/12.png' width = '100%;'>","null","","","","","","","","","",""
"","html-keyboard-response","133","463988","0.0-8.0-3.10","kdcueo0qoe","many_one","0","indirect_first","0","Hm06Er11","0","31","1","1","3","1","","0","1","0","1353.1899999361485","","","<img src = 'targets/mask.png' width = '100%;'>","68","pos","GS","GSold","4","category4/CS10.png","targets/12.png","0","indirect","10",""
"","html-keyboard-response","134","465503","0.0-8.0-0.11","kdcueo0qoe","many_one","0","indirect_first","0","Hm06Er11","0","31","1","1","3","1","","0","1","0","null","","","<div style=""font-size:60px;"">+</div>","null","","","","","","","","","",""
"","html-keyboard-response","135","465602","0.0-8.0-1.11","kdcueo0qoe","many_one","0","indirect_first","0","Hm06Er11","0","31","1","1","3","1","","0","1","0","null","","","<img src = 'category1/CS2.png' width = '100%;'>","null","","","","","","","","","",""
"","html-keyboard-response","136","465873","0.0-8.0-2.11","kdcueo0qoe","many_one","0","indirect_first","0","Hm06Er11","0","31","1","1","3","1","","0","1","0","null","","","<img src = 'targets/14.png' width = '100%;'>","null","","","","","","","","","",""
"","html-keyboard-response","137","466788","0.0-8.0-3.11","kdcueo0qoe","many_one","0","indirect_first","0","Hm06Er11","0","31","1","1","3","1","","0","1","0","914.1100000124425","","","<img src = 'targets/mask.png' width = '100%;'>","75","neg","CS","CS","1","category1/CS2.png","targets/14.png","1","indirect","11",""
"","html-keyboard-response","138","468306","0.0-8.0-0.12","kdcueo0qoe","many_one","0","indirect_first","0","Hm06Er11","0","31","1","1","3","1","","0","1","0","null","","","<div style=""font-size:60px;"">+</div>","null","","","","","","","","","",""
"","html-keyboard-response","139","468397","0.0-8.0-1.12","kdcueo0qoe","many_one","0","indirect_first","0","Hm06Er11","0","31","1","1","3","1","","0","1","0","null","","","<img src = 'category4/CS2.png' width = '100%;'>","null","","","","","","","","","",""
"","html-keyboard-response","140","468659","0.0-8.0-2.12","kdcueo0qoe","many_one","0","indirect_first","0","Hm06Er11","0","31","1","1","3","1","","0","1","0","null","","","<img src = 'targets/27.png' width = '100%;'>","null","","","","","","","","","",""
"","html-keyboard-response","141","469244","0.0-8.0-3.12","kdcueo0qoe","many_one","0","indirect_first","0","Hm06Er11","0","31","1","1","3","1","","0","1","0","584.6150000579655","","","<img src = 'targets/mask.png' width = '100%;'>","68","pos","CS","CS","4","category4/CS2.png","targets/27.png","0","indirect","12",""
"","html-keyboard-response","142","470753","0.0-8.0-0.13","kdcueo0qoe","many_one","0","indirect_first","0","Hm06Er11","0","31","1","1","3","1","","0","1","0","null","","","<div style=""font-size:60px;"">+</div>","null","","","","","","","","","",""
"","html-keyboard-response","143","470854","0.0-8.0-1.13","kdcueo0qoe","many_one","0","indirect_first","0","Hm06Er11","0","31","1","1","3","1","","0","1","0","null","","","<img src = 'category1/CS9.png' width = '100%;'>","null","","","","","","","","","",""
"","html-keyboard-response","144","471125","0.0-8.0-2.13","kdcueo0qoe","many_one","0","indirect_first","0","Hm06Er11","0","31","1","1","3","1","","0","1","0","null","","","<img src = 'targets/5.png' width = '100%;'>","null","","","","","","","","","",""
"","html-keyboard-response","145","471572","0.0-8.0-3.13","kdcueo0qoe","many_one","0","indirect_first","0","Hm06Er11","0","31","1","1","3","1","","0","1","0","446.7450000811368","","","<img src = 'targets/mask.png' width = '100%;'>","68","neg","CS","CS","1","category1/CS9.png","targets/5.png","0","indirect","13",""
"","html-keyboard-response","146","473094","0.0-8.0-0.14","kdcueo0qoe","many_one","0","indirect_first","0","Hm06Er11","0","31","1","1","3","1","","0","1","0","null","","","<div style=""font-size:60px;"">+</div>","null","","","","","","","","","",""
"","html-keyboard-response","147","473197","0.0-8.0-1.14","kdcueo0qoe","many_one","0","indirect_first","0","Hm06Er11","0","31","1","1","3","1","","0","1","0","null","","","<img src = 'category2/CS2.png' width = '100%;'>","null","","","","","","","","","",""
"","html-keyboard-response","148","473457","0.0-8.0-2.14","kdcueo0qoe","many_one","0","indirect_first","0","Hm06Er11","0","31","1","1","3","1","","0","1","0","null","","","<img src = 'targets/38.png' width = '100%;'>","null","","","","","","","","","",""
"","html-keyboard-response","149","474028","0.0-8.0-3.14","kdcueo0qoe","many_one","0","indirect_first","0","Hm06Er11","0","31","1","1","3","1","","0","1","0","570.5699999816716","","","<img src = 'targets/mask.png' width = '100%;'>","68","neg","GS","GSold","2","category2/CS2.png","targets/38.png","0","indirect","14",""
"","html-keyboard-response","150","475537","0.0-8.0-0.15","kdcueo0qoe","many_one","0","indirect_first","0","Hm06Er11","0","31","1","1","3","1","","0","1","0","null","","","<div style=""font-size:60px;"">+</div>","null","","","","","","","","","",""
"","html-keyboard-response","151","475637","0.0-8.0-1.15","kdcueo0qoe","many_one","0","indirect_first","0","Hm06Er11","0","31","1","1","3","1","","0","1","0","null","","","<img src = 'category2/CS1.png' width = '100%;'>","null","","","","","","","","","",""
"","html-keyboard-response","152","475910","0.0-8.0-2.15","kdcueo0qoe","many_one","0","indirect_first","0","Hm06Er11","0","31","1","1","3","1","","0","1","0","null","","","<img src = 'targets/37.png' width = '100%;'>","null","","","","","","","","","",""
"","html-keyboard-response","153","476636","0.0-8.0-3.15","kdcueo0qoe","many_one","0","indirect_first","0","Hm06Er11","0","31","1","1","3","1","","0","1","0","725.1550001092255","","","<img src = 'targets/mask.png' width = '100%;'>","68","neg","CS","CS","2","category2/CS1.png","targets/37.png","0","indirect","15",""
"","html-keyboard-response","154","478152","0.0-8.0-0.16","kdcueo0qoe","many_one","0","indirect_first","0","Hm06Er11","0","31","1","1","3","1","","0","1","0","null","","","<div style=""font-size:60px;"">+</div>","null","","","","","","","","","",""
"","html-keyboard-response","155","478250","0.0-8.0-1.16","kdcueo0qoe","many_one","0","indirect_first","0","Hm06Er11","0","31","1","1","3","1","","0","1","0","null","","","<img src = 'category2/CS3.png' width = '100%;'>","null","","","","","","","","","",""
"","html-keyboard-response","156","478508","0.0-8.0-2.16","kdcueo0qoe","many_one","0","indirect_first","0","Hm06Er11","0","31","1","1","3","1","","0","1","0","null","","","<img src = 'targets/21.png' width = '100%;'>","null","","","","","","","","","",""
"","html-keyboard-response","157","479020","0.0-8.0-3.16","kdcueo0qoe","many_one","0","indirect_first","0","Hm06Er11","0","31","1","1","3","1","","0","1","0","511.45000010728836","","","<img src = 'targets/mask.png' width = '100%;'>","68","neg","CS","CS","2","category2/CS3.png","targets/21.png","0","indirect","16",""
"","html-keyboard-response","158","480534","0.0-8.0-0.17","kdcueo0qoe","many_one","0","indirect_first","0","Hm06Er11","0","31","1","1","3","1","","0","1","0","null","","","<div style=""font-size:60px;"">+</div>","null","","","","","","","","","",""
"","html-keyboard-response","159","480637","0.0-8.0-1.17","kdcueo0qoe","many_one","0","indirect_first","0","Hm06Er11","0","31","1","1","3","1","","0","1","0","null","","","<img src = 'category1/CS4.png' width = '100%;'>","null","","","","","","","","","",""
"","html-keyboard-response","160","480908","0.0-8.0-2.17","kdcueo0qoe","many_one","0","indirect_first","0","Hm06Er11","0","31","1","1","3","1","","0","1","0","null","","","<img src = 'targets/44.png' width = '100%;'>","null","","","","","","","","","",""
"","html-keyboard-response","161","481660","0.0-8.0-3.17","kdcueo0qoe","many_one","0","indirect_first","0","Hm06Er11","0","31","1","1","3","1","","0","1","0","751.9600000232458","","","<img src = 'targets/mask.png' width = '100%;'>","68","neg","CS","CS","1","category1/CS4.png","targets/44.png","0","indirect","17",""
"","html-keyboard-response","162","483182","0.0-8.0-0.18","kdcueo0qoe","many_one","0","indirect_first","0","Hm06Er11","0","31","1","1","3","1","","0","1","0","null","","","<div style=""font-size:60px;"">+</div>","null","","","","","","","","","",""
"","html-keyboard-response","163","483274","0.0-8.0-1.18","kdcueo0qoe","many_one","0","indirect_first","0","Hm06Er11","0","31","1","1","3","1","","0","1","0","null","","","<img src = 'category2/CS6.png' width = '100%;'>","null","","","","","","","","","",""
"","html-keyboard-response","164","483533","0.0-8.0-2.18","kdcueo0qoe","many_one","0","indirect_first","0","Hm06Er11","0","31","1","1","3","1","","0","1","0","null","","","<img src = 'targets/22.png' width = '100%;'>","null","","","","","","","","","",""
"","html-keyboard-response","165","483948","0.0-8.0-3.18","kdcueo0qoe","many_one","0","indirect_first","0","Hm06Er11","0","31","1","1","3","1","","0","1","0","414.09999993629754","","","<img src = 'targets/mask.png' width = '100%;'>","75","neg","GS","GSold","2","category2/CS6.png","targets/22.png","1","indirect","18",""
"","html-keyboard-response","166","485455","0.0-8.0-0.19","kdcueo0qoe","many_one","0","indirect_first","0","Hm06Er11","0","31","1","1","3","1","","0","1","0","null","","","<div style=""font-size:60px;"">+</div>","null","","","","","","","","","",""
"","html-keyboard-response","167","485555","0.0-8.0-1.19","kdcueo0qoe","many_one","0","indirect_first","0","Hm06Er11","0","31","1","1","3","1","","0","1","0","null","","","<img src = 'category3/CS9.png' width = '100%;'>","null","","","","","","","","","",""
"","html-keyboard-response","168","485812","0.0-8.0-2.19","kdcueo0qoe","many_one","0","indirect_first","0","Hm06Er11","0","31","1","1","3","1","","0","1","0","null","","","<img src = 'targets/16.png' width = '100%;'>","null","","","","","","","","","",""
"","html-keyboard-response","169","486164","0.0-8.0-3.19","kdcueo0qoe","many_one","0","indirect_first","0","Hm06Er11","0","31","1","1","3","1","","0","1","0","351.3950000051409","","","<img src = 'targets/mask.png' width = '100%;'>","75","pos","CS","CS","3","category3/CS9.png","targets/16.png","1","indirect","19",""
"","html-keyboard-response","170","487677","0.0-8.0-0.20","kdcueo0qoe","many_one","0","indirect_first","0","Hm06Er11","0","31","1","1","3","1","","0","1","0","null","","","<div style=""font-size:60px;"">+</div>","null","","","","","","","","","",""
"","html-keyboard-response","171","487779","0.0-8.0-1.20","kdcueo0qoe","many_one","0","indirect_first","0","Hm06Er11","0","31","1","1","3","1","","0","1","0","null","","","<img src = 'category4/CS5.png' width = '100%;'>","null","","","","","","","","","",""
"","html-keyboard-response","172","488052","0.0-8.0-2.20","kdcueo0qoe","many_one","0","indirect_first","0","Hm06Er11","0","31","1","1","3","1","","0","1","0","null","","","<img src = 'targets/48.png' width = '100%;'>","null","","","","","","","","","",""
"","html-keyboard-response","173","488396","0.0-8.0-3.20","kdcueo0qoe","many_one","0","indirect_first","0","Hm06Er11","0","31","1","1","3","1","","0","1","0","344.0000000409782","","","<img src = 'targets/mask.png' width = '100%;'>","68","pos","CS","CS","4","category4/CS5.png","targets/48.png","0","indirect","20",""
"","html-keyboard-response","174","489911","0.0-8.0-0.21","kdcueo0qoe","many_one","0","indirect_first","0","Hm06Er11","0","31","1","1","3","1","","0","1","0","null","","","<div style=""font-size:60px;"">+</div>","null","","","","","","","","","",""
"","html-keyboard-response","175","490006","0.0-8.0-1.21","kdcueo0qoe","many_one","0","indirect_first","0","Hm06Er11","0","31","1","1","3","1","","0","1","0","null","","","<img src = 'category2/CS8.png' width = '100%;'>","null","","","","","","","","","",""
"","html-keyboard-response","176","490277","0.0-8.0-2.21","kdcueo0qoe","many_one","0","indirect_first","0","Hm06Er11","0","31","1","1","3","1","","0","1","0","null","","","<img src = 'targets/33.png' width = '100%;'>","null","","","","","","","","","",""
"","html-keyboard-response","177","490724","0.0-8.0-3.21","kdcueo0qoe","many_one","0","indirect_first","0","Hm06Er11","0","31","1","1","3","1","","0","1","0","446.1499999742955","","","<img src = 'targets/mask.png' width = '100%;'>","68","neg","CS","CS","2","category2/CS8.png","targets/33.png","0","indirect","21",""
"","html-keyboard-response","178","492242","0.0-8.0-0.22","kdcueo0qoe","many_one","0","indirect_first","0","Hm06Er11","0","31","1","1","3","1","","0","1","0","null","","","<div style=""font-size:60px;"">+</div>","null","","","","","","","","","",""
"","html-keyboard-response","179","492338","0.0-8.0-1.22","kdcueo0qoe","many_one","0","indirect_first","0","Hm06Er11","0","31","1","1","3","1","","0","1","0","null","","","<img src = 'category3/CS4.png' width = '100%;'>","null","","","","","","","","","",""
"","html-keyboard-response","180","492597","0.0-8.0-2.22","kdcueo0qoe","many_one","0","indirect_first","0","Hm06Er11","0","31","1","1","3","1","","0","1","0","null","","","<img src = 'targets/24.png' width = '100%;'>","null","","","","","","","","","",""
"","html-keyboard-response","181","493068","0.0-8.0-3.22","kdcueo0qoe","many_one","0","indirect_first","0","Hm06Er11","0","31","1","1","3","1","","0","1","0","471.06499993242323","","","<img src = 'targets/mask.png' width = '100%;'>","68","pos","CS","CS","3","category3/CS4.png","targets/24.png","0","indirect","22",""
"","html-keyboard-response","182","494578","0.0-8.0-0.23","kdcueo0qoe","many_one","0","indirect_first","0","Hm06Er11","0","31","1","1","3","1","","0","1","0","null","","","<div style=""font-size:60px;"">+</div>","null","","","","","","","","","",""
"","html-keyboard-response","183","494684","0.0-8.0-1.23","kdcueo0qoe","many_one","0","indirect_first","0","Hm06Er11","0","31","1","1","3","1","","0","1","0","null","","","<img src = 'category2/CS9.png' width = '100%;'>","null","","","","","","","","","",""
"","html-keyboard-response","184","494956","0.0-8.0-2.23","kdcueo0qoe","many_one","0","indirect_first","0","Hm06Er11","0","31","1","1","3","1","","0","1","0","null","","","<img src = 'targets/32.png' width = '100%;'>","null","","","","","","","","","",""
"","html-keyboard-response","185","495380","0.0-8.0-3.23","kdcueo0qoe","many_one","0","indirect_first","0","Hm06Er11","0","31","1","1","3","1","","0","1","0","423.99999988265336","","","<img src = 'targets/mask.png' width = '100%;'>","75","neg","GS","GSold","2","category2/CS9.png","targets/32.png","1","indirect","23",""
"","survey-html-form","186","497892","0.0-9.0","kdcueo0qoe","many_one","0","indirect_first","0","Hm06Er11","0","31","1","1","3","1","","0","1","0","2001.0399997700006","","{}","","","","","","","","","","","",""
"","html-keyboard-response","187","500905","0.0-10.0-0.0","kdcueo0qoe","many_one","0","indirect_first","0","Hm06Er11","0","31","1","1","3","1","","0","1","0","null","","","<div style=""font-size:60px;"">+</div>","null","","","","","","","","","",""
"","html-keyboard-response","188","501001","0.0-10.0-1.0","kdcueo0qoe","many_one","0","indirect_first","0","Hm06Er11","0","31","1","1","3","1","","0","1","0","null","","","<img src = 'category1/CS3.png' width = '100%;'>","null","","","","","","","","","",""
"","html-keyboard-response","189","501273","0.0-10.0-2.0","kdcueo0qoe","many_one","0","indirect_first","0","Hm06Er11","0","31","1","1","3","1","","0","1","0","null","","","<img src = 'targets/39.png' width = '100%;'>","null","","","","","","","","","",""
"","html-keyboard-response","190","502628","0.0-10.0-3.0","kdcueo0qoe","many_one","0","indirect_first","0","Hm06Er11","0","31","1","1","3","1","","0","1","0","1353.8549998775125","","","<img src = 'targets/mask.png' width = '100%;'>","75","neg","GS","GSold","1","category1/CS3.png","targets/39.png","1","indirect","24",""
"","html-keyboard-response","191","504144","0.0-10.0-0.1","kdcueo0qoe","many_one","0","indirect_first","0","Hm06Er11","0","31","1","1","3","1","","0","1","0","null","","","<div style=""font-size:60px;"">+</div>","null","","","","","","","","","",""
"","html-keyboard-response","192","504240","0.0-10.0-1.1","kdcueo0qoe","many_one","0","indirect_first","0","Hm06Er11","0","31","1","1","3","1","","0","1","0","null","","","<img src = 'category3/CS7.png' width = '100%;'>","null","","","","","","","","","",""
"","html-keyboard-response","193","504512","0.0-10.0-2.1","kdcueo0qoe","many_one","0","indirect_first","0","Hm06Er11","0","31","1","1","3","1","","0","1","0","null","","","<img src = 'targets/46.png' width = '100%;'>","null","","","","","","","","","",""
"","html-keyboard-response","194","505100","0.0-10.0-3.1","kdcueo0qoe","many_one","0","indirect_first","0","Hm06Er11","0","31","1","1","3","1","","0","1","0","587.3149998951703","","","<img src = 'targets/mask.png' width = '100%;'>","75","pos","GS","GSold","3","category3/CS7.png","targets/46.png","1","indirect","25",""
"","html-keyboard-response","195","506606","0.0-10.0-0.2","kdcueo0qoe","many_one","0","indirect_first","0","Hm06Er11","0","31","1","1","3","1","","0","1","0","null","","","<div style=""font-size:60px;"">+</div>","null","","","","","","","","","",""
"","html-keyboard-response","196","506705","0.0-10.0-1.2","kdcueo0qoe","many_one","0","indirect_first","0","Hm06Er11","0","31","1","1","3","1","","0","1","0","null","","","<img src = 'category4/CS7.png' width = '100%;'>","null","","","","","","","","","",""
"","html-keyboard-response","197","506964","0.0-10.0-2.2","kdcueo0qoe","many_one","0","indirect_first","0","Hm06Er11","0","31","1","1","3","1","","0","1","0","null","","","<img src = 'targets/1.png' width = '100%;'>","null","","","","","","","","","",""
"","html-keyboard-response","198","507436","0.0-10.0-3.2","kdcueo0qoe","many_one","0","indirect_first","0","Hm06Er11","0","31","1","1","3","1","","0","1","0","471.2450001388788","","","<img src = 'targets/mask.png' width = '100%;'>","68","pos","GS","GSold","4","category4/CS7.png","targets/1.png","0","indirect","26",""
"","html-keyboard-response","199","508953","0.0-10.0-0.3","kdcueo0qoe","many_one","0","indirect_first","0","Hm06Er11","0","31","1","1","3","1","","0","1","0","null","","","<div style=""font-size:60px;"">+</div>","null","","","","","","","","","",""
"","html-keyboard-response","200","509052","0.0-10.0-1.3","kdcueo0qoe","many_one","0","indirect_first","0","Hm06Er11","0","31","1","1","3","1","","0","1","0","null","","","<img src = 'category1/GS1.png' width = '100%;'>","null","","","","","","","","","",""
"","html-keyboard-response","201","509322","0.0-10.0-2.3","kdcueo0qoe","many_one","0","indirect_first","0","Hm06Er11","0","31","1","1","3","1","","0","1","0","null","","","<img src = 'targets/40.png' width = '100%;'>","null","","","","","","","","","",""
"","html-keyboard-response","202","509684","0.0-10.0-3.3","kdcueo0qoe","many_one","0","indirect_first","0","Hm06Er11","0","31","1","1","3","1","","0","1","0","361.5200000349432","","","<img src = 'targets/mask.png' width = '100%;'>","68","neg","GS","GSnew","1","category1/GS1.png","targets/40.png","0","indirect","27",""
"","html-keyboard-response","203","511199","0.0-10.0-0.4","kdcueo0qoe","many_one","0","indirect_first","0","Hm06Er11","0","31","1","1","3","1","","0","1","0","null","","","<div style=""font-size:60px;"">+</div>","null","","","","","","","","","",""
"","html-keyboard-response","204","511303","0.0-10.0-1.4","kdcueo0qoe","many_one","0","indirect_first","0","Hm06Er11","0","31","1","1","3","1","","0","1","0","null","","","<img src = 'category4/GS2.png' width = '100%;'>","null","","","","","","","","","",""
"","html-keyboard-response","205","511562","0.0-10.0-2.4","kdcueo0qoe","many_one","0","indirect_first","0","Hm06Er11","0","31","1","1","3","1","","0","1","0","null","","","<img src = 'targets/42.png' width = '100%;'>","null","","","","","","","","","",""
"","html-keyboard-response","206","512572","0.0-10.0-3.4","kdcueo0qoe","many_one","0","indirect_first","0","Hm06Er11","0","31","1","1","3","1","","0","1","0","1009.1250000987202","","","<img src = 'targets/mask.png' width = '100%;'>","68","pos","GS","GSnew","4","category4/GS2.png","targets/42.png","0","indirect","28",""
"","html-keyboard-response","207","514088","0.0-10.0-0.5","kdcueo0qoe","many_one","0","indirect_first","0","Hm06Er11","0","31","1","1","3","1","","0","1","0","null","","","<div style=""font-size:60px;"">+</div>","null","","","","","","","","","",""
"","html-keyboard-response","208","514184","0.0-10.0-1.5","kdcueo0qoe","many_one","0","indirect_first","0","Hm06Er11","0","31","1","1","3","1","","0","1","0","null","","","<img src = 'category2/men.png' width = '100%;'>","null","","","","","","","","","",""
"","html-keyboard-response","209","514440","0.0-10.0-2.5","kdcueo0qoe","many_one","0","indirect_first","0","Hm06Er11","0","31","1","1","3","1","","0","1","0","null","","","<img src = 'targets/26.png' width = '100%;'>","null","","","","","","","","","",""
"","html-keyboard-response","210","515420","0.0-10.0-3.5","kdcueo0qoe","many_one","0","indirect_first","0","Hm06Er11","0","31","1","1","3","1","","0","1","0","979.2300001718104","","","<img src = 'targets/mask.png' width = '100%;'>","68","neg","GS","abstract","2","category2/men.png","targets/26.png","0","indirect","29",""
"","html-keyboard-response","211","516929","0.0-10.0-0.6","kdcueo0qoe","many_one","0","indirect_first","0","Hm06Er11","0","31","1","1","3","1","","0","1","0","null","","","<div style=""font-size:60px;"">+</div>","null","","","","","","","","","",""
"","html-keyboard-response","212","517021","0.0-10.0-1.6","kdcueo0qoe","many_one","0","indirect_first","0","Hm06Er11","0","31","1","1","3","1","","0","1","0","null","","","<img src = 'category2/GS2.png' width = '100%;'>","null","","","","","","","","","",""
"","html-keyboard-response","213","517280","0.0-10.0-2.6","kdcueo0qoe","many_one","0","indirect_first","0","Hm06Er11","0","31","1","1","3","1","","0","1","0","null","","","<img src = 'targets/18.png' width = '100%;'>","null","","","","","","","","","",""
"","html-keyboard-response","214","517660","0.0-10.0-3.6","kdcueo0qoe","many_one","0","indirect_first","0","Hm06Er11","0","31","1","1","3","1","","0","1","0","379.5199999585748","","","<img src = 'targets/mask.png' width = '100%;'>","68","neg","GS","GSnew","2","category2/GS2.png","targets/18.png","0","indirect","30",""
"","html-keyboard-response","215","519179","0.0-10.0-0.7","kdcueo0qoe","many_one","0","indirect_first","0","Hm06Er11","0","31","1","1","3","1","","0","1","0","null","","","<div style=""font-size:60px;"">+</div>","null","","","","","","","","","",""
"","html-keyboard-response","216","519283","0.0-10.0-1.7","kdcueo0qoe","many_one","0","indirect_first","0","Hm06Er11","0","31","1","1","3","1","","0","1","0","null","","","<img src = 'category4/lin.png' width = '100%;'>","null","","","","","","","","","",""
"","html-keyboard-response","217","519546","0.0-10.0-2.7","kdcueo0qoe","many_one","0","indirect_first","0","Hm06Er11","0","31","1","1","3","1","","0","1","0","null","","","<img src = 'targets/8.png' width = '100%;'>","null","","","","","","","","","",""
"","html-keyboard-response","218","520277","0.0-10.0-3.7","kdcueo0qoe","many_one","0","indirect_first","0","Hm06Er11","0","31","1","1","3","1","","0","1","0","737.4549999367446","","","<img src = 'targets/mask.png' width = '100%;'>","68","pos","GS","abstract","4","category4/lin.png","targets/8.png","0","indirect","31",""
"","html-keyboard-response","219","521795","0.0-10.0-0.8","kdcueo0qoe","many_one","0","indirect_first","0","Hm06Er11","0","31","1","1","3","1","","0","1","0","null","","","<div style=""font-size:60px;"">+</div>","null","","","","","","","","","",""
"","html-keyboard-response","220","521893","0.0-10.0-1.8","kdcueo0qoe","many_one","0","indirect_first","0","Hm06Er11","0","31","1","1","3","1","","0","1","0","null","","","<img src = 'category4/GS3.png' width = '100%;'>","null","","","","","","","","","",""
"","html-keyboard-response","221","522164","0.0-10.0-2.8","kdcueo0qoe","many_one","0","indirect_first","0","Hm06Er11","0","31","1","1","3","1","","0","1","0","null","","","<img src = 'targets/31.png' width = '100%;'>","null","","","","","","","","","",""
"","html-keyboard-response","222","522453","0.0-10.0-3.8","kdcueo0qoe","many_one","0","indirect_first","0","Hm06Er11","0","31","1","1","3","1","","0","1","0","287.3749998398125","","","<img src = 'targets/mask.png' width = '100%;'>","68","pos","GS","GSnew","4","category4/GS3.png","targets/31.png","0","indirect","32",""
"","html-keyboard-response","223","523964","0.0-10.0-0.9","kdcueo0qoe","many_one","0","indirect_first","0","Hm06Er11","0","31","1","1","3","1","","0","1","0","null","","","<div style=""font-size:60px;"">+</div>","null","","","","","","","","","",""
"","html-keyboard-response","224","524066","0.0-10.0-1.9","kdcueo0qoe","many_one","0","indirect_first","0","Hm06Er11","0","31","1","1","3","1","","0","1","0","null","","","<img src = 'category3/GS1.png' width = '100%;'>","null","","","","","","","","","",""
"","html-keyboard-response","225","524322","0.0-10.0-2.9","kdcueo0qoe","many_one","0","indirect_first","0","Hm06Er11","0","31","1","1","3","1","","0","1","0","null","","","<img src = 'targets/47.png' width = '100%;'>","null","","","","","","","","","",""
"","html-keyboard-response","226","524765","0.0-10.0-3.9","kdcueo0qoe","many_one","0","indirect_first","0","Hm06Er11","0","31","1","1","3","1","","0","1","0","441.56499998643994","","","<img src = 'targets/mask.png' width = '100%;'>","68","pos","GS","GSnew","3","category3/GS1.png","targets/47.png","0","indirect","33",""
"","html-keyboard-response","227","526284","0.0-10.0-0.10","kdcueo0qoe","many_one","0","indirect_first","0","Hm06Er11","0","31","1","1","3","1","","0","1","0","null","","","<div style=""font-size:60px;"">+</div>","null","","","","","","","","","",""
"","html-keyboard-response","228","526384","0.0-10.0-1.10","kdcueo0qoe","many_one","0","indirect_first","0","Hm06Er11","0","31","1","1","3","1","","0","1","0","null","","","<img src = 'category1/GS3.png' width = '100%;'>","null","","","","","","","","","",""
"","html-keyboard-response","229","526643","0.0-10.0-2.10","kdcueo0qoe","many_one","0","indirect_first","0","Hm06Er11","0","31","1","1","3","1","","0","1","0","null","","","<img src = 'targets/9.png' width = '100%;'>","null","","","","","","","","","",""
"","html-keyboard-response","230","526877","0.0-10.0-3.10","kdcueo0qoe","many_one","0","indirect_first","0","Hm06Er11","0","31","1","1","3","1","","0","1","0","232.96499997377396","","","<img src = 'targets/mask.png' width = '100%;'>","68","neg","GS","GSnew","1","category1/GS3.png","targets/9.png","0","indirect","34",""
"","html-keyboard-response","231","528385","0.0-10.0-0.11","kdcueo0qoe","many_one","0","indirect_first","0","Hm06Er11","0","31","1","1","3","1","","0","1","0","null","","","<div style=""font-size:60px;"">+</div>","null","","","","","","","","","",""
"","html-keyboard-response","232","528488","0.0-10.0-1.11","kdcueo0qoe","many_one","0","indirect_first","0","Hm06Er11","0","31","1","1","3","1","","0","1","0","null","","","<img src = 'category1/CS6.png' width = '100%;'>","null","","","","","","","","","",""
"","html-keyboard-response","233","528747","0.0-10.0-2.11","kdcueo0qoe","many_one","0","indirect_first","0","Hm06Er11","0","31","1","1","3","1","","0","1","0","null","","","<img src = 'targets/28.png' width = '100%;'>","null","","","","","","","","","",""
"","html-keyboard-response","234","529069","0.0-10.0-3.11","kdcueo0qoe","many_one","0","indirect_first","0","Hm06Er11","0","31","1","1","3","1","","0","1","0","320.57500001974404","","","<img src = 'targets/mask.png' width = '100%;'>","68","neg","GS","GSold","1","category1/CS6.png","targets/28.png","0","indirect","35",""
"","html-keyboard-response","235","530591","0.0-10.0-0.12","kdcueo0qoe","many_one","0","indirect_first","0","Hm06Er11","0","31","1","1","3","1","","0","1","0","null","","","<div style=""font-size:60px;"">+</div>","null","","","","","","","","","",""
"","html-keyboard-response","236","530689","0.0-10.0-1.12","kdcueo0qoe","many_one","0","indirect_first","0","Hm06Er11","0","31","1","1","3","1","","0","1","0","null","","","<img src = 'category3/GS3.png' width = '100%;'>","null","","","","","","","","","",""
"","html-keyboard-response","237","530960","0.0-10.0-2.12","kdcueo0qoe","many_one","0","indirect_first","0","Hm06Er11","0","31","1","1","3","1","","0","1","0","null","","","<img src = 'targets/34.png' width = '100%;'>","null","","","","","","","","","",""
"","html-keyboard-response","238","531221","0.0-10.0-3.12","kdcueo0qoe","many_one","0","indirect_first","0","Hm06Er11","0","31","1","1","3","1","","0","1","0","260.4099998716265","","","<img src = 'targets/mask.png' width = '100%;'>","75","pos","GS","GSnew","3","category3/GS3.png","targets/34.png","1","indirect","36",""
"","html-keyboard-response","239","532740","0.0-10.0-0.13","kdcueo0qoe","many_one","0","indirect_first","0","Hm06Er11","0","31","1","1","3","1","","0","1","0","null","","","<div style=""font-size:60px;"">+</div>","null","","","","","","","","","",""
"","html-keyboard-response","240","532836","0.0-10.0-1.13","kdcueo0qoe","many_one","0","indirect_first","0","Hm06Er11","0","31","1","1","3","1","","0","1","0","null","","","<img src = 'category4/GS1.png' width = '100%;'>","null","","","","","","","","","",""
"","html-keyboard-response","241","533101","0.0-10.0-2.13","kdcueo0qoe","many_one","0","indirect_first","0","Hm06Er11","0","31","1","1","3","1","","0","1","0","null","","","<img src = 'targets/10.png' width = '100%;'>","null","","","","","","","","","",""
"","html-keyboard-response","242","533525","0.0-10.0-3.13","kdcueo0qoe","many_one","0","indirect_first","0","Hm06Er11","0","31","1","1","3","1","","0","1","0","423.47000003792346","","","<img src = 'targets/mask.png' width = '100%;'>","68","pos","GS","GSnew","4","category4/GS1.png","targets/10.png","0","indirect","37",""
"","html-keyboard-response","243","535033","0.0-10.0-0.14","kdcueo0qoe","many_one","0","indirect_first","0","Hm06Er11","0","31","1","1","3","1","","0","1","0","null","","","<div style=""font-size:60px;"">+</div>","null","","","","","","","","","",""
"","html-keyboard-response","244","535128","0.0-10.0-1.14","kdcueo0qoe","many_one","0","indirect_first","0","Hm06Er11","0","31","1","1","3","1","","0","1","0","null","","","<img src = 'category1/CS1.png' width = '100%;'>","null","","","","","","","","","",""
"","html-keyboard-response","245","535392","0.0-10.0-2.14","kdcueo0qoe","many_one","0","indirect_first","0","Hm06Er11","0","31","1","1","3","1","","0","1","0","null","","","<img src = 'targets/4.png' width = '100%;'>","null","","","","","","","","","",""
"","html-keyboard-response","246","535845","0.0-10.0-3.14","kdcueo0qoe","many_one","0","indirect_first","0","Hm06Er11","0","31","1","1","3","1","","0","1","0","451.71499997377396","","","<img src = 'targets/mask.png' width = '100%;'>","68","neg","GS","GSold","1","category1/CS1.png","targets/4.png","0","indirect","38",""
"","html-keyboard-response","247","537359","0.0-10.0-0.15","kdcueo0qoe","many_one","0","indirect_first","0","Hm06Er11","0","31","1","1","3","1","","0","1","0","null","","","<div style=""font-size:60px;"">+</div>","null","","","","","","","","","",""
"","html-keyboard-response","248","537461","0.0-10.0-1.15","kdcueo0qoe","many_one","0","indirect_first","0","Hm06Er11","0","31","1","1","3","1","","0","1","0","null","","","<img src = 'category2/GS3.png' width = '100%;'>","null","","","","","","","","","",""
"","html-keyboard-response","249","537732","0.0-10.0-2.15","kdcueo0qoe","many_one","0","indirect_first","0","Hm06Er11","0","31","1","1","3","1","","0","1","0","null","","","<img src = 'targets/45.png' width = '100%;'>","null","","","","","","","","","",""
"","html-keyboard-response","250","538533","0.0-10.0-3.15","kdcueo0qoe","many_one","0","indirect_first","0","Hm06Er11","0","31","1","1","3","1","","0","1","0","799.9449998605996","","","<img src = 'targets/mask.png' width = '100%;'>","68","neg","GS","GSnew","2","category2/GS3.png","targets/45.png","0","indirect","39",""
"","html-keyboard-response","251","540038","0.0-10.0-0.16","kdcueo0qoe","many_one","0","indirect_first","0","Hm06Er11","0","31","1","1","3","1","","0","1","0","null","","","<div style=""font-size:60px;"">+</div>","null","","","","","","","","","",""
"","html-keyboard-response","252","540138","0.0-10.0-1.16","kdcueo0qoe","many_one","0","indirect_first","0","Hm06Er11","0","31","1","1","3","1","","0","1","0","null","","","<img src = 'category1/GS2.png' width = '100%;'>","null","","","","","","","","","",""
"","html-keyboard-response","253","540398","0.0-10.0-2.16","kdcueo0qoe","many_one","0","indirect_first","0","Hm06Er11","0","31","1","1","3","1","","0","1","0","null","","","<img src = 'targets/30.png' width = '100%;'>","null","","","","","","","","","",""
"","html-keyboard-response","254","540861","0.0-10.0-3.16","kdcueo0qoe","many_one","0","indirect_first","0","Hm06Er11","0","31","1","1","3","1","","0","1","0","462.4649998731911","","","<img src = 'targets/mask.png' width = '100%;'>","75","neg","GS","GSnew","1","category1/GS2.png","targets/30.png","1","indirect","40",""
"","html-keyboard-response","255","542370","0.0-10.0-0.17","kdcueo0qoe","many_one","0","indirect_first","0","Hm06Er11","0","31","1","1","3","1","","0","1","0","null","","","<div style=""font-size:60px;"">+</div>","null","","","","","","","","","",""
"","html-keyboard-response","256","542471","0.0-10.0-1.17","kdcueo0qoe","many_one","0","indirect_first","0","Hm06Er11","0","31","1","1","3","1","","0","1","0","null","","","<img src = 'category1/ma.png' width = '100%;'>","null","","","","","","","","","",""
"","html-keyboard-response","257","542730","0.0-10.0-2.17","kdcueo0qoe","many_one","0","indirect_first","0","Hm06Er11","0","31","1","1","3","1","","0","1","0","null","","","<img src = 'targets/29.png' width = '100%;'>","null","","","","","","","","","",""
"","html-keyboard-response","258","543533","0.0-10.0-3.17","kdcueo0qoe","many_one","0","indirect_first","0","Hm06Er11","0","31","1","1","3","1","","0","1","0","802.214999916032","","","<img src = 'targets/mask.png' width = '100%;'>","68","neg","GS","abstract","1","category1/ma.png","targets/29.png","0","indirect","41",""
"","html-keyboard-response","259","545056","0.0-10.0-0.18","kdcueo0qoe","many_one","0","indirect_first","0","Hm06Er11","0","31","1","1","3","1","","0","1","0","null","","","<div style=""font-size:60px;"">+</div>","null","","","","","","","","","",""
"","html-keyboard-response","260","545151","0.0-10.0-1.18","kdcueo0qoe","many_one","0","indirect_first","0","Hm06Er11","0","31","1","1","3","1","","0","1","0","null","","","<img src = 'category3/CS5.png' width = '100%;'>","null","","","","","","","","","",""
"","html-keyboard-response","261","545409","0.0-10.0-2.18","kdcueo0qoe","many_one","0","indirect_first","0","Hm06Er11","0","31","1","1","3","1","","0","1","0","null","","","<img src = 'targets/3.png' width = '100%;'>","null","","","","","","","","","",""
"","html-keyboard-response","262","545853","0.0-10.0-3.18","kdcueo0qoe","many_one","0","indirect_first","0","Hm06Er11","0","31","1","1","3","1","","0","1","0","443.1199999526143","","","<img src = 'targets/mask.png' width = '100%;'>","75","pos","GS","GSold","3","category3/CS5.png","targets/3.png","1","indirect","42",""
"","html-keyboard-response","263","547363","0.0-10.0-0.19","kdcueo0qoe","many_one","0","indirect_first","0","Hm06Er11","0","31","1","1","3","1","","0","1","0","null","","","<div style=""font-size:60px;"">+</div>","null","","","","","","","","","",""
"","html-keyboard-response","264","547458","0.0-10.0-1.19","kdcueo0qoe","many_one","0","indirect_first","0","Hm06Er11","0","31","1","1","3","1","","0","1","0","null","","","<img src = 'category4/CS9.png' width = '100%;'>","null","","","","","","","","","",""
"","html-keyboard-response","265","547728","0.0-10.0-2.19","kdcueo0qoe","many_one","0","indirect_first","0","Hm06Er11","0","31","1","1","3","1","","0","1","0","null","","","<img src = 'targets/36.png' width = '100%;'>","null","","","","","","","","","",""
"","html-keyboard-response","266","548093","0.0-10.0-3.19","kdcueo0qoe","many_one","0","indirect_first","0","Hm06Er11","0","31","1","1","3","1","","0","1","0","363.7200000230223","","","<img src = 'targets/mask.png' width = '100%;'>","68","pos","GS","GSold","4","category4/CS9.png","targets/36.png","0","indirect","43",""
"","html-keyboard-response","267","549594","0.0-10.0-0.20","kdcueo0qoe","many_one","0","indirect_first","0","Hm06Er11","0","31","1","1","3","1","","0","1","0","null","","","<div style=""font-size:60px;"">+</div>","null","","","","","","","","","",""
"","html-keyboard-response","268","549696","0.0-10.0-1.20","kdcueo0qoe","many_one","0","indirect_first","0","Hm06Er11","0","31","1","1","3","1","","0","1","0","null","","","<img src = 'category2/GS1.png' width = '100%;'>","null","","","","","","","","","",""
"","html-keyboard-response","269","549965","0.0-10.0-2.20","kdcueo0qoe","many_one","0","indirect_first","0","Hm06Er11","0","31","1","1","3","1","","0","1","0","null","","","<img src = 'targets/35.png' width = '100%;'>","null","","","","","","","","","",""
"","html-keyboard-response","270","550244","0.0-10.0-3.20","kdcueo0qoe","many_one","0","indirect_first","0","Hm06Er11","0","31","1","1","3","1","","0","1","0","278.3949999138713","","","<img src = 'targets/mask.png' width = '100%;'>","68","neg","GS","GSnew","2","category2/GS1.png","targets/35.png","0","indirect","44",""
"","html-keyboard-response","271","551769","0.0-10.0-0.21","kdcueo0qoe","many_one","0","indirect_first","0","Hm06Er11","0","31","1","1","3","1","","0","1","0","null","","","<div style=""font-size:60px;"">+</div>","null","","","","","","","","","",""
"","html-keyboard-response","272","551862","0.0-10.0-1.21","kdcueo0qoe","many_one","0","indirect_first","0","Hm06Er11","0","31","1","1","3","1","","0","1","0","null","","","<img src = 'category3/wang.png' width = '100%;'>","null","","","","","","","","","",""
"","html-keyboard-response","273","552126","0.0-10.0-2.21","kdcueo0qoe","many_one","0","indirect_first","0","Hm06Er11","0","31","1","1","3","1","","0","1","0","null","","","<img src = 'targets/6.png' width = '100%;'>","null","","","","","","","","","",""
"","html-keyboard-response","274","553013","0.0-10.0-3.21","kdcueo0qoe","many_one","0","indirect_first","0","Hm06Er11","0","31","1","1","3","1","","0","1","0","885.5850000400096","","","<img src = 'targets/mask.png' width = '100%;'>","75","pos","GS","abstract","3","category3/wang.png","targets/6.png","1","indirect","45",""
"","html-keyboard-response","275","554526","0.0-10.0-0.22","kdcueo0qoe","many_one","0","indirect_first","0","Hm06Er11","0","31","1","1","3","1","","0","1","0","null","","","<div style=""font-size:60px;"">+</div>","null","","","","","","","","","",""
"","html-keyboard-response","276","554628","0.0-10.0-1.22","kdcueo0qoe","many_one","0","indirect_first","0","Hm06Er11","0","31","1","1","3","1","","0","1","0","null","","","<img src = 'category3/GS2.png' width = '100%;'>","null","","","","","","","","","",""
"","html-keyboard-response","277","554899","0.0-10.0-2.22","kdcueo0qoe","many_one","0","indirect_first","0","Hm06Er11","0","31","1","1","3","1","","0","1","0","null","","","<img src = 'targets/43.png' width = '100%;'>","null","","","","","","","","","",""
"","html-keyboard-response","278","555597","0.0-10.0-3.22","kdcueo0qoe","many_one","0","indirect_first","0","Hm06Er11","0","31","1","1","3","1","","0","1","0","697.6450001820922","","","<img src = 'targets/mask.png' width = '100%;'>","68","pos","GS","GSnew","3","category3/GS2.png","targets/43.png","0","indirect","46",""
"","html-keyboard-response","279","557113","0.0-10.0-0.23","kdcueo0qoe","many_one","0","indirect_first","0","Hm06Er11","0","31","1","1","3","1","","0","1","0","null","","","<div style=""font-size:60px;"">+</div>","null","","","","","","","","","",""
"","html-keyboard-response","280","557213","0.0-10.0-1.23","kdcueo0qoe","many_one","0","indirect_first","0","Hm06Er11","0","31","1","1","3","1","","0","1","0","null","","","<img src = 'category3/CS10.png' width = '100%;'>","null","","","","","","","","","",""
"","html-keyboard-response","281","557471","0.0-10.0-2.23","kdcueo0qoe","many_one","0","indirect_first","0","Hm06Er11","0","31","1","1","3","1","","0","1","0","null","","","<img src = 'targets/2.png' width = '100%;'>","null","","","","","","","","","",""
"","html-keyboard-response","282","557757","0.0-10.0-3.23","kdcueo0qoe","many_one","0","indirect_first","0","Hm06Er11","0","31","1","1","3","1","","0","1","0","284.8499999381602","","","<img src = 'targets/mask.png' width = '100%;'>","68","pos","GS","GSold","3","category3/CS10.png","targets/2.png","0","indirect","47",""
"","survey-html-form","283","561077","0.0-11.0","kdcueo0qoe","many_one","0","indirect_first","0","Hm06Er11","0","31","1","1","3","1","","0","1","0","2809.479999821633","","{}","","","","","","","","","","","",""
"","image-slider-response","284","567165","0.0-12.0-0.0","kdcueo0qoe","many_one","0","indirect_first","0","Hm06Er11","0","31","1","1","3","1","","0","1","0","4075.2149999607354","","","","","pos","CS","CS","4","category4/CS3.png","targets/19.png","","direct","","-34"
"","image-slider-response","285","569589","0.0-12.0-0.1","kdcueo0qoe","many_one","0","indirect_first","0","Hm06Er11","0","31","1","1","3","1","","0","1","0","2422.6299999281764","","","","","pos","CS","CS","3","category3/CS9.png","targets/16.png","","direct","","100"
"","image-slider-response","286","571605","0.0-12.0-0.2","kdcueo0qoe","many_one","0","indirect_first","0","Hm06Er11","0","31","1","1","3","1","","0","1","0","2014.9150001816452","","","","","pos","CS","CS","4","category4/CS2.png","targets/27.png","","direct","","-47"
"","image-slider-response","287","574365","0.0-12.0-0.3","kdcueo0qoe","many_one","0","indirect_first","0","Hm06Er11","0","31","1","1","3","1","","0","1","0","2759.2150000855327","","","","","neg","CS","CS","1","category1/CS2.png","targets/14.png","","direct","","-45"
"","image-slider-response","288","576357","0.0-12.0-0.4","kdcueo0qoe","many_one","0","indirect_first","0","Hm06Er11","0","31","1","1","3","1","","0","1","0","1990.7300001941621","","","","","pos","CS","CS","3","category3/CS8.png","targets/41.png","","direct","","-51"
"","image-slider-response","289","578213","0.0-12.0-0.5","kdcueo0qoe","many_one","0","indirect_first","0","Hm06Er11","0","31","1","1","3","1","","0","1","0","1855.0600002054125","","","","","pos","CS","CS","3","category3/CS2.png","targets/15.png","","direct","","94"
"","image-slider-response","290","580332","0.0-12.0-0.6","kdcueo0qoe","many_one","0","indirect_first","0","Hm06Er11","0","31","1","1","3","1","","0","1","0","2111.055000219494","","","","","pos","CS","CS","4","category4/CS4.png","targets/7.png","","direct","","-51"
"","image-slider-response","291","582540","0.0-12.0-0.7","kdcueo0qoe","many_one","0","indirect_first","0","Hm06Er11","0","31","1","1","3","1","","0","1","0","2207.0450000464916","","","","","pos","GS","GSold","4","category4/CS9.png","targets/36.png","","direct","","-26"
"","image-slider-response","292","584484","0.0-12.0-0.8","kdcueo0qoe","many_one","0","indirect_first","0","Hm06Er11","0","31","1","1","3","1","","0","1","0","1942.829999839887","","","","","pos","GS","GSnew","4","category4/GS1.png","targets/10.png","","direct","","-24"
"","image-slider-response","293","586213","0.0-12.0-0.9","kdcueo0qoe","many_one","0","indirect_first","0","Hm06Er11","0","31","1","1","3","1","","0","1","0","1727.2050001192838","","","","","neg","CS","CS","1","category1/CS10.png","targets/20.png","","direct","","-26"
"","image-slider-response","294","587860","0.0-12.0-0.10","kdcueo0qoe","many_one","0","indirect_first","0","Hm06Er11","0","31","1","1","3","1","","0","1","0","1646.8599999789149","","","","","neg","CS","CS","2","category2/CS3.png","targets/21.png","","direct","","60"
"","image-slider-response","295","590276","0.0-12.0-0.11","kdcueo0qoe","many_one","0","indirect_first","0","Hm06Er11","0","31","1","1","3","1","","0","1","0","2415.070000104606","","","","","neg","CS","CS","1","category1/CS4.png","targets/44.png","","direct","","-39"
"","image-slider-response","296","591876","0.0-12.0-0.12","kdcueo0qoe","many_one","0","indirect_first","0","Hm06Er11","0","31","1","1","3","1","","0","1","0","1598.9399999380112","","","","","neg","GS","GSnew","2","category2/GS2.png","targets/18.png","","direct","","-46"
"","image-slider-response","297","593684","0.0-12.0-0.13","kdcueo0qoe","many_one","0","indirect_first","0","Hm06Er11","0","31","1","1","3","1","","0","1","0","1806.8750000093132","","","","","pos","GS","GSold","3","category3/CS10.png","targets/2.png","","direct","","34"
"","image-slider-response","298","595284","0.0-12.0-0.14","kdcueo0qoe","many_one","0","indirect_first","0","Hm06Er11","0","31","1","1","3","1","","0","1","0","1599.2199999745935","","","","","neg","CS","CS","2","category2/CS5.png","targets/23.png","","direct","","46"
"","image-slider-response","299","597012","0.0-12.0-0.15","kdcueo0qoe","many_one","0","indirect_first","0","Hm06Er11","0","31","1","1","3","1","","0","1","0","1727.184999966994","","","","","pos","GS","abstract","4","category4/lin.png","targets/8.png","","direct","","-27"
"","image-slider-response","300","598788","0.0-12.0-0.16","kdcueo0qoe","many_one","0","indirect_first","0","Hm06Er11","0","31","1","1","3","1","","0","1","0","1775.0399999786168","","","","","pos","GS","GSold","3","category3/CS5.png","targets/3.png","","direct","","58"
"","image-slider-response","301","600509","0.0-12.0-0.17","kdcueo0qoe","many_one","0","indirect_first","0","Hm06Er11","0","31","1","1","3","1","","0","1","0","1719.0900000277907","","","","","neg","GS","GSold","1","category1/CS3.png","targets/39.png","","direct","","-22"
"","image-slider-response","302","602676","0.0-12.0-0.18","kdcueo0qoe","many_one","0","indirect_first","0","Hm06Er11","0","31","1","1","3","1","","0","1","0","2166.9100001454353","","","","","pos","GS","GSnew","4","category4/GS2.png","targets/42.png","","direct","","-32"
"","image-slider-response","303","604356","0.0-12.0-0.19","kdcueo0qoe","many_one","0","indirect_first","0","Hm06Er11","0","31","1","1","3","1","","0","1","0","1679.0549999568611","","","","","neg","GS","GSnew","2","category2/GS1.png","targets/35.png","","direct","","-30"
"","image-slider-response","304","606196","0.0-12.0-0.20","kdcueo0qoe","many_one","0","indirect_first","0","Hm06Er11","0","31","1","1","3","1","","0","1","0","1838.9550000429153","","","","","neg","GS","GSold","2","category2/CS2.png","targets/38.png","","direct","","58"
"","image-slider-response","305","607588","0.0-12.0-0.21","kdcueo0qoe","many_one","0","indirect_first","0","Hm06Er11","0","31","1","1","3","1","","0","1","0","1391.1999999545515","","","","","pos","CS","CS","4","category4/CS5.png","targets/48.png","","direct","","-46"
"","image-slider-response","306","609700","0.0-12.0-0.22","kdcueo0qoe","many_one","0","indirect_first","0","Hm06Er11","0","31","1","1","3","1","","0","1","0","2110.9700000379235","","","","","pos","GS","GSnew","4","category4/GS3.png","targets/31.png","","direct","","-37"
"","image-slider-response","307","612108","0.0-12.0-0.23","kdcueo0qoe","many_one","0","indirect_first","0","Hm06Er11","0","31","1","1","3","1","","0","1","0","2406.8699998315424","","","","","neg","CS","CS","2","category2/CS1.png","targets/37.png","","direct","","59"
"","image-slider-response","308","613572","0.0-12.0-0.24","kdcueo0qoe","many_one","0","indirect_first","0","Hm06Er11","0","31","1","1","3","1","","0","1","0","1462.5899998936802","","","","","neg","GS","GSold","1","category1/CS1.png","targets/4.png","","direct","","-36"
"","image-slider-response","309","615732","0.0-12.0-0.25","kdcueo0qoe","many_one","0","indirect_first","0","Hm06Er11","0","31","1","1","3","1","","0","1","0","2159.250000026077","","","","","neg","GS","GSnew","1","category1/GS1.png","targets/40.png","","direct","","-37"
"","image-slider-response","310","617180","0.0-12.0-0.26","kdcueo0qoe","many_one","0","indirect_first","0","Hm06Er11","0","31","1","1","3","1","","0","1","0","1447.0649999566376","","","","","neg","GS","abstract","1","category1/ma.png","targets/29.png","","direct","","-40"
"","image-slider-response","311","619348","0.0-12.0-0.27","kdcueo0qoe","many_one","0","indirect_first","0","Hm06Er11","0","31","1","1","3","1","","0","1","0","2167.270000092685","","","","","pos","CS","CS","4","category4/CS8.png","targets/25.png","","direct","","-42"
"","image-slider-response","312","620828","0.0-12.0-0.28","kdcueo0qoe","many_one","0","indirect_first","0","Hm06Er11","0","31","1","1","3","1","","0","1","0","1478.93499978818","","","","","pos","GS","GSold","4","category4/CS7.png","targets/1.png","","direct","","-50"
"","image-slider-response","313","622373","0.0-12.0-0.29","kdcueo0qoe","many_one","0","indirect_first","0","Hm06Er11","0","31","1","1","3","1","","0","1","0","1543.1850000750273","","","","","neg","CS","CS","2","category2/CS10.png","targets/17.png","","direct","","57"
"","image-slider-response","314","623732","0.0-12.0-0.30","kdcueo0qoe","many_one","0","indirect_first","0","Hm06Er11","0","31","1","1","3","1","","0","1","0","1359.019999857992","","","","","pos","GS","GSold","4","category4/CS10.png","targets/12.png","","direct","","-17"
"","image-slider-response","315","625340","0.0-12.0-0.31","kdcueo0qoe","many_one","0","indirect_first","0","Hm06Er11","0","31","1","1","3","1","","0","1","0","1606.9499999284744","","","","","neg","CS","CS","1","category1/CS8.png","targets/11.png","","direct","","-30"
"","image-slider-response","316","626748","0.0-12.0-0.32","kdcueo0qoe","many_one","0","indirect_first","0","Hm06Er11","0","31","1","1","3","1","","0","1","0","1407.0899998769164","","","","","neg","GS","GSold","1","category1/CS6.png","targets/28.png","","direct","","-34"
"","image-slider-response","317","628700","0.0-12.0-0.33","kdcueo0qoe","many_one","0","indirect_first","0","Hm06Er11","0","31","1","1","3","1","","0","1","0","1950.8999998215586","","","","","pos","GS","GSold","3","category3/CS7.png","targets/46.png","","direct","","-8"
"","image-slider-response","318","630844","0.0-12.0-0.34","kdcueo0qoe","many_one","0","indirect_first","0","Hm06Er11","0","31","1","1","3","1","","0","1","0","2143.1599999777973","","","","","pos","GS","abstract","3","category3/wang.png","targets/6.png","","direct","","-7"
"","image-slider-response","319","632700","0.0-12.0-0.35","kdcueo0qoe","many_one","0","indirect_first","0","Hm06Er11","0","31","1","1","3","1","","0","1","0","1855.22500006482","","","","","neg","GS","GSold","2","category2/CS9.png","targets/32.png","","direct","","28"
"","image-slider-response","320","634581","0.0-12.0-0.36","kdcueo0qoe","many_one","0","indirect_first","0","Hm06Er11","0","31","1","1","3","1","","0","1","0","1878.9800000377","","","","","pos","CS","CS","3","category3/CS3.png","targets/13.png","","direct","","50"
"","image-slider-response","321","636412","0.0-12.0-0.37","kdcueo0qoe","many_one","0","indirect_first","0","Hm06Er11","0","31","1","1","3","1","","0","1","0","1830.8899998664856","","","","","neg","GS","GSnew","1","category1/GS2.png","targets/30.png","","direct","","-12"
"","image-slider-response","322","637900","0.0-12.0-0.38","kdcueo0qoe","many_one","0","indirect_first","0","Hm06Er11","0","31","1","1","3","1","","0","1","0","1487.0349999982864","","","","","pos","GS","GSnew","3","category3/GS3.png","targets/34.png","","direct","","61"
"","image-slider-response","323","639412","0.0-12.0-0.39","kdcueo0qoe","many_one","0","indirect_first","0","Hm06Er11","0","31","1","1","3","1","","0","1","0","1511.2250000238419","","","","","neg","GS","abstract","2","category2/men.png","targets/26.png","","direct","","25"
"","image-slider-response","324","640796","0.0-12.0-0.40","kdcueo0qoe","many_one","0","indirect_first","0","Hm06Er11","0","31","1","1","3","1","","0","1","0","1383.0150000285357","","","","","neg","GS","GSnew","1","category1/GS3.png","targets/9.png","","direct","","-21"
