"success","trial_type","trial_index","time_elapsed","internal_node_id","subject","condition","condition_code","measure","measure_code","codeword","gender","age","education","chinese","fach","handedness","comment","hinschauen","ablenkung","gewissenhaft","rt","url","responses","stimulus","key_press","val","type","type_specific","category","cs_selected","response","target","task","indirect","nr_pres"
"true","fullscreen","0","6999","0.0-0.0","m3doycl30t","one_one","1","direct_first","1","pp05al20","1","21","1","1","3","1","Die Teilnahme war spannend, ich konnte leider nicht entschlüsseln worum es ging. ","0","1","0","","","","","","","","","","","","","","",""
"","external-html","1","29837","0.0-1.0","m3doycl30t","one_one","1","direct_first","1","pp05al20","1","21","1","1","3","1","Die Teilnahme war spannend, ich konnte leider nicht entschlüsseln worum es ging. ","0","1","0","22807.56999994628","text/information.html","","","","","","","","","","","","",""
"","external-html","2","64494","0.0-2.0","m3doycl30t","one_one","1","direct_first","1","pp05al20","1","21","1","1","3","1","Die Teilnahme war spannend, ich konnte leider nicht entschlüsseln worum es ging. ","0","1","0","34605.20000010729","text/consent.html","","","","","","","","","","","","",""
"","survey-html-form","3","115004","0.0-3.0","m3doycl30t","one_one","1","direct_first","1","pp05al20","1","21","1","1","3","1","Die Teilnahme war spannend, ich konnte leider nicht entschlüsseln worum es ging. ","0","1","0","50509.12000006065","","{""codeword_enter"":""pp05al20""}","","","","","","","","","","","",""
"","survey-html-form","4","134329","0.0-4.0","m3doycl30t","one_one","1","direct_first","1","pp05al20","1","21","1","1","3","1","Die Teilnahme war spannend, ich konnte leider nicht entschlüsseln worum es ging. ","0","1","0","19324.12500004284","","{""age"":""21"",""education"":""1"",""subject"":""3"",""gender"":""1"",""handedness"":""1"",""chinese"":""1""}","","","","","","","","","","","",""
"","survey-html-form","5","155430","0.0-5.0","m3doycl30t","one_one","1","direct_first","1","pp05al20","1","21","1","1","3","1","Die Teilnahme war spannend, ich konnte leider nicht entschlüsseln worum es ging. ","0","1","0","21099.459999939427","","{}","","","","","","","","","","","",""
"","html-keyboard-response","6","159458","0.0-6.0-0.0-0.0","m3doycl30t","one_one","1","direct_first","1","pp05al20","1","21","1","1","3","1","Die Teilnahme war spannend, ich konnte leider nicht entschlüsseln worum es ging. ","0","1","0","null","","","<div class = 'row'><div class = 'column'><img src = 'usneg/9340.bmp' width = '100%;'></div><div class = 'column'><img src = 'category1/CS8.png' width = '70%;'></div></div>","null","neg","CS","CS","1","category1/CS8.png","","","","",""
"","html-keyboard-response","7","161975","0.0-6.0-0.0-0.1","m3doycl30t","one_one","1","direct_first","1","pp05al20","1","21","1","1","3","1","Die Teilnahme war spannend, ich konnte leider nicht entschlüsseln worum es ging. ","0","1","0","null","","","<div class = 'row'><div class = 'column'><img src = 'uspos/2360.bmp' width = '100%;'></div><div class = 'column'><img src = 'category4/CS6.png' width = '70%;'></div></div>","null","pos","CS","CS","4","category4/CS6.png","","","","",""
"","html-keyboard-response","8","164490","0.0-6.0-0.0-0.2","m3doycl30t","one_one","1","direct_first","1","pp05al20","1","21","1","1","3","1","Die Teilnahme war spannend, ich konnte leider nicht entschlüsseln worum es ging. ","0","1","0","null","","","<div class = 'row'><div class = 'column'><img src = 'category2/CS7.png' width = '70%;'></div><div class = 'column'><img src = 'uspos/2040.bmp' width = '100%;'></div></div>","null","pos","CS","CS","2","category2/CS7.png","","","","",""
"","html-keyboard-response","9","166996","0.0-6.0-0.0-0.3","m3doycl30t","one_one","1","direct_first","1","pp05al20","1","21","1","1","3","1","Die Teilnahme war spannend, ich konnte leider nicht entschlüsseln worum es ging. ","0","1","0","null","","","<div class = 'row'><div class = 'column'><img src = 'usneg/9340.bmp' width = '100%;'></div><div class = 'column'><img src = 'category1/CS8.png' width = '70%;'></div></div>","null","neg","CS","CS","1","category1/CS8.png","","","","",""
"","html-keyboard-response","10","169520","0.0-6.0-0.0-0.4","m3doycl30t","one_one","1","direct_first","1","pp05al20","1","21","1","1","3","1","Die Teilnahme war spannend, ich konnte leider nicht entschlüsseln worum es ging. ","0","1","0","null","","","<div class = 'row'><div class = 'column'><img src = 'uspos/2040.bmp' width = '100%;'></div><div class = 'column'><img src = 'category2/CS7.png' width = '70%;'></div></div>","null","pos","CS","CS","2","category2/CS7.png","","","","",""
"","html-keyboard-response","11","172039","0.0-6.0-0.0-0.5","m3doycl30t","one_one","1","direct_first","1","pp05al20","1","21","1","1","3","1","Die Teilnahme war spannend, ich konnte leider nicht entschlüsseln worum es ging. ","0","1","0","null","","","<div class = 'row'><div class = 'column'><img src = 'usneg/9340.bmp' width = '100%;'></div><div class = 'column'><img src = 'category1/CS8.png' width = '70%;'></div></div>","null","neg","CS","CS","1","category1/CS8.png","","","","",""
"","html-keyboard-response","12","174556","0.0-6.0-0.0-0.6","m3doycl30t","one_one","1","direct_first","1","pp05al20","1","21","1","1","3","1","Die Teilnahme war spannend, ich konnte leider nicht entschlüsseln worum es ging. ","0","1","0","null","","","<div class = 'row'><div class = 'column'><img src = 'category2/CS7.png' width = '70%;'></div><div class = 'column'><img src = 'uspos/2040.bmp' width = '100%;'></div></div>","null","pos","CS","CS","2","category2/CS7.png","","","","",""
"","html-keyboard-response","13","177064","0.0-6.0-0.0-0.7","m3doycl30t","one_one","1","direct_first","1","pp05al20","1","21","1","1","3","1","Die Teilnahme war spannend, ich konnte leider nicht entschlüsseln worum es ging. ","0","1","0","null","","","<div class = 'row'><div class = 'column'><img src = 'uspos/2360.bmp' width = '100%;'></div><div class = 'column'><img src = 'category4/CS6.png' width = '70%;'></div></div>","null","pos","CS","CS","4","category4/CS6.png","","","","",""
"","html-keyboard-response","14","179586","0.0-6.0-0.0-0.8","m3doycl30t","one_one","1","direct_first","1","pp05al20","1","21","1","1","3","1","Die Teilnahme war spannend, ich konnte leider nicht entschlüsseln worum es ging. ","0","1","0","null","","","<div class = 'row'><div class = 'column'><img src = 'category3/CS2.png' width = '70%;'></div><div class = 'column'><img src = 'usneg/9584.bmp' width = '100%;'></div></div>","null","neg","CS","CS","3","category3/CS2.png","","","","",""
"","html-keyboard-response","15","182104","0.0-6.0-0.0-0.9","m3doycl30t","one_one","1","direct_first","1","pp05al20","1","21","1","1","3","1","Die Teilnahme war spannend, ich konnte leider nicht entschlüsseln worum es ging. ","0","1","0","null","","","<div class = 'row'><div class = 'column'><img src = 'usneg/9340.bmp' width = '100%;'></div><div class = 'column'><img src = 'category1/CS8.png' width = '70%;'></div></div>","null","neg","CS","CS","1","category1/CS8.png","","","","",""
"","html-keyboard-response","16","184616","0.0-6.0-0.0-0.10","m3doycl30t","one_one","1","direct_first","1","pp05al20","1","21","1","1","3","1","Die Teilnahme war spannend, ich konnte leider nicht entschlüsseln worum es ging. ","0","1","0","null","","","<div class = 'row'><div class = 'column'><img src = 'category2/CS7.png' width = '70%;'></div><div class = 'column'><img src = 'uspos/2040.bmp' width = '100%;'></div></div>","null","pos","CS","CS","2","category2/CS7.png","","","","",""
"","html-keyboard-response","17","187123","0.0-6.0-0.0-0.11","m3doycl30t","one_one","1","direct_first","1","pp05al20","1","21","1","1","3","1","Die Teilnahme war spannend, ich konnte leider nicht entschlüsseln worum es ging. ","0","1","0","null","","","<div class = 'row'><div class = 'column'><img src = 'category3/CS2.png' width = '70%;'></div><div class = 'column'><img src = 'usneg/9584.bmp' width = '100%;'></div></div>","null","neg","CS","CS","3","category3/CS2.png","","","","",""
"","html-keyboard-response","18","189645","0.0-6.0-0.0-0.12","m3doycl30t","one_one","1","direct_first","1","pp05al20","1","21","1","1","3","1","Die Teilnahme war spannend, ich konnte leider nicht entschlüsseln worum es ging. ","0","1","0","null","","","<div class = 'row'><div class = 'column'><img src = 'usneg/9340.bmp' width = '100%;'></div><div class = 'column'><img src = 'category1/CS8.png' width = '70%;'></div></div>","null","neg","CS","CS","1","category1/CS8.png","","","","",""
"","html-keyboard-response","19","192163","0.0-6.0-0.0-0.13","m3doycl30t","one_one","1","direct_first","1","pp05al20","1","21","1","1","3","1","Die Teilnahme war spannend, ich konnte leider nicht entschlüsseln worum es ging. ","0","1","0","null","","","<div class = 'row'><div class = 'column'><img src = 'usneg/9584.bmp' width = '100%;'></div><div class = 'column'><img src = 'category3/CS2.png' width = '70%;'></div></div>","null","neg","CS","CS","3","category3/CS2.png","","","","",""
"","html-keyboard-response","20","194678","0.0-6.0-0.0-0.14","m3doycl30t","one_one","1","direct_first","1","pp05al20","1","21","1","1","3","1","Die Teilnahme war spannend, ich konnte leider nicht entschlüsseln worum es ging. ","0","1","0","null","","","<div class = 'row'><div class = 'column'><img src = 'uspos/2360.bmp' width = '100%;'></div><div class = 'column'><img src = 'category4/CS6.png' width = '70%;'></div></div>","null","pos","CS","CS","4","category4/CS6.png","","","","",""
"","html-keyboard-response","21","197191","0.0-6.0-0.0-0.15","m3doycl30t","one_one","1","direct_first","1","pp05al20","1","21","1","1","3","1","Die Teilnahme war spannend, ich konnte leider nicht entschlüsseln worum es ging. ","0","1","0","null","","","<div class = 'row'><div class = 'column'><img src = 'usneg/9584.bmp' width = '100%;'></div><div class = 'column'><img src = 'category3/CS2.png' width = '70%;'></div></div>","null","neg","CS","CS","3","category3/CS2.png","","","","",""
"","html-keyboard-response","22","199703","0.0-6.0-0.0-0.16","m3doycl30t","one_one","1","direct_first","1","pp05al20","1","21","1","1","3","1","Die Teilnahme war spannend, ich konnte leider nicht entschlüsseln worum es ging. ","0","1","0","null","","","<div class = 'row'><div class = 'column'><img src = 'category4/CS6.png' width = '70%;'></div><div class = 'column'><img src = 'uspos/2360.bmp' width = '100%;'></div></div>","null","pos","CS","CS","4","category4/CS6.png","","","","",""
"","html-keyboard-response","23","202221","0.0-6.0-0.0-0.17","m3doycl30t","one_one","1","direct_first","1","pp05al20","1","21","1","1","3","1","Die Teilnahme war spannend, ich konnte leider nicht entschlüsseln worum es ging. ","0","1","0","null","","","<div class = 'row'><div class = 'column'><img src = 'uspos/2040.bmp' width = '100%;'></div><div class = 'column'><img src = 'category2/CS7.png' width = '70%;'></div></div>","null","pos","CS","CS","2","category2/CS7.png","","","","",""
"","html-keyboard-response","24","204730","0.0-6.0-0.0-0.18","m3doycl30t","one_one","1","direct_first","1","pp05al20","1","21","1","1","3","1","Die Teilnahme war spannend, ich konnte leider nicht entschlüsseln worum es ging. ","0","1","0","null","","","<div class = 'row'><div class = 'column'><img src = 'category4/CS6.png' width = '70%;'></div><div class = 'column'><img src = 'uspos/2360.bmp' width = '100%;'></div></div>","null","pos","CS","CS","4","category4/CS6.png","","","","",""
"","html-keyboard-response","25","207244","0.0-6.0-0.0-0.19","m3doycl30t","one_one","1","direct_first","1","pp05al20","1","21","1","1","3","1","Die Teilnahme war spannend, ich konnte leider nicht entschlüsseln worum es ging. ","0","1","0","null","","","<div class = 'row'><div class = 'column'><img src = 'usneg/9584.bmp' width = '100%;'></div><div class = 'column'><img src = 'category3/CS2.png' width = '70%;'></div></div>","null","neg","CS","CS","3","category3/CS2.png","","","","",""
"","survey-html-form","26","211283","0.0-6.0-1.0","m3doycl30t","one_one","1","direct_first","1","pp05al20","1","21","1","1","3","1","Die Teilnahme war spannend, ich konnte leider nicht entschlüsseln worum es ging. ","0","1","0","3532.304999884218","","{}","","","","","","","","","","","",""
"","html-keyboard-response","27","215303","0.0-6.0-2.0-0.0","m3doycl30t","one_one","1","direct_first","1","pp05al20","1","21","1","1","3","1","Die Teilnahme war spannend, ich konnte leider nicht entschlüsseln worum es ging. ","0","1","0","null","","","<div class = 'row'><div class = 'column'><img src = 'category1/CS8.png' width = '70%;'></div><div class = 'column'><img src = 'usneg/9340.bmp' width = '100%;'></div></div>","null","neg","CS","CS","1","category1/CS8.png","","","","",""
"","html-keyboard-response","28","217817","0.0-6.0-2.0-0.1","m3doycl30t","one_one","1","direct_first","1","pp05al20","1","21","1","1","3","1","Die Teilnahme war spannend, ich konnte leider nicht entschlüsseln worum es ging. ","0","1","0","null","","","<div class = 'row'><div class = 'column'><img src = 'category4/CS6.png' width = '70%;'></div><div class = 'column'><img src = 'uspos/2360.bmp' width = '100%;'></div></div>","null","pos","CS","CS","4","category4/CS6.png","","","","",""
"","html-keyboard-response","29","220333","0.0-6.0-2.0-0.2","m3doycl30t","one_one","1","direct_first","1","pp05al20","1","21","1","1","3","1","Die Teilnahme war spannend, ich konnte leider nicht entschlüsseln worum es ging. ","0","1","0","null","","","<div class = 'row'><div class = 'column'><img src = 'usneg/9584.bmp' width = '100%;'></div><div class = 'column'><img src = 'category3/CS2.png' width = '70%;'></div></div>","null","neg","CS","CS","3","category3/CS2.png","","","","",""
"","html-keyboard-response","30","222852","0.0-6.0-2.0-0.3","m3doycl30t","one_one","1","direct_first","1","pp05al20","1","21","1","1","3","1","Die Teilnahme war spannend, ich konnte leider nicht entschlüsseln worum es ging. ","0","1","0","null","","","<div class = 'row'><div class = 'column'><img src = 'uspos/2040.bmp' width = '100%;'></div><div class = 'column'><img src = 'category2/CS7.png' width = '70%;'></div></div>","null","pos","CS","CS","2","category2/CS7.png","","","","",""
"","html-keyboard-response","31","225374","0.0-6.0-2.0-0.4","m3doycl30t","one_one","1","direct_first","1","pp05al20","1","21","1","1","3","1","Die Teilnahme war spannend, ich konnte leider nicht entschlüsseln worum es ging. ","0","1","0","null","","","<div class = 'row'><div class = 'column'><img src = 'category3/CS2.png' width = '70%;'></div><div class = 'column'><img src = 'usneg/9584.bmp' width = '100%;'></div></div>","null","neg","CS","CS","3","category3/CS2.png","","","","",""
"","html-keyboard-response","32","227883","0.0-6.0-2.0-0.5","m3doycl30t","one_one","1","direct_first","1","pp05al20","1","21","1","1","3","1","Die Teilnahme war spannend, ich konnte leider nicht entschlüsseln worum es ging. ","0","1","0","null","","","<div class = 'row'><div class = 'column'><img src = 'usneg/9340.bmp' width = '100%;'></div><div class = 'column'><img src = 'category1/CS8.png' width = '70%;'></div></div>","null","neg","CS","CS","1","category1/CS8.png","","","","",""
"","html-keyboard-response","33","230400","0.0-6.0-2.0-0.6","m3doycl30t","one_one","1","direct_first","1","pp05al20","1","21","1","1","3","1","Die Teilnahme war spannend, ich konnte leider nicht entschlüsseln worum es ging. ","0","1","0","null","","","<div class = 'row'><div class = 'column'><img src = 'uspos/2360.bmp' width = '100%;'></div><div class = 'column'><img src = 'category4/CS6.png' width = '70%;'></div></div>","null","pos","CS","CS","4","category4/CS6.png","","","","",""
"","html-keyboard-response","34","232911","0.0-6.0-2.0-0.7","m3doycl30t","one_one","1","direct_first","1","pp05al20","1","21","1","1","3","1","Die Teilnahme war spannend, ich konnte leider nicht entschlüsseln worum es ging. ","0","1","0","null","","","<div class = 'row'><div class = 'column'><img src = 'category2/CS7.png' width = '70%;'></div><div class = 'column'><img src = 'uspos/2040.bmp' width = '100%;'></div></div>","null","pos","CS","CS","2","category2/CS7.png","","","","",""
"","html-keyboard-response","35","235427","0.0-6.0-2.0-0.8","m3doycl30t","one_one","1","direct_first","1","pp05al20","1","21","1","1","3","1","Die Teilnahme war spannend, ich konnte leider nicht entschlüsseln worum es ging. ","0","1","0","null","","","<div class = 'row'><div class = 'column'><img src = 'category4/CS6.png' width = '70%;'></div><div class = 'column'><img src = 'uspos/2360.bmp' width = '100%;'></div></div>","null","pos","CS","CS","4","category4/CS6.png","","","","",""
"","html-keyboard-response","36","237940","0.0-6.0-2.0-0.9","m3doycl30t","one_one","1","direct_first","1","pp05al20","1","21","1","1","3","1","Die Teilnahme war spannend, ich konnte leider nicht entschlüsseln worum es ging. ","0","1","0","null","","","<div class = 'row'><div class = 'column'><img src = 'usneg/9340.bmp' width = '100%;'></div><div class = 'column'><img src = 'category1/CS8.png' width = '70%;'></div></div>","null","neg","CS","CS","1","category1/CS8.png","","","","",""
"","html-keyboard-response","37","240454","0.0-6.0-2.0-0.10","m3doycl30t","one_one","1","direct_first","1","pp05al20","1","21","1","1","3","1","Die Teilnahme war spannend, ich konnte leider nicht entschlüsseln worum es ging. ","0","1","0","null","","","<div class = 'row'><div class = 'column'><img src = 'category2/CS7.png' width = '70%;'></div><div class = 'column'><img src = 'uspos/2040.bmp' width = '100%;'></div></div>","null","pos","CS","CS","2","category2/CS7.png","","","","",""
"","html-keyboard-response","38","242972","0.0-6.0-2.0-0.11","m3doycl30t","one_one","1","direct_first","1","pp05al20","1","21","1","1","3","1","Die Teilnahme war spannend, ich konnte leider nicht entschlüsseln worum es ging. ","0","1","0","null","","","<div class = 'row'><div class = 'column'><img src = 'category1/CS8.png' width = '70%;'></div><div class = 'column'><img src = 'usneg/9340.bmp' width = '100%;'></div></div>","null","neg","CS","CS","1","category1/CS8.png","","","","",""
"","html-keyboard-response","39","245485","0.0-6.0-2.0-0.12","m3doycl30t","one_one","1","direct_first","1","pp05al20","1","21","1","1","3","1","Die Teilnahme war spannend, ich konnte leider nicht entschlüsseln worum es ging. ","0","1","0","null","","","<div class = 'row'><div class = 'column'><img src = 'usneg/9584.bmp' width = '100%;'></div><div class = 'column'><img src = 'category3/CS2.png' width = '70%;'></div></div>","null","neg","CS","CS","3","category3/CS2.png","","","","",""
"","html-keyboard-response","40","248003","0.0-6.0-2.0-0.13","m3doycl30t","one_one","1","direct_first","1","pp05al20","1","21","1","1","3","1","Die Teilnahme war spannend, ich konnte leider nicht entschlüsseln worum es ging. ","0","1","0","null","","","<div class = 'row'><div class = 'column'><img src = 'usneg/9340.bmp' width = '100%;'></div><div class = 'column'><img src = 'category1/CS8.png' width = '70%;'></div></div>","null","neg","CS","CS","1","category1/CS8.png","","","","",""
"","html-keyboard-response","41","250508","0.0-6.0-2.0-0.14","m3doycl30t","one_one","1","direct_first","1","pp05al20","1","21","1","1","3","1","Die Teilnahme war spannend, ich konnte leider nicht entschlüsseln worum es ging. ","0","1","0","null","","","<div class = 'row'><div class = 'column'><img src = 'category2/CS7.png' width = '70%;'></div><div class = 'column'><img src = 'uspos/2040.bmp' width = '100%;'></div></div>","null","pos","CS","CS","2","category2/CS7.png","","","","",""
"","html-keyboard-response","42","253026","0.0-6.0-2.0-0.15","m3doycl30t","one_one","1","direct_first","1","pp05al20","1","21","1","1","3","1","Die Teilnahme war spannend, ich konnte leider nicht entschlüsseln worum es ging. ","0","1","0","null","","","<div class = 'row'><div class = 'column'><img src = 'uspos/2360.bmp' width = '100%;'></div><div class = 'column'><img src = 'category4/CS6.png' width = '70%;'></div></div>","null","pos","CS","CS","4","category4/CS6.png","","","","",""
"","html-keyboard-response","43","255546","0.0-6.0-2.0-0.16","m3doycl30t","one_one","1","direct_first","1","pp05al20","1","21","1","1","3","1","Die Teilnahme war spannend, ich konnte leider nicht entschlüsseln worum es ging. ","0","1","0","null","","","<div class = 'row'><div class = 'column'><img src = 'usneg/9584.bmp' width = '100%;'></div><div class = 'column'><img src = 'category3/CS2.png' width = '70%;'></div></div>","null","neg","CS","CS","3","category3/CS2.png","","","","",""
"","html-keyboard-response","44","258062","0.0-6.0-2.0-0.17","m3doycl30t","one_one","1","direct_first","1","pp05al20","1","21","1","1","3","1","Die Teilnahme war spannend, ich konnte leider nicht entschlüsseln worum es ging. ","0","1","0","null","","","<div class = 'row'><div class = 'column'><img src = 'uspos/2360.bmp' width = '100%;'></div><div class = 'column'><img src = 'category4/CS6.png' width = '70%;'></div></div>","null","pos","CS","CS","4","category4/CS6.png","","","","",""
"","html-keyboard-response","45","260572","0.0-6.0-2.0-0.18","m3doycl30t","one_one","1","direct_first","1","pp05al20","1","21","1","1","3","1","Die Teilnahme war spannend, ich konnte leider nicht entschlüsseln worum es ging. ","0","1","0","null","","","<div class = 'row'><div class = 'column'><img src = 'uspos/2040.bmp' width = '100%;'></div><div class = 'column'><img src = 'category2/CS7.png' width = '70%;'></div></div>","null","pos","CS","CS","2","category2/CS7.png","","","","",""
"","html-keyboard-response","46","263093","0.0-6.0-2.0-0.19","m3doycl30t","one_one","1","direct_first","1","pp05al20","1","21","1","1","3","1","Die Teilnahme war spannend, ich konnte leider nicht entschlüsseln worum es ging. ","0","1","0","null","","","<div class = 'row'><div class = 'column'><img src = 'usneg/9584.bmp' width = '100%;'></div><div class = 'column'><img src = 'category3/CS2.png' width = '70%;'></div></div>","null","neg","CS","CS","3","category3/CS2.png","","","","",""
"","survey-html-form","47","265882","0.0-6.0-3.0","m3doycl30t","one_one","1","direct_first","1","pp05al20","1","21","1","1","3","1","Die Teilnahme war spannend, ich konnte leider nicht entschlüsseln worum es ging. ","0","1","0","2282.799999928102","","{}","","","","","","","","","","","",""
"","html-keyboard-response","48","269913","0.0-6.0-4.0-0.0","m3doycl30t","one_one","1","direct_first","1","pp05al20","1","21","1","1","3","1","Die Teilnahme war spannend, ich konnte leider nicht entschlüsseln worum es ging. ","0","1","0","null","","","<div class = 'row'><div class = 'column'><img src = 'category1/CS8.png' width = '70%;'></div><div class = 'column'><img src = 'usneg/9340.bmp' width = '100%;'></div></div>","null","neg","CS","CS","1","category1/CS8.png","","","","",""
"","html-keyboard-response","49","272446","0.0-6.0-4.0-0.1","m3doycl30t","one_one","1","direct_first","1","pp05al20","1","21","1","1","3","1","Die Teilnahme war spannend, ich konnte leider nicht entschlüsseln worum es ging. ","0","1","0","null","","","<div class = 'row'><div class = 'column'><img src = 'usneg/9584.bmp' width = '100%;'></div><div class = 'column'><img src = 'category3/CS2.png' width = '70%;'></div></div>","null","neg","CS","CS","3","category3/CS2.png","","","","",""
"","html-keyboard-response","50","274960","0.0-6.0-4.0-0.2","m3doycl30t","one_one","1","direct_first","1","pp05al20","1","21","1","1","3","1","Die Teilnahme war spannend, ich konnte leider nicht entschlüsseln worum es ging. ","0","1","0","null","","","<div class = 'row'><div class = 'column'><img src = 'uspos/2360.bmp' width = '100%;'></div><div class = 'column'><img src = 'category4/CS6.png' width = '70%;'></div></div>","null","pos","CS","CS","4","category4/CS6.png","","","","",""
"","html-keyboard-response","51","277476","0.0-6.0-4.0-0.3","m3doycl30t","one_one","1","direct_first","1","pp05al20","1","21","1","1","3","1","Die Teilnahme war spannend, ich konnte leider nicht entschlüsseln worum es ging. ","0","1","0","null","","","<div class = 'row'><div class = 'column'><img src = 'usneg/9584.bmp' width = '100%;'></div><div class = 'column'><img src = 'category3/CS2.png' width = '70%;'></div></div>","null","neg","CS","CS","3","category3/CS2.png","","","","",""
"","html-keyboard-response","52","279986","0.0-6.0-4.0-0.4","m3doycl30t","one_one","1","direct_first","1","pp05al20","1","21","1","1","3","1","Die Teilnahme war spannend, ich konnte leider nicht entschlüsseln worum es ging. ","0","1","0","null","","","<div class = 'row'><div class = 'column'><img src = 'category2/CS7.png' width = '70%;'></div><div class = 'column'><img src = 'uspos/2040.bmp' width = '100%;'></div></div>","null","pos","CS","CS","2","category2/CS7.png","","","","",""
"","html-keyboard-response","53","282507","0.0-6.0-4.0-0.5","m3doycl30t","one_one","1","direct_first","1","pp05al20","1","21","1","1","3","1","Die Teilnahme war spannend, ich konnte leider nicht entschlüsseln worum es ging. ","0","1","0","null","","","<div class = 'row'><div class = 'column'><img src = 'uspos/2360.bmp' width = '100%;'></div><div class = 'column'><img src = 'category4/CS6.png' width = '70%;'></div></div>","null","pos","CS","CS","4","category4/CS6.png","","","","",""
"","html-keyboard-response","54","285023","0.0-6.0-4.0-0.6","m3doycl30t","one_one","1","direct_first","1","pp05al20","1","21","1","1","3","1","Die Teilnahme war spannend, ich konnte leider nicht entschlüsseln worum es ging. ","0","1","0","null","","","<div class = 'row'><div class = 'column'><img src = 'uspos/2040.bmp' width = '100%;'></div><div class = 'column'><img src = 'category2/CS7.png' width = '70%;'></div></div>","null","pos","CS","CS","2","category2/CS7.png","","","","",""
"","html-keyboard-response","55","287532","0.0-6.0-4.0-0.7","m3doycl30t","one_one","1","direct_first","1","pp05al20","1","21","1","1","3","1","Die Teilnahme war spannend, ich konnte leider nicht entschlüsseln worum es ging. ","0","1","0","null","","","<div class = 'row'><div class = 'column'><img src = 'category1/CS8.png' width = '70%;'></div><div class = 'column'><img src = 'usneg/9340.bmp' width = '100%;'></div></div>","null","neg","CS","CS","1","category1/CS8.png","","","","",""
"","html-keyboard-response","56","290054","0.0-6.0-4.0-0.8","m3doycl30t","one_one","1","direct_first","1","pp05al20","1","21","1","1","3","1","Die Teilnahme war spannend, ich konnte leider nicht entschlüsseln worum es ging. ","0","1","0","null","","","<div class = 'row'><div class = 'column'><img src = 'category2/CS7.png' width = '70%;'></div><div class = 'column'><img src = 'uspos/2040.bmp' width = '100%;'></div></div>","null","pos","CS","CS","2","category2/CS7.png","","","","",""
"","html-keyboard-response","57","292570","0.0-6.0-4.0-0.9","m3doycl30t","one_one","1","direct_first","1","pp05al20","1","21","1","1","3","1","Die Teilnahme war spannend, ich konnte leider nicht entschlüsseln worum es ging. ","0","1","0","null","","","<div class = 'row'><div class = 'column'><img src = 'category1/CS8.png' width = '70%;'></div><div class = 'column'><img src = 'usneg/9340.bmp' width = '100%;'></div></div>","null","neg","CS","CS","1","category1/CS8.png","","","","",""
"","html-keyboard-response","58","295080","0.0-6.0-4.0-0.10","m3doycl30t","one_one","1","direct_first","1","pp05al20","1","21","1","1","3","1","Die Teilnahme war spannend, ich konnte leider nicht entschlüsseln worum es ging. ","0","1","0","null","","","<div class = 'row'><div class = 'column'><img src = 'uspos/2040.bmp' width = '100%;'></div><div class = 'column'><img src = 'category2/CS7.png' width = '70%;'></div></div>","null","pos","CS","CS","2","category2/CS7.png","","","","",""
"","html-keyboard-response","59","297590","0.0-6.0-4.0-0.11","m3doycl30t","one_one","1","direct_first","1","pp05al20","1","21","1","1","3","1","Die Teilnahme war spannend, ich konnte leider nicht entschlüsseln worum es ging. ","0","1","0","null","","","<div class = 'row'><div class = 'column'><img src = 'category4/CS6.png' width = '70%;'></div><div class = 'column'><img src = 'uspos/2360.bmp' width = '100%;'></div></div>","null","pos","CS","CS","4","category4/CS6.png","","","","",""
"","html-keyboard-response","60","300103","0.0-6.0-4.0-0.12","m3doycl30t","one_one","1","direct_first","1","pp05al20","1","21","1","1","3","1","Die Teilnahme war spannend, ich konnte leider nicht entschlüsseln worum es ging. ","0","1","0","null","","","<div class = 'row'><div class = 'column'><img src = 'uspos/2040.bmp' width = '100%;'></div><div class = 'column'><img src = 'category2/CS7.png' width = '70%;'></div></div>","null","pos","CS","CS","2","category2/CS7.png","","","","",""
"","html-keyboard-response","61","302614","0.0-6.0-4.0-0.13","m3doycl30t","one_one","1","direct_first","1","pp05al20","1","21","1","1","3","1","Die Teilnahme war spannend, ich konnte leider nicht entschlüsseln worum es ging. ","0","1","0","null","","","<div class = 'row'><div class = 'column'><img src = 'category1/CS8.png' width = '70%;'></div><div class = 'column'><img src = 'usneg/9340.bmp' width = '100%;'></div></div>","null","neg","CS","CS","1","category1/CS8.png","","","","",""
"","html-keyboard-response","62","305118","0.0-6.0-4.0-0.14","m3doycl30t","one_one","1","direct_first","1","pp05al20","1","21","1","1","3","1","Die Teilnahme war spannend, ich konnte leider nicht entschlüsseln worum es ging. ","0","1","0","null","","","<div class = 'row'><div class = 'column'><img src = 'uspos/2360.bmp' width = '100%;'></div><div class = 'column'><img src = 'category4/CS6.png' width = '70%;'></div></div>","null","pos","CS","CS","4","category4/CS6.png","","","","",""
"","html-keyboard-response","63","307633","0.0-6.0-4.0-0.15","m3doycl30t","one_one","1","direct_first","1","pp05al20","1","21","1","1","3","1","Die Teilnahme war spannend, ich konnte leider nicht entschlüsseln worum es ging. ","0","1","0","null","","","<div class = 'row'><div class = 'column'><img src = 'usneg/9584.bmp' width = '100%;'></div><div class = 'column'><img src = 'category3/CS2.png' width = '70%;'></div></div>","null","neg","CS","CS","3","category3/CS2.png","","","","",""
"","html-keyboard-response","64","310148","0.0-6.0-4.0-0.16","m3doycl30t","one_one","1","direct_first","1","pp05al20","1","21","1","1","3","1","Die Teilnahme war spannend, ich konnte leider nicht entschlüsseln worum es ging. ","0","1","0","null","","","<div class = 'row'><div class = 'column'><img src = 'usneg/9340.bmp' width = '100%;'></div><div class = 'column'><img src = 'category1/CS8.png' width = '70%;'></div></div>","null","neg","CS","CS","1","category1/CS8.png","","","","",""
"","html-keyboard-response","65","312664","0.0-6.0-4.0-0.17","m3doycl30t","one_one","1","direct_first","1","pp05al20","1","21","1","1","3","1","Die Teilnahme war spannend, ich konnte leider nicht entschlüsseln worum es ging. ","0","1","0","null","","","<div class = 'row'><div class = 'column'><img src = 'usneg/9584.bmp' width = '100%;'></div><div class = 'column'><img src = 'category3/CS2.png' width = '70%;'></div></div>","null","neg","CS","CS","3","category3/CS2.png","","","","",""
"","html-keyboard-response","66","315177","0.0-6.0-4.0-0.18","m3doycl30t","one_one","1","direct_first","1","pp05al20","1","21","1","1","3","1","Die Teilnahme war spannend, ich konnte leider nicht entschlüsseln worum es ging. ","0","1","0","null","","","<div class = 'row'><div class = 'column'><img src = 'category4/CS6.png' width = '70%;'></div><div class = 'column'><img src = 'uspos/2360.bmp' width = '100%;'></div></div>","null","pos","CS","CS","4","category4/CS6.png","","","","",""
"","html-keyboard-response","67","317684","0.0-6.0-4.0-0.19","m3doycl30t","one_one","1","direct_first","1","pp05al20","1","21","1","1","3","1","Die Teilnahme war spannend, ich konnte leider nicht entschlüsseln worum es ging. ","0","1","0","null","","","<div class = 'row'><div class = 'column'><img src = 'category3/CS2.png' width = '70%;'></div><div class = 'column'><img src = 'usneg/9584.bmp' width = '100%;'></div></div>","null","neg","CS","CS","3","category3/CS2.png","","","","",""
"","survey-html-form","68","319684","0.0-6.0-5.0","m3doycl30t","one_one","1","direct_first","1","pp05al20","1","21","1","1","3","1","Die Teilnahme war spannend, ich konnte leider nicht entschlüsseln worum es ging. ","0","1","0","1490.2200000360608","","{}","","","","","","","","","","","",""
"","html-keyboard-response","69","323698","0.0-6.0-6.0-0.0","m3doycl30t","one_one","1","direct_first","1","pp05al20","1","21","1","1","3","1","Die Teilnahme war spannend, ich konnte leider nicht entschlüsseln worum es ging. ","0","1","0","null","","","<div class = 'row'><div class = 'column'><img src = 'category1/CS8.png' width = '70%;'></div><div class = 'column'><img src = 'usneg/9340.bmp' width = '100%;'></div></div>","null","neg","CS","CS","1","category1/CS8.png","","","","",""
"","html-keyboard-response","70","326215","0.0-6.0-6.0-0.1","m3doycl30t","one_one","1","direct_first","1","pp05al20","1","21","1","1","3","1","Die Teilnahme war spannend, ich konnte leider nicht entschlüsseln worum es ging. ","0","1","0","null","","","<div class = 'row'><div class = 'column'><img src = 'uspos/2360.bmp' width = '100%;'></div><div class = 'column'><img src = 'category4/CS6.png' width = '70%;'></div></div>","null","pos","CS","CS","4","category4/CS6.png","","","","",""
"","html-keyboard-response","71","328729","0.0-6.0-6.0-0.2","m3doycl30t","one_one","1","direct_first","1","pp05al20","1","21","1","1","3","1","Die Teilnahme war spannend, ich konnte leider nicht entschlüsseln worum es ging. ","0","1","0","null","","","<div class = 'row'><div class = 'column'><img src = 'usneg/9584.bmp' width = '100%;'></div><div class = 'column'><img src = 'category3/CS2.png' width = '70%;'></div></div>","null","neg","CS","CS","3","category3/CS2.png","","","","",""
"","html-keyboard-response","72","331242","0.0-6.0-6.0-0.3","m3doycl30t","one_one","1","direct_first","1","pp05al20","1","21","1","1","3","1","Die Teilnahme war spannend, ich konnte leider nicht entschlüsseln worum es ging. ","0","1","0","null","","","<div class = 'row'><div class = 'column'><img src = 'uspos/2360.bmp' width = '100%;'></div><div class = 'column'><img src = 'category4/CS6.png' width = '70%;'></div></div>","null","pos","CS","CS","4","category4/CS6.png","","","","",""
"","html-keyboard-response","73","333761","0.0-6.0-6.0-0.4","m3doycl30t","one_one","1","direct_first","1","pp05al20","1","21","1","1","3","1","Die Teilnahme war spannend, ich konnte leider nicht entschlüsseln worum es ging. ","0","1","0","null","","","<div class = 'row'><div class = 'column'><img src = 'category3/CS2.png' width = '70%;'></div><div class = 'column'><img src = 'usneg/9584.bmp' width = '100%;'></div></div>","null","neg","CS","CS","3","category3/CS2.png","","","","",""
"","html-keyboard-response","74","336273","0.0-6.0-6.0-0.5","m3doycl30t","one_one","1","direct_first","1","pp05al20","1","21","1","1","3","1","Die Teilnahme war spannend, ich konnte leider nicht entschlüsseln worum es ging. ","0","1","0","null","","","<div class = 'row'><div class = 'column'><img src = 'category1/CS8.png' width = '70%;'></div><div class = 'column'><img src = 'usneg/9340.bmp' width = '100%;'></div></div>","null","neg","CS","CS","1","category1/CS8.png","","","","",""
"","html-keyboard-response","75","338806","0.0-6.0-6.0-0.6","m3doycl30t","one_one","1","direct_first","1","pp05al20","1","21","1","1","3","1","Die Teilnahme war spannend, ich konnte leider nicht entschlüsseln worum es ging. ","0","1","0","null","","","<div class = 'row'><div class = 'column'><img src = 'uspos/2040.bmp' width = '100%;'></div><div class = 'column'><img src = 'category2/CS7.png' width = '70%;'></div></div>","null","pos","CS","CS","2","category2/CS7.png","","","","",""
"","html-keyboard-response","76","341320","0.0-6.0-6.0-0.7","m3doycl30t","one_one","1","direct_first","1","pp05al20","1","21","1","1","3","1","Die Teilnahme war spannend, ich konnte leider nicht entschlüsseln worum es ging. ","0","1","0","null","","","<div class = 'row'><div class = 'column'><img src = 'category1/CS8.png' width = '70%;'></div><div class = 'column'><img src = 'usneg/9340.bmp' width = '100%;'></div></div>","null","neg","CS","CS","1","category1/CS8.png","","","","",""
"","html-keyboard-response","77","343831","0.0-6.0-6.0-0.8","m3doycl30t","one_one","1","direct_first","1","pp05al20","1","21","1","1","3","1","Die Teilnahme war spannend, ich konnte leider nicht entschlüsseln worum es ging. ","0","1","0","null","","","<div class = 'row'><div class = 'column'><img src = 'uspos/2040.bmp' width = '100%;'></div><div class = 'column'><img src = 'category2/CS7.png' width = '70%;'></div></div>","null","pos","CS","CS","2","category2/CS7.png","","","","",""
"","html-keyboard-response","78","346353","0.0-6.0-6.0-0.9","m3doycl30t","one_one","1","direct_first","1","pp05al20","1","21","1","1","3","1","Die Teilnahme war spannend, ich konnte leider nicht entschlüsseln worum es ging. ","0","1","0","null","","","<div class = 'row'><div class = 'column'><img src = 'usneg/9584.bmp' width = '100%;'></div><div class = 'column'><img src = 'category3/CS2.png' width = '70%;'></div></div>","null","neg","CS","CS","3","category3/CS2.png","","","","",""
"","html-keyboard-response","79","348862","0.0-6.0-6.0-0.10","m3doycl30t","one_one","1","direct_first","1","pp05al20","1","21","1","1","3","1","Die Teilnahme war spannend, ich konnte leider nicht entschlüsseln worum es ging. ","0","1","0","null","","","<div class = 'row'><div class = 'column'><img src = 'uspos/2360.bmp' width = '100%;'></div><div class = 'column'><img src = 'category4/CS6.png' width = '70%;'></div></div>","null","pos","CS","CS","4","category4/CS6.png","","","","",""
"","html-keyboard-response","80","351374","0.0-6.0-6.0-0.11","m3doycl30t","one_one","1","direct_first","1","pp05al20","1","21","1","1","3","1","Die Teilnahme war spannend, ich konnte leider nicht entschlüsseln worum es ging. ","0","1","0","null","","","<div class = 'row'><div class = 'column'><img src = 'category1/CS8.png' width = '70%;'></div><div class = 'column'><img src = 'usneg/9340.bmp' width = '100%;'></div></div>","null","neg","CS","CS","1","category1/CS8.png","","","","",""
"","html-keyboard-response","81","353880","0.0-6.0-6.0-0.12","m3doycl30t","one_one","1","direct_first","1","pp05al20","1","21","1","1","3","1","Die Teilnahme war spannend, ich konnte leider nicht entschlüsseln worum es ging. ","0","1","0","null","","","<div class = 'row'><div class = 'column'><img src = 'uspos/2040.bmp' width = '100%;'></div><div class = 'column'><img src = 'category2/CS7.png' width = '70%;'></div></div>","null","pos","CS","CS","2","category2/CS7.png","","","","",""
"","html-keyboard-response","82","356413","0.0-6.0-6.0-0.13","m3doycl30t","one_one","1","direct_first","1","pp05al20","1","21","1","1","3","1","Die Teilnahme war spannend, ich konnte leider nicht entschlüsseln worum es ging. ","0","1","0","null","","","<div class = 'row'><div class = 'column'><img src = 'uspos/2360.bmp' width = '100%;'></div><div class = 'column'><img src = 'category4/CS6.png' width = '70%;'></div></div>","null","pos","CS","CS","4","category4/CS6.png","","","","",""
"","html-keyboard-response","83","358932","0.0-6.0-6.0-0.14","m3doycl30t","one_one","1","direct_first","1","pp05al20","1","21","1","1","3","1","Die Teilnahme war spannend, ich konnte leider nicht entschlüsseln worum es ging. ","0","1","0","null","","","<div class = 'row'><div class = 'column'><img src = 'uspos/2040.bmp' width = '100%;'></div><div class = 'column'><img src = 'category2/CS7.png' width = '70%;'></div></div>","null","pos","CS","CS","2","category2/CS7.png","","","","",""
"","html-keyboard-response","84","361438","0.0-6.0-6.0-0.15","m3doycl30t","one_one","1","direct_first","1","pp05al20","1","21","1","1","3","1","Die Teilnahme war spannend, ich konnte leider nicht entschlüsseln worum es ging. ","0","1","0","null","","","<div class = 'row'><div class = 'column'><img src = 'category4/CS6.png' width = '70%;'></div><div class = 'column'><img src = 'uspos/2360.bmp' width = '100%;'></div></div>","null","pos","CS","CS","4","category4/CS6.png","","","","",""
"","html-keyboard-response","85","363944","0.0-6.0-6.0-0.16","m3doycl30t","one_one","1","direct_first","1","pp05al20","1","21","1","1","3","1","Die Teilnahme war spannend, ich konnte leider nicht entschlüsseln worum es ging. ","0","1","0","null","","","<div class = 'row'><div class = 'column'><img src = 'category1/CS8.png' width = '70%;'></div><div class = 'column'><img src = 'usneg/9340.bmp' width = '100%;'></div></div>","null","neg","CS","CS","1","category1/CS8.png","","","","",""
"","html-keyboard-response","86","366462","0.0-6.0-6.0-0.17","m3doycl30t","one_one","1","direct_first","1","pp05al20","1","21","1","1","3","1","Die Teilnahme war spannend, ich konnte leider nicht entschlüsseln worum es ging. ","0","1","0","null","","","<div class = 'row'><div class = 'column'><img src = 'category3/CS2.png' width = '70%;'></div><div class = 'column'><img src = 'usneg/9584.bmp' width = '100%;'></div></div>","null","neg","CS","CS","3","category3/CS2.png","","","","",""
"","html-keyboard-response","87","368967","0.0-6.0-6.0-0.18","m3doycl30t","one_one","1","direct_first","1","pp05al20","1","21","1","1","3","1","Die Teilnahme war spannend, ich konnte leider nicht entschlüsseln worum es ging. ","0","1","0","null","","","<div class = 'row'><div class = 'column'><img src = 'category2/CS7.png' width = '70%;'></div><div class = 'column'><img src = 'uspos/2040.bmp' width = '100%;'></div></div>","null","pos","CS","CS","2","category2/CS7.png","","","","",""
"","html-keyboard-response","88","371482","0.0-6.0-6.0-0.19","m3doycl30t","one_one","1","direct_first","1","pp05al20","1","21","1","1","3","1","Die Teilnahme war spannend, ich konnte leider nicht entschlüsseln worum es ging. ","0","1","0","null","","","<div class = 'row'><div class = 'column'><img src = 'usneg/9584.bmp' width = '100%;'></div><div class = 'column'><img src = 'category3/CS2.png' width = '70%;'></div></div>","null","neg","CS","CS","3","category3/CS2.png","","","","",""
"","survey-html-form","89","382776","0.0-7.0","m3doycl30t","one_one","1","direct_first","1","pp05al20","1","21","1","1","3","1","Die Teilnahme war spannend, ich konnte leider nicht entschlüsseln worum es ging. ","0","1","0","10791.53999988921","","{}","","","","","","","","","","","",""
"","image-slider-response","90","403480","0.0-8.0-0.0","m3doycl30t","one_one","1","direct_first","1","pp05al20","1","21","1","1","3","1","Die Teilnahme war spannend, ich konnte leider nicht entschlüsseln worum es ging. ","0","1","0","18685.04499993287","","","","","neg","GS","GSold","3","category3/CS7.png","-33","targets/29.png","direct","",""
"","image-slider-response","91","409505","0.0-8.0-0.1","m3doycl30t","one_one","1","direct_first","1","pp05al20","1","21","1","1","3","1","Die Teilnahme war spannend, ich konnte leider nicht entschlüsseln worum es ging. ","0","1","0","6024.515000171959","","","","","pos","GS","GSold","2","category2/CS5.png","59","targets/36.png","direct","",""
"","image-slider-response","92","412261","0.0-8.0-0.2","m3doycl30t","one_one","1","direct_first","1","pp05al20","1","21","1","1","3","1","Die Teilnahme war spannend, ich konnte leider nicht entschlüsseln worum es ging. ","0","1","0","2755.1500000990927","","","","","neg","GS","GSold","1","category1/CS5.png","-52","targets/18.png","direct","",""
"","image-slider-response","93","416575","0.0-8.0-0.3","m3doycl30t","one_one","1","direct_first","1","pp05al20","1","21","1","1","3","1","Die Teilnahme war spannend, ich konnte leider nicht entschlüsseln worum es ging. ","0","1","0","4313.249999890104","","","","","pos","CS","CS","2","category2/CS7.png","46","targets/20.png","direct","",""
"","image-slider-response","94","420633","0.0-8.0-0.4","m3doycl30t","one_one","1","direct_first","1","pp05al20","1","21","1","1","3","1","Die Teilnahme war spannend, ich konnte leider nicht entschlüsseln worum es ging. ","0","1","0","4057.014999911189","","","","","pos","GS","GSnew","4","category4/GS2.png","-64","targets/13.png","direct","",""
"","image-slider-response","95","423739","0.0-8.0-0.5","m3doycl30t","one_one","1","direct_first","1","pp05al20","1","21","1","1","3","1","Die Teilnahme war spannend, ich konnte leider nicht entschlüsseln worum es ging. ","0","1","0","3104.8200000077486","","","","","neg","GS","GSold","1","category1/CS4.png","-51","targets/28.png","direct","",""
"","image-slider-response","96","427094","0.0-8.0-0.6","m3doycl30t","one_one","1","direct_first","1","pp05al20","1","21","1","1","3","1","Die Teilnahme war spannend, ich konnte leider nicht entschlüsseln worum es ging. ","0","1","0","3353.7800000049174","","","","","neg","GS","GSnew","3","category3/GS1.png","-61","targets/35.png","direct","",""
"","image-slider-response","97","431361","0.0-8.0-0.7","m3doycl30t","one_one","1","direct_first","1","pp05al20","1","21","1","1","3","1","Die Teilnahme war spannend, ich konnte leider nicht entschlüsseln worum es ging. ","0","1","0","4266.675000078976","","","","","neg","GS","abstract","1","category1/ma.png","26","targets/31.png","direct","",""
"","image-slider-response","98","434203","0.0-8.0-0.8","m3doycl30t","one_one","1","direct_first","1","pp05al20","1","21","1","1","3","1","Die Teilnahme war spannend, ich konnte leider nicht entschlüsseln worum es ging. ","0","1","0","2841.0700000822544","","","","","pos","GS","GSnew","2","category2/GS2.png","-37","targets/27.png","direct","",""
"","image-slider-response","99","436837","0.0-8.0-0.9","m3doycl30t","one_one","1","direct_first","1","pp05al20","1","21","1","1","3","1","Die Teilnahme war spannend, ich konnte leider nicht entschlüsseln worum es ging. ","0","1","0","2633.250000188127","","","","","neg","GS","GSold","1","category1/CS9.png","51","targets/43.png","direct","",""
"","image-slider-response","100","442591","0.0-8.0-0.10","m3doycl30t","one_one","1","direct_first","1","pp05al20","1","21","1","1","3","1","Die Teilnahme war spannend, ich konnte leider nicht entschlüsseln worum es ging. ","0","1","0","5752.9649999924","","","","","pos","GS","GSold","4","category4/CS1.png","-42","targets/24.png","direct","",""
"","image-slider-response","101","446463","0.0-8.0-0.11","m3doycl30t","one_one","1","direct_first","1","pp05al20","1","21","1","1","3","1","Die Teilnahme war spannend, ich konnte leider nicht entschlüsseln worum es ging. ","0","1","0","3871.060000034049","","","","","pos","GS","GSold","2","category2/CS8.png","-48","targets/10.png","direct","",""
"","image-slider-response","102","449205","0.0-8.0-0.12","m3doycl30t","one_one","1","direct_first","1","pp05al20","1","21","1","1","3","1","Die Teilnahme war spannend, ich konnte leider nicht entschlüsseln worum es ging. ","0","1","0","2740.464999806136","","","","","pos","GS","GSnew","4","category4/GS3.png","58","targets/12.png","direct","",""
"","image-slider-response","103","452427","0.0-8.0-0.13","m3doycl30t","one_one","1","direct_first","1","pp05al20","1","21","1","1","3","1","Die Teilnahme war spannend, ich konnte leider nicht entschlüsseln worum es ging. ","0","1","0","3221.0399999748915","","","","","neg","GS","GSnew","1","category1/GS3.png","36","targets/3.png","direct","",""
"","image-slider-response","104","455105","0.0-8.0-0.14","m3doycl30t","one_one","1","direct_first","1","pp05al20","1","21","1","1","3","1","Die Teilnahme war spannend, ich konnte leider nicht entschlüsseln worum es ging. ","0","1","0","2676.949999993667","","","","","pos","GS","GSold","4","category4/CS10.png","25","targets/14.png","direct","",""
"","image-slider-response","105","458963","0.0-8.0-0.15","m3doycl30t","one_one","1","direct_first","1","pp05al20","1","21","1","1","3","1","Die Teilnahme war spannend, ich konnte leider nicht entschlüsseln worum es ging. ","0","1","0","3857.304999837652","","","","","neg","CS","CS","1","category1/CS8.png","-33","targets/45.png","direct","",""
"","image-slider-response","106","461231","0.0-8.0-0.16","m3doycl30t","one_one","1","direct_first","1","pp05al20","1","21","1","1","3","1","Die Teilnahme war spannend, ich konnte leider nicht entschlüsseln worum es ging. ","0","1","0","2267.1149999368936","","","","","neg","GS","GSold","3","category3/CS10.png","35","targets/1.png","direct","",""
"","image-slider-response","107","463965","0.0-8.0-0.17","m3doycl30t","one_one","1","direct_first","1","pp05al20","1","21","1","1","3","1","Die Teilnahme war spannend, ich konnte leider nicht entschlüsseln worum es ging. ","0","1","0","2733.3700000308454","","","","","pos","GS","abstract","2","category2/men.png","77","targets/22.png","direct","",""
"","image-slider-response","108","466575","0.0-8.0-0.18","m3doycl30t","one_one","1","direct_first","1","pp05al20","1","21","1","1","3","1","Die Teilnahme war spannend, ich konnte leider nicht entschlüsseln worum es ging. ","0","1","0","2609.2850000131875","","","","","pos","GS","abstract","4","category4/lin.png","99","targets/8.png","direct","",""
"","image-slider-response","109","471795","0.0-8.0-0.19","m3doycl30t","one_one","1","direct_first","1","pp05al20","1","21","1","1","3","1","Die Teilnahme war spannend, ich konnte leider nicht entschlüsseln worum es ging. ","0","1","0","5219.175000209361","","","","","pos","GS","GSnew","2","category2/GS3.png","-40","targets/4.png","direct","",""
"","image-slider-response","110","474745","0.0-8.0-0.20","m3doycl30t","one_one","1","direct_first","1","pp05al20","1","21","1","1","3","1","Die Teilnahme war spannend, ich konnte leider nicht entschlüsseln worum es ging. ","0","1","0","2949.2000001482666","","","","","pos","GS","GSnew","2","category2/GS1.png","-47","targets/25.png","direct","",""
"","image-slider-response","111","478447","0.0-8.0-0.21","m3doycl30t","one_one","1","direct_first","1","pp05al20","1","21","1","1","3","1","Die Teilnahme war spannend, ich konnte leider nicht entschlüsseln worum es ging. ","0","1","0","3701.24000008218","","","","","neg","CS","CS","3","category3/CS2.png","-33","targets/44.png","direct","",""
"","image-slider-response","112","481011","0.0-8.0-0.22","m3doycl30t","one_one","1","direct_first","1","pp05al20","1","21","1","1","3","1","Die Teilnahme war spannend, ich konnte leider nicht entschlüsseln worum es ging. ","0","1","0","2563.0850000306964","","","","","neg","GS","GSnew","3","category3/GS3.png","77","targets/17.png","direct","",""
"","image-slider-response","113","485061","0.0-8.0-0.23","m3doycl30t","one_one","1","direct_first","1","pp05al20","1","21","1","1","3","1","Die Teilnahme war spannend, ich konnte leider nicht entschlüsseln worum es ging. ","0","1","0","4049.345000181347","","","","","neg","GS","GSnew","3","category3/GS2.png","-39","targets/16.png","direct","",""
"","image-slider-response","114","487631","0.0-8.0-0.24","m3doycl30t","one_one","1","direct_first","1","pp05al20","1","21","1","1","3","1","Die Teilnahme war spannend, ich konnte leider nicht entschlüsseln worum es ging. ","0","1","0","2569.0650001633912","","","","","neg","GS","GSnew","1","category1/GS2.png","-62","targets/46.png","direct","",""
"","image-slider-response","115","493323","0.0-8.0-0.25","m3doycl30t","one_one","1","direct_first","1","pp05al20","1","21","1","1","3","1","Die Teilnahme war spannend, ich konnte leider nicht entschlüsseln worum es ging. ","0","1","0","5690.819999901578","","","","","pos","GS","GSnew","4","category4/GS1.png","-11","targets/39.png","direct","",""
"","image-slider-response","116","498931","0.0-8.0-0.26","m3doycl30t","one_one","1","direct_first","1","pp05al20","1","21","1","1","3","1","Die Teilnahme war spannend, ich konnte leider nicht entschlüsseln worum es ging. ","0","1","0","5607.019999995828","","","","","pos","GS","GSold","2","category2/CS2.png","32","targets/7.png","direct","",""
"","image-slider-response","117","501773","0.0-8.0-0.27","m3doycl30t","one_one","1","direct_first","1","pp05al20","1","21","1","1","3","1","Die Teilnahme war spannend, ich konnte leider nicht entschlüsseln worum es ging. ","0","1","0","2841.3100000470877","","","","","neg","GS","abstract","3","category3/wang.png","96","targets/19.png","direct","",""
"","image-slider-response","118","504049","0.0-8.0-0.28","m3doycl30t","one_one","1","direct_first","1","pp05al20","1","21","1","1","3","1","Die Teilnahme war spannend, ich konnte leider nicht entschlüsseln worum es ging. ","0","1","0","2275.0450000166893","","","","","neg","GS","GSnew","1","category1/GS1.png","-43","targets/33.png","direct","",""
"","image-slider-response","119","508131","0.0-8.0-0.29","m3doycl30t","one_one","1","direct_first","1","pp05al20","1","21","1","1","3","1","Die Teilnahme war spannend, ich konnte leider nicht entschlüsseln worum es ging. ","0","1","0","4081.4799999352545","","","","","pos","CS","CS","4","category4/CS6.png","32","targets/2.png","direct","",""
"","image-slider-response","120","511453","0.0-8.0-0.30","m3doycl30t","one_one","1","direct_first","1","pp05al20","1","21","1","1","3","1","Die Teilnahme war spannend, ich konnte leider nicht entschlüsseln worum es ging. ","0","1","0","3320.8550000563264","","","","","neg","GS","GSold","3","category3/CS5.png","100","targets/9.png","direct","",""
"","image-slider-response","121","514281","0.0-8.0-0.31","m3doycl30t","one_one","1","direct_first","1","pp05al20","1","21","1","1","3","1","Die Teilnahme war spannend, ich konnte leider nicht entschlüsseln worum es ging. ","0","1","0","2827.210000017658","","","","","pos","GS","GSold","4","category4/CS4.png","-28","targets/11.png","direct","",""
"","html-keyboard-response","122","550854","0.0-9.0","m3doycl30t","one_one","1","direct_first","1","pp05al20","1","21","1","1","3","1","Die Teilnahme war spannend, ich konnte leider nicht entschlüsseln worum es ging. ","0","1","0","36571.88499998301","","","<p>Sie sehen nun die chinesischen Zeichen nur ganz kurz. Danach sehen Sie die jeweilige Aussprache der Zeichen als Silbe auf dem Bildschrim. Ihre Aufgabe ist es, für jede Silbe anzugeben, ob diese etwas angenehmes, oder unangenehmes bedeuten könnte. Verlassen Sie sich hier vor allem auf Ihre Intuition.<br><br>Die Zeichen werden nur zur Orientierung dargestellt, beachten Sie sie deshalb nicht. Konzentrieren Sie sich vor allem auf die Silben. <br>Reagieren Sie mit folgenden zwei Tasten: <br><br><b>'D' </b> wenn die Silbe etwas <b>unangenehmes</b> bedeuten könnte. <br><b>'K'</b> wenn die Silbe etwas <b>angenehmes</b> bedeuten könnte. <br><br>Bitte legen Sie nun den Zeigefinger der linken Hand auf die Taste 'D' und den Zeigefinger der rechten Hand auf die Taste 'K'. <br>Reagieren Sie auf jede Silbe so schnell wie möglich. Uns interessiert Ihre spontane Reaktion. <br> <br> <br>Drücken Sie 'D' oder 'K', um die nächste Aufgabe zu starten. </p>","75","","","","","","","","","",""
"","html-keyboard-response","123","553858","0.0-10.0-0.0","m3doycl30t","one_one","1","direct_first","1","pp05al20","1","21","1","1","3","1","Die Teilnahme war spannend, ich konnte leider nicht entschlüsseln worum es ging. ","0","1","0","null","","","<div style=""font-size:60px;"">+</div>","null","","","","","","","","","",""
"","html-keyboard-response","124","553949","0.0-10.0-1.0","m3doycl30t","one_one","1","direct_first","1","pp05al20","1","21","1","1","3","1","Die Teilnahme war spannend, ich konnte leider nicht entschlüsseln worum es ging. ","0","1","0","null","","","<img src = 'category1/CS8.png' width = '100%;'>","null","","","","","","","","","",""
"","html-keyboard-response","125","554221","0.0-10.0-2.0","m3doycl30t","one_one","1","direct_first","1","pp05al20","1","21","1","1","3","1","Die Teilnahme war spannend, ich konnte leider nicht entschlüsseln worum es ging. ","0","1","0","null","","","<img src = 'targets/45.png' width = '100%;'>","null","","","","","","","","","",""
"","html-keyboard-response","126","558003","0.0-10.0-3.0","m3doycl30t","one_one","1","direct_first","1","pp05al20","1","21","1","1","3","1","Die Teilnahme war spannend, ich konnte leider nicht entschlüsseln worum es ging. ","0","1","0","3780.3849999327213","","","<img src = 'targets/mask.png' width = '100%;'>","68","neg","CS","CS","1","category1/CS8.png","","targets/45.png","indirect","0","0"
"","html-keyboard-response","127","559526","0.0-10.0-0.1","m3doycl30t","one_one","1","direct_first","1","pp05al20","1","21","1","1","3","1","Die Teilnahme war spannend, ich konnte leider nicht entschlüsseln worum es ging. ","0","1","0","null","","","<div style=""font-size:60px;"">+</div>","null","","","","","","","","","",""
"","html-keyboard-response","128","559617","0.0-10.0-1.1","m3doycl30t","one_one","1","direct_first","1","pp05al20","1","21","1","1","3","1","Die Teilnahme war spannend, ich konnte leider nicht entschlüsseln worum es ging. ","0","1","0","null","","","<img src = 'category4/CS6.png' width = '100%;'>","null","","","","","","","","","",""
"","html-keyboard-response","129","559872","0.0-10.0-2.1","m3doycl30t","one_one","1","direct_first","1","pp05al20","1","21","1","1","3","1","Die Teilnahme war spannend, ich konnte leider nicht entschlüsseln worum es ging. ","0","1","0","null","","","<img src = 'targets/2.png' width = '100%;'>","null","","","","","","","","","",""
"","html-keyboard-response","130","563194","0.0-10.0-3.1","m3doycl30t","one_one","1","direct_first","1","pp05al20","1","21","1","1","3","1","Die Teilnahme war spannend, ich konnte leider nicht entschlüsseln worum es ging. ","0","1","0","3320.5600001383573","","","<img src = 'targets/mask.png' width = '100%;'>","68","pos","CS","CS","4","category4/CS6.png","","targets/2.png","indirect","0","1"
"","html-keyboard-response","131","564704","0.0-10.0-0.2","m3doycl30t","one_one","1","direct_first","1","pp05al20","1","21","1","1","3","1","Die Teilnahme war spannend, ich konnte leider nicht entschlüsseln worum es ging. ","0","1","0","null","","","<div style=""font-size:60px;"">+</div>","null","","","","","","","","","",""
"","html-keyboard-response","132","564798","0.0-10.0-1.2","m3doycl30t","one_one","1","direct_first","1","pp05al20","1","21","1","1","3","1","Die Teilnahme war spannend, ich konnte leider nicht entschlüsseln worum es ging. ","0","1","0","null","","","<img src = 'category3/CS10.png' width = '100%;'>","null","","","","","","","","","",""
"","html-keyboard-response","133","565063","0.0-10.0-2.2","m3doycl30t","one_one","1","direct_first","1","pp05al20","1","21","1","1","3","1","Die Teilnahme war spannend, ich konnte leider nicht entschlüsseln worum es ging. ","0","1","0","null","","","<img src = 'targets/1.png' width = '100%;'>","null","","","","","","","","","",""
"","html-keyboard-response","134","568003","0.0-10.0-3.2","m3doycl30t","one_one","1","direct_first","1","pp05al20","1","21","1","1","3","1","Die Teilnahme war spannend, ich konnte leider nicht entschlüsseln worum es ging. ","0","1","0","2938.175000017509","","","<img src = 'targets/mask.png' width = '100%;'>","75","neg","GS","GSold","3","category3/CS10.png","","targets/1.png","indirect","1","2"
"","html-keyboard-response","135","569517","0.0-10.0-0.3","m3doycl30t","one_one","1","direct_first","1","pp05al20","1","21","1","1","3","1","Die Teilnahme war spannend, ich konnte leider nicht entschlüsseln worum es ging. ","0","1","0","null","","","<div style=""font-size:60px;"">+</div>","null","","","","","","","","","",""
"","html-keyboard-response","136","569608","0.0-10.0-1.3","m3doycl30t","one_one","1","direct_first","1","pp05al20","1","21","1","1","3","1","Die Teilnahme war spannend, ich konnte leider nicht entschlüsseln worum es ging. ","0","1","0","null","","","<img src = 'category1/CS9.png' width = '100%;'>","null","","","","","","","","","",""
"","html-keyboard-response","137","569861","0.0-10.0-2.3","m3doycl30t","one_one","1","direct_first","1","pp05al20","1","21","1","1","3","1","Die Teilnahme war spannend, ich konnte leider nicht entschlüsseln worum es ging. ","0","1","0","null","","","<img src = 'targets/43.png' width = '100%;'>","null","","","","","","","","","",""
"","html-keyboard-response","138","571722","0.0-10.0-3.3","m3doycl30t","one_one","1","direct_first","1","pp05al20","1","21","1","1","3","1","Die Teilnahme war spannend, ich konnte leider nicht entschlüsseln worum es ging. ","0","1","0","1859.8299999721348","","","<img src = 'targets/mask.png' width = '100%;'>","68","neg","GS","GSold","1","category1/CS9.png","","targets/43.png","indirect","0","3"
"","html-keyboard-response","139","573242","0.0-10.0-0.4","m3doycl30t","one_one","1","direct_first","1","pp05al20","1","21","1","1","3","1","Die Teilnahme war spannend, ich konnte leider nicht entschlüsseln worum es ging. ","0","1","0","null","","","<div style=""font-size:60px;"">+</div>","null","","","","","","","","","",""
"","html-keyboard-response","140","573333","0.0-10.0-1.4","m3doycl30t","one_one","1","direct_first","1","pp05al20","1","21","1","1","3","1","Die Teilnahme war spannend, ich konnte leider nicht entschlüsseln worum es ging. ","0","1","0","null","","","<img src = 'category1/CS4.png' width = '100%;'>","null","","","","","","","","","",""
"","html-keyboard-response","141","573584","0.0-10.0-2.4","m3doycl30t","one_one","1","direct_first","1","pp05al20","1","21","1","1","3","1","Die Teilnahme war spannend, ich konnte leider nicht entschlüsseln worum es ging. ","0","1","0","null","","","<img src = 'targets/28.png' width = '100%;'>","null","","","","","","","","","",""
"","html-keyboard-response","142","574667","0.0-10.0-3.4","m3doycl30t","one_one","1","direct_first","1","pp05al20","1","21","1","1","3","1","Die Teilnahme war spannend, ich konnte leider nicht entschlüsseln worum es ging. ","0","1","0","1081.2650001607835","","","<img src = 'targets/mask.png' width = '100%;'>","68","neg","GS","GSold","1","category1/CS4.png","","targets/28.png","indirect","0","4"
"","html-keyboard-response","143","576189","0.0-10.0-0.5","m3doycl30t","one_one","1","direct_first","1","pp05al20","1","21","1","1","3","1","Die Teilnahme war spannend, ich konnte leider nicht entschlüsseln worum es ging. ","0","1","0","null","","","<div style=""font-size:60px;"">+</div>","null","","","","","","","","","",""
"","html-keyboard-response","144","576285","0.0-10.0-1.5","m3doycl30t","one_one","1","direct_first","1","pp05al20","1","21","1","1","3","1","Die Teilnahme war spannend, ich konnte leider nicht entschlüsseln worum es ging. ","0","1","0","null","","","<img src = 'category2/CS2.png' width = '100%;'>","null","","","","","","","","","",""
"","html-keyboard-response","145","576538","0.0-10.0-2.5","m3doycl30t","one_one","1","direct_first","1","pp05al20","1","21","1","1","3","1","Die Teilnahme war spannend, ich konnte leider nicht entschlüsseln worum es ging. ","0","1","0","null","","","<img src = 'targets/7.png' width = '100%;'>","null","","","","","","","","","",""
"","html-keyboard-response","146","578044","0.0-10.0-3.5","m3doycl30t","one_one","1","direct_first","1","pp05al20","1","21","1","1","3","1","Die Teilnahme war spannend, ich konnte leider nicht entschlüsseln worum es ging. ","0","1","0","1504.0049999952316","","","<img src = 'targets/mask.png' width = '100%;'>","68","pos","GS","GSold","2","category2/CS2.png","","targets/7.png","indirect","0","5"
"","html-keyboard-response","147","579567","0.0-10.0-0.6","m3doycl30t","one_one","1","direct_first","1","pp05al20","1","21","1","1","3","1","Die Teilnahme war spannend, ich konnte leider nicht entschlüsseln worum es ging. ","0","1","0","null","","","<div style=""font-size:60px;"">+</div>","null","","","","","","","","","",""
"","html-keyboard-response","148","579659","0.0-10.0-1.6","m3doycl30t","one_one","1","direct_first","1","pp05al20","1","21","1","1","3","1","Die Teilnahme war spannend, ich konnte leider nicht entschlüsseln worum es ging. ","0","1","0","null","","","<img src = 'category4/CS10.png' width = '100%;'>","null","","","","","","","","","",""
"","html-keyboard-response","149","579915","0.0-10.0-2.6","m3doycl30t","one_one","1","direct_first","1","pp05al20","1","21","1","1","3","1","Die Teilnahme war spannend, ich konnte leider nicht entschlüsseln worum es ging. ","0","1","0","null","","","<img src = 'targets/14.png' width = '100%;'>","null","","","","","","","","","",""
"","html-keyboard-response","150","580571","0.0-10.0-3.6","m3doycl30t","one_one","1","direct_first","1","pp05al20","1","21","1","1","3","1","Die Teilnahme war spannend, ich konnte leider nicht entschlüsseln worum es ging. ","0","1","0","654.0749999694526","","","<img src = 'targets/mask.png' width = '100%;'>","75","pos","GS","GSold","4","category4/CS10.png","","targets/14.png","indirect","1","6"
"","html-keyboard-response","151","582101","0.0-10.0-0.7","m3doycl30t","one_one","1","direct_first","1","pp05al20","1","21","1","1","3","1","Die Teilnahme war spannend, ich konnte leider nicht entschlüsseln worum es ging. ","0","1","0","null","","","<div style=""font-size:60px;"">+</div>","null","","","","","","","","","",""
"","html-keyboard-response","152","582193","0.0-10.0-1.7","m3doycl30t","one_one","1","direct_first","1","pp05al20","1","21","1","1","3","1","Die Teilnahme war spannend, ich konnte leider nicht entschlüsseln worum es ging. ","0","1","0","null","","","<img src = 'category4/CS1.png' width = '100%;'>","null","","","","","","","","","",""
"","html-keyboard-response","153","582449","0.0-10.0-2.7","m3doycl30t","one_one","1","direct_first","1","pp05al20","1","21","1","1","3","1","Die Teilnahme war spannend, ich konnte leider nicht entschlüsseln worum es ging. ","0","1","0","null","","","<img src = 'targets/24.png' width = '100%;'>","null","","","","","","","","","",""
"","html-keyboard-response","154","583515","0.0-10.0-3.7","m3doycl30t","one_one","1","direct_first","1","pp05al20","1","21","1","1","3","1","Die Teilnahme war spannend, ich konnte leider nicht entschlüsseln worum es ging. ","0","1","0","1064.8949998430908","","","<img src = 'targets/mask.png' width = '100%;'>","75","pos","GS","GSold","4","category4/CS1.png","","targets/24.png","indirect","1","7"
"","html-keyboard-response","155","585037","0.0-10.0-0.8","m3doycl30t","one_one","1","direct_first","1","pp05al20","1","21","1","1","3","1","Die Teilnahme war spannend, ich konnte leider nicht entschlüsseln worum es ging. ","0","1","0","null","","","<div style=""font-size:60px;"">+</div>","null","","","","","","","","","",""
"","html-keyboard-response","156","585130","0.0-10.0-1.8","m3doycl30t","one_one","1","direct_first","1","pp05al20","1","21","1","1","3","1","Die Teilnahme war spannend, ich konnte leider nicht entschlüsseln worum es ging. ","0","1","0","null","","","<img src = 'category2/CS8.png' width = '100%;'>","null","","","","","","","","","",""
"","html-keyboard-response","157","585381","0.0-10.0-2.8","m3doycl30t","one_one","1","direct_first","1","pp05al20","1","21","1","1","3","1","Die Teilnahme war spannend, ich konnte leider nicht entschlüsseln worum es ging. ","0","1","0","null","","","<img src = 'targets/10.png' width = '100%;'>","null","","","","","","","","","",""
"","html-keyboard-response","158","586387","0.0-10.0-3.8","m3doycl30t","one_one","1","direct_first","1","pp05al20","1","21","1","1","3","1","Die Teilnahme war spannend, ich konnte leider nicht entschlüsseln worum es ging. ","0","1","0","1003.3849999308586","","","<img src = 'targets/mask.png' width = '100%;'>","75","pos","GS","GSold","2","category2/CS8.png","","targets/10.png","indirect","1","8"
"","html-keyboard-response","159","587905","0.0-10.0-0.9","m3doycl30t","one_one","1","direct_first","1","pp05al20","1","21","1","1","3","1","Die Teilnahme war spannend, ich konnte leider nicht entschlüsseln worum es ging. ","0","1","0","null","","","<div style=""font-size:60px;"">+</div>","null","","","","","","","","","",""
"","html-keyboard-response","160","587996","0.0-10.0-1.9","m3doycl30t","one_one","1","direct_first","1","pp05al20","1","21","1","1","3","1","Die Teilnahme war spannend, ich konnte leider nicht entschlüsseln worum es ging. ","0","1","0","null","","","<img src = 'category3/CS2.png' width = '100%;'>","null","","","","","","","","","",""
"","html-keyboard-response","161","588267","0.0-10.0-2.9","m3doycl30t","one_one","1","direct_first","1","pp05al20","1","21","1","1","3","1","Die Teilnahme war spannend, ich konnte leider nicht entschlüsseln worum es ging. ","0","1","0","null","","","<img src = 'targets/44.png' width = '100%;'>","null","","","","","","","","","",""
"","html-keyboard-response","162","589171","0.0-10.0-3.9","m3doycl30t","one_one","1","direct_first","1","pp05al20","1","21","1","1","3","1","Die Teilnahme war spannend, ich konnte leider nicht entschlüsseln worum es ging. ","0","1","0","903.1400000676513","","","<img src = 'targets/mask.png' width = '100%;'>","75","neg","CS","CS","3","category3/CS2.png","","targets/44.png","indirect","1","9"
"","html-keyboard-response","163","590679","0.0-10.0-0.10","m3doycl30t","one_one","1","direct_first","1","pp05al20","1","21","1","1","3","1","Die Teilnahme war spannend, ich konnte leider nicht entschlüsseln worum es ging. ","0","1","0","null","","","<div style=""font-size:60px;"">+</div>","null","","","","","","","","","",""
"","html-keyboard-response","164","590772","0.0-10.0-1.10","m3doycl30t","one_one","1","direct_first","1","pp05al20","1","21","1","1","3","1","Die Teilnahme war spannend, ich konnte leider nicht entschlüsseln worum es ging. ","0","1","0","null","","","<img src = 'category2/CS7.png' width = '100%;'>","null","","","","","","","","","",""
"","html-keyboard-response","165","591052","0.0-10.0-2.10","m3doycl30t","one_one","1","direct_first","1","pp05al20","1","21","1","1","3","1","Die Teilnahme war spannend, ich konnte leider nicht entschlüsseln worum es ging. ","0","1","0","null","","","<img src = 'targets/20.png' width = '100%;'>","null","","","","","","","","","",""
"","html-keyboard-response","166","591708","0.0-10.0-3.10","m3doycl30t","one_one","1","direct_first","1","pp05al20","1","21","1","1","3","1","Die Teilnahme war spannend, ich konnte leider nicht entschlüsseln worum es ging. ","0","1","0","652.534999884665","","","<img src = 'targets/mask.png' width = '100%;'>","75","pos","CS","CS","2","category2/CS7.png","","targets/20.png","indirect","1","10"
"","html-keyboard-response","167","593228","0.0-10.0-0.11","m3doycl30t","one_one","1","direct_first","1","pp05al20","1","21","1","1","3","1","Die Teilnahme war spannend, ich konnte leider nicht entschlüsseln worum es ging. ","0","1","0","null","","","<div style=""font-size:60px;"">+</div>","null","","","","","","","","","",""
"","html-keyboard-response","168","593321","0.0-10.0-1.11","m3doycl30t","one_one","1","direct_first","1","pp05al20","1","21","1","1","3","1","Die Teilnahme war spannend, ich konnte leider nicht entschlüsseln worum es ging. ","0","1","0","null","","","<img src = 'category3/CS7.png' width = '100%;'>","null","","","","","","","","","",""
"","html-keyboard-response","169","593585","0.0-10.0-2.11","m3doycl30t","one_one","1","direct_first","1","pp05al20","1","21","1","1","3","1","Die Teilnahme war spannend, ich konnte leider nicht entschlüsseln worum es ging. ","0","1","0","null","","","<img src = 'targets/29.png' width = '100%;'>","null","","","","","","","","","",""
"","html-keyboard-response","170","595514","0.0-10.0-3.11","m3doycl30t","one_one","1","direct_first","1","pp05al20","1","21","1","1","3","1","Die Teilnahme war spannend, ich konnte leider nicht entschlüsseln worum es ging. ","0","1","0","1927.1850001532584","","","<img src = 'targets/mask.png' width = '100%;'>","75","neg","GS","GSold","3","category3/CS7.png","","targets/29.png","indirect","1","11"
"","html-keyboard-response","171","597034","0.0-10.0-0.12","m3doycl30t","one_one","1","direct_first","1","pp05al20","1","21","1","1","3","1","Die Teilnahme war spannend, ich konnte leider nicht entschlüsseln worum es ging. ","0","1","0","null","","","<div style=""font-size:60px;"">+</div>","null","","","","","","","","","",""
"","html-keyboard-response","172","597128","0.0-10.0-1.12","m3doycl30t","one_one","1","direct_first","1","pp05al20","1","21","1","1","3","1","Die Teilnahme war spannend, ich konnte leider nicht entschlüsseln worum es ging. ","0","1","0","null","","","<img src = 'category1/CS5.png' width = '100%;'>","null","","","","","","","","","",""
"","html-keyboard-response","173","597381","0.0-10.0-2.12","m3doycl30t","one_one","1","direct_first","1","pp05al20","1","21","1","1","3","1","Die Teilnahme war spannend, ich konnte leider nicht entschlüsseln worum es ging. ","0","1","0","null","","","<img src = 'targets/18.png' width = '100%;'>","null","","","","","","","","","",""
"","html-keyboard-response","174","599532","0.0-10.0-3.12","m3doycl30t","one_one","1","direct_first","1","pp05al20","1","21","1","1","3","1","Die Teilnahme war spannend, ich konnte leider nicht entschlüsseln worum es ging. ","0","1","0","2148.0650000739843","","","<img src = 'targets/mask.png' width = '100%;'>","68","neg","GS","GSold","1","category1/CS5.png","","targets/18.png","indirect","0","12"
"","html-keyboard-response","175","601053","0.0-10.0-0.13","m3doycl30t","one_one","1","direct_first","1","pp05al20","1","21","1","1","3","1","Die Teilnahme war spannend, ich konnte leider nicht entschlüsseln worum es ging. ","0","1","0","null","","","<div style=""font-size:60px;"">+</div>","null","","","","","","","","","",""
"","html-keyboard-response","176","601145","0.0-10.0-1.13","m3doycl30t","one_one","1","direct_first","1","pp05al20","1","21","1","1","3","1","Die Teilnahme war spannend, ich konnte leider nicht entschlüsseln worum es ging. ","0","1","0","null","","","<img src = 'category4/CS4.png' width = '100%;'>","null","","","","","","","","","",""
"","html-keyboard-response","177","601412","0.0-10.0-2.13","m3doycl30t","one_one","1","direct_first","1","pp05al20","1","21","1","1","3","1","Die Teilnahme war spannend, ich konnte leider nicht entschlüsseln worum es ging. ","0","1","0","null","","","<img src = 'targets/11.png' width = '100%;'>","null","","","","","","","","","",""
"","html-keyboard-response","178","602452","0.0-10.0-3.13","m3doycl30t","one_one","1","direct_first","1","pp05al20","1","21","1","1","3","1","Die Teilnahme war spannend, ich konnte leider nicht entschlüsseln worum es ging. ","0","1","0","1037.9900000989437","","","<img src = 'targets/mask.png' width = '100%;'>","68","pos","GS","GSold","4","category4/CS4.png","","targets/11.png","indirect","0","13"
"","html-keyboard-response","179","603963","0.0-10.0-0.14","m3doycl30t","one_one","1","direct_first","1","pp05al20","1","21","1","1","3","1","Die Teilnahme war spannend, ich konnte leider nicht entschlüsseln worum es ging. ","0","1","0","null","","","<div style=""font-size:60px;"">+</div>","null","","","","","","","","","",""
"","html-keyboard-response","180","604055","0.0-10.0-1.14","m3doycl30t","one_one","1","direct_first","1","pp05al20","1","21","1","1","3","1","Die Teilnahme war spannend, ich konnte leider nicht entschlüsseln worum es ging. ","0","1","0","null","","","<img src = 'category2/CS5.png' width = '100%;'>","null","","","","","","","","","",""
"","html-keyboard-response","181","604310","0.0-10.0-2.14","m3doycl30t","one_one","1","direct_first","1","pp05al20","1","21","1","1","3","1","Die Teilnahme war spannend, ich konnte leider nicht entschlüsseln worum es ging. ","0","1","0","null","","","<img src = 'targets/36.png' width = '100%;'>","null","","","","","","","","","",""
"","html-keyboard-response","182","605275","0.0-10.0-3.14","m3doycl30t","one_one","1","direct_first","1","pp05al20","1","21","1","1","3","1","Die Teilnahme war spannend, ich konnte leider nicht entschlüsseln worum es ging. ","0","1","0","962.9249998833984","","","<img src = 'targets/mask.png' width = '100%;'>","75","pos","GS","GSold","2","category2/CS5.png","","targets/36.png","indirect","1","14"
"","html-keyboard-response","183","606793","0.0-10.0-0.15","m3doycl30t","one_one","1","direct_first","1","pp05al20","1","21","1","1","3","1","Die Teilnahme war spannend, ich konnte leider nicht entschlüsseln worum es ging. ","0","1","0","null","","","<div style=""font-size:60px;"">+</div>","null","","","","","","","","","",""
"","html-keyboard-response","184","606883","0.0-10.0-1.15","m3doycl30t","one_one","1","direct_first","1","pp05al20","1","21","1","1","3","1","Die Teilnahme war spannend, ich konnte leider nicht entschlüsseln worum es ging. ","0","1","0","null","","","<img src = 'category3/CS5.png' width = '100%;'>","null","","","","","","","","","",""
"","html-keyboard-response","185","607154","0.0-10.0-2.15","m3doycl30t","one_one","1","direct_first","1","pp05al20","1","21","1","1","3","1","Die Teilnahme war spannend, ich konnte leider nicht entschlüsseln worum es ging. ","0","1","0","null","","","<img src = 'targets/9.png' width = '100%;'>","null","","","","","","","","","",""
"","html-keyboard-response","186","607795","0.0-10.0-3.15","m3doycl30t","one_one","1","direct_first","1","pp05al20","1","21","1","1","3","1","Die Teilnahme war spannend, ich konnte leider nicht entschlüsseln worum es ging. ","0","1","0","639.7300001699477","","","<img src = 'targets/mask.png' width = '100%;'>","75","neg","GS","GSold","3","category3/CS5.png","","targets/9.png","indirect","1","15"
"","survey-html-form","187","613195","0.0-11.0","m3doycl30t","one_one","1","direct_first","1","pp05al20","1","21","1","1","3","1","Die Teilnahme war spannend, ich konnte leider nicht entschlüsseln worum es ging. ","0","1","0","4888.479999965057","","{}","","","","","","","","","","","",""
"","html-keyboard-response","188","616217","0.0-12.0-0.0","m3doycl30t","one_one","1","direct_first","1","pp05al20","1","21","1","1","3","1","Die Teilnahme war spannend, ich konnte leider nicht entschlüsseln worum es ging. ","0","1","0","null","","","<div style=""font-size:60px;"">+</div>","null","","","","","","","","","",""
"","html-keyboard-response","189","616309","0.0-12.0-1.0","m3doycl30t","one_one","1","direct_first","1","pp05al20","1","21","1","1","3","1","Die Teilnahme war spannend, ich konnte leider nicht entschlüsseln worum es ging. ","0","1","0","null","","","<img src = 'category1/GS2.png' width = '100%;'>","null","","","","","","","","","",""
"","html-keyboard-response","190","616566","0.0-12.0-2.0","m3doycl30t","one_one","1","direct_first","1","pp05al20","1","21","1","1","3","1","Die Teilnahme war spannend, ich konnte leider nicht entschlüsseln worum es ging. ","0","1","0","null","","","<img src = 'targets/46.png' width = '100%;'>","null","","","","","","","","","",""
"","html-keyboard-response","191","617618","0.0-12.0-3.0","m3doycl30t","one_one","1","direct_first","1","pp05al20","1","21","1","1","3","1","Die Teilnahme war spannend, ich konnte leider nicht entschlüsseln worum es ging. ","0","1","0","1049.1900001652539","","","<img src = 'targets/mask.png' width = '100%;'>","68","neg","GS","GSnew","1","category1/GS2.png","","targets/46.png","indirect","0","16"
"","html-keyboard-response","192","619139","0.0-12.0-0.1","m3doycl30t","one_one","1","direct_first","1","pp05al20","1","21","1","1","3","1","Die Teilnahme war spannend, ich konnte leider nicht entschlüsseln worum es ging. ","0","1","0","null","","","<div style=""font-size:60px;"">+</div>","null","","","","","","","","","",""
"","html-keyboard-response","193","619235","0.0-12.0-1.1","m3doycl30t","one_one","1","direct_first","1","pp05al20","1","21","1","1","3","1","Die Teilnahme war spannend, ich konnte leider nicht entschlüsseln worum es ging. ","0","1","0","null","","","<img src = 'category3/GS3.png' width = '100%;'>","null","","","","","","","","","",""
"","html-keyboard-response","194","619488","0.0-12.0-2.1","m3doycl30t","one_one","1","direct_first","1","pp05al20","1","21","1","1","3","1","Die Teilnahme war spannend, ich konnte leider nicht entschlüsseln worum es ging. ","0","1","0","null","","","<img src = 'targets/17.png' width = '100%;'>","null","","","","","","","","","",""
"","html-keyboard-response","195","620594","0.0-12.0-3.1","m3doycl30t","one_one","1","direct_first","1","pp05al20","1","21","1","1","3","1","Die Teilnahme war spannend, ich konnte leider nicht entschlüsseln worum es ging. ","0","1","0","1104.5600001234561","","","<img src = 'targets/mask.png' width = '100%;'>","75","neg","GS","GSnew","3","category3/GS3.png","","targets/17.png","indirect","1","17"
"","html-keyboard-response","196","622110","0.0-12.0-0.2","m3doycl30t","one_one","1","direct_first","1","pp05al20","1","21","1","1","3","1","Die Teilnahme war spannend, ich konnte leider nicht entschlüsseln worum es ging. ","0","1","0","null","","","<div style=""font-size:60px;"">+</div>","null","","","","","","","","","",""
"","html-keyboard-response","197","622202","0.0-12.0-1.2","m3doycl30t","one_one","1","direct_first","1","pp05al20","1","21","1","1","3","1","Die Teilnahme war spannend, ich konnte leider nicht entschlüsseln worum es ging. ","0","1","0","null","","","<img src = 'category4/GS3.png' width = '100%;'>","null","","","","","","","","","",""
"","html-keyboard-response","198","622473","0.0-12.0-2.2","m3doycl30t","one_one","1","direct_first","1","pp05al20","1","21","1","1","3","1","Die Teilnahme war spannend, ich konnte leider nicht entschlüsseln worum es ging. ","0","1","0","null","","","<img src = 'targets/12.png' width = '100%;'>","null","","","","","","","","","",""
"","html-keyboard-response","199","624116","0.0-12.0-3.2","m3doycl30t","one_one","1","direct_first","1","pp05al20","1","21","1","1","3","1","Die Teilnahme war spannend, ich konnte leider nicht entschlüsseln worum es ging. ","0","1","0","1641.5750000160187","","","<img src = 'targets/mask.png' width = '100%;'>","68","pos","GS","GSnew","4","category4/GS3.png","","targets/12.png","indirect","0","18"
"","html-keyboard-response","200","625630","0.0-12.0-0.3","m3doycl30t","one_one","1","direct_first","1","pp05al20","1","21","1","1","3","1","Die Teilnahme war spannend, ich konnte leider nicht entschlüsseln worum es ging. ","0","1","0","null","","","<div style=""font-size:60px;"">+</div>","null","","","","","","","","","",""
"","html-keyboard-response","201","625725","0.0-12.0-1.3","m3doycl30t","one_one","1","direct_first","1","pp05al20","1","21","1","1","3","1","Die Teilnahme war spannend, ich konnte leider nicht entschlüsseln worum es ging. ","0","1","0","null","","","<img src = 'category2/men.png' width = '100%;'>","null","","","","","","","","","",""
"","html-keyboard-response","202","625994","0.0-12.0-2.3","m3doycl30t","one_one","1","direct_first","1","pp05al20","1","21","1","1","3","1","Die Teilnahme war spannend, ich konnte leider nicht entschlüsseln worum es ging. ","0","1","0","null","","","<img src = 'targets/22.png' width = '100%;'>","null","","","","","","","","","",""
"","html-keyboard-response","203","626667","0.0-12.0-3.3","m3doycl30t","one_one","1","direct_first","1","pp05al20","1","21","1","1","3","1","Die Teilnahme war spannend, ich konnte leider nicht entschlüsseln worum es ging. ","0","1","0","670.4800000879914","","","<img src = 'targets/mask.png' width = '100%;'>","75","pos","GS","abstract","2","category2/men.png","","targets/22.png","indirect","1","19"
"","html-keyboard-response","204","628177","0.0-12.0-0.4","m3doycl30t","one_one","1","direct_first","1","pp05al20","1","21","1","1","3","1","Die Teilnahme war spannend, ich konnte leider nicht entschlüsseln worum es ging. ","0","1","0","null","","","<div style=""font-size:60px;"">+</div>","null","","","","","","","","","",""
"","html-keyboard-response","205","628269","0.0-12.0-1.4","m3doycl30t","one_one","1","direct_first","1","pp05al20","1","21","1","1","3","1","Die Teilnahme war spannend, ich konnte leider nicht entschlüsseln worum es ging. ","0","1","0","null","","","<img src = 'category3/wang.png' width = '100%;'>","null","","","","","","","","","",""
"","html-keyboard-response","206","628536","0.0-12.0-2.4","m3doycl30t","one_one","1","direct_first","1","pp05al20","1","21","1","1","3","1","Die Teilnahme war spannend, ich konnte leider nicht entschlüsseln worum es ging. ","0","1","0","null","","","<img src = 'targets/19.png' width = '100%;'>","null","","","","","","","","","",""
"","html-keyboard-response","207","629875","0.0-12.0-3.4","m3doycl30t","one_one","1","direct_first","1","pp05al20","1","21","1","1","3","1","Die Teilnahme war spannend, ich konnte leider nicht entschlüsseln worum es ging. ","0","1","0","1337.7999998629093","","","<img src = 'targets/mask.png' width = '100%;'>","75","neg","GS","abstract","3","category3/wang.png","","targets/19.png","indirect","1","20"
"","html-keyboard-response","208","631383","0.0-12.0-0.5","m3doycl30t","one_one","1","direct_first","1","pp05al20","1","21","1","1","3","1","Die Teilnahme war spannend, ich konnte leider nicht entschlüsseln worum es ging. ","0","1","0","null","","","<div style=""font-size:60px;"">+</div>","null","","","","","","","","","",""
"","html-keyboard-response","209","631474","0.0-12.0-1.5","m3doycl30t","one_one","1","direct_first","1","pp05al20","1","21","1","1","3","1","Die Teilnahme war spannend, ich konnte leider nicht entschlüsseln worum es ging. ","0","1","0","null","","","<img src = 'category1/GS3.png' width = '100%;'>","null","","","","","","","","","",""
"","html-keyboard-response","210","631741","0.0-12.0-2.5","m3doycl30t","one_one","1","direct_first","1","pp05al20","1","21","1","1","3","1","Die Teilnahme war spannend, ich konnte leider nicht entschlüsseln worum es ging. ","0","1","0","null","","","<img src = 'targets/3.png' width = '100%;'>","null","","","","","","","","","",""
"","html-keyboard-response","211","633059","0.0-12.0-3.5","m3doycl30t","one_one","1","direct_first","1","pp05al20","1","21","1","1","3","1","Die Teilnahme war spannend, ich konnte leider nicht entschlüsseln worum es ging. ","0","1","0","1315.679999999702","","","<img src = 'targets/mask.png' width = '100%;'>","68","neg","GS","GSnew","1","category1/GS3.png","","targets/3.png","indirect","0","21"
"","html-keyboard-response","212","634573","0.0-12.0-0.6","m3doycl30t","one_one","1","direct_first","1","pp05al20","1","21","1","1","3","1","Die Teilnahme war spannend, ich konnte leider nicht entschlüsseln worum es ging. ","0","1","0","null","","","<div style=""font-size:60px;"">+</div>","null","","","","","","","","","",""
"","html-keyboard-response","213","634665","0.0-12.0-1.6","m3doycl30t","one_one","1","direct_first","1","pp05al20","1","21","1","1","3","1","Die Teilnahme war spannend, ich konnte leider nicht entschlüsseln worum es ging. ","0","1","0","null","","","<img src = 'category4/GS1.png' width = '100%;'>","null","","","","","","","","","",""
"","html-keyboard-response","214","634919","0.0-12.0-2.6","m3doycl30t","one_one","1","direct_first","1","pp05al20","1","21","1","1","3","1","Die Teilnahme war spannend, ich konnte leider nicht entschlüsseln worum es ging. ","0","1","0","null","","","<img src = 'targets/39.png' width = '100%;'>","null","","","","","","","","","",""
"","html-keyboard-response","215","636108","0.0-12.0-3.6","m3doycl30t","one_one","1","direct_first","1","pp05al20","1","21","1","1","3","1","Die Teilnahme war spannend, ich konnte leider nicht entschlüsseln worum es ging. ","0","1","0","1185.8200000133365","","","<img src = 'targets/mask.png' width = '100%;'>","68","pos","GS","GSnew","4","category4/GS1.png","","targets/39.png","indirect","0","22"
"","html-keyboard-response","216","637633","0.0-12.0-0.7","m3doycl30t","one_one","1","direct_first","1","pp05al20","1","21","1","1","3","1","Die Teilnahme war spannend, ich konnte leider nicht entschlüsseln worum es ging. ","0","1","0","null","","","<div style=""font-size:60px;"">+</div>","null","","","","","","","","","",""
"","html-keyboard-response","217","637725","0.0-12.0-1.7","m3doycl30t","one_one","1","direct_first","1","pp05al20","1","21","1","1","3","1","Die Teilnahme war spannend, ich konnte leider nicht entschlüsseln worum es ging. ","0","1","0","null","","","<img src = 'category4/lin.png' width = '100%;'>","null","","","","","","","","","",""
"","html-keyboard-response","218","637991","0.0-12.0-2.7","m3doycl30t","one_one","1","direct_first","1","pp05al20","1","21","1","1","3","1","Die Teilnahme war spannend, ich konnte leider nicht entschlüsseln worum es ging. ","0","1","0","null","","","<img src = 'targets/8.png' width = '100%;'>","null","","","","","","","","","",""
"","html-keyboard-response","219","638563","0.0-12.0-3.7","m3doycl30t","one_one","1","direct_first","1","pp05al20","1","21","1","1","3","1","Die Teilnahme war spannend, ich konnte leider nicht entschlüsseln worum es ging. ","0","1","0","570.2299999538809","","","<img src = 'targets/mask.png' width = '100%;'>","75","pos","GS","abstract","4","category4/lin.png","","targets/8.png","indirect","1","23"
"","html-keyboard-response","220","640076","0.0-12.0-0.8","m3doycl30t","one_one","1","direct_first","1","pp05al20","1","21","1","1","3","1","Die Teilnahme war spannend, ich konnte leider nicht entschlüsseln worum es ging. ","0","1","0","null","","","<div style=""font-size:60px;"">+</div>","null","","","","","","","","","",""
"","html-keyboard-response","221","640171","0.0-12.0-1.8","m3doycl30t","one_one","1","direct_first","1","pp05al20","1","21","1","1","3","1","Die Teilnahme war spannend, ich konnte leider nicht entschlüsseln worum es ging. ","0","1","0","null","","","<img src = 'category2/GS2.png' width = '100%;'>","null","","","","","","","","","",""
"","html-keyboard-response","222","640423","0.0-12.0-2.8","m3doycl30t","one_one","1","direct_first","1","pp05al20","1","21","1","1","3","1","Die Teilnahme war spannend, ich konnte leider nicht entschlüsseln worum es ging. ","0","1","0","null","","","<img src = 'targets/27.png' width = '100%;'>","null","","","","","","","","","",""
"","html-keyboard-response","223","641388","0.0-12.0-3.8","m3doycl30t","one_one","1","direct_first","1","pp05al20","1","21","1","1","3","1","Die Teilnahme war spannend, ich konnte leider nicht entschlüsseln worum es ging. ","0","1","0","962.264999980107","","","<img src = 'targets/mask.png' width = '100%;'>","68","pos","GS","GSnew","2","category2/GS2.png","","targets/27.png","indirect","0","24"
"","html-keyboard-response","224","642896","0.0-12.0-0.9","m3doycl30t","one_one","1","direct_first","1","pp05al20","1","21","1","1","3","1","Die Teilnahme war spannend, ich konnte leider nicht entschlüsseln worum es ging. ","0","1","0","null","","","<div style=""font-size:60px;"">+</div>","null","","","","","","","","","",""
"","html-keyboard-response","225","642988","0.0-12.0-1.9","m3doycl30t","one_one","1","direct_first","1","pp05al20","1","21","1","1","3","1","Die Teilnahme war spannend, ich konnte leider nicht entschlüsseln worum es ging. ","0","1","0","null","","","<img src = 'category2/GS1.png' width = '100%;'>","null","","","","","","","","","",""
"","html-keyboard-response","226","643239","0.0-12.0-2.9","m3doycl30t","one_one","1","direct_first","1","pp05al20","1","21","1","1","3","1","Die Teilnahme war spannend, ich konnte leider nicht entschlüsseln worum es ging. ","0","1","0","null","","","<img src = 'targets/25.png' width = '100%;'>","null","","","","","","","","","",""
"","html-keyboard-response","227","643980","0.0-12.0-3.9","m3doycl30t","one_one","1","direct_first","1","pp05al20","1","21","1","1","3","1","Die Teilnahme war spannend, ich konnte leider nicht entschlüsseln worum es ging. ","0","1","0","737.8399998415262","","","<img src = 'targets/mask.png' width = '100%;'>","68","pos","GS","GSnew","2","category2/GS1.png","","targets/25.png","indirect","0","25"
"","html-keyboard-response","228","645493","0.0-12.0-0.10","m3doycl30t","one_one","1","direct_first","1","pp05al20","1","21","1","1","3","1","Die Teilnahme war spannend, ich konnte leider nicht entschlüsseln worum es ging. ","0","1","0","null","","","<div style=""font-size:60px;"">+</div>","null","","","","","","","","","",""
"","html-keyboard-response","229","645600","0.0-12.0-1.10","m3doycl30t","one_one","1","direct_first","1","pp05al20","1","21","1","1","3","1","Die Teilnahme war spannend, ich konnte leider nicht entschlüsseln worum es ging. ","0","1","0","null","","","<img src = 'category1/GS1.png' width = '100%;'>","null","","","","","","","","","",""
"","html-keyboard-response","230","645867","0.0-12.0-2.10","m3doycl30t","one_one","1","direct_first","1","pp05al20","1","21","1","1","3","1","Die Teilnahme war spannend, ich konnte leider nicht entschlüsseln worum es ging. ","0","1","0","null","","","<img src = 'targets/33.png' width = '100%;'>","null","","","","","","","","","",""
"","html-keyboard-response","231","646699","0.0-12.0-3.10","m3doycl30t","one_one","1","direct_first","1","pp05al20","1","21","1","1","3","1","Die Teilnahme war spannend, ich konnte leider nicht entschlüsseln worum es ging. ","0","1","0","830.7899998035282","","","<img src = 'targets/mask.png' width = '100%;'>","75","neg","GS","GSnew","1","category1/GS1.png","","targets/33.png","indirect","1","26"
"","html-keyboard-response","232","648227","0.0-12.0-0.11","m3doycl30t","one_one","1","direct_first","1","pp05al20","1","21","1","1","3","1","Die Teilnahme war spannend, ich konnte leider nicht entschlüsseln worum es ging. ","0","1","0","null","","","<div style=""font-size:60px;"">+</div>","null","","","","","","","","","",""
"","html-keyboard-response","233","648320","0.0-12.0-1.11","m3doycl30t","one_one","1","direct_first","1","pp05al20","1","21","1","1","3","1","Die Teilnahme war spannend, ich konnte leider nicht entschlüsseln worum es ging. ","0","1","0","null","","","<img src = 'category1/ma.png' width = '100%;'>","null","","","","","","","","","",""
"","html-keyboard-response","234","648600","0.0-12.0-2.11","m3doycl30t","one_one","1","direct_first","1","pp05al20","1","21","1","1","3","1","Die Teilnahme war spannend, ich konnte leider nicht entschlüsseln worum es ging. ","0","1","0","null","","","<img src = 'targets/31.png' width = '100%;'>","null","","","","","","","","","",""
"","html-keyboard-response","235","650141","0.0-12.0-3.11","m3doycl30t","one_one","1","direct_first","1","pp05al20","1","21","1","1","3","1","Die Teilnahme war spannend, ich konnte leider nicht entschlüsseln worum es ging. ","0","1","0","1538.494999986142","","","<img src = 'targets/mask.png' width = '100%;'>","75","neg","GS","abstract","1","category1/ma.png","","targets/31.png","indirect","1","27"
"","html-keyboard-response","236","651660","0.0-12.0-0.12","m3doycl30t","one_one","1","direct_first","1","pp05al20","1","21","1","1","3","1","Die Teilnahme war spannend, ich konnte leider nicht entschlüsseln worum es ging. ","0","1","0","null","","","<div style=""font-size:60px;"">+</div>","null","","","","","","","","","",""
"","html-keyboard-response","237","651754","0.0-12.0-1.12","m3doycl30t","one_one","1","direct_first","1","pp05al20","1","21","1","1","3","1","Die Teilnahme war spannend, ich konnte leider nicht entschlüsseln worum es ging. ","0","1","0","null","","","<img src = 'category4/GS2.png' width = '100%;'>","null","","","","","","","","","",""
"","html-keyboard-response","238","652018","0.0-12.0-2.12","m3doycl30t","one_one","1","direct_first","1","pp05al20","1","21","1","1","3","1","Die Teilnahme war spannend, ich konnte leider nicht entschlüsseln worum es ging. ","0","1","0","null","","","<img src = 'targets/13.png' width = '100%;'>","null","","","","","","","","","",""
"","html-keyboard-response","239","652771","0.0-12.0-3.12","m3doycl30t","one_one","1","direct_first","1","pp05al20","1","21","1","1","3","1","Die Teilnahme war spannend, ich konnte leider nicht entschlüsseln worum es ging. ","0","1","0","750.3849999047816","","","<img src = 'targets/mask.png' width = '100%;'>","68","pos","GS","GSnew","4","category4/GS2.png","","targets/13.png","indirect","0","28"
"","html-keyboard-response","240","654288","0.0-12.0-0.13","m3doycl30t","one_one","1","direct_first","1","pp05al20","1","21","1","1","3","1","Die Teilnahme war spannend, ich konnte leider nicht entschlüsseln worum es ging. ","0","1","0","null","","","<div style=""font-size:60px;"">+</div>","null","","","","","","","","","",""
"","html-keyboard-response","241","654381","0.0-12.0-1.13","m3doycl30t","one_one","1","direct_first","1","pp05al20","1","21","1","1","3","1","Die Teilnahme war spannend, ich konnte leider nicht entschlüsseln worum es ging. ","0","1","0","null","","","<img src = 'category3/GS2.png' width = '100%;'>","null","","","","","","","","","",""
"","html-keyboard-response","242","654635","0.0-12.0-2.13","m3doycl30t","one_one","1","direct_first","1","pp05al20","1","21","1","1","3","1","Die Teilnahme war spannend, ich konnte leider nicht entschlüsseln worum es ging. ","0","1","0","null","","","<img src = 'targets/16.png' width = '100%;'>","null","","","","","","","","","",""
"","html-keyboard-response","243","655339","0.0-12.0-3.13","m3doycl30t","one_one","1","direct_first","1","pp05al20","1","21","1","1","3","1","Die Teilnahme war spannend, ich konnte leider nicht entschlüsseln worum es ging. ","0","1","0","702.1749999839813","","","<img src = 'targets/mask.png' width = '100%;'>","68","neg","GS","GSnew","3","category3/GS2.png","","targets/16.png","indirect","0","29"
"","html-keyboard-response","244","656856","0.0-12.0-0.14","m3doycl30t","one_one","1","direct_first","1","pp05al20","1","21","1","1","3","1","Die Teilnahme war spannend, ich konnte leider nicht entschlüsseln worum es ging. ","0","1","0","null","","","<div style=""font-size:60px;"">+</div>","null","","","","","","","","","",""
"","html-keyboard-response","245","656952","0.0-12.0-1.14","m3doycl30t","one_one","1","direct_first","1","pp05al20","1","21","1","1","3","1","Die Teilnahme war spannend, ich konnte leider nicht entschlüsseln worum es ging. ","0","1","0","null","","","<img src = 'category3/GS1.png' width = '100%;'>","null","","","","","","","","","",""
"","html-keyboard-response","246","657207","0.0-12.0-2.14","m3doycl30t","one_one","1","direct_first","1","pp05al20","1","21","1","1","3","1","Die Teilnahme war spannend, ich konnte leider nicht entschlüsseln worum es ging. ","0","1","0","null","","","<img src = 'targets/35.png' width = '100%;'>","null","","","","","","","","","",""
"","html-keyboard-response","247","658253","0.0-12.0-3.14","m3doycl30t","one_one","1","direct_first","1","pp05al20","1","21","1","1","3","1","Die Teilnahme war spannend, ich konnte leider nicht entschlüsseln worum es ging. ","0","1","0","1043.9400000032037","","","<img src = 'targets/mask.png' width = '100%;'>","68","neg","GS","GSnew","3","category3/GS1.png","","targets/35.png","indirect","0","30"
"","html-keyboard-response","248","659769","0.0-12.0-0.15","m3doycl30t","one_one","1","direct_first","1","pp05al20","1","21","1","1","3","1","Die Teilnahme war spannend, ich konnte leider nicht entschlüsseln worum es ging. ","0","1","0","null","","","<div style=""font-size:60px;"">+</div>","null","","","","","","","","","",""
"","html-keyboard-response","249","659862","0.0-12.0-1.15","m3doycl30t","one_one","1","direct_first","1","pp05al20","1","21","1","1","3","1","Die Teilnahme war spannend, ich konnte leider nicht entschlüsseln worum es ging. ","0","1","0","null","","","<img src = 'category2/GS3.png' width = '100%;'>","null","","","","","","","","","",""
"","html-keyboard-response","250","660117","0.0-12.0-2.15","m3doycl30t","one_one","1","direct_first","1","pp05al20","1","21","1","1","3","1","Die Teilnahme war spannend, ich konnte leider nicht entschlüsseln worum es ging. ","0","1","0","null","","","<img src = 'targets/4.png' width = '100%;'>","null","","","","","","","","","",""
"","html-keyboard-response","251","661412","0.0-12.0-3.15","m3doycl30t","one_one","1","direct_first","1","pp05al20","1","21","1","1","3","1","Die Teilnahme war spannend, ich konnte leider nicht entschlüsseln worum es ging. ","0","1","0","1293.959999922663","","","<img src = 'targets/mask.png' width = '100%;'>","68","pos","GS","GSnew","2","category2/GS3.png","","targets/4.png","indirect","0","31"
