"success","trial_type","trial_index","time_elapsed","internal_node_id","subject","condition","condition_code","measure","measure_code","codeword","gender","age","education","chinese","fach","handedness","comment","hinschauen","ablenkung","gewissenhaft","rt","url","responses","stimulus","key_press","val","type","type_specific","category","cs_selected","target","indirect","task","nr_pres","response"
"true","fullscreen","0","7080","0.0-0.0","68jqpf555d","many_one","0","indirect_first","0","CH06LD04","0","25","1","1","3","1","","0","1","0","","","","","","","","","","","","","","",""
"","external-html","1","18211","0.0-1.0","68jqpf555d","many_one","0","indirect_first","0","CH06LD04","0","25","1","1","3","1","","0","1","0","11093","text/information.html","","","","","","","","","","","","",""
"","external-html","2","29435","0.0-2.0","68jqpf555d","many_one","0","indirect_first","0","CH06LD04","0","25","1","1","3","1","","0","1","0","11163","text/consent.html","","","","","","","","","","","","",""
"","survey-html-form","3","78892","0.0-3.0","68jqpf555d","many_one","0","indirect_first","0","CH06LD04","0","25","1","1","3","1","","0","1","0","49449","","{""codeword_enter"":""CH06LD04""}","","","","","","","","","","","",""
"","survey-html-form","4","105670","0.0-4.0","68jqpf555d","many_one","0","indirect_first","0","CH06LD04","0","25","1","1","3","1","","0","1","0","26773","","{""age"":""25"",""education"":""1"",""subject"":""3"",""gender"":""0"",""handedness"":""1"",""chinese"":""1""}","","","","","","","","","","","",""
"","survey-html-form","5","122805","0.0-5.0","68jqpf555d","many_one","0","indirect_first","0","CH06LD04","0","25","1","1","3","1","","0","1","0","17133","","{}","","","","","","","","","","","",""
"","html-keyboard-response","6","126811","0.0-6.0-0.0-0.0","68jqpf555d","many_one","0","indirect_first","0","CH06LD04","0","25","1","1","3","1","","0","1","0","null","","","<div class = 'row'><div class = 'column'><img src = 'uspos/2550.bmp' width = '100%;'></div><div class = 'column'><img src = 'category3/CS2.png' width = '70%;'></div></div>","null","pos","CS","CS","3","category3/CS2.png","","","","",""
"","html-keyboard-response","7","129315","0.0-6.0-0.0-0.1","68jqpf555d","many_one","0","indirect_first","0","CH06LD04","0","25","1","1","3","1","","0","1","0","null","","","<div class = 'row'><div class = 'column'><img src = 'uspos/8490.bmp' width = '100%;'></div><div class = 'column'><img src = 'category1/CS5.png' width = '70%;'></div></div>","null","pos","CS","CS","1","category1/CS5.png","","","","",""
"","html-keyboard-response","8","131821","0.0-6.0-0.0-0.2","68jqpf555d","many_one","0","indirect_first","0","CH06LD04","0","25","1","1","3","1","","0","1","0","null","","","<div class = 'row'><div class = 'column'><img src = 'category2/CS4.png' width = '70%;'></div><div class = 'column'><img src = 'usneg/9330.bmp' width = '100%;'></div></div>","null","neg","CS","CS","2","category2/CS4.png","","","","",""
"","html-keyboard-response","9","134325","0.0-6.0-0.0-0.3","68jqpf555d","many_one","0","indirect_first","0","CH06LD04","0","25","1","1","3","1","","0","1","0","null","","","<div class = 'row'><div class = 'column'><img src = 'category3/CS10.png' width = '70%;'></div><div class = 'column'><img src = 'uspos/2530.bmp' width = '100%;'></div></div>","null","pos","CS","CS","3","category3/CS10.png","","","","",""
"","html-keyboard-response","10","136829","0.0-6.0-0.0-0.4","68jqpf555d","many_one","0","indirect_first","0","CH06LD04","0","25","1","1","3","1","","0","1","0","null","","","<div class = 'row'><div class = 'column'><img src = 'usneg/9181.bmp' width = '100%;'></div><div class = 'column'><img src = 'category4/CS3.png' width = '70%;'></div></div>","null","neg","CS","CS","4","category4/CS3.png","","","","",""
"","html-keyboard-response","11","139333","0.0-6.0-0.0-0.5","68jqpf555d","many_one","0","indirect_first","0","CH06LD04","0","25","1","1","3","1","","0","1","0","null","","","<div class = 'row'><div class = 'column'><img src = 'usneg/9041.bmp' width = '100%;'></div><div class = 'column'><img src = 'category4/CS7.png' width = '70%;'></div></div>","null","neg","CS","CS","4","category4/CS7.png","","","","",""
"","html-keyboard-response","12","141836","0.0-6.0-0.0-0.6","68jqpf555d","many_one","0","indirect_first","0","CH06LD04","0","25","1","1","3","1","","0","1","0","null","","","<div class = 'row'><div class = 'column'><img src = 'category3/CS5.png' width = '70%;'></div><div class = 'column'><img src = 'uspos/2030.bmp' width = '100%;'></div></div>","null","pos","CS","CS","3","category3/CS5.png","","","","",""
"","html-keyboard-response","13","144340","0.0-6.0-0.0-0.7","68jqpf555d","many_one","0","indirect_first","0","CH06LD04","0","25","1","1","3","1","","0","1","0","null","","","<div class = 'row'><div class = 'column'><img src = 'uspos/5831.bmp' width = '100%;'></div><div class = 'column'><img src = 'category3/CS1.png' width = '70%;'></div></div>","null","pos","CS","CS","3","category3/CS1.png","","","","",""
"","html-keyboard-response","14","146844","0.0-6.0-0.0-0.8","68jqpf555d","many_one","0","indirect_first","0","CH06LD04","0","25","1","1","3","1","","0","1","0","null","","","<div class = 'row'><div class = 'column'><img src = 'category4/CS10.png' width = '70%;'></div><div class = 'column'><img src = 'usneg/9920.bmp' width = '100%;'></div></div>","null","neg","CS","CS","4","category4/CS10.png","","","","",""
"","html-keyboard-response","15","149351","0.0-6.0-0.0-0.9","68jqpf555d","many_one","0","indirect_first","0","CH06LD04","0","25","1","1","3","1","","0","1","0","null","","","<div class = 'row'><div class = 'column'><img src = 'category1/CS6.png' width = '70%;'></div><div class = 'column'><img src = 'uspos/2341.bmp' width = '100%;'></div></div>","null","pos","CS","CS","1","category1/CS6.png","","","","",""
"","html-keyboard-response","16","151855","0.0-6.0-0.0-0.10","68jqpf555d","many_one","0","indirect_first","0","CH06LD04","0","25","1","1","3","1","","0","1","0","null","","","<div class = 'row'><div class = 'column'><img src = 'uspos/5470.bmp' width = '100%;'></div><div class = 'column'><img src = 'category1/CS3.png' width = '70%;'></div></div>","null","pos","CS","CS","1","category1/CS3.png","","","","",""
"","html-keyboard-response","17","154358","0.0-6.0-0.0-0.11","68jqpf555d","many_one","0","indirect_first","0","CH06LD04","0","25","1","1","3","1","","0","1","0","null","","","<div class = 'row'><div class = 'column'><img src = 'category3/CS6.png' width = '70%;'></div><div class = 'column'><img src = 'uspos/2165.bmp' width = '100%;'></div></div>","null","pos","CS","CS","3","category3/CS6.png","","","","",""
"","html-keyboard-response","18","156862","0.0-6.0-0.0-0.12","68jqpf555d","many_one","0","indirect_first","0","CH06LD04","0","25","1","1","3","1","","0","1","0","null","","","<div class = 'row'><div class = 'column'><img src = 'category2/CS3.png' width = '70%;'></div><div class = 'column'><img src = 'usneg/3300.bmp' width = '100%;'></div></div>","null","neg","CS","CS","2","category2/CS3.png","","","","",""
"","html-keyboard-response","19","159366","0.0-6.0-0.0-0.13","68jqpf555d","many_one","0","indirect_first","0","CH06LD04","0","25","1","1","3","1","","0","1","0","null","","","<div class = 'row'><div class = 'column'><img src = 'category4/CS5.png' width = '70%;'></div><div class = 'column'><img src = 'usneg/2205.bmp' width = '100%;'></div></div>","null","neg","CS","CS","4","category4/CS5.png","","","","",""
"","html-keyboard-response","20","161870","0.0-6.0-0.0-0.14","68jqpf555d","many_one","0","indirect_first","0","CH06LD04","0","25","1","1","3","1","","0","1","0","null","","","<div class = 'row'><div class = 'column'><img src = 'usneg/9182.bmp' width = '100%;'></div><div class = 'column'><img src = 'category2/CS2.png' width = '70%;'></div></div>","null","neg","CS","CS","2","category2/CS2.png","","","","",""
"","html-keyboard-response","21","164374","0.0-6.0-0.0-0.15","68jqpf555d","many_one","0","indirect_first","0","CH06LD04","0","25","1","1","3","1","","0","1","0","null","","","<div class = 'row'><div class = 'column'><img src = 'category2/CS9.png' width = '70%;'></div><div class = 'column'><img src = 'usneg/9435.bmp' width = '100%;'></div></div>","null","neg","CS","CS","2","category2/CS9.png","","","","",""
"","html-keyboard-response","22","166878","0.0-6.0-0.0-0.16","68jqpf555d","many_one","0","indirect_first","0","CH06LD04","0","25","1","1","3","1","","0","1","0","null","","","<div class = 'row'><div class = 'column'><img src = 'category2/CS5.png' width = '70%;'></div><div class = 'column'><img src = 'usneg/3181.bmp' width = '100%;'></div></div>","null","neg","CS","CS","2","category2/CS5.png","","","","",""
"","html-keyboard-response","23","169381","0.0-6.0-0.0-0.17","68jqpf555d","many_one","0","indirect_first","0","CH06LD04","0","25","1","1","3","1","","0","1","0","null","","","<div class = 'row'><div class = 'column'><img src = 'category4/CS2.png' width = '70%;'></div><div class = 'column'><img src = 'usneg/9520.bmp' width = '100%;'></div></div>","null","neg","CS","CS","4","category4/CS2.png","","","","",""
"","html-keyboard-response","24","171885","0.0-6.0-0.0-0.18","68jqpf555d","many_one","0","indirect_first","0","CH06LD04","0","25","1","1","3","1","","0","1","0","null","","","<div class = 'row'><div class = 'column'><img src = 'category1/CS2.png' width = '70%;'></div><div class = 'column'><img src = 'uspos/8080.bmp' width = '100%;'></div></div>","null","pos","CS","CS","1","category1/CS2.png","","","","",""
"","html-keyboard-response","25","174393","0.0-6.0-0.0-0.19","68jqpf555d","many_one","0","indirect_first","0","CH06LD04","0","25","1","1","3","1","","0","1","0","null","","","<div class = 'row'><div class = 'column'><img src = 'category1/CS8.png' width = '70%;'></div><div class = 'column'><img src = 'uspos/7580.bmp' width = '100%;'></div></div>","null","pos","CS","CS","1","category1/CS8.png","","","","",""
"","survey-html-form","26","181196","0.0-6.0-1.0","68jqpf555d","many_one","0","indirect_first","0","CH06LD04","0","25","1","1","3","1","","0","1","0","6301.000000000029","","{}","","","","","","","","","","","",""
"","html-keyboard-response","27","185200","0.0-6.0-2.0-0.0","68jqpf555d","many_one","0","indirect_first","0","CH06LD04","0","25","1","1","3","1","","0","1","0","null","","","<div class = 'row'><div class = 'column'><img src = 'category1/CS3.png' width = '70%;'></div><div class = 'column'><img src = 'uspos/5470.bmp' width = '100%;'></div></div>","null","pos","CS","CS","1","category1/CS3.png","","","","",""
"","html-keyboard-response","28","187704","0.0-6.0-2.0-0.1","68jqpf555d","many_one","0","indirect_first","0","CH06LD04","0","25","1","1","3","1","","0","1","0","null","","","<div class = 'row'><div class = 'column'><img src = 'usneg/9520.bmp' width = '100%;'></div><div class = 'column'><img src = 'category4/CS2.png' width = '70%;'></div></div>","null","neg","CS","CS","4","category4/CS2.png","","","","",""
"","html-keyboard-response","29","190207","0.0-6.0-2.0-0.2","68jqpf555d","many_one","0","indirect_first","0","CH06LD04","0","25","1","1","3","1","","0","1","0","null","","","<div class = 'row'><div class = 'column'><img src = 'category3/CS1.png' width = '70%;'></div><div class = 'column'><img src = 'uspos/5831.bmp' width = '100%;'></div></div>","null","pos","CS","CS","3","category3/CS1.png","","","","",""
"","html-keyboard-response","30","192713","0.0-6.0-2.0-0.3","68jqpf555d","many_one","0","indirect_first","0","CH06LD04","0","25","1","1","3","1","","0","1","0","null","","","<div class = 'row'><div class = 'column'><img src = 'uspos/2550.bmp' width = '100%;'></div><div class = 'column'><img src = 'category3/CS2.png' width = '70%;'></div></div>","null","pos","CS","CS","3","category3/CS2.png","","","","",""
"","html-keyboard-response","31","195217","0.0-6.0-2.0-0.4","68jqpf555d","many_one","0","indirect_first","0","CH06LD04","0","25","1","1","3","1","","0","1","0","null","","","<div class = 'row'><div class = 'column'><img src = 'uspos/2341.bmp' width = '100%;'></div><div class = 'column'><img src = 'category1/CS6.png' width = '70%;'></div></div>","null","pos","CS","CS","1","category1/CS6.png","","","","",""
"","html-keyboard-response","32","197721","0.0-6.0-2.0-0.5","68jqpf555d","many_one","0","indirect_first","0","CH06LD04","0","25","1","1","3","1","","0","1","0","null","","","<div class = 'row'><div class = 'column'><img src = 'category4/CS7.png' width = '70%;'></div><div class = 'column'><img src = 'usneg/9041.bmp' width = '100%;'></div></div>","null","neg","CS","CS","4","category4/CS7.png","","","","",""
"","html-keyboard-response","33","200225","0.0-6.0-2.0-0.6","68jqpf555d","many_one","0","indirect_first","0","CH06LD04","0","25","1","1","3","1","","0","1","0","null","","","<div class = 'row'><div class = 'column'><img src = 'uspos/2165.bmp' width = '100%;'></div><div class = 'column'><img src = 'category3/CS6.png' width = '70%;'></div></div>","null","pos","CS","CS","3","category3/CS6.png","","","","",""
"","html-keyboard-response","34","202730","0.0-6.0-2.0-0.7","68jqpf555d","many_one","0","indirect_first","0","CH06LD04","0","25","1","1","3","1","","0","1","0","null","","","<div class = 'row'><div class = 'column'><img src = 'category2/CS5.png' width = '70%;'></div><div class = 'column'><img src = 'usneg/3181.bmp' width = '100%;'></div></div>","null","neg","CS","CS","2","category2/CS5.png","","","","",""
"","html-keyboard-response","35","205234","0.0-6.0-2.0-0.8","68jqpf555d","many_one","0","indirect_first","0","CH06LD04","0","25","1","1","3","1","","0","1","0","null","","","<div class = 'row'><div class = 'column'><img src = 'category2/CS4.png' width = '70%;'></div><div class = 'column'><img src = 'usneg/9330.bmp' width = '100%;'></div></div>","null","neg","CS","CS","2","category2/CS4.png","","","","",""
"","html-keyboard-response","36","207738","0.0-6.0-2.0-0.9","68jqpf555d","many_one","0","indirect_first","0","CH06LD04","0","25","1","1","3","1","","0","1","0","null","","","<div class = 'row'><div class = 'column'><img src = 'uspos/2530.bmp' width = '100%;'></div><div class = 'column'><img src = 'category3/CS10.png' width = '70%;'></div></div>","null","pos","CS","CS","3","category3/CS10.png","","","","",""
"","html-keyboard-response","37","210242","0.0-6.0-2.0-0.10","68jqpf555d","many_one","0","indirect_first","0","CH06LD04","0","25","1","1","3","1","","0","1","0","null","","","<div class = 'row'><div class = 'column'><img src = 'usneg/3300.bmp' width = '100%;'></div><div class = 'column'><img src = 'category2/CS3.png' width = '70%;'></div></div>","null","neg","CS","CS","2","category2/CS3.png","","","","",""
"","html-keyboard-response","38","212745","0.0-6.0-2.0-0.11","68jqpf555d","many_one","0","indirect_first","0","CH06LD04","0","25","1","1","3","1","","0","1","0","null","","","<div class = 'row'><div class = 'column'><img src = 'usneg/2205.bmp' width = '100%;'></div><div class = 'column'><img src = 'category4/CS5.png' width = '70%;'></div></div>","null","neg","CS","CS","4","category4/CS5.png","","","","",""
"","html-keyboard-response","39","215249","0.0-6.0-2.0-0.12","68jqpf555d","many_one","0","indirect_first","0","CH06LD04","0","25","1","1","3","1","","0","1","0","null","","","<div class = 'row'><div class = 'column'><img src = 'uspos/2030.bmp' width = '100%;'></div><div class = 'column'><img src = 'category3/CS5.png' width = '70%;'></div></div>","null","pos","CS","CS","3","category3/CS5.png","","","","",""
"","html-keyboard-response","40","217753","0.0-6.0-2.0-0.13","68jqpf555d","many_one","0","indirect_first","0","CH06LD04","0","25","1","1","3","1","","0","1","0","null","","","<div class = 'row'><div class = 'column'><img src = 'usneg/9181.bmp' width = '100%;'></div><div class = 'column'><img src = 'category4/CS3.png' width = '70%;'></div></div>","null","neg","CS","CS","4","category4/CS3.png","","","","",""
"","html-keyboard-response","41","220260","0.0-6.0-2.0-0.14","68jqpf555d","many_one","0","indirect_first","0","CH06LD04","0","25","1","1","3","1","","0","1","0","null","","","<div class = 'row'><div class = 'column'><img src = 'category4/CS10.png' width = '70%;'></div><div class = 'column'><img src = 'usneg/9920.bmp' width = '100%;'></div></div>","null","neg","CS","CS","4","category4/CS10.png","","","","",""
"","html-keyboard-response","42","222763","0.0-6.0-2.0-0.15","68jqpf555d","many_one","0","indirect_first","0","CH06LD04","0","25","1","1","3","1","","0","1","0","null","","","<div class = 'row'><div class = 'column'><img src = 'usneg/9435.bmp' width = '100%;'></div><div class = 'column'><img src = 'category2/CS9.png' width = '70%;'></div></div>","null","neg","CS","CS","2","category2/CS9.png","","","","",""
"","html-keyboard-response","43","225266","0.0-6.0-2.0-0.16","68jqpf555d","many_one","0","indirect_first","0","CH06LD04","0","25","1","1","3","1","","0","1","0","null","","","<div class = 'row'><div class = 'column'><img src = 'category1/CS2.png' width = '70%;'></div><div class = 'column'><img src = 'uspos/8080.bmp' width = '100%;'></div></div>","null","pos","CS","CS","1","category1/CS2.png","","","","",""
"","html-keyboard-response","44","227772","0.0-6.0-2.0-0.17","68jqpf555d","many_one","0","indirect_first","0","CH06LD04","0","25","1","1","3","1","","0","1","0","null","","","<div class = 'row'><div class = 'column'><img src = 'uspos/8490.bmp' width = '100%;'></div><div class = 'column'><img src = 'category1/CS5.png' width = '70%;'></div></div>","null","pos","CS","CS","1","category1/CS5.png","","","","",""
"","html-keyboard-response","45","230278","0.0-6.0-2.0-0.18","68jqpf555d","many_one","0","indirect_first","0","CH06LD04","0","25","1","1","3","1","","0","1","0","null","","","<div class = 'row'><div class = 'column'><img src = 'uspos/7580.bmp' width = '100%;'></div><div class = 'column'><img src = 'category1/CS8.png' width = '70%;'></div></div>","null","pos","CS","CS","1","category1/CS8.png","","","","",""
"","html-keyboard-response","46","232781","0.0-6.0-2.0-0.19","68jqpf555d","many_one","0","indirect_first","0","CH06LD04","0","25","1","1","3","1","","0","1","0","null","","","<div class = 'row'><div class = 'column'><img src = 'category2/CS2.png' width = '70%;'></div><div class = 'column'><img src = 'usneg/9182.bmp' width = '100%;'></div></div>","null","neg","CS","CS","2","category2/CS2.png","","","","",""
"","survey-html-form","47","238402","0.0-6.0-3.0","68jqpf555d","many_one","0","indirect_first","0","CH06LD04","0","25","1","1","3","1","","0","1","0","5119","","{}","","","","","","","","","","","",""
"","html-keyboard-response","48","242406","0.0-6.0-4.0-0.0","68jqpf555d","many_one","0","indirect_first","0","CH06LD04","0","25","1","1","3","1","","0","1","0","null","","","<div class = 'row'><div class = 'column'><img src = 'usneg/2205.bmp' width = '100%;'></div><div class = 'column'><img src = 'category4/CS5.png' width = '70%;'></div></div>","null","neg","CS","CS","4","category4/CS5.png","","","","",""
"","html-keyboard-response","49","244909","0.0-6.0-4.0-0.1","68jqpf555d","many_one","0","indirect_first","0","CH06LD04","0","25","1","1","3","1","","0","1","0","null","","","<div class = 'row'><div class = 'column'><img src = 'category1/CS6.png' width = '70%;'></div><div class = 'column'><img src = 'uspos/2341.bmp' width = '100%;'></div></div>","null","pos","CS","CS","1","category1/CS6.png","","","","",""
"","html-keyboard-response","50","247415","0.0-6.0-4.0-0.2","68jqpf555d","many_one","0","indirect_first","0","CH06LD04","0","25","1","1","3","1","","0","1","0","null","","","<div class = 'row'><div class = 'column'><img src = 'category1/CS3.png' width = '70%;'></div><div class = 'column'><img src = 'uspos/5470.bmp' width = '100%;'></div></div>","null","pos","CS","CS","1","category1/CS3.png","","","","",""
"","html-keyboard-response","51","249919","0.0-6.0-4.0-0.3","68jqpf555d","many_one","0","indirect_first","0","CH06LD04","0","25","1","1","3","1","","0","1","0","null","","","<div class = 'row'><div class = 'column'><img src = 'category2/CS9.png' width = '70%;'></div><div class = 'column'><img src = 'usneg/9435.bmp' width = '100%;'></div></div>","null","neg","CS","CS","2","category2/CS9.png","","","","",""
"","html-keyboard-response","52","252423","0.0-6.0-4.0-0.4","68jqpf555d","many_one","0","indirect_first","0","CH06LD04","0","25","1","1","3","1","","0","1","0","null","","","<div class = 'row'><div class = 'column'><img src = 'usneg/3300.bmp' width = '100%;'></div><div class = 'column'><img src = 'category2/CS3.png' width = '70%;'></div></div>","null","neg","CS","CS","2","category2/CS3.png","","","","",""
"","html-keyboard-response","53","254927","0.0-6.0-4.0-0.5","68jqpf555d","many_one","0","indirect_first","0","CH06LD04","0","25","1","1","3","1","","0","1","0","null","","","<div class = 'row'><div class = 'column'><img src = 'category1/CS5.png' width = '70%;'></div><div class = 'column'><img src = 'uspos/8490.bmp' width = '100%;'></div></div>","null","pos","CS","CS","1","category1/CS5.png","","","","",""
"","html-keyboard-response","54","257431","0.0-6.0-4.0-0.6","68jqpf555d","many_one","0","indirect_first","0","CH06LD04","0","25","1","1","3","1","","0","1","0","null","","","<div class = 'row'><div class = 'column'><img src = 'category1/CS2.png' width = '70%;'></div><div class = 'column'><img src = 'uspos/8080.bmp' width = '100%;'></div></div>","null","pos","CS","CS","1","category1/CS2.png","","","","",""
"","html-keyboard-response","55","259936","0.0-6.0-4.0-0.7","68jqpf555d","many_one","0","indirect_first","0","CH06LD04","0","25","1","1","3","1","","0","1","0","null","","","<div class = 'row'><div class = 'column'><img src = 'category4/CS3.png' width = '70%;'></div><div class = 'column'><img src = 'usneg/9181.bmp' width = '100%;'></div></div>","null","neg","CS","CS","4","category4/CS3.png","","","","",""
"","html-keyboard-response","56","262440","0.0-6.0-4.0-0.8","68jqpf555d","many_one","0","indirect_first","0","CH06LD04","0","25","1","1","3","1","","0","1","0","null","","","<div class = 'row'><div class = 'column'><img src = 'usneg/9330.bmp' width = '100%;'></div><div class = 'column'><img src = 'category2/CS4.png' width = '70%;'></div></div>","null","neg","CS","CS","2","category2/CS4.png","","","","",""
"","html-keyboard-response","57","264944","0.0-6.0-4.0-0.9","68jqpf555d","many_one","0","indirect_first","0","CH06LD04","0","25","1","1","3","1","","0","1","0","null","","","<div class = 'row'><div class = 'column'><img src = 'category2/CS2.png' width = '70%;'></div><div class = 'column'><img src = 'usneg/9182.bmp' width = '100%;'></div></div>","null","neg","CS","CS","2","category2/CS2.png","","","","",""
"","html-keyboard-response","58","267448","0.0-6.0-4.0-0.10","68jqpf555d","many_one","0","indirect_first","0","CH06LD04","0","25","1","1","3","1","","0","1","0","null","","","<div class = 'row'><div class = 'column'><img src = 'category3/CS1.png' width = '70%;'></div><div class = 'column'><img src = 'uspos/5831.bmp' width = '100%;'></div></div>","null","pos","CS","CS","3","category3/CS1.png","","","","",""
"","html-keyboard-response","59","269951","0.0-6.0-4.0-0.11","68jqpf555d","many_one","0","indirect_first","0","CH06LD04","0","25","1","1","3","1","","0","1","0","null","","","<div class = 'row'><div class = 'column'><img src = 'uspos/2550.bmp' width = '100%;'></div><div class = 'column'><img src = 'category3/CS2.png' width = '70%;'></div></div>","null","pos","CS","CS","3","category3/CS2.png","","","","",""
"","html-keyboard-response","60","272455","0.0-6.0-4.0-0.12","68jqpf555d","many_one","0","indirect_first","0","CH06LD04","0","25","1","1","3","1","","0","1","0","null","","","<div class = 'row'><div class = 'column'><img src = 'category3/CS6.png' width = '70%;'></div><div class = 'column'><img src = 'uspos/2165.bmp' width = '100%;'></div></div>","null","pos","CS","CS","3","category3/CS6.png","","","","",""
"","html-keyboard-response","61","274963","0.0-6.0-4.0-0.13","68jqpf555d","many_one","0","indirect_first","0","CH06LD04","0","25","1","1","3","1","","0","1","0","null","","","<div class = 'row'><div class = 'column'><img src = 'category3/CS10.png' width = '70%;'></div><div class = 'column'><img src = 'uspos/2530.bmp' width = '100%;'></div></div>","null","pos","CS","CS","3","category3/CS10.png","","","","",""
"","html-keyboard-response","62","277466","0.0-6.0-4.0-0.14","68jqpf555d","many_one","0","indirect_first","0","CH06LD04","0","25","1","1","3","1","","0","1","0","null","","","<div class = 'row'><div class = 'column'><img src = 'usneg/9041.bmp' width = '100%;'></div><div class = 'column'><img src = 'category4/CS7.png' width = '70%;'></div></div>","null","neg","CS","CS","4","category4/CS7.png","","","","",""
"","html-keyboard-response","63","279970","0.0-6.0-4.0-0.15","68jqpf555d","many_one","0","indirect_first","0","CH06LD04","0","25","1","1","3","1","","0","1","0","null","","","<div class = 'row'><div class = 'column'><img src = 'category3/CS5.png' width = '70%;'></div><div class = 'column'><img src = 'uspos/2030.bmp' width = '100%;'></div></div>","null","pos","CS","CS","3","category3/CS5.png","","","","",""
"","html-keyboard-response","64","282473","0.0-6.0-4.0-0.16","68jqpf555d","many_one","0","indirect_first","0","CH06LD04","0","25","1","1","3","1","","0","1","0","null","","","<div class = 'row'><div class = 'column'><img src = 'category4/CS2.png' width = '70%;'></div><div class = 'column'><img src = 'usneg/9520.bmp' width = '100%;'></div></div>","null","neg","CS","CS","4","category4/CS2.png","","","","",""
"","html-keyboard-response","65","284977","0.0-6.0-4.0-0.17","68jqpf555d","many_one","0","indirect_first","0","CH06LD04","0","25","1","1","3","1","","0","1","0","null","","","<div class = 'row'><div class = 'column'><img src = 'category4/CS10.png' width = '70%;'></div><div class = 'column'><img src = 'usneg/9920.bmp' width = '100%;'></div></div>","null","neg","CS","CS","4","category4/CS10.png","","","","",""
"","html-keyboard-response","66","287481","0.0-6.0-4.0-0.18","68jqpf555d","many_one","0","indirect_first","0","CH06LD04","0","25","1","1","3","1","","0","1","0","null","","","<div class = 'row'><div class = 'column'><img src = 'category1/CS8.png' width = '70%;'></div><div class = 'column'><img src = 'uspos/7580.bmp' width = '100%;'></div></div>","null","pos","CS","CS","1","category1/CS8.png","","","","",""
"","html-keyboard-response","67","289985","0.0-6.0-4.0-0.19","68jqpf555d","many_one","0","indirect_first","0","CH06LD04","0","25","1","1","3","1","","0","1","0","null","","","<div class = 'row'><div class = 'column'><img src = 'category2/CS5.png' width = '70%;'></div><div class = 'column'><img src = 'usneg/3181.bmp' width = '100%;'></div></div>","null","neg","CS","CS","2","category2/CS5.png","","","","",""
"","survey-html-form","68","312910","0.0-6.0-5.0","68jqpf555d","many_one","0","indirect_first","0","CH06LD04","0","25","1","1","3","1","","0","1","0","22422","","{}","","","","","","","","","","","",""
"","html-keyboard-response","69","316916","0.0-6.0-6.0-0.0","68jqpf555d","many_one","0","indirect_first","0","CH06LD04","0","25","1","1","3","1","","0","1","0","null","","","<div class = 'row'><div class = 'column'><img src = 'category3/CS6.png' width = '70%;'></div><div class = 'column'><img src = 'uspos/2165.bmp' width = '100%;'></div></div>","null","pos","CS","CS","3","category3/CS6.png","","","","",""
"","html-keyboard-response","70","319419","0.0-6.0-6.0-0.1","68jqpf555d","many_one","0","indirect_first","0","CH06LD04","0","25","1","1","3","1","","0","1","0","null","","","<div class = 'row'><div class = 'column'><img src = 'category1/CS6.png' width = '70%;'></div><div class = 'column'><img src = 'uspos/2341.bmp' width = '100%;'></div></div>","null","pos","CS","CS","1","category1/CS6.png","","","","",""
"","html-keyboard-response","71","321924","0.0-6.0-6.0-0.2","68jqpf555d","many_one","0","indirect_first","0","CH06LD04","0","25","1","1","3","1","","0","1","0","null","","","<div class = 'row'><div class = 'column'><img src = 'category4/CS7.png' width = '70%;'></div><div class = 'column'><img src = 'usneg/9041.bmp' width = '100%;'></div></div>","null","neg","CS","CS","4","category4/CS7.png","","","","",""
"","html-keyboard-response","72","324427","0.0-6.0-6.0-0.3","68jqpf555d","many_one","0","indirect_first","0","CH06LD04","0","25","1","1","3","1","","0","1","0","null","","","<div class = 'row'><div class = 'column'><img src = 'usneg/3181.bmp' width = '100%;'></div><div class = 'column'><img src = 'category2/CS5.png' width = '70%;'></div></div>","null","neg","CS","CS","2","category2/CS5.png","","","","",""
"","html-keyboard-response","73","326931","0.0-6.0-6.0-0.4","68jqpf555d","many_one","0","indirect_first","0","CH06LD04","0","25","1","1","3","1","","0","1","0","null","","","<div class = 'row'><div class = 'column'><img src = 'uspos/8080.bmp' width = '100%;'></div><div class = 'column'><img src = 'category1/CS2.png' width = '70%;'></div></div>","null","pos","CS","CS","1","category1/CS2.png","","","","",""
"","html-keyboard-response","74","329435","0.0-6.0-6.0-0.5","68jqpf555d","many_one","0","indirect_first","0","CH06LD04","0","25","1","1","3","1","","0","1","0","null","","","<div class = 'row'><div class = 'column'><img src = 'uspos/2030.bmp' width = '100%;'></div><div class = 'column'><img src = 'category3/CS5.png' width = '70%;'></div></div>","null","pos","CS","CS","3","category3/CS5.png","","","","",""
"","html-keyboard-response","75","331941","0.0-6.0-6.0-0.6","68jqpf555d","many_one","0","indirect_first","0","CH06LD04","0","25","1","1","3","1","","0","1","0","null","","","<div class = 'row'><div class = 'column'><img src = 'category4/CS5.png' width = '70%;'></div><div class = 'column'><img src = 'usneg/2205.bmp' width = '100%;'></div></div>","null","neg","CS","CS","4","category4/CS5.png","","","","",""
"","html-keyboard-response","76","334445","0.0-6.0-6.0-0.7","68jqpf555d","many_one","0","indirect_first","0","CH06LD04","0","25","1","1","3","1","","0","1","0","null","","","<div class = 'row'><div class = 'column'><img src = 'category2/CS2.png' width = '70%;'></div><div class = 'column'><img src = 'usneg/9182.bmp' width = '100%;'></div></div>","null","neg","CS","CS","2","category2/CS2.png","","","","",""
"","html-keyboard-response","77","336949","0.0-6.0-6.0-0.8","68jqpf555d","many_one","0","indirect_first","0","CH06LD04","0","25","1","1","3","1","","0","1","0","null","","","<div class = 'row'><div class = 'column'><img src = 'usneg/9330.bmp' width = '100%;'></div><div class = 'column'><img src = 'category2/CS4.png' width = '70%;'></div></div>","null","neg","CS","CS","2","category2/CS4.png","","","","",""
"","html-keyboard-response","78","339455","0.0-6.0-6.0-0.9","68jqpf555d","many_one","0","indirect_first","0","CH06LD04","0","25","1","1","3","1","","0","1","0","null","","","<div class = 'row'><div class = 'column'><img src = 'category3/CS10.png' width = '70%;'></div><div class = 'column'><img src = 'uspos/2530.bmp' width = '100%;'></div></div>","null","pos","CS","CS","3","category3/CS10.png","","","","",""
"","html-keyboard-response","79","341961","0.0-6.0-6.0-0.10","68jqpf555d","many_one","0","indirect_first","0","CH06LD04","0","25","1","1","3","1","","0","1","0","null","","","<div class = 'row'><div class = 'column'><img src = 'uspos/5831.bmp' width = '100%;'></div><div class = 'column'><img src = 'category3/CS1.png' width = '70%;'></div></div>","null","pos","CS","CS","3","category3/CS1.png","","","","",""
"","html-keyboard-response","80","344465","0.0-6.0-6.0-0.11","68jqpf555d","many_one","0","indirect_first","0","CH06LD04","0","25","1","1","3","1","","0","1","0","null","","","<div class = 'row'><div class = 'column'><img src = 'category1/CS3.png' width = '70%;'></div><div class = 'column'><img src = 'uspos/5470.bmp' width = '100%;'></div></div>","null","pos","CS","CS","1","category1/CS3.png","","","","",""
"","html-keyboard-response","81","346969","0.0-6.0-6.0-0.12","68jqpf555d","many_one","0","indirect_first","0","CH06LD04","0","25","1","1","3","1","","0","1","0","null","","","<div class = 'row'><div class = 'column'><img src = 'uspos/8490.bmp' width = '100%;'></div><div class = 'column'><img src = 'category1/CS5.png' width = '70%;'></div></div>","null","pos","CS","CS","1","category1/CS5.png","","","","",""
"","html-keyboard-response","82","349473","0.0-6.0-6.0-0.13","68jqpf555d","many_one","0","indirect_first","0","CH06LD04","0","25","1","1","3","1","","0","1","0","null","","","<div class = 'row'><div class = 'column'><img src = 'category3/CS2.png' width = '70%;'></div><div class = 'column'><img src = 'uspos/2550.bmp' width = '100%;'></div></div>","null","pos","CS","CS","3","category3/CS2.png","","","","",""
"","html-keyboard-response","83","351976","0.0-6.0-6.0-0.14","68jqpf555d","many_one","0","indirect_first","0","CH06LD04","0","25","1","1","3","1","","0","1","0","null","","","<div class = 'row'><div class = 'column'><img src = 'category4/CS10.png' width = '70%;'></div><div class = 'column'><img src = 'usneg/9920.bmp' width = '100%;'></div></div>","null","neg","CS","CS","4","category4/CS10.png","","","","",""
"","html-keyboard-response","84","354481","0.0-6.0-6.0-0.15","68jqpf555d","many_one","0","indirect_first","0","CH06LD04","0","25","1","1","3","1","","0","1","0","null","","","<div class = 'row'><div class = 'column'><img src = 'usneg/3300.bmp' width = '100%;'></div><div class = 'column'><img src = 'category2/CS3.png' width = '70%;'></div></div>","null","neg","CS","CS","2","category2/CS3.png","","","","",""
"","html-keyboard-response","85","356984","0.0-6.0-6.0-0.16","68jqpf555d","many_one","0","indirect_first","0","CH06LD04","0","25","1","1","3","1","","0","1","0","null","","","<div class = 'row'><div class = 'column'><img src = 'usneg/9181.bmp' width = '100%;'></div><div class = 'column'><img src = 'category4/CS3.png' width = '70%;'></div></div>","null","neg","CS","CS","4","category4/CS3.png","","","","",""
"","html-keyboard-response","86","359488","0.0-6.0-6.0-0.17","68jqpf555d","many_one","0","indirect_first","0","CH06LD04","0","25","1","1","3","1","","0","1","0","null","","","<div class = 'row'><div class = 'column'><img src = 'uspos/7580.bmp' width = '100%;'></div><div class = 'column'><img src = 'category1/CS8.png' width = '70%;'></div></div>","null","pos","CS","CS","1","category1/CS8.png","","","","",""
"","html-keyboard-response","87","361992","0.0-6.0-6.0-0.18","68jqpf555d","many_one","0","indirect_first","0","CH06LD04","0","25","1","1","3","1","","0","1","0","null","","","<div class = 'row'><div class = 'column'><img src = 'category2/CS9.png' width = '70%;'></div><div class = 'column'><img src = 'usneg/9435.bmp' width = '100%;'></div></div>","null","neg","CS","CS","2","category2/CS9.png","","","","",""
"","html-keyboard-response","88","364496","0.0-6.0-6.0-0.19","68jqpf555d","many_one","0","indirect_first","0","CH06LD04","0","25","1","1","3","1","","0","1","0","null","","","<div class = 'row'><div class = 'column'><img src = 'usneg/9520.bmp' width = '100%;'></div><div class = 'column'><img src = 'category4/CS2.png' width = '70%;'></div></div>","null","neg","CS","CS","4","category4/CS2.png","","","","",""
"","html-keyboard-response","89","409620","0.0-7.0","68jqpf555d","many_one","0","indirect_first","0","CH06LD04","0","25","1","1","3","1","","0","1","0","44619","","","<p>Sie sehen nun die chinesischen Zeichen nur ganz kurz. Danach sehen Sie die jeweilige Aussprache der Zeichen als Silbe auf dem Bildschrim. Ihre Aufgabe ist es, für jede Silbe anzugeben, ob diese etwas angenehmes, oder unangenehmes bedeuten könnte. Verlassen Sie sich hier vor allem auf Ihre Intuition.<br><br>Die Zeichen werden nur zur Orientierung dargestellt, beachten Sie sie deshalb nicht. Konzentrieren Sie sich vor allem auf die Silben. <br>Reagieren Sie mit folgenden zwei Tasten: <br><br><b>'D' </b> wenn die Silbe etwas <b>unangenehmes</b> bedeuten könnte. <br><b>'K'</b> wenn die Silbe etwas <b>angenehmes</b> bedeuten könnte. <br><br>Bitte legen Sie nun den Zeigefinger der linken Hand auf die Taste 'D' und den Zeigefinger der rechten Hand auf die Taste 'K'. <br>Reagieren Sie auf jede Silbe so schnell wie möglich. Uns interessiert Ihre spontane Reaktion. <br> <br> <br>Drücken Sie 'D' oder 'K', um die nächste Aufgabe zu starten. </p>","75","","","","","","","","","",""
"","html-keyboard-response","90","412624","0.0-8.0-0.0","68jqpf555d","many_one","0","indirect_first","0","CH06LD04","0","25","1","1","3","1","","0","1","0","null","","","<div style=""font-size:60px;"">+</div>","null","","","","","","","","","",""
"","html-keyboard-response","91","412719","0.0-8.0-1.0","68jqpf555d","many_one","0","indirect_first","0","CH06LD04","0","25","1","1","3","1","","0","1","0","null","","","<img src = 'category1/CS8.png' width = '100%;'>","null","","","","","","","","","",""
"","html-keyboard-response","92","412972","0.0-8.0-2.0","68jqpf555d","many_one","0","indirect_first","0","CH06LD04","0","25","1","1","3","1","","0","1","0","null","","","<img src = 'targets/3.png' width = '100%;'>","null","","","","","","","","","",""
"","html-keyboard-response","93","414601","0.0-8.0-3.0","68jqpf555d","many_one","0","indirect_first","0","CH06LD04","0","25","1","1","3","1","","0","1","0","1627","","","<img src = 'targets/mask.png' width = '100%;'>","75","pos","CS","CS","1","category1/CS8.png","targets/3.png","1","indirect","0",""
"","html-keyboard-response","94","416106","0.0-8.0-0.1","68jqpf555d","many_one","0","indirect_first","0","CH06LD04","0","25","1","1","3","1","","0","1","0","null","","","<div style=""font-size:60px;"">+</div>","null","","","","","","","","","",""
"","html-keyboard-response","95","416197","0.0-8.0-1.1","68jqpf555d","many_one","0","indirect_first","0","CH06LD04","0","25","1","1","3","1","","0","1","0","null","","","<img src = 'category2/CS10.png' width = '100%;'>","null","","","","","","","","","",""
"","html-keyboard-response","96","416451","0.0-8.0-2.1","68jqpf555d","many_one","0","indirect_first","0","CH06LD04","0","25","1","1","3","1","","0","1","0","null","","","<img src = 'targets/30.png' width = '100%;'>","null","","","","","","","","","",""
"","html-keyboard-response","97","421277","0.0-8.0-3.1","68jqpf555d","many_one","0","indirect_first","0","CH06LD04","0","25","1","1","3","1","","0","1","0","4824","","","<img src = 'targets/mask.png' width = '100%;'>","75","neg","GS","GSold","2","category2/CS10.png","targets/30.png","1","indirect","1",""
"","html-keyboard-response","98","422780","0.0-8.0-0.2","68jqpf555d","many_one","0","indirect_first","0","CH06LD04","0","25","1","1","3","1","","0","1","0","null","","","<div style=""font-size:60px;"">+</div>","null","","","","","","","","","",""
"","html-keyboard-response","99","422872","0.0-8.0-1.2","68jqpf555d","many_one","0","indirect_first","0","CH06LD04","0","25","1","1","3","1","","0","1","0","null","","","<img src = 'category4/CS7.png' width = '100%;'>","null","","","","","","","","","",""
"","html-keyboard-response","100","423125","0.0-8.0-2.2","68jqpf555d","many_one","0","indirect_first","0","CH06LD04","0","25","1","1","3","1","","0","1","0","null","","","<img src = 'targets/42.png' width = '100%;'>","null","","","","","","","","","",""
"","html-keyboard-response","101","425141","0.0-8.0-3.2","68jqpf555d","many_one","0","indirect_first","0","CH06LD04","0","25","1","1","3","1","","0","1","0","2014","","","<img src = 'targets/mask.png' width = '100%;'>","75","neg","CS","CS","4","category4/CS7.png","targets/42.png","1","indirect","2",""
"","html-keyboard-response","102","426645","0.0-8.0-0.3","68jqpf555d","many_one","0","indirect_first","0","CH06LD04","0","25","1","1","3","1","","0","1","0","null","","","<div style=""font-size:60px;"">+</div>","null","","","","","","","","","",""
"","html-keyboard-response","103","426737","0.0-8.0-1.3","68jqpf555d","many_one","0","indirect_first","0","CH06LD04","0","25","1","1","3","1","","0","1","0","null","","","<img src = 'category3/CS2.png' width = '100%;'>","null","","","","","","","","","",""
"","html-keyboard-response","104","426991","0.0-8.0-2.3","68jqpf555d","many_one","0","indirect_first","0","CH06LD04","0","25","1","1","3","1","","0","1","0","null","","","<img src = 'targets/44.png' width = '100%;'>","null","","","","","","","","","",""
"","html-keyboard-response","105","428899","0.0-8.0-3.3","68jqpf555d","many_one","0","indirect_first","0","CH06LD04","0","25","1","1","3","1","","0","1","0","1906","","","<img src = 'targets/mask.png' width = '100%;'>","75","pos","CS","CS","3","category3/CS2.png","targets/44.png","1","indirect","3",""
"","html-keyboard-response","106","430403","0.0-8.0-0.4","68jqpf555d","many_one","0","indirect_first","0","CH06LD04","0","25","1","1","3","1","","0","1","0","null","","","<div style=""font-size:60px;"">+</div>","null","","","","","","","","","",""
"","html-keyboard-response","107","430496","0.0-8.0-1.4","68jqpf555d","many_one","0","indirect_first","0","CH06LD04","0","25","1","1","3","1","","0","1","0","null","","","<img src = 'category4/CS10.png' width = '100%;'>","null","","","","","","","","","",""
"","html-keyboard-response","108","430749","0.0-8.0-2.4","68jqpf555d","many_one","0","indirect_first","0","CH06LD04","0","25","1","1","3","1","","0","1","0","null","","","<img src = 'targets/40.png' width = '100%;'>","null","","","","","","","","","",""
"","html-keyboard-response","109","432093","0.0-8.0-3.4","68jqpf555d","many_one","0","indirect_first","0","CH06LD04","0","25","1","1","3","1","","0","1","0","1342.0000000000582","","","<img src = 'targets/mask.png' width = '100%;'>","75","neg","CS","CS","4","category4/CS10.png","targets/40.png","1","indirect","4",""
"","html-keyboard-response","110","433597","0.0-8.0-0.5","68jqpf555d","many_one","0","indirect_first","0","CH06LD04","0","25","1","1","3","1","","0","1","0","null","","","<div style=""font-size:60px;"">+</div>","null","","","","","","","","","",""
"","html-keyboard-response","111","433688","0.0-8.0-1.5","68jqpf555d","many_one","0","indirect_first","0","CH06LD04","0","25","1","1","3","1","","0","1","0","null","","","<img src = 'category2/CS1.png' width = '100%;'>","null","","","","","","","","","",""
"","html-keyboard-response","112","433941","0.0-8.0-2.5","68jqpf555d","many_one","0","indirect_first","0","CH06LD04","0","25","1","1","3","1","","0","1","0","null","","","<img src = 'targets/38.png' width = '100%;'>","null","","","","","","","","","",""
"","html-keyboard-response","113","436259","0.0-8.0-3.5","68jqpf555d","many_one","0","indirect_first","0","CH06LD04","0","25","1","1","3","1","","0","1","0","2316.000000000058","","","<img src = 'targets/mask.png' width = '100%;'>","75","neg","GS","GSold","2","category2/CS1.png","targets/38.png","1","indirect","5",""
"","html-keyboard-response","114","437763","0.0-8.0-0.6","68jqpf555d","many_one","0","indirect_first","0","CH06LD04","0","25","1","1","3","1","","0","1","0","null","","","<div style=""font-size:60px;"">+</div>","null","","","","","","","","","",""
"","html-keyboard-response","115","437855","0.0-8.0-1.6","68jqpf555d","many_one","0","indirect_first","0","CH06LD04","0","25","1","1","3","1","","0","1","0","null","","","<img src = 'category4/CS2.png' width = '100%;'>","null","","","","","","","","","",""
"","html-keyboard-response","116","438107","0.0-8.0-2.6","68jqpf555d","many_one","0","indirect_first","0","CH06LD04","0","25","1","1","3","1","","0","1","0","null","","","<img src = 'targets/9.png' width = '100%;'>","null","","","","","","","","","",""
"","html-keyboard-response","117","438829","0.0-8.0-3.6","68jqpf555d","many_one","0","indirect_first","0","CH06LD04","0","25","1","1","3","1","","0","1","0","720","","","<img src = 'targets/mask.png' width = '100%;'>","75","neg","CS","CS","4","category4/CS2.png","targets/9.png","1","indirect","6",""
"","html-keyboard-response","118","440333","0.0-8.0-0.7","68jqpf555d","many_one","0","indirect_first","0","CH06LD04","0","25","1","1","3","1","","0","1","0","null","","","<div style=""font-size:60px;"">+</div>","null","","","","","","","","","",""
"","html-keyboard-response","119","440425","0.0-8.0-1.7","68jqpf555d","many_one","0","indirect_first","0","CH06LD04","0","25","1","1","3","1","","0","1","0","null","","","<img src = 'category2/CS2.png' width = '100%;'>","null","","","","","","","","","",""
"","html-keyboard-response","120","440678","0.0-8.0-2.7","68jqpf555d","many_one","0","indirect_first","0","CH06LD04","0","25","1","1","3","1","","0","1","0","null","","","<img src = 'targets/4.png' width = '100%;'>","null","","","","","","","","","",""
"","html-keyboard-response","121","441947","0.0-8.0-3.7","68jqpf555d","many_one","0","indirect_first","0","CH06LD04","0","25","1","1","3","1","","0","1","0","1268","","","<img src = 'targets/mask.png' width = '100%;'>","75","neg","CS","CS","2","category2/CS2.png","targets/4.png","1","indirect","7",""
"","html-keyboard-response","122","443450","0.0-8.0-0.8","68jqpf555d","many_one","0","indirect_first","0","CH06LD04","0","25","1","1","3","1","","0","1","0","null","","","<div style=""font-size:60px;"">+</div>","null","","","","","","","","","",""
"","html-keyboard-response","123","443544","0.0-8.0-1.8","68jqpf555d","many_one","0","indirect_first","0","CH06LD04","0","25","1","1","3","1","","0","1","0","null","","","<img src = 'category2/CS4.png' width = '100%;'>","null","","","","","","","","","",""
"","html-keyboard-response","124","443798","0.0-8.0-2.8","68jqpf555d","many_one","0","indirect_first","0","CH06LD04","0","25","1","1","3","1","","0","1","0","null","","","<img src = 'targets/6.png' width = '100%;'>","null","","","","","","","","","",""
"","html-keyboard-response","125","444827","0.0-8.0-3.8","68jqpf555d","many_one","0","indirect_first","0","CH06LD04","0","25","1","1","3","1","","0","1","0","1028","","","<img src = 'targets/mask.png' width = '100%;'>","75","neg","CS","CS","2","category2/CS4.png","targets/6.png","1","indirect","8",""
"","html-keyboard-response","126","446331","0.0-8.0-0.9","68jqpf555d","many_one","0","indirect_first","0","CH06LD04","0","25","1","1","3","1","","0","1","0","null","","","<div style=""font-size:60px;"">+</div>","null","","","","","","","","","",""
"","html-keyboard-response","127","446422","0.0-8.0-1.9","68jqpf555d","many_one","0","indirect_first","0","CH06LD04","0","25","1","1","3","1","","0","1","0","null","","","<img src = 'category2/CS3.png' width = '100%;'>","null","","","","","","","","","",""
"","html-keyboard-response","128","446676","0.0-8.0-2.9","68jqpf555d","many_one","0","indirect_first","0","CH06LD04","0","25","1","1","3","1","","0","1","0","null","","","<img src = 'targets/36.png' width = '100%;'>","null","","","","","","","","","",""
"","html-keyboard-response","129","448532","0.0-8.0-3.9","68jqpf555d","many_one","0","indirect_first","0","CH06LD04","0","25","1","1","3","1","","0","1","0","1854","","","<img src = 'targets/mask.png' width = '100%;'>","68","neg","CS","CS","2","category2/CS3.png","targets/36.png","0","indirect","9",""
"","html-keyboard-response","130","450035","0.0-8.0-0.10","68jqpf555d","many_one","0","indirect_first","0","CH06LD04","0","25","1","1","3","1","","0","1","0","null","","","<div style=""font-size:60px;"">+</div>","null","","","","","","","","","",""
"","html-keyboard-response","131","450126","0.0-8.0-1.10","68jqpf555d","many_one","0","indirect_first","0","CH06LD04","0","25","1","1","3","1","","0","1","0","null","","","<img src = 'category2/CS5.png' width = '100%;'>","null","","","","","","","","","",""
"","html-keyboard-response","132","450380","0.0-8.0-2.10","68jqpf555d","many_one","0","indirect_first","0","CH06LD04","0","25","1","1","3","1","","0","1","0","null","","","<img src = 'targets/43.png' width = '100%;'>","null","","","","","","","","","",""
"","html-keyboard-response","133","451168","0.0-8.0-3.10","68jqpf555d","many_one","0","indirect_first","0","CH06LD04","0","25","1","1","3","1","","0","1","0","786","","","<img src = 'targets/mask.png' width = '100%;'>","75","neg","CS","CS","2","category2/CS5.png","targets/43.png","1","indirect","10",""
"","html-keyboard-response","134","452671","0.0-8.0-0.11","68jqpf555d","many_one","0","indirect_first","0","CH06LD04","0","25","1","1","3","1","","0","1","0","null","","","<div style=""font-size:60px;"">+</div>","null","","","","","","","","","",""
"","html-keyboard-response","135","452764","0.0-8.0-1.11","68jqpf555d","many_one","0","indirect_first","0","CH06LD04","0","25","1","1","3","1","","0","1","0","null","","","<img src = 'category1/CS5.png' width = '100%;'>","null","","","","","","","","","",""
"","html-keyboard-response","136","453018","0.0-8.0-2.11","68jqpf555d","many_one","0","indirect_first","0","CH06LD04","0","25","1","1","3","1","","0","1","0","null","","","<img src = 'targets/35.png' width = '100%;'>","null","","","","","","","","","",""
"","html-keyboard-response","137","453683","0.0-8.0-3.11","68jqpf555d","many_one","0","indirect_first","0","CH06LD04","0","25","1","1","3","1","","0","1","0","664","","","<img src = 'targets/mask.png' width = '100%;'>","75","pos","CS","CS","1","category1/CS5.png","targets/35.png","1","indirect","11",""
"","html-keyboard-response","138","455187","0.0-8.0-0.12","68jqpf555d","many_one","0","indirect_first","0","CH06LD04","0","25","1","1","3","1","","0","1","0","null","","","<div style=""font-size:60px;"">+</div>","null","","","","","","","","","",""
"","html-keyboard-response","139","455280","0.0-8.0-1.12","68jqpf555d","many_one","0","indirect_first","0","CH06LD04","0","25","1","1","3","1","","0","1","0","null","","","<img src = 'category4/CS5.png' width = '100%;'>","null","","","","","","","","","",""
"","html-keyboard-response","140","455533","0.0-8.0-2.12","68jqpf555d","many_one","0","indirect_first","0","CH06LD04","0","25","1","1","3","1","","0","1","0","null","","","<img src = 'targets/33.png' width = '100%;'>","null","","","","","","","","","",""
"","html-keyboard-response","141","456337","0.0-8.0-3.12","68jqpf555d","many_one","0","indirect_first","0","CH06LD04","0","25","1","1","3","1","","0","1","0","803","","","<img src = 'targets/mask.png' width = '100%;'>","75","neg","CS","CS","4","category4/CS5.png","targets/33.png","1","indirect","12",""
"","html-keyboard-response","142","457840","0.0-8.0-0.13","68jqpf555d","many_one","0","indirect_first","0","CH06LD04","0","25","1","1","3","1","","0","1","0","null","","","<div style=""font-size:60px;"">+</div>","null","","","","","","","","","",""
"","html-keyboard-response","143","457932","0.0-8.0-1.13","68jqpf555d","many_one","0","indirect_first","0","CH06LD04","0","25","1","1","3","1","","0","1","0","null","","","<img src = 'category3/CS6.png' width = '100%;'>","null","","","","","","","","","",""
"","html-keyboard-response","144","458185","0.0-8.0-2.13","68jqpf555d","many_one","0","indirect_first","0","CH06LD04","0","25","1","1","3","1","","0","1","0","null","","","<img src = 'targets/1.png' width = '100%;'>","null","","","","","","","","","",""
"","html-keyboard-response","145","459556","0.0-8.0-3.13","68jqpf555d","many_one","0","indirect_first","0","CH06LD04","0","25","1","1","3","1","","0","1","0","1369","","","<img src = 'targets/mask.png' width = '100%;'>","75","pos","CS","CS","3","category3/CS6.png","targets/1.png","1","indirect","13",""
"","html-keyboard-response","146","461060","0.0-8.0-0.14","68jqpf555d","many_one","0","indirect_first","0","CH06LD04","0","25","1","1","3","1","","0","1","0","null","","","<div style=""font-size:60px;"">+</div>","null","","","","","","","","","",""
"","html-keyboard-response","147","461152","0.0-8.0-1.14","68jqpf555d","many_one","0","indirect_first","0","CH06LD04","0","25","1","1","3","1","","0","1","0","null","","","<img src = 'category1/CS3.png' width = '100%;'>","null","","","","","","","","","",""
"","html-keyboard-response","148","461406","0.0-8.0-2.14","68jqpf555d","many_one","0","indirect_first","0","CH06LD04","0","25","1","1","3","1","","0","1","0","null","","","<img src = 'targets/23.png' width = '100%;'>","null","","","","","","","","","",""
"","html-keyboard-response","149","462580","0.0-8.0-3.14","68jqpf555d","many_one","0","indirect_first","0","CH06LD04","0","25","1","1","3","1","","0","1","0","1172","","","<img src = 'targets/mask.png' width = '100%;'>","75","pos","CS","CS","1","category1/CS3.png","targets/23.png","1","indirect","14",""
"","html-keyboard-response","150","464083","0.0-8.0-0.15","68jqpf555d","many_one","0","indirect_first","0","CH06LD04","0","25","1","1","3","1","","0","1","0","null","","","<div style=""font-size:60px;"">+</div>","null","","","","","","","","","",""
"","html-keyboard-response","151","464175","0.0-8.0-1.15","68jqpf555d","many_one","0","indirect_first","0","CH06LD04","0","25","1","1","3","1","","0","1","0","null","","","<img src = 'category2/CS7.png' width = '100%;'>","null","","","","","","","","","",""
"","html-keyboard-response","152","464431","0.0-8.0-2.15","68jqpf555d","many_one","0","indirect_first","0","CH06LD04","0","25","1","1","3","1","","0","1","0","null","","","<img src = 'targets/39.png' width = '100%;'>","null","","","","","","","","","",""
"","html-keyboard-response","153","465148","0.0-8.0-3.15","68jqpf555d","many_one","0","indirect_first","0","CH06LD04","0","25","1","1","3","1","","0","1","0","714.9999999999418","","","<img src = 'targets/mask.png' width = '100%;'>","75","neg","GS","GSold","2","category2/CS7.png","targets/39.png","1","indirect","15",""
"","html-keyboard-response","154","466652","0.0-8.0-0.16","68jqpf555d","many_one","0","indirect_first","0","CH06LD04","0","25","1","1","3","1","","0","1","0","null","","","<div style=""font-size:60px;"">+</div>","null","","","","","","","","","",""
"","html-keyboard-response","155","466745","0.0-8.0-1.16","68jqpf555d","many_one","0","indirect_first","0","CH06LD04","0","25","1","1","3","1","","0","1","0","null","","","<img src = 'category3/CS5.png' width = '100%;'>","null","","","","","","","","","",""
"","html-keyboard-response","156","466999","0.0-8.0-2.16","68jqpf555d","many_one","0","indirect_first","0","CH06LD04","0","25","1","1","3","1","","0","1","0","null","","","<img src = 'targets/21.png' width = '100%;'>","null","","","","","","","","","",""
"","html-keyboard-response","157","467639","0.0-8.0-3.16","68jqpf555d","many_one","0","indirect_first","0","CH06LD04","0","25","1","1","3","1","","0","1","0","639","","","<img src = 'targets/mask.png' width = '100%;'>","75","pos","CS","CS","3","category3/CS5.png","targets/21.png","1","indirect","16",""
"","html-keyboard-response","158","469143","0.0-8.0-0.17","68jqpf555d","many_one","0","indirect_first","0","CH06LD04","0","25","1","1","3","1","","0","1","0","null","","","<div style=""font-size:60px;"">+</div>","null","","","","","","","","","",""
"","html-keyboard-response","159","469234","0.0-8.0-1.17","68jqpf555d","many_one","0","indirect_first","0","CH06LD04","0","25","1","1","3","1","","0","1","0","null","","","<img src = 'category3/CS10.png' width = '100%;'>","null","","","","","","","","","",""
"","html-keyboard-response","160","469488","0.0-8.0-2.17","68jqpf555d","many_one","0","indirect_first","0","CH06LD04","0","25","1","1","3","1","","0","1","0","null","","","<img src = 'targets/12.png' width = '100%;'>","null","","","","","","","","","",""
"","html-keyboard-response","161","469955","0.0-8.0-3.17","68jqpf555d","many_one","0","indirect_first","0","CH06LD04","0","25","1","1","3","1","","0","1","0","465","","","<img src = 'targets/mask.png' width = '100%;'>","75","pos","CS","CS","3","category3/CS10.png","targets/12.png","1","indirect","17",""
"","html-keyboard-response","162","471459","0.0-8.0-0.18","68jqpf555d","many_one","0","indirect_first","0","CH06LD04","0","25","1","1","3","1","","0","1","0","null","","","<div style=""font-size:60px;"">+</div>","null","","","","","","","","","",""
"","html-keyboard-response","163","471551","0.0-8.0-1.18","68jqpf555d","many_one","0","indirect_first","0","CH06LD04","0","25","1","1","3","1","","0","1","0","null","","","<img src = 'category1/CS6.png' width = '100%;'>","null","","","","","","","","","",""
"","html-keyboard-response","164","471804","0.0-8.0-2.18","68jqpf555d","many_one","0","indirect_first","0","CH06LD04","0","25","1","1","3","1","","0","1","0","null","","","<img src = 'targets/10.png' width = '100%;'>","null","","","","","","","","","",""
"","html-keyboard-response","165","472370","0.0-8.0-3.18","68jqpf555d","many_one","0","indirect_first","0","CH06LD04","0","25","1","1","3","1","","0","1","0","564","","","<img src = 'targets/mask.png' width = '100%;'>","75","pos","CS","CS","1","category1/CS6.png","targets/10.png","1","indirect","18",""
"","html-keyboard-response","166","473874","0.0-8.0-0.19","68jqpf555d","many_one","0","indirect_first","0","CH06LD04","0","25","1","1","3","1","","0","1","0","null","","","<div style=""font-size:60px;"">+</div>","null","","","","","","","","","",""
"","html-keyboard-response","167","473965","0.0-8.0-1.19","68jqpf555d","many_one","0","indirect_first","0","CH06LD04","0","25","1","1","3","1","","0","1","0","null","","","<img src = 'category3/CS7.png' width = '100%;'>","null","","","","","","","","","",""
"","html-keyboard-response","168","474219","0.0-8.0-2.19","68jqpf555d","many_one","0","indirect_first","0","CH06LD04","0","25","1","1","3","1","","0","1","0","null","","","<img src = 'targets/20.png' width = '100%;'>","null","","","","","","","","","",""
"","html-keyboard-response","169","475600","0.0-8.0-3.19","68jqpf555d","many_one","0","indirect_first","0","CH06LD04","0","25","1","1","3","1","","0","1","0","1379","","","<img src = 'targets/mask.png' width = '100%;'>","75","pos","GS","GSold","3","category3/CS7.png","targets/20.png","1","indirect","19",""
"","html-keyboard-response","170","477104","0.0-8.0-0.20","68jqpf555d","many_one","0","indirect_first","0","CH06LD04","0","25","1","1","3","1","","0","1","0","null","","","<div style=""font-size:60px;"">+</div>","null","","","","","","","","","",""
"","html-keyboard-response","171","477197","0.0-8.0-1.20","68jqpf555d","many_one","0","indirect_first","0","CH06LD04","0","25","1","1","3","1","","0","1","0","null","","","<img src = 'category3/CS1.png' width = '100%;'>","null","","","","","","","","","",""
"","html-keyboard-response","172","477451","0.0-8.0-2.20","68jqpf555d","many_one","0","indirect_first","0","CH06LD04","0","25","1","1","3","1","","0","1","0","null","","","<img src = 'targets/11.png' width = '100%;'>","null","","","","","","","","","",""
"","html-keyboard-response","173","478067","0.0-8.0-3.20","68jqpf555d","many_one","0","indirect_first","0","CH06LD04","0","25","1","1","3","1","","0","1","0","614","","","<img src = 'targets/mask.png' width = '100%;'>","75","pos","CS","CS","3","category3/CS1.png","targets/11.png","1","indirect","20",""
"","html-keyboard-response","174","479570","0.0-8.0-0.21","68jqpf555d","many_one","0","indirect_first","0","CH06LD04","0","25","1","1","3","1","","0","1","0","null","","","<div style=""font-size:60px;"">+</div>","null","","","","","","","","","",""
"","html-keyboard-response","175","479663","0.0-8.0-1.21","68jqpf555d","many_one","0","indirect_first","0","CH06LD04","0","25","1","1","3","1","","0","1","0","null","","","<img src = 'category4/CS3.png' width = '100%;'>","null","","","","","","","","","",""
"","html-keyboard-response","176","479915","0.0-8.0-2.21","68jqpf555d","many_one","0","indirect_first","0","CH06LD04","0","25","1","1","3","1","","0","1","0","null","","","<img src = 'targets/15.png' width = '100%;'>","null","","","","","","","","","",""
"","html-keyboard-response","177","480557","0.0-8.0-3.21","68jqpf555d","many_one","0","indirect_first","0","CH06LD04","0","25","1","1","3","1","","0","1","0","640","","","<img src = 'targets/mask.png' width = '100%;'>","75","neg","CS","CS","4","category4/CS3.png","targets/15.png","1","indirect","21",""
"","html-keyboard-response","178","482060","0.0-8.0-0.22","68jqpf555d","many_one","0","indirect_first","0","CH06LD04","0","25","1","1","3","1","","0","1","0","null","","","<div style=""font-size:60px;"">+</div>","null","","","","","","","","","",""
"","html-keyboard-response","179","482153","0.0-8.0-1.22","68jqpf555d","many_one","0","indirect_first","0","CH06LD04","0","25","1","1","3","1","","0","1","0","null","","","<img src = 'category1/CS2.png' width = '100%;'>","null","","","","","","","","","",""
"","html-keyboard-response","180","482407","0.0-8.0-2.22","68jqpf555d","many_one","0","indirect_first","0","CH06LD04","0","25","1","1","3","1","","0","1","0","null","","","<img src = 'targets/24.png' width = '100%;'>","null","","","","","","","","","",""
"","html-keyboard-response","181","483026","0.0-8.0-3.22","68jqpf555d","many_one","0","indirect_first","0","CH06LD04","0","25","1","1","3","1","","0","1","0","618","","","<img src = 'targets/mask.png' width = '100%;'>","75","pos","CS","CS","1","category1/CS2.png","targets/24.png","1","indirect","22",""
"","html-keyboard-response","182","484530","0.0-8.0-0.23","68jqpf555d","many_one","0","indirect_first","0","CH06LD04","0","25","1","1","3","1","","0","1","0","null","","","<div style=""font-size:60px;"">+</div>","null","","","","","","","","","",""
"","html-keyboard-response","183","484622","0.0-8.0-1.23","68jqpf555d","many_one","0","indirect_first","0","CH06LD04","0","25","1","1","3","1","","0","1","0","null","","","<img src = 'category2/CS9.png' width = '100%;'>","null","","","","","","","","","",""
"","html-keyboard-response","184","484875","0.0-8.0-2.23","68jqpf555d","many_one","0","indirect_first","0","CH06LD04","0","25","1","1","3","1","","0","1","0","null","","","<img src = 'targets/28.png' width = '100%;'>","null","","","","","","","","","",""
"","html-keyboard-response","185","485964","0.0-8.0-3.23","68jqpf555d","many_one","0","indirect_first","0","CH06LD04","0","25","1","1","3","1","","0","1","0","1087","","","<img src = 'targets/mask.png' width = '100%;'>","75","neg","CS","CS","2","category2/CS9.png","targets/28.png","1","indirect","23",""
"","survey-html-form","186","493797","0.0-9.0","68jqpf555d","many_one","0","indirect_first","0","CH06LD04","0","25","1","1","3","1","","0","1","0","7330","","{}","","","","","","","","","","","",""
"","html-keyboard-response","187","496800","0.0-10.0-0.0","68jqpf555d","many_one","0","indirect_first","0","CH06LD04","0","25","1","1","3","1","","0","1","0","null","","","<div style=""font-size:60px;"">+</div>","null","","","","","","","","","",""
"","html-keyboard-response","188","496893","0.0-10.0-1.0","68jqpf555d","many_one","0","indirect_first","0","CH06LD04","0","25","1","1","3","1","","0","1","0","null","","","<img src = 'category3/GS2.png' width = '100%;'>","null","","","","","","","","","",""
"","html-keyboard-response","189","497146","0.0-10.0-2.0","68jqpf555d","many_one","0","indirect_first","0","CH06LD04","0","25","1","1","3","1","","0","1","0","null","","","<img src = 'targets/27.png' width = '100%;'>","null","","","","","","","","","",""
"","html-keyboard-response","190","497896","0.0-10.0-3.0","68jqpf555d","many_one","0","indirect_first","0","CH06LD04","0","25","1","1","3","1","","0","1","0","748.9999999999418","","","<img src = 'targets/mask.png' width = '100%;'>","68","pos","GS","GSnew","3","category3/GS2.png","targets/27.png","0","indirect","24",""
"","html-keyboard-response","191","499400","0.0-10.0-0.1","68jqpf555d","many_one","0","indirect_first","0","CH06LD04","0","25","1","1","3","1","","0","1","0","null","","","<div style=""font-size:60px;"">+</div>","null","","","","","","","","","",""
"","html-keyboard-response","192","499494","0.0-10.0-1.1","68jqpf555d","many_one","0","indirect_first","0","CH06LD04","0","25","1","1","3","1","","0","1","0","null","","","<img src = 'category4/CS4.png' width = '100%;'>","null","","","","","","","","","",""
"","html-keyboard-response","193","499747","0.0-10.0-2.1","68jqpf555d","many_one","0","indirect_first","0","CH06LD04","0","25","1","1","3","1","","0","1","0","null","","","<img src = 'targets/8.png' width = '100%;'>","null","","","","","","","","","",""
"","html-keyboard-response","194","500767","0.0-10.0-3.1","68jqpf555d","many_one","0","indirect_first","0","CH06LD04","0","25","1","1","3","1","","0","1","0","1019","","","<img src = 'targets/mask.png' width = '100%;'>","75","neg","GS","GSold","4","category4/CS4.png","targets/8.png","1","indirect","25",""
"","html-keyboard-response","195","502271","0.0-10.0-0.2","68jqpf555d","many_one","0","indirect_first","0","CH06LD04","0","25","1","1","3","1","","0","1","0","null","","","<div style=""font-size:60px;"">+</div>","null","","","","","","","","","",""
"","html-keyboard-response","196","502364","0.0-10.0-1.2","68jqpf555d","many_one","0","indirect_first","0","CH06LD04","0","25","1","1","3","1","","0","1","0","null","","","<img src = 'category1/GS2.png' width = '100%;'>","null","","","","","","","","","",""
"","html-keyboard-response","197","502616","0.0-10.0-2.2","68jqpf555d","many_one","0","indirect_first","0","CH06LD04","0","25","1","1","3","1","","0","1","0","null","","","<img src = 'targets/45.png' width = '100%;'>","null","","","","","","","","","",""
"","html-keyboard-response","198","503140","0.0-10.0-3.2","68jqpf555d","many_one","0","indirect_first","0","CH06LD04","0","25","1","1","3","1","","0","1","0","522","","","<img src = 'targets/mask.png' width = '100%;'>","75","pos","GS","GSnew","1","category1/GS2.png","targets/45.png","1","indirect","26",""
"","html-keyboard-response","199","504643","0.0-10.0-0.3","68jqpf555d","many_one","0","indirect_first","0","CH06LD04","0","25","1","1","3","1","","0","1","0","null","","","<div style=""font-size:60px;"">+</div>","null","","","","","","","","","",""
"","html-keyboard-response","200","504736","0.0-10.0-1.3","68jqpf555d","many_one","0","indirect_first","0","CH06LD04","0","25","1","1","3","1","","0","1","0","null","","","<img src = 'category4/GS3.png' width = '100%;'>","null","","","","","","","","","",""
"","html-keyboard-response","201","504989","0.0-10.0-2.3","68jqpf555d","many_one","0","indirect_first","0","CH06LD04","0","25","1","1","3","1","","0","1","0","null","","","<img src = 'targets/19.png' width = '100%;'>","null","","","","","","","","","",""
"","html-keyboard-response","202","505996","0.0-10.0-3.3","68jqpf555d","many_one","0","indirect_first","0","CH06LD04","0","25","1","1","3","1","","0","1","0","1005.9999999999418","","","<img src = 'targets/mask.png' width = '100%;'>","75","neg","GS","GSnew","4","category4/GS3.png","targets/19.png","1","indirect","27",""
"","html-keyboard-response","203","507500","0.0-10.0-0.4","68jqpf555d","many_one","0","indirect_first","0","CH06LD04","0","25","1","1","3","1","","0","1","0","null","","","<div style=""font-size:60px;"">+</div>","null","","","","","","","","","",""
"","html-keyboard-response","204","507592","0.0-10.0-1.4","68jqpf555d","many_one","0","indirect_first","0","CH06LD04","0","25","1","1","3","1","","0","1","0","null","","","<img src = 'category1/CS4.png' width = '100%;'>","null","","","","","","","","","",""
"","html-keyboard-response","205","507846","0.0-10.0-2.4","68jqpf555d","many_one","0","indirect_first","0","CH06LD04","0","25","1","1","3","1","","0","1","0","null","","","<img src = 'targets/2.png' width = '100%;'>","null","","","","","","","","","",""
"","html-keyboard-response","206","508263","0.0-10.0-3.4","68jqpf555d","many_one","0","indirect_first","0","CH06LD04","0","25","1","1","3","1","","0","1","0","415.9999999999418","","","<img src = 'targets/mask.png' width = '100%;'>","75","pos","GS","GSold","1","category1/CS4.png","targets/2.png","1","indirect","28",""
"","html-keyboard-response","207","509767","0.0-10.0-0.5","68jqpf555d","many_one","0","indirect_first","0","CH06LD04","0","25","1","1","3","1","","0","1","0","null","","","<div style=""font-size:60px;"">+</div>","null","","","","","","","","","",""
"","html-keyboard-response","208","509859","0.0-10.0-1.5","68jqpf555d","many_one","0","indirect_first","0","CH06LD04","0","25","1","1","3","1","","0","1","0","null","","","<img src = 'category2/men.png' width = '100%;'>","null","","","","","","","","","",""
"","html-keyboard-response","209","510112","0.0-10.0-2.5","68jqpf555d","many_one","0","indirect_first","0","CH06LD04","0","25","1","1","3","1","","0","1","0","null","","","<img src = 'targets/16.png' width = '100%;'>","null","","","","","","","","","",""
"","html-keyboard-response","210","510854","0.0-10.0-3.5","68jqpf555d","many_one","0","indirect_first","0","CH06LD04","0","25","1","1","3","1","","0","1","0","740","","","<img src = 'targets/mask.png' width = '100%;'>","75","neg","GS","abstract","2","category2/men.png","targets/16.png","1","indirect","29",""
"","html-keyboard-response","211","512358","0.0-10.0-0.6","68jqpf555d","many_one","0","indirect_first","0","CH06LD04","0","25","1","1","3","1","","0","1","0","null","","","<div style=""font-size:60px;"">+</div>","null","","","","","","","","","",""
"","html-keyboard-response","212","512450","0.0-10.0-1.6","68jqpf555d","many_one","0","indirect_first","0","CH06LD04","0","25","1","1","3","1","","0","1","0","null","","","<img src = 'category1/GS1.png' width = '100%;'>","null","","","","","","","","","",""
"","html-keyboard-response","213","512703","0.0-10.0-2.6","68jqpf555d","many_one","0","indirect_first","0","CH06LD04","0","25","1","1","3","1","","0","1","0","null","","","<img src = 'targets/46.png' width = '100%;'>","null","","","","","","","","","",""
"","html-keyboard-response","214","513175","0.0-10.0-3.6","68jqpf555d","many_one","0","indirect_first","0","CH06LD04","0","25","1","1","3","1","","0","1","0","471","","","<img src = 'targets/mask.png' width = '100%;'>","75","pos","GS","GSnew","1","category1/GS1.png","targets/46.png","1","indirect","30",""
"","html-keyboard-response","215","514679","0.0-10.0-0.7","68jqpf555d","many_one","0","indirect_first","0","CH06LD04","0","25","1","1","3","1","","0","1","0","null","","","<div style=""font-size:60px;"">+</div>","null","","","","","","","","","",""
"","html-keyboard-response","216","514772","0.0-10.0-1.7","68jqpf555d","many_one","0","indirect_first","0","CH06LD04","0","25","1","1","3","1","","0","1","0","null","","","<img src = 'category4/CS8.png' width = '100%;'>","null","","","","","","","","","",""
"","html-keyboard-response","217","515024","0.0-10.0-2.7","68jqpf555d","many_one","0","indirect_first","0","CH06LD04","0","25","1","1","3","1","","0","1","0","null","","","<img src = 'targets/5.png' width = '100%;'>","null","","","","","","","","","",""
"","html-keyboard-response","218","515531","0.0-10.0-3.7","68jqpf555d","many_one","0","indirect_first","0","CH06LD04","0","25","1","1","3","1","","0","1","0","506","","","<img src = 'targets/mask.png' width = '100%;'>","75","neg","GS","GSold","4","category4/CS8.png","targets/5.png","1","indirect","31",""
"","html-keyboard-response","219","517035","0.0-10.0-0.8","68jqpf555d","many_one","0","indirect_first","0","CH06LD04","0","25","1","1","3","1","","0","1","0","null","","","<div style=""font-size:60px;"">+</div>","null","","","","","","","","","",""
"","html-keyboard-response","220","517127","0.0-10.0-1.8","68jqpf555d","many_one","0","indirect_first","0","CH06LD04","0","25","1","1","3","1","","0","1","0","null","","","<img src = 'category2/GS1.png' width = '100%;'>","null","","","","","","","","","",""
"","html-keyboard-response","221","517381","0.0-10.0-2.8","68jqpf555d","many_one","0","indirect_first","0","CH06LD04","0","25","1","1","3","1","","0","1","0","null","","","<img src = 'targets/41.png' width = '100%;'>","null","","","","","","","","","",""
"","html-keyboard-response","222","518110","0.0-10.0-3.8","68jqpf555d","many_one","0","indirect_first","0","CH06LD04","0","25","1","1","3","1","","0","1","0","728","","","<img src = 'targets/mask.png' width = '100%;'>","75","neg","GS","GSnew","2","category2/GS1.png","targets/41.png","1","indirect","32",""
"","html-keyboard-response","223","519614","0.0-10.0-0.9","68jqpf555d","many_one","0","indirect_first","0","CH06LD04","0","25","1","1","3","1","","0","1","0","null","","","<div style=""font-size:60px;"">+</div>","null","","","","","","","","","",""
"","html-keyboard-response","224","519706","0.0-10.0-1.9","68jqpf555d","many_one","0","indirect_first","0","CH06LD04","0","25","1","1","3","1","","0","1","0","null","","","<img src = 'category1/GS3.png' width = '100%;'>","null","","","","","","","","","",""
"","html-keyboard-response","225","519959","0.0-10.0-2.9","68jqpf555d","many_one","0","indirect_first","0","CH06LD04","0","25","1","1","3","1","","0","1","0","null","","","<img src = 'targets/37.png' width = '100%;'>","null","","","","","","","","","",""
"","html-keyboard-response","226","520343","0.0-10.0-3.9","68jqpf555d","many_one","0","indirect_first","0","CH06LD04","0","25","1","1","3","1","","0","1","0","382","","","<img src = 'targets/mask.png' width = '100%;'>","75","pos","GS","GSnew","1","category1/GS3.png","targets/37.png","1","indirect","33",""
"","html-keyboard-response","227","521847","0.0-10.0-0.10","68jqpf555d","many_one","0","indirect_first","0","CH06LD04","0","25","1","1","3","1","","0","1","0","null","","","<div style=""font-size:60px;"">+</div>","null","","","","","","","","","",""
"","html-keyboard-response","228","521938","0.0-10.0-1.10","68jqpf555d","many_one","0","indirect_first","0","CH06LD04","0","25","1","1","3","1","","0","1","0","null","","","<img src = 'category2/GS2.png' width = '100%;'>","null","","","","","","","","","",""
"","html-keyboard-response","229","522191","0.0-10.0-2.10","68jqpf555d","many_one","0","indirect_first","0","CH06LD04","0","25","1","1","3","1","","0","1","0","null","","","<img src = 'targets/7.png' width = '100%;'>","null","","","","","","","","","",""
"","html-keyboard-response","230","522744","0.0-10.0-3.10","68jqpf555d","many_one","0","indirect_first","0","CH06LD04","0","25","1","1","3","1","","0","1","0","552","","","<img src = 'targets/mask.png' width = '100%;'>","75","neg","GS","GSnew","2","category2/GS2.png","targets/7.png","1","indirect","34",""
"","html-keyboard-response","231","524248","0.0-10.0-0.11","68jqpf555d","many_one","0","indirect_first","0","CH06LD04","0","25","1","1","3","1","","0","1","0","null","","","<div style=""font-size:60px;"">+</div>","null","","","","","","","","","",""
"","html-keyboard-response","232","524339","0.0-10.0-1.11","68jqpf555d","many_one","0","indirect_first","0","CH06LD04","0","25","1","1","3","1","","0","1","0","null","","","<img src = 'category1/CS1.png' width = '100%;'>","null","","","","","","","","","",""
"","html-keyboard-response","233","524592","0.0-10.0-2.11","68jqpf555d","many_one","0","indirect_first","0","CH06LD04","0","25","1","1","3","1","","0","1","0","null","","","<img src = 'targets/14.png' width = '100%;'>","null","","","","","","","","","",""
"","html-keyboard-response","234","525004","0.0-10.0-3.11","68jqpf555d","many_one","0","indirect_first","0","CH06LD04","0","25","1","1","3","1","","0","1","0","412.0000000001164","","","<img src = 'targets/mask.png' width = '100%;'>","75","pos","GS","GSold","1","category1/CS1.png","targets/14.png","1","indirect","35",""
"","html-keyboard-response","235","526507","0.0-10.0-0.12","68jqpf555d","many_one","0","indirect_first","0","CH06LD04","0","25","1","1","3","1","","0","1","0","null","","","<div style=""font-size:60px;"">+</div>","null","","","","","","","","","",""
"","html-keyboard-response","236","526600","0.0-10.0-1.12","68jqpf555d","many_one","0","indirect_first","0","CH06LD04","0","25","1","1","3","1","","0","1","0","null","","","<img src = 'category3/GS3.png' width = '100%;'>","null","","","","","","","","","",""
"","html-keyboard-response","237","526853","0.0-10.0-2.12","68jqpf555d","many_one","0","indirect_first","0","CH06LD04","0","25","1","1","3","1","","0","1","0","null","","","<img src = 'targets/18.png' width = '100%;'>","null","","","","","","","","","",""
"","html-keyboard-response","238","529154","0.0-10.0-3.12","68jqpf555d","many_one","0","indirect_first","0","CH06LD04","0","25","1","1","3","1","","0","1","0","2300.0000000001164","","","<img src = 'targets/mask.png' width = '100%;'>","75","pos","GS","GSnew","3","category3/GS3.png","targets/18.png","1","indirect","36",""
"","html-keyboard-response","239","530657","0.0-10.0-0.13","68jqpf555d","many_one","0","indirect_first","0","CH06LD04","0","25","1","1","3","1","","0","1","0","null","","","<div style=""font-size:60px;"">+</div>","null","","","","","","","","","",""
"","html-keyboard-response","240","530750","0.0-10.0-1.13","68jqpf555d","many_one","0","indirect_first","0","CH06LD04","0","25","1","1","3","1","","0","1","0","null","","","<img src = 'category4/GS1.png' width = '100%;'>","null","","","","","","","","","",""
"","html-keyboard-response","241","531003","0.0-10.0-2.13","68jqpf555d","many_one","0","indirect_first","0","CH06LD04","0","25","1","1","3","1","","0","1","0","null","","","<img src = 'targets/26.png' width = '100%;'>","null","","","","","","","","","",""
"","html-keyboard-response","242","531754","0.0-10.0-3.13","68jqpf555d","many_one","0","indirect_first","0","CH06LD04","0","25","1","1","3","1","","0","1","0","748.9999999998836","","","<img src = 'targets/mask.png' width = '100%;'>","75","neg","GS","GSnew","4","category4/GS1.png","targets/26.png","1","indirect","37",""
"","html-keyboard-response","243","533259","0.0-10.0-0.14","68jqpf555d","many_one","0","indirect_first","0","CH06LD04","0","25","1","1","3","1","","0","1","0","null","","","<div style=""font-size:60px;"">+</div>","null","","","","","","","","","",""
"","html-keyboard-response","244","533351","0.0-10.0-1.14","68jqpf555d","many_one","0","indirect_first","0","CH06LD04","0","25","1","1","3","1","","0","1","0","null","","","<img src = 'category2/GS3.png' width = '100%;'>","null","","","","","","","","","",""
"","html-keyboard-response","245","533605","0.0-10.0-2.14","68jqpf555d","many_one","0","indirect_first","0","CH06LD04","0","25","1","1","3","1","","0","1","0","null","","","<img src = 'targets/31.png' width = '100%;'>","null","","","","","","","","","",""
"","html-keyboard-response","246","534233","0.0-10.0-3.14","68jqpf555d","many_one","0","indirect_first","0","CH06LD04","0","25","1","1","3","1","","0","1","0","626.9999999998836","","","<img src = 'targets/mask.png' width = '100%;'>","75","neg","GS","GSnew","2","category2/GS3.png","targets/31.png","1","indirect","38",""
"","html-keyboard-response","247","535737","0.0-10.0-0.15","68jqpf555d","many_one","0","indirect_first","0","CH06LD04","0","25","1","1","3","1","","0","1","0","null","","","<div style=""font-size:60px;"">+</div>","null","","","","","","","","","",""
"","html-keyboard-response","248","535830","0.0-10.0-1.15","68jqpf555d","many_one","0","indirect_first","0","CH06LD04","0","25","1","1","3","1","","0","1","0","null","","","<img src = 'category4/CS1.png' width = '100%;'>","null","","","","","","","","","",""
"","html-keyboard-response","249","536081","0.0-10.0-2.15","68jqpf555d","many_one","0","indirect_first","0","CH06LD04","0","25","1","1","3","1","","0","1","0","null","","","<img src = 'targets/25.png' width = '100%;'>","null","","","","","","","","","",""
"","html-keyboard-response","250","536687","0.0-10.0-3.15","68jqpf555d","many_one","0","indirect_first","0","CH06LD04","0","25","1","1","3","1","","0","1","0","604","","","<img src = 'targets/mask.png' width = '100%;'>","75","neg","GS","GSold","4","category4/CS1.png","targets/25.png","1","indirect","39",""
"","html-keyboard-response","251","538191","0.0-10.0-0.16","68jqpf555d","many_one","0","indirect_first","0","CH06LD04","0","25","1","1","3","1","","0","1","0","null","","","<div style=""font-size:60px;"">+</div>","null","","","","","","","","","",""
"","html-keyboard-response","252","538284","0.0-10.0-1.16","68jqpf555d","many_one","0","indirect_first","0","CH06LD04","0","25","1","1","3","1","","0","1","0","null","","","<img src = 'category1/ma.png' width = '100%;'>","null","","","","","","","","","",""
"","html-keyboard-response","253","538537","0.0-10.0-2.16","68jqpf555d","many_one","0","indirect_first","0","CH06LD04","0","25","1","1","3","1","","0","1","0","null","","","<img src = 'targets/47.png' width = '100%;'>","null","","","","","","","","","",""
"","html-keyboard-response","254","539128","0.0-10.0-3.16","68jqpf555d","many_one","0","indirect_first","0","CH06LD04","0","25","1","1","3","1","","0","1","0","589","","","<img src = 'targets/mask.png' width = '100%;'>","75","pos","GS","abstract","1","category1/ma.png","targets/47.png","1","indirect","40",""
"","html-keyboard-response","255","540631","0.0-10.0-0.17","68jqpf555d","many_one","0","indirect_first","0","CH06LD04","0","25","1","1","3","1","","0","1","0","null","","","<div style=""font-size:60px;"">+</div>","null","","","","","","","","","",""
"","html-keyboard-response","256","540723","0.0-10.0-1.17","68jqpf555d","many_one","0","indirect_first","0","CH06LD04","0","25","1","1","3","1","","0","1","0","null","","","<img src = 'category3/GS1.png' width = '100%;'>","null","","","","","","","","","",""
"","html-keyboard-response","257","540976","0.0-10.0-2.17","68jqpf555d","many_one","0","indirect_first","0","CH06LD04","0","25","1","1","3","1","","0","1","0","null","","","<img src = 'targets/34.png' width = '100%;'>","null","","","","","","","","","",""
"","html-keyboard-response","258","541455","0.0-10.0-3.17","68jqpf555d","many_one","0","indirect_first","0","CH06LD04","0","25","1","1","3","1","","0","1","0","478","","","<img src = 'targets/mask.png' width = '100%;'>","75","pos","GS","GSnew","3","category3/GS1.png","targets/34.png","1","indirect","41",""
"","html-keyboard-response","259","542958","0.0-10.0-0.18","68jqpf555d","many_one","0","indirect_first","0","CH06LD04","0","25","1","1","3","1","","0","1","0","null","","","<div style=""font-size:60px;"">+</div>","null","","","","","","","","","",""
"","html-keyboard-response","260","543050","0.0-10.0-1.18","68jqpf555d","many_one","0","indirect_first","0","CH06LD04","0","25","1","1","3","1","","0","1","0","null","","","<img src = 'category1/CS7.png' width = '100%;'>","null","","","","","","","","","",""
"","html-keyboard-response","261","543303","0.0-10.0-2.18","68jqpf555d","many_one","0","indirect_first","0","CH06LD04","0","25","1","1","3","1","","0","1","0","null","","","<img src = 'targets/48.png' width = '100%;'>","null","","","","","","","","","",""
"","html-keyboard-response","262","543831","0.0-10.0-3.18","68jqpf555d","many_one","0","indirect_first","0","CH06LD04","0","25","1","1","3","1","","0","1","0","527","","","<img src = 'targets/mask.png' width = '100%;'>","75","pos","GS","GSold","1","category1/CS7.png","targets/48.png","1","indirect","42",""
"","html-keyboard-response","263","545334","0.0-10.0-0.19","68jqpf555d","many_one","0","indirect_first","0","CH06LD04","0","25","1","1","3","1","","0","1","0","null","","","<div style=""font-size:60px;"">+</div>","null","","","","","","","","","",""
"","html-keyboard-response","264","545429","0.0-10.0-1.19","68jqpf555d","many_one","0","indirect_first","0","CH06LD04","0","25","1","1","3","1","","0","1","0","null","","","<img src = 'category4/lin.png' width = '100%;'>","null","","","","","","","","","",""
"","html-keyboard-response","265","545682","0.0-10.0-2.19","68jqpf555d","many_one","0","indirect_first","0","CH06LD04","0","25","1","1","3","1","","0","1","0","null","","","<img src = 'targets/13.png' width = '100%;'>","null","","","","","","","","","",""
"","html-keyboard-response","266","546194","0.0-10.0-3.19","68jqpf555d","many_one","0","indirect_first","0","CH06LD04","0","25","1","1","3","1","","0","1","0","509","","","<img src = 'targets/mask.png' width = '100%;'>","75","neg","GS","abstract","4","category4/lin.png","targets/13.png","1","indirect","43",""
"","html-keyboard-response","267","547698","0.0-10.0-0.20","68jqpf555d","many_one","0","indirect_first","0","CH06LD04","0","25","1","1","3","1","","0","1","0","null","","","<div style=""font-size:60px;"">+</div>","null","","","","","","","","","",""
"","html-keyboard-response","268","547790","0.0-10.0-1.20","68jqpf555d","many_one","0","indirect_first","0","CH06LD04","0","25","1","1","3","1","","0","1","0","null","","","<img src = 'category3/CS9.png' width = '100%;'>","null","","","","","","","","","",""
"","html-keyboard-response","269","548043","0.0-10.0-2.20","68jqpf555d","many_one","0","indirect_first","0","CH06LD04","0","25","1","1","3","1","","0","1","0","null","","","<img src = 'targets/17.png' width = '100%;'>","null","","","","","","","","","",""
"","html-keyboard-response","270","548575","0.0-10.0-3.20","68jqpf555d","many_one","0","indirect_first","0","CH06LD04","0","25","1","1","3","1","","0","1","0","530","","","<img src = 'targets/mask.png' width = '100%;'>","75","pos","GS","GSold","3","category3/CS9.png","targets/17.png","1","indirect","44",""
"","html-keyboard-response","271","550078","0.0-10.0-0.21","68jqpf555d","many_one","0","indirect_first","0","CH06LD04","0","25","1","1","3","1","","0","1","0","null","","","<div style=""font-size:60px;"">+</div>","null","","","","","","","","","",""
"","html-keyboard-response","272","550171","0.0-10.0-1.21","68jqpf555d","many_one","0","indirect_first","0","CH06LD04","0","25","1","1","3","1","","0","1","0","null","","","<img src = 'category3/CS8.png' width = '100%;'>","null","","","","","","","","","",""
"","html-keyboard-response","273","550424","0.0-10.0-2.21","68jqpf555d","many_one","0","indirect_first","0","CH06LD04","0","25","1","1","3","1","","0","1","0","null","","","<img src = 'targets/32.png' width = '100%;'>","null","","","","","","","","","",""
"","html-keyboard-response","274","550894","0.0-10.0-3.21","68jqpf555d","many_one","0","indirect_first","0","CH06LD04","0","25","1","1","3","1","","0","1","0","469","","","<img src = 'targets/mask.png' width = '100%;'>","75","pos","GS","GSold","3","category3/CS8.png","targets/32.png","1","indirect","45",""
"","html-keyboard-response","275","552399","0.0-10.0-0.22","68jqpf555d","many_one","0","indirect_first","0","CH06LD04","0","25","1","1","3","1","","0","1","0","null","","","<div style=""font-size:60px;"">+</div>","null","","","","","","","","","",""
"","html-keyboard-response","276","552491","0.0-10.0-1.22","68jqpf555d","many_one","0","indirect_first","0","CH06LD04","0","25","1","1","3","1","","0","1","0","null","","","<img src = 'category3/wang.png' width = '100%;'>","null","","","","","","","","","",""
"","html-keyboard-response","277","552744","0.0-10.0-2.22","68jqpf555d","many_one","0","indirect_first","0","CH06LD04","0","25","1","1","3","1","","0","1","0","null","","","<img src = 'targets/29.png' width = '100%;'>","null","","","","","","","","","",""
"","html-keyboard-response","278","553404","0.0-10.0-3.22","68jqpf555d","many_one","0","indirect_first","0","CH06LD04","0","25","1","1","3","1","","0","1","0","659.0000000001164","","","<img src = 'targets/mask.png' width = '100%;'>","68","pos","GS","abstract","3","category3/wang.png","targets/29.png","0","indirect","46",""
"","html-keyboard-response","279","554908","0.0-10.0-0.23","68jqpf555d","many_one","0","indirect_first","0","CH06LD04","0","25","1","1","3","1","","0","1","0","null","","","<div style=""font-size:60px;"">+</div>","null","","","","","","","","","",""
"","html-keyboard-response","280","554999","0.0-10.0-1.23","68jqpf555d","many_one","0","indirect_first","0","CH06LD04","0","25","1","1","3","1","","0","1","0","null","","","<img src = 'category4/GS2.png' width = '100%;'>","null","","","","","","","","","",""
"","html-keyboard-response","281","555254","0.0-10.0-2.23","68jqpf555d","many_one","0","indirect_first","0","CH06LD04","0","25","1","1","3","1","","0","1","0","null","","","<img src = 'targets/22.png' width = '100%;'>","null","","","","","","","","","",""
"","html-keyboard-response","282","555536","0.0-10.0-3.23","68jqpf555d","many_one","0","indirect_first","0","CH06LD04","0","25","1","1","3","1","","0","1","0","280.9999999998836","","","<img src = 'targets/mask.png' width = '100%;'>","75","neg","GS","GSnew","4","category4/GS2.png","targets/22.png","1","indirect","47",""
"","survey-html-form","283","576971","0.0-11.0","68jqpf555d","many_one","0","indirect_first","0","CH06LD04","0","25","1","1","3","1","","0","1","0","20931","","{}","","","","","","","","","","","",""
"","image-slider-response","284","584393","0.0-12.0-0.0","68jqpf555d","many_one","0","indirect_first","0","CH06LD04","0","25","1","1","3","1","","0","1","0","5417","","","","","neg","GS","GSold","2","category2/CS10.png","targets/30.png","","direct","","29"
"","image-slider-response","285","587953","0.0-12.0-0.1","68jqpf555d","many_one","0","indirect_first","0","CH06LD04","0","25","1","1","3","1","","0","1","0","3556","","","","","neg","CS","CS","2","category2/CS5.png","targets/43.png","","direct","","39"
"","image-slider-response","286","591223","0.0-12.0-0.2","68jqpf555d","many_one","0","indirect_first","0","CH06LD04","0","25","1","1","3","1","","0","1","0","3269","","","","","pos","GS","GSnew","3","category3/GS2.png","targets/27.png","","direct","","-12"
"","image-slider-response","287","601442","0.0-12.0-0.3","68jqpf555d","many_one","0","indirect_first","0","CH06LD04","0","25","1","1","3","1","","0","1","0","10216","","","","","pos","GS","GSold","1","category1/CS7.png","targets/48.png","","direct","","-15"
"","image-slider-response","288","604694","0.0-12.0-0.4","68jqpf555d","many_one","0","indirect_first","0","CH06LD04","0","25","1","1","3","1","","0","1","0","3250","","","","","pos","GS","GSnew","1","category1/GS3.png","targets/37.png","","direct","","-8"
"","image-slider-response","289","607611","0.0-12.0-0.5","68jqpf555d","many_one","0","indirect_first","0","CH06LD04","0","25","1","1","3","1","","0","1","0","2914","","","","","pos","GS","GSold","3","category3/CS8.png","targets/32.png","","direct","","-19"
"","image-slider-response","290","609975","0.0-12.0-0.6","68jqpf555d","many_one","0","indirect_first","0","CH06LD04","0","25","1","1","3","1","","0","1","0","2363","","","","","neg","GS","GSnew","2","category2/GS1.png","targets/41.png","","direct","","16"
"","image-slider-response","291","612070","0.0-12.0-0.7","68jqpf555d","many_one","0","indirect_first","0","CH06LD04","0","25","1","1","3","1","","0","1","0","2091.9999999998836","","","","","neg","GS","GSold","2","category2/CS1.png","targets/38.png","","direct","","21"
"","image-slider-response","292","614637","0.0-12.0-0.8","68jqpf555d","many_one","0","indirect_first","0","CH06LD04","0","25","1","1","3","1","","0","1","0","2564","","","","","neg","GS","abstract","2","category2/men.png","targets/16.png","","direct","","7"
"","image-slider-response","293","617226","0.0-12.0-0.9","68jqpf555d","many_one","0","indirect_first","0","CH06LD04","0","25","1","1","3","1","","0","1","0","2587","","","","","neg","GS","GSold","4","category4/CS1.png","targets/25.png","","direct","","16"
"","image-slider-response","294","620606","0.0-12.0-0.10","68jqpf555d","many_one","0","indirect_first","0","CH06LD04","0","25","1","1","3","1","","0","1","0","3376","","","","","neg","GS","GSnew","2","category2/GS2.png","targets/7.png","","direct","","32"
"","image-slider-response","295","624293","0.0-12.0-0.11","68jqpf555d","many_one","0","indirect_first","0","CH06LD04","0","25","1","1","3","1","","0","1","0","3684.9999999998836","","","","","pos","CS","CS","1","category1/CS5.png","targets/35.png","","direct","","37"
"","image-slider-response","296","626404","0.0-12.0-0.12","68jqpf555d","many_one","0","indirect_first","0","CH06LD04","0","25","1","1","3","1","","0","1","0","2107","","","","","pos","GS","GSnew","1","category1/GS1.png","targets/46.png","","direct","","33"
"","image-slider-response","297","628517","0.0-12.0-0.13","68jqpf555d","many_one","0","indirect_first","0","CH06LD04","0","25","1","1","3","1","","0","1","0","2112","","","","","neg","GS","GSnew","2","category2/GS3.png","targets/31.png","","direct","","30"
"","image-slider-response","298","635940","0.0-12.0-0.14","68jqpf555d","many_one","0","indirect_first","0","CH06LD04","0","25","1","1","3","1","","0","1","0","7421","","","","","pos","GS","abstract","3","category3/wang.png","targets/29.png","","direct","","14"
"","image-slider-response","299","640022","0.0-12.0-0.15","68jqpf555d","many_one","0","indirect_first","0","CH06LD04","0","25","1","1","3","1","","0","1","0","4080","","","","","pos","GS","GSnew","1","category1/GS2.png","targets/45.png","","direct","","5"
"","image-slider-response","300","642420","0.0-12.0-0.16","68jqpf555d","many_one","0","indirect_first","0","CH06LD04","0","25","1","1","3","1","","0","1","0","2396","","","","","pos","GS","GSnew","3","category3/GS3.png","targets/18.png","","direct","","7"
"","image-slider-response","301","646497","0.0-12.0-0.17","68jqpf555d","many_one","0","indirect_first","0","CH06LD04","0","25","1","1","3","1","","0","1","0","4073","","","","","pos","GS","GSold","1","category1/CS4.png","targets/2.png","","direct","","-17"
"","image-slider-response","302","649376","0.0-12.0-0.18","68jqpf555d","many_one","0","indirect_first","0","CH06LD04","0","25","1","1","3","1","","0","1","0","2876","","","","","pos","CS","CS","3","category3/CS5.png","targets/21.png","","direct","","21"
"","image-slider-response","303","652032","0.0-12.0-0.19","68jqpf555d","many_one","0","indirect_first","0","CH06LD04","0","25","1","1","3","1","","0","1","0","2654","","","","","neg","CS","CS","4","category4/CS3.png","targets/15.png","","direct","","17"
"","image-slider-response","304","655606","0.0-12.0-0.20","68jqpf555d","many_one","0","indirect_first","0","CH06LD04","0","25","1","1","3","1","","0","1","0","3572","","","","","pos","GS","GSold","3","category3/CS9.png","targets/17.png","","direct","","19"
"","image-slider-response","305","658104","0.0-12.0-0.21","68jqpf555d","many_one","0","indirect_first","0","CH06LD04","0","25","1","1","3","1","","0","1","0","2495","","","","","neg","GS","GSnew","4","category4/GS1.png","targets/26.png","","direct","","22"
"","image-slider-response","306","662106","0.0-12.0-0.22","68jqpf555d","many_one","0","indirect_first","0","CH06LD04","0","25","1","1","3","1","","0","1","0","3998","","","","","pos","CS","CS","1","category1/CS6.png","targets/10.png","","direct","","24"
"","image-slider-response","307","664956","0.0-12.0-0.23","68jqpf555d","many_one","0","indirect_first","0","CH06LD04","0","25","1","1","3","1","","0","1","0","2846.9999999998836","","","","","neg","CS","CS","2","category2/CS9.png","targets/28.png","","direct","","22"
"","image-slider-response","308","667336","0.0-12.0-0.24","68jqpf555d","many_one","0","indirect_first","0","CH06LD04","0","25","1","1","3","1","","0","1","0","2377","","","","","pos","GS","GSold","3","category3/CS7.png","targets/20.png","","direct","","20"
"","image-slider-response","309","669658","0.0-12.0-0.25","68jqpf555d","many_one","0","indirect_first","0","CH06LD04","0","25","1","1","3","1","","0","1","0","2320","","","","","neg","CS","CS","2","category2/CS4.png","targets/6.png","","direct","","25"
"","image-slider-response","310","672038","0.0-12.0-0.26","68jqpf555d","many_one","0","indirect_first","0","CH06LD04","0","25","1","1","3","1","","0","1","0","2379","","","","","neg","GS","GSnew","4","category4/GS3.png","targets/19.png","","direct","","26"
"","image-slider-response","311","674563","0.0-12.0-0.27","68jqpf555d","many_one","0","indirect_first","0","CH06LD04","0","25","1","1","3","1","","0","1","0","2522","","","","","pos","CS","CS","1","category1/CS8.png","targets/3.png","","direct","","29"
"","image-slider-response","312","676556","0.0-12.0-0.28","68jqpf555d","many_one","0","indirect_first","0","CH06LD04","0","25","1","1","3","1","","0","1","0","1991","","","","","pos","CS","CS","3","category3/CS10.png","targets/12.png","","direct","","28"
"","image-slider-response","313","679097","0.0-12.0-0.29","68jqpf555d","many_one","0","indirect_first","0","CH06LD04","0","25","1","1","3","1","","0","1","0","2539","","","","","neg","CS","CS","2","category2/CS3.png","targets/36.png","","direct","","32"
"","image-slider-response","314","683126","0.0-12.0-0.30","68jqpf555d","many_one","0","indirect_first","0","CH06LD04","0","25","1","1","3","1","","0","1","0","4026.9999999998836","","","","","pos","GS","abstract","1","category1/ma.png","targets/47.png","","direct","","27"
"","image-slider-response","315","685207","0.0-12.0-0.31","68jqpf555d","many_one","0","indirect_first","0","CH06LD04","0","25","1","1","3","1","","0","1","0","2079","","","","","pos","CS","CS","3","category3/CS1.png","targets/11.png","","direct","","26"
"","image-slider-response","316","687424","0.0-12.0-0.32","68jqpf555d","many_one","0","indirect_first","0","CH06LD04","0","25","1","1","3","1","","0","1","0","2215","","","","","pos","CS","CS","1","category1/CS2.png","targets/24.png","","direct","","28"
"","image-slider-response","317","689701","0.0-12.0-0.33","68jqpf555d","many_one","0","indirect_first","0","CH06LD04","0","25","1","1","3","1","","0","1","0","2274","","","","","neg","CS","CS","4","category4/CS2.png","targets/9.png","","direct","","27"
"","image-slider-response","318","692811","0.0-12.0-0.34","68jqpf555d","many_one","0","indirect_first","0","CH06LD04","0","25","1","1","3","1","","0","1","0","3109.0000000001164","","","","","neg","GS","GSnew","4","category4/GS2.png","targets/22.png","","direct","","30"
"","image-slider-response","319","694754","0.0-12.0-0.35","68jqpf555d","many_one","0","indirect_first","0","CH06LD04","0","25","1","1","3","1","","0","1","0","1941","","","","","neg","CS","CS","4","category4/CS7.png","targets/42.png","","direct","","29"
"","image-slider-response","320","696978","0.0-12.0-0.36","68jqpf555d","many_one","0","indirect_first","0","CH06LD04","0","25","1","1","3","1","","0","1","0","2219.9999999998836","","","","","neg","CS","CS","2","category2/CS2.png","targets/4.png","","direct","","25"
"","image-slider-response","321","699844","0.0-12.0-0.37","68jqpf555d","many_one","0","indirect_first","0","CH06LD04","0","25","1","1","3","1","","0","1","0","2862","","","","","neg","GS","GSold","4","category4/CS4.png","targets/8.png","","direct","","30"
"","image-slider-response","322","705613","0.0-12.0-0.38","68jqpf555d","many_one","0","indirect_first","0","CH06LD04","0","25","1","1","3","1","","0","1","0","5766","","","","","neg","GS","abstract","4","category4/lin.png","targets/13.png","","direct","","30"
"","image-slider-response","323","707942","0.0-12.0-0.39","68jqpf555d","many_one","0","indirect_first","0","CH06LD04","0","25","1","1","3","1","","0","1","0","2327","","","","","neg","GS","GSold","2","category2/CS7.png","targets/39.png","","direct","","36"
"","image-slider-response","324","710247","0.0-12.0-0.40","68jqpf555d","many_one","0","indirect_first","0","CH06LD04","0","25","1","1","3","1","","0","1","0","2303","","","","","neg","CS","CS","4","category4/CS5.png","targets/33.png","","direct","","36"
"","image-slider-response","325","715407","0.0-12.0-0.41","68jqpf555d","many_one","0","indirect_first","0","CH06LD04","0","25","1","1","3","1","","0","1","0","5157.999999999884","","","","","pos","CS","CS","3","category3/CS6.png","targets/1.png","","direct","","28"
"","image-slider-response","326","717885","0.0-12.0-0.42","68jqpf555d","many_one","0","indirect_first","0","CH06LD04","0","25","1","1","3","1","","0","1","0","2476","","","","","pos","CS","CS","3","category3/CS2.png","targets/44.png","","direct","","31"
"","image-slider-response","327","720310","0.0-12.0-0.43","68jqpf555d","many_one","0","indirect_first","0","CH06LD04","0","25","1","1","3","1","","0","1","0","2422","","","","","pos","GS","GSnew","3","category3/GS1.png","targets/34.png","","direct","","33"
"","image-slider-response","328","722965","0.0-12.0-0.44","68jqpf555d","many_one","0","indirect_first","0","CH06LD04","0","25","1","1","3","1","","0","1","0","2654","","","","","pos","GS","GSold","1","category1/CS1.png","targets/14.png","","direct","","32"
"","image-slider-response","329","725517","0.0-12.0-0.45","68jqpf555d","many_one","0","indirect_first","0","CH06LD04","0","25","1","1","3","1","","0","1","0","2549","","","","","neg","CS","CS","4","category4/CS10.png","targets/40.png","","direct","","32"
