"success","trial_type","trial_index","time_elapsed","internal_node_id","subject","condition","condition_code","measure","measure_code","codeword","gender","age","education","chinese","fach","handedness","comment","hinschauen","ablenkung","gewissenhaft","rt","url","responses","stimulus","key_press","val","type","type_specific","category","cs_selected","response","target","task","indirect","nr_pres"
"true","fullscreen","0","3323","0.0-0.0","56k89e4p6w","many_one","0","direct_first","1","an06ex11","0","24","1","1","3","1","","0","1","0","","","","","","","","","","","","","","",""
"","external-html","1","18703","0.0-1.0","56k89e4p6w","many_one","0","direct_first","1","an06ex11","0","24","1","1","3","1","","0","1","0","15342.104999996081","text/information.html","","","","","","","","","","","","",""
"","external-html","2","31088","0.0-2.0","56k89e4p6w","many_one","0","direct_first","1","an06ex11","0","24","1","1","3","1","","0","1","0","12327.140000001236","text/consent.html","","","","","","","","","","","","",""
"","survey-html-form","3","66216","0.0-3.0","56k89e4p6w","many_one","0","direct_first","1","an06ex11","0","24","1","1","3","1","","0","1","0","35125.5949999977","","{""codeword_enter"":""an06ex11""}","","","","","","","","","","","",""
"","survey-html-form","4","81126","0.0-4.0","56k89e4p6w","many_one","0","direct_first","1","an06ex11","0","24","1","1","3","1","","0","1","0","14906.880000002275","","{""age"":""24"",""education"":""1"",""subject"":""3"",""gender"":""0"",""handedness"":""1"",""chinese"":""1""}","","","","","","","","","","","",""
"","survey-html-form","5","94215","0.0-5.0","56k89e4p6w","many_one","0","direct_first","1","an06ex11","0","24","1","1","3","1","","0","1","0","13087.200000001758","","{}","","","","","","","","","","","",""
"","html-keyboard-response","6","98224","0.0-6.0-0.0-0.0","56k89e4p6w","many_one","0","direct_first","1","an06ex11","0","24","1","1","3","1","","0","1","0","null","","","<div class = 'row'><div class = 'column'><img src = 'uspos/2900.2.bmp' width = '100%;'></div><div class = 'column'><img src = 'category1/CS10.png' width = '70%;'></div></div>","null","pos","CS","CS","1","category1/CS10.png","","","","",""
"","html-keyboard-response","7","100734","0.0-6.0-0.0-0.1","56k89e4p6w","many_one","0","direct_first","1","an06ex11","0","24","1","1","3","1","","0","1","0","null","","","<div class = 'row'><div class = 'column'><img src = 'usneg/9050.bmp' width = '100%;'></div><div class = 'column'><img src = 'category2/CS4.png' width = '70%;'></div></div>","null","neg","CS","CS","2","category2/CS4.png","","","","",""
"","html-keyboard-response","8","103246","0.0-6.0-0.0-0.2","56k89e4p6w","many_one","0","direct_first","1","an06ex11","0","24","1","1","3","1","","0","1","0","null","","","<div class = 'row'><div class = 'column'><img src = 'category1/CS5.png' width = '70%;'></div><div class = 'column'><img src = 'uspos/1463.bmp' width = '100%;'></div></div>","null","pos","CS","CS","1","category1/CS5.png","","","","",""
"","html-keyboard-response","9","105754","0.0-6.0-0.0-0.3","56k89e4p6w","many_one","0","direct_first","1","an06ex11","0","24","1","1","3","1","","0","1","0","null","","","<div class = 'row'><div class = 'column'><img src = 'category3/CS2.png' width = '70%;'></div><div class = 'column'><img src = 'usneg/7380.bmp' width = '100%;'></div></div>","null","neg","CS","CS","3","category3/CS2.png","","","","",""
"","html-keyboard-response","10","108263","0.0-6.0-0.0-0.4","56k89e4p6w","many_one","0","direct_first","1","an06ex11","0","24","1","1","3","1","","0","1","0","null","","","<div class = 'row'><div class = 'column'><img src = 'usneg/8485.bmp' width = '100%;'></div><div class = 'column'><img src = 'category3/CS5.png' width = '70%;'></div></div>","null","neg","CS","CS","3","category3/CS5.png","","","","",""
"","html-keyboard-response","11","110775","0.0-6.0-0.0-0.5","56k89e4p6w","many_one","0","direct_first","1","an06ex11","0","24","1","1","3","1","","0","1","0","null","","","<div class = 'row'><div class = 'column'><img src = 'uspos/5470.bmp' width = '100%;'></div><div class = 'column'><img src = 'category4/CS1.png' width = '70%;'></div></div>","null","pos","CS","CS","4","category4/CS1.png","","","","",""
"","html-keyboard-response","12","113288","0.0-6.0-0.0-0.6","56k89e4p6w","many_one","0","direct_first","1","an06ex11","0","24","1","1","3","1","","0","1","0","null","","","<div class = 'row'><div class = 'column'><img src = 'category2/CS10.png' width = '70%;'></div><div class = 'column'><img src = 'usneg/9415.bmp' width = '100%;'></div></div>","null","neg","CS","CS","2","category2/CS10.png","","","","",""
"","html-keyboard-response","13","115798","0.0-6.0-0.0-0.7","56k89e4p6w","many_one","0","direct_first","1","an06ex11","0","24","1","1","3","1","","0","1","0","null","","","<div class = 'row'><div class = 'column'><img src = 'usneg/9404.bmp' width = '100%;'></div><div class = 'column'><img src = 'category2/CS2.png' width = '70%;'></div></div>","null","neg","CS","CS","2","category2/CS2.png","","","","",""
"","html-keyboard-response","14","118310","0.0-6.0-0.0-0.8","56k89e4p6w","many_one","0","direct_first","1","an06ex11","0","24","1","1","3","1","","0","1","0","null","","","<div class = 'row'><div class = 'column'><img src = 'uspos/2030.bmp' width = '100%;'></div><div class = 'column'><img src = 'category1/CS6.png' width = '70%;'></div></div>","null","pos","CS","CS","1","category1/CS6.png","","","","",""
"","html-keyboard-response","15","120822","0.0-6.0-0.0-0.9","56k89e4p6w","many_one","0","direct_first","1","an06ex11","0","24","1","1","3","1","","0","1","0","null","","","<div class = 'row'><div class = 'column'><img src = 'usneg/2141.bmp' width = '100%;'></div><div class = 'column'><img src = 'category2/CS1.png' width = '70%;'></div></div>","null","neg","CS","CS","2","category2/CS1.png","","","","",""
"","html-keyboard-response","16","123327","0.0-6.0-0.0-0.10","56k89e4p6w","many_one","0","direct_first","1","an06ex11","0","24","1","1","3","1","","0","1","0","null","","","<div class = 'row'><div class = 'column'><img src = 'category2/CS8.png' width = '70%;'></div><div class = 'column'><img src = 'usneg/9584.bmp' width = '100%;'></div></div>","null","neg","CS","CS","2","category2/CS8.png","","","","",""
"","html-keyboard-response","17","125840","0.0-6.0-0.0-0.11","56k89e4p6w","many_one","0","direct_first","1","an06ex11","0","24","1","1","3","1","","0","1","0","null","","","<div class = 'row'><div class = 'column'><img src = 'usneg/6838.bmp' width = '100%;'></div><div class = 'column'><img src = 'category3/CS3.png' width = '70%;'></div></div>","null","neg","CS","CS","3","category3/CS3.png","","","","",""
"","html-keyboard-response","18","128350","0.0-6.0-0.0-0.12","56k89e4p6w","many_one","0","direct_first","1","an06ex11","0","24","1","1","3","1","","0","1","0","null","","","<div class = 'row'><div class = 'column'><img src = 'uspos/5830.bmp' width = '100%;'></div><div class = 'column'><img src = 'category4/CS8.png' width = '70%;'></div></div>","null","pos","CS","CS","4","category4/CS8.png","","","","",""
"","html-keyboard-response","19","130858","0.0-6.0-0.0-0.13","56k89e4p6w","many_one","0","direct_first","1","an06ex11","0","24","1","1","3","1","","0","1","0","null","","","<div class = 'row'><div class = 'column'><img src = 'uspos/2165.bmp' width = '100%;'></div><div class = 'column'><img src = 'category1/CS2.png' width = '70%;'></div></div>","null","pos","CS","CS","1","category1/CS2.png","","","","",""
"","html-keyboard-response","20","133368","0.0-6.0-0.0-0.14","56k89e4p6w","many_one","0","direct_first","1","an06ex11","0","24","1","1","3","1","","0","1","0","null","","","<div class = 'row'><div class = 'column'><img src = 'usneg/6212.bmp' width = '100%;'></div><div class = 'column'><img src = 'category3/CS7.png' width = '70%;'></div></div>","null","neg","CS","CS","3","category3/CS7.png","","","","",""
"","html-keyboard-response","21","135878","0.0-6.0-0.0-0.15","56k89e4p6w","many_one","0","direct_first","1","an06ex11","0","24","1","1","3","1","","0","1","0","null","","","<div class = 'row'><div class = 'column'><img src = 'uspos/1710.bmp' width = '100%;'></div><div class = 'column'><img src = 'category4/CS4.png' width = '70%;'></div></div>","null","pos","CS","CS","4","category4/CS4.png","","","","",""
"","html-keyboard-response","22","138384","0.0-6.0-0.0-0.16","56k89e4p6w","many_one","0","direct_first","1","an06ex11","0","24","1","1","3","1","","0","1","0","null","","","<div class = 'row'><div class = 'column'><img src = 'category3/CS4.png' width = '70%;'></div><div class = 'column'><img src = 'usneg/1280.bmp' width = '100%;'></div></div>","null","neg","CS","CS","3","category3/CS4.png","","","","",""
"","html-keyboard-response","23","140895","0.0-6.0-0.0-0.17","56k89e4p6w","many_one","0","direct_first","1","an06ex11","0","24","1","1","3","1","","0","1","0","null","","","<div class = 'row'><div class = 'column'><img src = 'category4/CS7.png' width = '70%;'></div><div class = 'column'><img src = 'uspos/2150.bmp' width = '100%;'></div></div>","null","pos","CS","CS","4","category4/CS7.png","","","","",""
"","html-keyboard-response","24","143406","0.0-6.0-0.0-0.18","56k89e4p6w","many_one","0","direct_first","1","an06ex11","0","24","1","1","3","1","","0","1","0","null","","","<div class = 'row'><div class = 'column'><img src = 'uspos/8490.bmp' width = '100%;'></div><div class = 'column'><img src = 'category4/CS10.png' width = '70%;'></div></div>","null","pos","CS","CS","4","category4/CS10.png","","","","",""
"","html-keyboard-response","25","145919","0.0-6.0-0.0-0.19","56k89e4p6w","many_one","0","direct_first","1","an06ex11","0","24","1","1","3","1","","0","1","0","null","","","<div class = 'row'><div class = 'column'><img src = 'uspos/2550.bmp' width = '100%;'></div><div class = 'column'><img src = 'category1/CS7.png' width = '70%;'></div></div>","null","pos","CS","CS","1","category1/CS7.png","","","","",""
"","survey-html-form","26","168487","0.0-6.0-1.0","56k89e4p6w","many_one","0","direct_first","1","an06ex11","0","24","1","1","3","1","","0","1","0","22063.269999998738","","{}","","","","","","","","","","","",""
"","html-keyboard-response","27","172499","0.0-6.0-2.0-0.0","56k89e4p6w","many_one","0","direct_first","1","an06ex11","0","24","1","1","3","1","","0","1","0","null","","","<div class = 'row'><div class = 'column'><img src = 'category3/CS2.png' width = '70%;'></div><div class = 'column'><img src = 'usneg/7380.bmp' width = '100%;'></div></div>","null","neg","CS","CS","3","category3/CS2.png","","","","",""
"","html-keyboard-response","28","175063","0.0-6.0-2.0-0.1","56k89e4p6w","many_one","0","direct_first","1","an06ex11","0","24","1","1","3","1","","0","1","0","null","","","<div class = 'row'><div class = 'column'><img src = 'usneg/9050.bmp' width = '100%;'></div><div class = 'column'><img src = 'category2/CS4.png' width = '70%;'></div></div>","null","neg","CS","CS","2","category2/CS4.png","","","","",""
"","html-keyboard-response","29","177568","0.0-6.0-2.0-0.2","56k89e4p6w","many_one","0","direct_first","1","an06ex11","0","24","1","1","3","1","","0","1","0","null","","","<div class = 'row'><div class = 'column'><img src = 'usneg/9415.bmp' width = '100%;'></div><div class = 'column'><img src = 'category2/CS10.png' width = '70%;'></div></div>","null","neg","CS","CS","2","category2/CS10.png","","","","",""
"","html-keyboard-response","30","180072","0.0-6.0-2.0-0.3","56k89e4p6w","many_one","0","direct_first","1","an06ex11","0","24","1","1","3","1","","0","1","0","null","","","<div class = 'row'><div class = 'column'><img src = 'usneg/1280.bmp' width = '100%;'></div><div class = 'column'><img src = 'category3/CS4.png' width = '70%;'></div></div>","null","neg","CS","CS","3","category3/CS4.png","","","","",""
"","html-keyboard-response","31","182576","0.0-6.0-2.0-0.4","56k89e4p6w","many_one","0","direct_first","1","an06ex11","0","24","1","1","3","1","","0","1","0","null","","","<div class = 'row'><div class = 'column'><img src = 'category1/CS6.png' width = '70%;'></div><div class = 'column'><img src = 'uspos/2030.bmp' width = '100%;'></div></div>","null","pos","CS","CS","1","category1/CS6.png","","","","",""
"","html-keyboard-response","32","185083","0.0-6.0-2.0-0.5","56k89e4p6w","many_one","0","direct_first","1","an06ex11","0","24","1","1","3","1","","0","1","0","null","","","<div class = 'row'><div class = 'column'><img src = 'uspos/2150.bmp' width = '100%;'></div><div class = 'column'><img src = 'category4/CS7.png' width = '70%;'></div></div>","null","pos","CS","CS","4","category4/CS7.png","","","","",""
"","html-keyboard-response","33","187591","0.0-6.0-2.0-0.6","56k89e4p6w","many_one","0","direct_first","1","an06ex11","0","24","1","1","3","1","","0","1","0","null","","","<div class = 'row'><div class = 'column'><img src = 'usneg/2141.bmp' width = '100%;'></div><div class = 'column'><img src = 'category2/CS1.png' width = '70%;'></div></div>","null","neg","CS","CS","2","category2/CS1.png","","","","",""
"","html-keyboard-response","34","190098","0.0-6.0-2.0-0.7","56k89e4p6w","many_one","0","direct_first","1","an06ex11","0","24","1","1","3","1","","0","1","0","null","","","<div class = 'row'><div class = 'column'><img src = 'usneg/9584.bmp' width = '100%;'></div><div class = 'column'><img src = 'category2/CS8.png' width = '70%;'></div></div>","null","neg","CS","CS","2","category2/CS8.png","","","","",""
"","html-keyboard-response","35","192602","0.0-6.0-2.0-0.8","56k89e4p6w","many_one","0","direct_first","1","an06ex11","0","24","1","1","3","1","","0","1","0","null","","","<div class = 'row'><div class = 'column'><img src = 'category1/CS2.png' width = '70%;'></div><div class = 'column'><img src = 'uspos/2165.bmp' width = '100%;'></div></div>","null","pos","CS","CS","1","category1/CS2.png","","","","",""
"","html-keyboard-response","36","195110","0.0-6.0-2.0-0.9","56k89e4p6w","many_one","0","direct_first","1","an06ex11","0","24","1","1","3","1","","0","1","0","null","","","<div class = 'row'><div class = 'column'><img src = 'usneg/8485.bmp' width = '100%;'></div><div class = 'column'><img src = 'category3/CS5.png' width = '70%;'></div></div>","null","neg","CS","CS","3","category3/CS5.png","","","","",""
"","html-keyboard-response","37","197612","0.0-6.0-2.0-0.10","56k89e4p6w","many_one","0","direct_first","1","an06ex11","0","24","1","1","3","1","","0","1","0","null","","","<div class = 'row'><div class = 'column'><img src = 'category4/CS8.png' width = '70%;'></div><div class = 'column'><img src = 'uspos/5830.bmp' width = '100%;'></div></div>","null","pos","CS","CS","4","category4/CS8.png","","","","",""
"","html-keyboard-response","38","200120","0.0-6.0-2.0-0.11","56k89e4p6w","many_one","0","direct_first","1","an06ex11","0","24","1","1","3","1","","0","1","0","null","","","<div class = 'row'><div class = 'column'><img src = 'category4/CS4.png' width = '70%;'></div><div class = 'column'><img src = 'uspos/1710.bmp' width = '100%;'></div></div>","null","pos","CS","CS","4","category4/CS4.png","","","","",""
"","html-keyboard-response","39","202625","0.0-6.0-2.0-0.12","56k89e4p6w","many_one","0","direct_first","1","an06ex11","0","24","1","1","3","1","","0","1","0","null","","","<div class = 'row'><div class = 'column'><img src = 'category3/CS3.png' width = '70%;'></div><div class = 'column'><img src = 'usneg/6838.bmp' width = '100%;'></div></div>","null","neg","CS","CS","3","category3/CS3.png","","","","",""
"","html-keyboard-response","40","205134","0.0-6.0-2.0-0.13","56k89e4p6w","many_one","0","direct_first","1","an06ex11","0","24","1","1","3","1","","0","1","0","null","","","<div class = 'row'><div class = 'column'><img src = 'uspos/2900.2.bmp' width = '100%;'></div><div class = 'column'><img src = 'category1/CS10.png' width = '70%;'></div></div>","null","pos","CS","CS","1","category1/CS10.png","","","","",""
"","html-keyboard-response","41","207644","0.0-6.0-2.0-0.14","56k89e4p6w","many_one","0","direct_first","1","an06ex11","0","24","1","1","3","1","","0","1","0","null","","","<div class = 'row'><div class = 'column'><img src = 'category1/CS7.png' width = '70%;'></div><div class = 'column'><img src = 'uspos/2550.bmp' width = '100%;'></div></div>","null","pos","CS","CS","1","category1/CS7.png","","","","",""
"","html-keyboard-response","42","210151","0.0-6.0-2.0-0.15","56k89e4p6w","many_one","0","direct_first","1","an06ex11","0","24","1","1","3","1","","0","1","0","null","","","<div class = 'row'><div class = 'column'><img src = 'category4/CS1.png' width = '70%;'></div><div class = 'column'><img src = 'uspos/5470.bmp' width = '100%;'></div></div>","null","pos","CS","CS","4","category4/CS1.png","","","","",""
"","html-keyboard-response","43","212664","0.0-6.0-2.0-0.16","56k89e4p6w","many_one","0","direct_first","1","an06ex11","0","24","1","1","3","1","","0","1","0","null","","","<div class = 'row'><div class = 'column'><img src = 'usneg/9404.bmp' width = '100%;'></div><div class = 'column'><img src = 'category2/CS2.png' width = '70%;'></div></div>","null","neg","CS","CS","2","category2/CS2.png","","","","",""
"","html-keyboard-response","44","215173","0.0-6.0-2.0-0.17","56k89e4p6w","many_one","0","direct_first","1","an06ex11","0","24","1","1","3","1","","0","1","0","null","","","<div class = 'row'><div class = 'column'><img src = 'uspos/8490.bmp' width = '100%;'></div><div class = 'column'><img src = 'category4/CS10.png' width = '70%;'></div></div>","null","pos","CS","CS","4","category4/CS10.png","","","","",""
"","html-keyboard-response","45","217680","0.0-6.0-2.0-0.18","56k89e4p6w","many_one","0","direct_first","1","an06ex11","0","24","1","1","3","1","","0","1","0","null","","","<div class = 'row'><div class = 'column'><img src = 'usneg/6212.bmp' width = '100%;'></div><div class = 'column'><img src = 'category3/CS7.png' width = '70%;'></div></div>","null","neg","CS","CS","3","category3/CS7.png","","","","",""
"","html-keyboard-response","46","220190","0.0-6.0-2.0-0.19","56k89e4p6w","many_one","0","direct_first","1","an06ex11","0","24","1","1","3","1","","0","1","0","null","","","<div class = 'row'><div class = 'column'><img src = 'uspos/1463.bmp' width = '100%;'></div><div class = 'column'><img src = 'category1/CS5.png' width = '70%;'></div></div>","null","pos","CS","CS","1","category1/CS5.png","","","","",""
"","survey-html-form","47","222494","0.0-6.0-3.0","56k89e4p6w","many_one","0","direct_first","1","an06ex11","0","24","1","1","3","1","","0","1","0","1797.7299999984098","","{}","","","","","","","","","","","",""
"","html-keyboard-response","48","226504","0.0-6.0-4.0-0.0","56k89e4p6w","many_one","0","direct_first","1","an06ex11","0","24","1","1","3","1","","0","1","0","null","","","<div class = 'row'><div class = 'column'><img src = 'category4/CS4.png' width = '70%;'></div><div class = 'column'><img src = 'uspos/1710.bmp' width = '100%;'></div></div>","null","pos","CS","CS","4","category4/CS4.png","","","","",""
"","html-keyboard-response","49","229014","0.0-6.0-4.0-0.1","56k89e4p6w","many_one","0","direct_first","1","an06ex11","0","24","1","1","3","1","","0","1","0","null","","","<div class = 'row'><div class = 'column'><img src = 'category4/CS8.png' width = '70%;'></div><div class = 'column'><img src = 'uspos/5830.bmp' width = '100%;'></div></div>","null","pos","CS","CS","4","category4/CS8.png","","","","",""
"","html-keyboard-response","50","231526","0.0-6.0-4.0-0.2","56k89e4p6w","many_one","0","direct_first","1","an06ex11","0","24","1","1","3","1","","0","1","0","null","","","<div class = 'row'><div class = 'column'><img src = 'usneg/8485.bmp' width = '100%;'></div><div class = 'column'><img src = 'category3/CS5.png' width = '70%;'></div></div>","null","neg","CS","CS","3","category3/CS5.png","","","","",""
"","html-keyboard-response","51","234035","0.0-6.0-4.0-0.3","56k89e4p6w","many_one","0","direct_first","1","an06ex11","0","24","1","1","3","1","","0","1","0","null","","","<div class = 'row'><div class = 'column'><img src = 'usneg/6212.bmp' width = '100%;'></div><div class = 'column'><img src = 'category3/CS7.png' width = '70%;'></div></div>","null","neg","CS","CS","3","category3/CS7.png","","","","",""
"","html-keyboard-response","52","236543","0.0-6.0-4.0-0.4","56k89e4p6w","many_one","0","direct_first","1","an06ex11","0","24","1","1","3","1","","0","1","0","null","","","<div class = 'row'><div class = 'column'><img src = 'uspos/8490.bmp' width = '100%;'></div><div class = 'column'><img src = 'category4/CS10.png' width = '70%;'></div></div>","null","pos","CS","CS","4","category4/CS10.png","","","","",""
"","html-keyboard-response","53","239048","0.0-6.0-4.0-0.5","56k89e4p6w","many_one","0","direct_first","1","an06ex11","0","24","1","1","3","1","","0","1","0","null","","","<div class = 'row'><div class = 'column'><img src = 'category2/CS1.png' width = '70%;'></div><div class = 'column'><img src = 'usneg/2141.bmp' width = '100%;'></div></div>","null","neg","CS","CS","2","category2/CS1.png","","","","",""
"","html-keyboard-response","54","241558","0.0-6.0-4.0-0.6","56k89e4p6w","many_one","0","direct_first","1","an06ex11","0","24","1","1","3","1","","0","1","0","null","","","<div class = 'row'><div class = 'column'><img src = 'uspos/2030.bmp' width = '100%;'></div><div class = 'column'><img src = 'category1/CS6.png' width = '70%;'></div></div>","null","pos","CS","CS","1","category1/CS6.png","","","","",""
"","html-keyboard-response","55","244067","0.0-6.0-4.0-0.7","56k89e4p6w","many_one","0","direct_first","1","an06ex11","0","24","1","1","3","1","","0","1","0","null","","","<div class = 'row'><div class = 'column'><img src = 'usneg/1280.bmp' width = '100%;'></div><div class = 'column'><img src = 'category3/CS4.png' width = '70%;'></div></div>","null","neg","CS","CS","3","category3/CS4.png","","","","",""
"","html-keyboard-response","56","246575","0.0-6.0-4.0-0.8","56k89e4p6w","many_one","0","direct_first","1","an06ex11","0","24","1","1","3","1","","0","1","0","null","","","<div class = 'row'><div class = 'column'><img src = 'category2/CS10.png' width = '70%;'></div><div class = 'column'><img src = 'usneg/9415.bmp' width = '100%;'></div></div>","null","neg","CS","CS","2","category2/CS10.png","","","","",""
"","html-keyboard-response","57","249082","0.0-6.0-4.0-0.9","56k89e4p6w","many_one","0","direct_first","1","an06ex11","0","24","1","1","3","1","","0","1","0","null","","","<div class = 'row'><div class = 'column'><img src = 'category1/CS7.png' width = '70%;'></div><div class = 'column'><img src = 'uspos/2550.bmp' width = '100%;'></div></div>","null","pos","CS","CS","1","category1/CS7.png","","","","",""
"","html-keyboard-response","58","251590","0.0-6.0-4.0-0.10","56k89e4p6w","many_one","0","direct_first","1","an06ex11","0","24","1","1","3","1","","0","1","0","null","","","<div class = 'row'><div class = 'column'><img src = 'usneg/9404.bmp' width = '100%;'></div><div class = 'column'><img src = 'category2/CS2.png' width = '70%;'></div></div>","null","neg","CS","CS","2","category2/CS2.png","","","","",""
"","html-keyboard-response","59","254098","0.0-6.0-4.0-0.11","56k89e4p6w","many_one","0","direct_first","1","an06ex11","0","24","1","1","3","1","","0","1","0","null","","","<div class = 'row'><div class = 'column'><img src = 'uspos/5470.bmp' width = '100%;'></div><div class = 'column'><img src = 'category4/CS1.png' width = '70%;'></div></div>","null","pos","CS","CS","4","category4/CS1.png","","","","",""
"","html-keyboard-response","60","256603","0.0-6.0-4.0-0.12","56k89e4p6w","many_one","0","direct_first","1","an06ex11","0","24","1","1","3","1","","0","1","0","null","","","<div class = 'row'><div class = 'column'><img src = 'usneg/6838.bmp' width = '100%;'></div><div class = 'column'><img src = 'category3/CS3.png' width = '70%;'></div></div>","null","neg","CS","CS","3","category3/CS3.png","","","","",""
"","html-keyboard-response","61","259115","0.0-6.0-4.0-0.13","56k89e4p6w","many_one","0","direct_first","1","an06ex11","0","24","1","1","3","1","","0","1","0","null","","","<div class = 'row'><div class = 'column'><img src = 'category1/CS10.png' width = '70%;'></div><div class = 'column'><img src = 'uspos/2900.2.bmp' width = '100%;'></div></div>","null","pos","CS","CS","1","category1/CS10.png","","","","",""
"","html-keyboard-response","62","261628","0.0-6.0-4.0-0.14","56k89e4p6w","many_one","0","direct_first","1","an06ex11","0","24","1","1","3","1","","0","1","0","null","","","<div class = 'row'><div class = 'column'><img src = 'category1/CS5.png' width = '70%;'></div><div class = 'column'><img src = 'uspos/1463.bmp' width = '100%;'></div></div>","null","pos","CS","CS","1","category1/CS5.png","","","","",""
"","html-keyboard-response","63","264136","0.0-6.0-4.0-0.15","56k89e4p6w","many_one","0","direct_first","1","an06ex11","0","24","1","1","3","1","","0","1","0","null","","","<div class = 'row'><div class = 'column'><img src = 'category2/CS4.png' width = '70%;'></div><div class = 'column'><img src = 'usneg/9050.bmp' width = '100%;'></div></div>","null","neg","CS","CS","2","category2/CS4.png","","","","",""
"","html-keyboard-response","64","266647","0.0-6.0-4.0-0.16","56k89e4p6w","many_one","0","direct_first","1","an06ex11","0","24","1","1","3","1","","0","1","0","null","","","<div class = 'row'><div class = 'column'><img src = 'usneg/9584.bmp' width = '100%;'></div><div class = 'column'><img src = 'category2/CS8.png' width = '70%;'></div></div>","null","neg","CS","CS","2","category2/CS8.png","","","","",""
"","html-keyboard-response","65","269158","0.0-6.0-4.0-0.17","56k89e4p6w","many_one","0","direct_first","1","an06ex11","0","24","1","1","3","1","","0","1","0","null","","","<div class = 'row'><div class = 'column'><img src = 'uspos/2150.bmp' width = '100%;'></div><div class = 'column'><img src = 'category4/CS7.png' width = '70%;'></div></div>","null","pos","CS","CS","4","category4/CS7.png","","","","",""
"","html-keyboard-response","66","271670","0.0-6.0-4.0-0.18","56k89e4p6w","many_one","0","direct_first","1","an06ex11","0","24","1","1","3","1","","0","1","0","null","","","<div class = 'row'><div class = 'column'><img src = 'uspos/2165.bmp' width = '100%;'></div><div class = 'column'><img src = 'category1/CS2.png' width = '70%;'></div></div>","null","pos","CS","CS","1","category1/CS2.png","","","","",""
"","html-keyboard-response","67","274176","0.0-6.0-4.0-0.19","56k89e4p6w","many_one","0","direct_first","1","an06ex11","0","24","1","1","3","1","","0","1","0","null","","","<div class = 'row'><div class = 'column'><img src = 'category3/CS2.png' width = '70%;'></div><div class = 'column'><img src = 'usneg/7380.bmp' width = '100%;'></div></div>","null","neg","CS","CS","3","category3/CS2.png","","","","",""
"","survey-html-form","68","276410","0.0-6.0-5.0","56k89e4p6w","many_one","0","direct_first","1","an06ex11","0","24","1","1","3","1","","0","1","0","1731.6550000032294","","{}","","","","","","","","","","","",""
"","html-keyboard-response","69","280423","0.0-6.0-6.0-0.0","56k89e4p6w","many_one","0","direct_first","1","an06ex11","0","24","1","1","3","1","","0","1","0","null","","","<div class = 'row'><div class = 'column'><img src = 'usneg/9050.bmp' width = '100%;'></div><div class = 'column'><img src = 'category2/CS4.png' width = '70%;'></div></div>","null","neg","CS","CS","2","category2/CS4.png","","","","",""
"","html-keyboard-response","70","282934","0.0-6.0-6.0-0.1","56k89e4p6w","many_one","0","direct_first","1","an06ex11","0","24","1","1","3","1","","0","1","0","null","","","<div class = 'row'><div class = 'column'><img src = 'usneg/9404.bmp' width = '100%;'></div><div class = 'column'><img src = 'category2/CS2.png' width = '70%;'></div></div>","null","neg","CS","CS","2","category2/CS2.png","","","","",""
"","html-keyboard-response","71","285444","0.0-6.0-6.0-0.2","56k89e4p6w","many_one","0","direct_first","1","an06ex11","0","24","1","1","3","1","","0","1","0","null","","","<div class = 'row'><div class = 'column'><img src = 'usneg/9415.bmp' width = '100%;'></div><div class = 'column'><img src = 'category2/CS10.png' width = '70%;'></div></div>","null","neg","CS","CS","2","category2/CS10.png","","","","",""
"","html-keyboard-response","72","287951","0.0-6.0-6.0-0.3","56k89e4p6w","many_one","0","direct_first","1","an06ex11","0","24","1","1","3","1","","0","1","0","null","","","<div class = 'row'><div class = 'column'><img src = 'category1/CS10.png' width = '70%;'></div><div class = 'column'><img src = 'uspos/2900.2.bmp' width = '100%;'></div></div>","null","pos","CS","CS","1","category1/CS10.png","","","","",""
"","html-keyboard-response","73","290459","0.0-6.0-6.0-0.4","56k89e4p6w","many_one","0","direct_first","1","an06ex11","0","24","1","1","3","1","","0","1","0","null","","","<div class = 'row'><div class = 'column'><img src = 'uspos/5830.bmp' width = '100%;'></div><div class = 'column'><img src = 'category4/CS8.png' width = '70%;'></div></div>","null","pos","CS","CS","4","category4/CS8.png","","","","",""
"","html-keyboard-response","74","292972","0.0-6.0-6.0-0.5","56k89e4p6w","many_one","0","direct_first","1","an06ex11","0","24","1","1","3","1","","0","1","0","null","","","<div class = 'row'><div class = 'column'><img src = 'uspos/2165.bmp' width = '100%;'></div><div class = 'column'><img src = 'category1/CS2.png' width = '70%;'></div></div>","null","pos","CS","CS","1","category1/CS2.png","","","","",""
"","html-keyboard-response","75","295482","0.0-6.0-6.0-0.6","56k89e4p6w","many_one","0","direct_first","1","an06ex11","0","24","1","1","3","1","","0","1","0","null","","","<div class = 'row'><div class = 'column'><img src = 'category1/CS5.png' width = '70%;'></div><div class = 'column'><img src = 'uspos/1463.bmp' width = '100%;'></div></div>","null","pos","CS","CS","1","category1/CS5.png","","","","",""
"","html-keyboard-response","76","297987","0.0-6.0-6.0-0.7","56k89e4p6w","many_one","0","direct_first","1","an06ex11","0","24","1","1","3","1","","0","1","0","null","","","<div class = 'row'><div class = 'column'><img src = 'uspos/5470.bmp' width = '100%;'></div><div class = 'column'><img src = 'category4/CS1.png' width = '70%;'></div></div>","null","pos","CS","CS","4","category4/CS1.png","","","","",""
"","html-keyboard-response","77","300496","0.0-6.0-6.0-0.8","56k89e4p6w","many_one","0","direct_first","1","an06ex11","0","24","1","1","3","1","","0","1","0","null","","","<div class = 'row'><div class = 'column'><img src = 'usneg/7380.bmp' width = '100%;'></div><div class = 'column'><img src = 'category3/CS2.png' width = '70%;'></div></div>","null","neg","CS","CS","3","category3/CS2.png","","","","",""
"","html-keyboard-response","78","303006","0.0-6.0-6.0-0.9","56k89e4p6w","many_one","0","direct_first","1","an06ex11","0","24","1","1","3","1","","0","1","0","null","","","<div class = 'row'><div class = 'column'><img src = 'uspos/1710.bmp' width = '100%;'></div><div class = 'column'><img src = 'category4/CS4.png' width = '70%;'></div></div>","null","pos","CS","CS","4","category4/CS4.png","","","","",""
"","html-keyboard-response","79","305518","0.0-6.0-6.0-0.10","56k89e4p6w","many_one","0","direct_first","1","an06ex11","0","24","1","1","3","1","","0","1","0","null","","","<div class = 'row'><div class = 'column'><img src = 'uspos/2150.bmp' width = '100%;'></div><div class = 'column'><img src = 'category4/CS7.png' width = '70%;'></div></div>","null","pos","CS","CS","4","category4/CS7.png","","","","",""
"","html-keyboard-response","80","308026","0.0-6.0-6.0-0.11","56k89e4p6w","many_one","0","direct_first","1","an06ex11","0","24","1","1","3","1","","0","1","0","null","","","<div class = 'row'><div class = 'column'><img src = 'category3/CS5.png' width = '70%;'></div><div class = 'column'><img src = 'usneg/8485.bmp' width = '100%;'></div></div>","null","neg","CS","CS","3","category3/CS5.png","","","","",""
"","html-keyboard-response","81","310535","0.0-6.0-6.0-0.12","56k89e4p6w","many_one","0","direct_first","1","an06ex11","0","24","1","1","3","1","","0","1","0","null","","","<div class = 'row'><div class = 'column'><img src = 'usneg/2141.bmp' width = '100%;'></div><div class = 'column'><img src = 'category2/CS1.png' width = '70%;'></div></div>","null","neg","CS","CS","2","category2/CS1.png","","","","",""
"","html-keyboard-response","82","313048","0.0-6.0-6.0-0.13","56k89e4p6w","many_one","0","direct_first","1","an06ex11","0","24","1","1","3","1","","0","1","0","null","","","<div class = 'row'><div class = 'column'><img src = 'category3/CS7.png' width = '70%;'></div><div class = 'column'><img src = 'usneg/6212.bmp' width = '100%;'></div></div>","null","neg","CS","CS","3","category3/CS7.png","","","","",""
"","html-keyboard-response","83","315558","0.0-6.0-6.0-0.14","56k89e4p6w","many_one","0","direct_first","1","an06ex11","0","24","1","1","3","1","","0","1","0","null","","","<div class = 'row'><div class = 'column'><img src = 'category2/CS8.png' width = '70%;'></div><div class = 'column'><img src = 'usneg/9584.bmp' width = '100%;'></div></div>","null","neg","CS","CS","2","category2/CS8.png","","","","",""
"","html-keyboard-response","84","318065","0.0-6.0-6.0-0.15","56k89e4p6w","many_one","0","direct_first","1","an06ex11","0","24","1","1","3","1","","0","1","0","null","","","<div class = 'row'><div class = 'column'><img src = 'uspos/8490.bmp' width = '100%;'></div><div class = 'column'><img src = 'category4/CS10.png' width = '70%;'></div></div>","null","pos","CS","CS","4","category4/CS10.png","","","","",""
"","html-keyboard-response","85","320574","0.0-6.0-6.0-0.16","56k89e4p6w","many_one","0","direct_first","1","an06ex11","0","24","1","1","3","1","","0","1","0","null","","","<div class = 'row'><div class = 'column'><img src = 'usneg/1280.bmp' width = '100%;'></div><div class = 'column'><img src = 'category3/CS4.png' width = '70%;'></div></div>","null","neg","CS","CS","3","category3/CS4.png","","","","",""
"","html-keyboard-response","86","323082","0.0-6.0-6.0-0.17","56k89e4p6w","many_one","0","direct_first","1","an06ex11","0","24","1","1","3","1","","0","1","0","null","","","<div class = 'row'><div class = 'column'><img src = 'category1/CS6.png' width = '70%;'></div><div class = 'column'><img src = 'uspos/2030.bmp' width = '100%;'></div></div>","null","pos","CS","CS","1","category1/CS6.png","","","","",""
"","html-keyboard-response","87","325589","0.0-6.0-6.0-0.18","56k89e4p6w","many_one","0","direct_first","1","an06ex11","0","24","1","1","3","1","","0","1","0","null","","","<div class = 'row'><div class = 'column'><img src = 'uspos/2550.bmp' width = '100%;'></div><div class = 'column'><img src = 'category1/CS7.png' width = '70%;'></div></div>","null","pos","CS","CS","1","category1/CS7.png","","","","",""
"","html-keyboard-response","88","328098","0.0-6.0-6.0-0.19","56k89e4p6w","many_one","0","direct_first","1","an06ex11","0","24","1","1","3","1","","0","1","0","null","","","<div class = 'row'><div class = 'column'><img src = 'category3/CS3.png' width = '70%;'></div><div class = 'column'><img src = 'usneg/6838.bmp' width = '100%;'></div></div>","null","neg","CS","CS","3","category3/CS3.png","","","","",""
"","survey-html-form","89","335323","0.0-7.0","56k89e4p6w","many_one","0","direct_first","1","an06ex11","0","24","1","1","3","1","","0","1","0","6719.154999998864","","{}","","","","","","","","","","","",""
"","image-slider-response","90","342720","0.0-8.0-0.0","56k89e4p6w","many_one","0","direct_first","1","an06ex11","0","24","1","1","3","1","","0","1","0","5393.409999996948","","","","","neg","GS","GSold","2","category2/CS3.png","-62","targets/28.png","direct","",""
"","image-slider-response","91","346083","0.0-8.0-0.1","56k89e4p6w","many_one","0","direct_first","1","an06ex11","0","24","1","1","3","1","","0","1","0","3360.674999996263","","","","","pos","CS","CS","4","category4/CS4.png","72","targets/9.png","direct","",""
"","image-slider-response","92","348484","0.0-8.0-0.2","56k89e4p6w","many_one","0","direct_first","1","an06ex11","0","24","1","1","3","1","","0","1","0","2398.4500000005937","","","","","neg","GS","GSnew","2","category2/GS3.png","59","targets/8.png","direct","",""
"","image-slider-response","93","352363","0.0-8.0-0.3","56k89e4p6w","many_one","0","direct_first","1","an06ex11","0","24","1","1","3","1","","0","1","0","3877.9749999957858","","","","","pos","GS","GSold","1","category1/CS4.png","74","targets/15.png","direct","",""
"","image-slider-response","94","354611","0.0-8.0-0.4","56k89e4p6w","many_one","0","direct_first","1","an06ex11","0","24","1","1","3","1","","0","1","0","2245.6549999988056","","","","","pos","GS","GSnew","1","category1/GS2.png","91","targets/7.png","direct","",""
"","image-slider-response","95","358378","0.0-8.0-0.5","56k89e4p6w","many_one","0","direct_first","1","an06ex11","0","24","1","1","3","1","","0","1","0","3765.8249999949476","","","","","neg","GS","abstract","2","category2/men.png","-22","targets/21.png","direct","",""
"","image-slider-response","96","360375","0.0-8.0-0.6","56k89e4p6w","many_one","0","direct_first","1","an06ex11","0","24","1","1","3","1","","0","1","0","1994.2850000006729","","","","","neg","CS","CS","2","category2/CS2.png","-51","targets/19.png","direct","",""
"","image-slider-response","97","363551","0.0-8.0-0.7","56k89e4p6w","many_one","0","direct_first","1","an06ex11","0","24","1","1","3","1","","0","1","0","3174.894999996468","","","","","pos","CS","CS","1","category1/CS7.png","94","targets/6.png","direct","",""
"","image-slider-response","98","366381","0.0-8.0-0.8","56k89e4p6w","many_one","0","direct_first","1","an06ex11","0","24","1","1","3","1","","0","1","0","2827.419999994163","","","","","pos","GS","GSold","1","category1/CS1.png","51","targets/42.png","direct","",""
"","image-slider-response","99","368676","0.0-8.0-0.9","56k89e4p6w","many_one","0","direct_first","1","an06ex11","0","24","1","1","3","1","","0","1","0","2293.9450000048964","","","","","neg","GS","GSold","2","category2/CS6.png","-86","targets/14.png","direct","",""
"","image-slider-response","100","371270","0.0-8.0-0.10","56k89e4p6w","many_one","0","direct_first","1","an06ex11","0","24","1","1","3","1","","0","1","0","2592.160000000149","","","","","pos","CS","CS","4","category4/CS7.png","51","targets/11.png","direct","",""
"","image-slider-response","101","373583","0.0-8.0-0.11","56k89e4p6w","many_one","0","direct_first","1","an06ex11","0","24","1","1","3","1","","0","1","0","2311.1250000001746","","","","","pos","CS","CS","1","category1/CS5.png","85","targets/44.png","direct","",""
"","image-slider-response","102","376088","0.0-8.0-0.12","56k89e4p6w","many_one","0","direct_first","1","an06ex11","0","24","1","1","3","1","","0","1","0","2503.449999996519","","","","","neg","CS","CS","2","category2/CS1.png","-67","targets/45.png","direct","",""
"","image-slider-response","103","378424","0.0-8.0-0.13","56k89e4p6w","many_one","0","direct_first","1","an06ex11","0","24","1","1","3","1","","0","1","0","2333.84500000102","","","","","neg","GS","GSold","3","category3/CS6.png","-85","targets/48.png","direct","",""
"","image-slider-response","104","380801","0.0-8.0-0.14","56k89e4p6w","many_one","0","direct_first","1","an06ex11","0","24","1","1","3","1","","0","1","0","2375.334999996994","","","","","pos","GS","GSold","4","category4/CS5.png","50","targets/40.png","direct","",""
"","image-slider-response","105","383412","0.0-8.0-0.15","56k89e4p6w","many_one","0","direct_first","1","an06ex11","0","24","1","1","3","1","","0","1","0","2609.420000000682","","","","","neg","GS","abstract","3","category3/wang.png","-96","targets/43.png","direct","",""
"","image-slider-response","106","385733","0.0-8.0-0.16","56k89e4p6w","many_one","0","direct_first","1","an06ex11","0","24","1","1","3","1","","0","1","0","2317.8199999965727","","","","","pos","GS","GSnew","1","category1/GS1.png","45","targets/31.png","direct","",""
"","image-slider-response","107","388183","0.0-8.0-0.17","56k89e4p6w","many_one","0","direct_first","1","an06ex11","0","24","1","1","3","1","","0","1","0","2448.6349999933736","","","","","neg","GS","GSold","3","category3/CS1.png","-65","targets/33.png","direct","",""
"","image-slider-response","108","390090","0.0-8.0-0.18","56k89e4p6w","many_one","0","direct_first","1","an06ex11","0","24","1","1","3","1","","0","1","0","1905.575000004319","","","","","pos","CS","CS","1","category1/CS2.png","51","targets/30.png","direct","",""
"","image-slider-response","109","392345","0.0-8.0-0.19","56k89e4p6w","many_one","0","direct_first","1","an06ex11","0","24","1","1","3","1","","0","1","0","2253.725000002305","","","","","neg","GS","GSnew","2","category2/GS2.png","45","targets/35.png","direct","",""
"","image-slider-response","110","394424","0.0-8.0-0.20","56k89e4p6w","many_one","0","direct_first","1","an06ex11","0","24","1","1","3","1","","0","1","0","2076.885000002221","","","","","pos","CS","CS","4","category4/CS1.png","36","targets/12.png","direct","",""
"","image-slider-response","111","396969","0.0-8.0-0.21","56k89e4p6w","many_one","0","direct_first","1","an06ex11","0","24","1","1","3","1","","0","1","0","2544.050000004063","","","","","neg","CS","CS","2","category2/CS8.png","-64","targets/34.png","direct","",""
"","image-slider-response","112","399895","0.0-8.0-0.22","56k89e4p6w","many_one","0","direct_first","1","an06ex11","0","24","1","1","3","1","","0","1","0","2924.39999999624","","","","","neg","GS","GSnew","3","category3/GS2.png","-85","targets/27.png","direct","",""
"","image-slider-response","113","403122","0.0-8.0-0.23","56k89e4p6w","many_one","0","direct_first","1","an06ex11","0","24","1","1","3","1","","0","1","0","3224.529999999504","","","","","pos","CS","CS","4","category4/CS10.png","60","targets/22.png","direct","",""
"","image-slider-response","114","405215","0.0-8.0-0.24","56k89e4p6w","many_one","0","direct_first","1","an06ex11","0","24","1","1","3","1","","0","1","0","2091.5099999983795","","","","","neg","CS","CS","3","category3/CS2.png","-74","targets/26.png","direct","",""
"","image-slider-response","115","407584","0.0-8.0-0.25","56k89e4p6w","many_one","0","direct_first","1","an06ex11","0","24","1","1","3","1","","0","1","0","2367.005000000063","","","","","neg","CS","CS","2","category2/CS10.png","-85","targets/47.png","direct","",""
"","image-slider-response","116","410284","0.0-8.0-0.26","56k89e4p6w","many_one","0","direct_first","1","an06ex11","0","24","1","1","3","1","","0","1","0","2698.4099999972386","","","","","pos","GS","GSnew","4","category4/GS3.png","47","targets/29.png","direct","",""
"","image-slider-response","117","412435","0.0-8.0-0.27","56k89e4p6w","many_one","0","direct_first","1","an06ex11","0","24","1","1","3","1","","0","1","0","2148.9500000025146","","","","","neg","GS","GSold","3","category3/CS9.png","-80","targets/20.png","direct","",""
"","image-slider-response","118","415320","0.0-8.0-0.28","56k89e4p6w","many_one","0","direct_first","1","an06ex11","0","24","1","1","3","1","","0","1","0","2883.1699999936973","","","","","pos","GS","GSnew","4","category4/GS2.png","38","targets/13.png","direct","",""
"","image-slider-response","119","417487","0.0-8.0-0.29","56k89e4p6w","many_one","0","direct_first","1","an06ex11","0","24","1","1","3","1","","0","1","0","2165.37000000244","","","","","pos","CS","CS","1","category1/CS10.png","50","targets/18.png","direct","",""
"","image-slider-response","120","419605","0.0-8.0-0.30","56k89e4p6w","many_one","0","direct_first","1","an06ex11","0","24","1","1","3","1","","0","1","0","2115.6899999987218","","","","","pos","GS","GSold","4","category4/CS6.png","50","targets/5.png","direct","",""
"","image-slider-response","121","423129","0.0-8.0-0.31","56k89e4p6w","many_one","0","direct_first","1","an06ex11","0","24","1","1","3","1","","0","1","0","3522.8099999949336","","","","","pos","GS","abstract","4","category4/lin.png","55","targets/38.png","direct","",""
"","image-slider-response","122","425693","0.0-8.0-0.32","56k89e4p6w","many_one","0","direct_first","1","an06ex11","0","24","1","1","3","1","","0","1","0","2561.7549999951734","","","","","pos","GS","GSnew","4","category4/GS1.png","29","targets/1.png","direct","",""
"","image-slider-response","123","427826","0.0-8.0-0.33","56k89e4p6w","many_one","0","direct_first","1","an06ex11","0","24","1","1","3","1","","0","1","0","2131.7200000048615","","","","","pos","GS","GSold","1","category1/CS3.png","35","targets/2.png","direct","",""
"","image-slider-response","124","429969","0.0-8.0-0.34","56k89e4p6w","many_one","0","direct_first","1","an06ex11","0","24","1","1","3","1","","0","1","0","2141.270000000077","","","","","pos","GS","GSnew","1","category1/GS3.png","45","targets/32.png","direct","",""
"","image-slider-response","125","431950","0.0-8.0-0.35","56k89e4p6w","many_one","0","direct_first","1","an06ex11","0","24","1","1","3","1","","0","1","0","1978.9850000015576","","","","","neg","CS","CS","2","category2/CS4.png","-69","targets/10.png","direct","",""
"","image-slider-response","126","433890","0.0-8.0-0.36","56k89e4p6w","many_one","0","direct_first","1","an06ex11","0","24","1","1","3","1","","0","1","0","1938.7900000001537","","","","","neg","GS","GSnew","3","category3/GS1.png","-85","targets/36.png","direct","",""
"","image-slider-response","127","435927","0.0-8.0-0.37","56k89e4p6w","many_one","0","direct_first","1","an06ex11","0","24","1","1","3","1","","0","1","0","2034.7400000027847","","","","","neg","CS","CS","3","category3/CS7.png","-90","targets/4.png","direct","",""
"","image-slider-response","128","438207","0.0-8.0-0.38","56k89e4p6w","many_one","0","direct_first","1","an06ex11","0","24","1","1","3","1","","0","1","0","2278.889999994135","","","","","pos","GS","GSold","4","category4/CS9.png","33","targets/23.png","direct","",""
"","image-slider-response","129","440156","0.0-8.0-0.39","56k89e4p6w","many_one","0","direct_first","1","an06ex11","0","24","1","1","3","1","","0","1","0","1946.92500000383","","","","","pos","CS","CS","4","category4/CS8.png","35","targets/16.png","direct","",""
"","image-slider-response","130","443082","0.0-8.0-0.40","56k89e4p6w","many_one","0","direct_first","1","an06ex11","0","24","1","1","3","1","","0","1","0","2924.720000002708","","","","","pos","CS","CS","1","category1/CS6.png","42","targets/46.png","direct","",""
"","image-slider-response","131","445248","0.0-8.0-0.41","56k89e4p6w","many_one","0","direct_first","1","an06ex11","0","24","1","1","3","1","","0","1","0","2164.519999998447","","","","","neg","GS","GSold","2","category2/CS7.png","-79","targets/25.png","direct","",""
"","image-slider-response","132","447334","0.0-8.0-0.42","56k89e4p6w","many_one","0","direct_first","1","an06ex11","0","24","1","1","3","1","","0","1","0","2083.745000003546","","","","","neg","CS","CS","3","category3/CS3.png","-84","targets/17.png","direct","",""
"","image-slider-response","133","449388","0.0-8.0-0.43","56k89e4p6w","many_one","0","direct_first","1","an06ex11","0","24","1","1","3","1","","0","1","0","2052.139999999781","","","","","neg","GS","GSnew","3","category3/GS3.png","-73","targets/3.png","direct","",""
"","image-slider-response","134","451377","0.0-8.0-0.44","56k89e4p6w","many_one","0","direct_first","1","an06ex11","0","24","1","1","3","1","","0","1","0","1987.5249999968219","","","","","neg","CS","CS","3","category3/CS4.png","-87","targets/37.png","direct","",""
"","image-slider-response","135","453293","0.0-8.0-0.45","56k89e4p6w","many_one","0","direct_first","1","an06ex11","0","24","1","1","3","1","","0","1","0","1914.3199999962235","","","","","neg","CS","CS","3","category3/CS5.png","-88","targets/24.png","direct","",""
"","image-slider-response","136","455289","0.0-8.0-0.46","56k89e4p6w","many_one","0","direct_first","1","an06ex11","0","24","1","1","3","1","","0","1","0","1994.5999999981723","","","","","neg","GS","GSnew","2","category2/GS1.png","37","targets/39.png","direct","",""
"","image-slider-response","137","457828","0.0-8.0-0.47","56k89e4p6w","many_one","0","direct_first","1","an06ex11","0","24","1","1","3","1","","0","1","0","2537.239999997837","","","","","pos","GS","abstract","1","category1/ma.png","34","targets/41.png","direct","",""
"","html-keyboard-response","138","492588","0.0-9.0","56k89e4p6w","many_one","0","direct_first","1","an06ex11","0","24","1","1","3","1","","0","1","0","34758.0999999991","","","<p>Sie sehen nun die chinesischen Zeichen nur ganz kurz. Danach sehen Sie die jeweilige Aussprache der Zeichen als Silbe auf dem Bildschrim. Ihre Aufgabe ist es, für jede Silbe anzugeben, ob diese etwas angenehmes, oder unangenehmes bedeuten könnte. Verlassen Sie sich hier vor allem auf Ihre Intuition.<br><br>Die Zeichen werden nur zur Orientierung dargestellt, beachten Sie sie deshalb nicht. Konzentrieren Sie sich vor allem auf die Silben. <br>Reagieren Sie mit folgenden zwei Tasten: <br><br><b>'D' </b> wenn die Silbe etwas <b>unangenehmes</b> bedeuten könnte. <br><b>'K'</b> wenn die Silbe etwas <b>angenehmes</b> bedeuten könnte. <br><br>Bitte legen Sie nun den Zeigefinger der linken Hand auf die Taste 'D' und den Zeigefinger der rechten Hand auf die Taste 'K'. <br>Reagieren Sie auf jede Silbe so schnell wie möglich. Uns interessiert Ihre spontane Reaktion. <br> <br> <br>Drücken Sie 'D' oder 'K', um die nächste Aufgabe zu starten. </p>","68","","","","","","","","","",""
"","html-keyboard-response","139","495598","0.0-10.0-0.0","56k89e4p6w","many_one","0","direct_first","1","an06ex11","0","24","1","1","3","1","","0","1","0","null","","","<div style=""font-size:60px;"">+</div>","null","","","","","","","","","",""
"","html-keyboard-response","140","495694","0.0-10.0-1.0","56k89e4p6w","many_one","0","direct_first","1","an06ex11","0","24","1","1","3","1","","0","1","0","null","","","<img src = 'category2/CS2.png' width = '100%;'>","null","","","","","","","","","",""
"","html-keyboard-response","141","495956","0.0-10.0-2.0","56k89e4p6w","many_one","0","direct_first","1","an06ex11","0","24","1","1","3","1","","0","1","0","null","","","<img src = 'targets/19.png' width = '100%;'>","null","","","","","","","","","",""
"","html-keyboard-response","142","500682","0.0-10.0-3.0","56k89e4p6w","many_one","0","direct_first","1","an06ex11","0","24","1","1","3","1","","0","1","0","4725.444999996398","","","<img src = 'targets/mask.png' width = '100%;'>","68","neg","CS","CS","2","category2/CS2.png","","targets/19.png","indirect","0","0"
"","html-keyboard-response","143","502190","0.0-10.0-0.1","56k89e4p6w","many_one","0","direct_first","1","an06ex11","0","24","1","1","3","1","","0","1","0","null","","","<div style=""font-size:60px;"">+</div>","null","","","","","","","","","",""
"","html-keyboard-response","144","502285","0.0-10.0-1.1","56k89e4p6w","many_one","0","direct_first","1","an06ex11","0","24","1","1","3","1","","0","1","0","null","","","<img src = 'category2/CS4.png' width = '100%;'>","null","","","","","","","","","",""
"","html-keyboard-response","145","502541","0.0-10.0-2.1","56k89e4p6w","many_one","0","direct_first","1","an06ex11","0","24","1","1","3","1","","0","1","0","null","","","<img src = 'targets/10.png' width = '100%;'>","null","","","","","","","","","",""
"","html-keyboard-response","146","506139","0.0-10.0-3.1","56k89e4p6w","many_one","0","direct_first","1","an06ex11","0","24","1","1","3","1","","0","1","0","3596.210000003339","","","<img src = 'targets/mask.png' width = '100%;'>","75","neg","CS","CS","2","category2/CS4.png","","targets/10.png","indirect","1","1"
"","html-keyboard-response","147","507648","0.0-10.0-0.2","56k89e4p6w","many_one","0","direct_first","1","an06ex11","0","24","1","1","3","1","","0","1","0","null","","","<div style=""font-size:60px;"">+</div>","null","","","","","","","","","",""
"","html-keyboard-response","148","507740","0.0-10.0-1.2","56k89e4p6w","many_one","0","direct_first","1","an06ex11","0","24","1","1","3","1","","0","1","0","null","","","<img src = 'category1/CS2.png' width = '100%;'>","null","","","","","","","","","",""
"","html-keyboard-response","149","507997","0.0-10.0-2.2","56k89e4p6w","many_one","0","direct_first","1","an06ex11","0","24","1","1","3","1","","0","1","0","null","","","<img src = 'targets/30.png' width = '100%;'>","null","","","","","","","","","",""
"","html-keyboard-response","150","510338","0.0-10.0-3.2","56k89e4p6w","many_one","0","direct_first","1","an06ex11","0","24","1","1","3","1","","0","1","0","2338.9700000043376","","","<img src = 'targets/mask.png' width = '100%;'>","75","pos","CS","CS","1","category1/CS2.png","","targets/30.png","indirect","1","2"
"","html-keyboard-response","151","511841","0.0-10.0-0.3","56k89e4p6w","many_one","0","direct_first","1","an06ex11","0","24","1","1","3","1","","0","1","0","null","","","<div style=""font-size:60px;"">+</div>","null","","","","","","","","","",""
"","html-keyboard-response","152","511933","0.0-10.0-1.3","56k89e4p6w","many_one","0","direct_first","1","an06ex11","0","24","1","1","3","1","","0","1","0","null","","","<img src = 'category4/CS7.png' width = '100%;'>","null","","","","","","","","","",""
"","html-keyboard-response","153","512193","0.0-10.0-2.3","56k89e4p6w","many_one","0","direct_first","1","an06ex11","0","24","1","1","3","1","","0","1","0","null","","","<img src = 'targets/11.png' width = '100%;'>","null","","","","","","","","","",""
"","html-keyboard-response","154","514474","0.0-10.0-3.3","56k89e4p6w","many_one","0","direct_first","1","an06ex11","0","24","1","1","3","1","","0","1","0","2279.369999996561","","","<img src = 'targets/mask.png' width = '100%;'>","68","pos","CS","CS","4","category4/CS7.png","","targets/11.png","indirect","0","3"
"","html-keyboard-response","155","515980","0.0-10.0-0.4","56k89e4p6w","many_one","0","direct_first","1","an06ex11","0","24","1","1","3","1","","0","1","0","null","","","<div style=""font-size:60px;"">+</div>","null","","","","","","","","","",""
"","html-keyboard-response","156","516072","0.0-10.0-1.4","56k89e4p6w","many_one","0","direct_first","1","an06ex11","0","24","1","1","3","1","","0","1","0","null","","","<img src = 'category4/CS1.png' width = '100%;'>","null","","","","","","","","","",""
"","html-keyboard-response","157","516325","0.0-10.0-2.4","56k89e4p6w","many_one","0","direct_first","1","an06ex11","0","24","1","1","3","1","","0","1","0","null","","","<img src = 'targets/12.png' width = '100%;'>","null","","","","","","","","","",""
"","html-keyboard-response","158","517610","0.0-10.0-3.4","56k89e4p6w","many_one","0","direct_first","1","an06ex11","0","24","1","1","3","1","","0","1","0","1283.1250000017462","","","<img src = 'targets/mask.png' width = '100%;'>","68","pos","CS","CS","4","category4/CS1.png","","targets/12.png","indirect","0","4"
"","html-keyboard-response","159","519117","0.0-10.0-0.5","56k89e4p6w","many_one","0","direct_first","1","an06ex11","0","24","1","1","3","1","","0","1","0","null","","","<div style=""font-size:60px;"">+</div>","null","","","","","","","","","",""
"","html-keyboard-response","160","519213","0.0-10.0-1.5","56k89e4p6w","many_one","0","direct_first","1","an06ex11","0","24","1","1","3","1","","0","1","0","null","","","<img src = 'category3/CS9.png' width = '100%;'>","null","","","","","","","","","",""
"","html-keyboard-response","161","519474","0.0-10.0-2.5","56k89e4p6w","many_one","0","direct_first","1","an06ex11","0","24","1","1","3","1","","0","1","0","null","","","<img src = 'targets/20.png' width = '100%;'>","null","","","","","","","","","",""
"","html-keyboard-response","162","520601","0.0-10.0-3.5","56k89e4p6w","many_one","0","direct_first","1","an06ex11","0","24","1","1","3","1","","0","1","0","1125.690000000759","","","<img src = 'targets/mask.png' width = '100%;'>","68","neg","GS","GSold","3","category3/CS9.png","","targets/20.png","indirect","0","5"
"","html-keyboard-response","163","522106","0.0-10.0-0.6","56k89e4p6w","many_one","0","direct_first","1","an06ex11","0","24","1","1","3","1","","0","1","0","null","","","<div style=""font-size:60px;"">+</div>","null","","","","","","","","","",""
"","html-keyboard-response","164","522203","0.0-10.0-1.6","56k89e4p6w","many_one","0","direct_first","1","an06ex11","0","24","1","1","3","1","","0","1","0","null","","","<img src = 'category1/CS10.png' width = '100%;'>","null","","","","","","","","","",""
"","html-keyboard-response","165","522461","0.0-10.0-2.6","56k89e4p6w","many_one","0","direct_first","1","an06ex11","0","24","1","1","3","1","","0","1","0","null","","","<img src = 'targets/18.png' width = '100%;'>","null","","","","","","","","","",""
"","html-keyboard-response","166","523346","0.0-10.0-3.6","56k89e4p6w","many_one","0","direct_first","1","an06ex11","0","24","1","1","3","1","","0","1","0","883.5649999964517","","","<img src = 'targets/mask.png' width = '100%;'>","75","pos","CS","CS","1","category1/CS10.png","","targets/18.png","indirect","1","6"
"","html-keyboard-response","167","524847","0.0-10.0-0.7","56k89e4p6w","many_one","0","direct_first","1","an06ex11","0","24","1","1","3","1","","0","1","0","null","","","<div style=""font-size:60px;"">+</div>","null","","","","","","","","","",""
"","html-keyboard-response","168","524938","0.0-10.0-1.7","56k89e4p6w","many_one","0","direct_first","1","an06ex11","0","24","1","1","3","1","","0","1","0","null","","","<img src = 'category2/CS8.png' width = '100%;'>","null","","","","","","","","","",""
"","html-keyboard-response","169","525195","0.0-10.0-2.7","56k89e4p6w","many_one","0","direct_first","1","an06ex11","0","24","1","1","3","1","","0","1","0","null","","","<img src = 'targets/34.png' width = '100%;'>","null","","","","","","","","","",""
"","html-keyboard-response","170","526146","0.0-10.0-3.7","56k89e4p6w","many_one","0","direct_first","1","an06ex11","0","24","1","1","3","1","","0","1","0","949.5549999992363","","","<img src = 'targets/mask.png' width = '100%;'>","68","neg","CS","CS","2","category2/CS8.png","","targets/34.png","indirect","0","7"
"","html-keyboard-response","171","527656","0.0-10.0-0.8","56k89e4p6w","many_one","0","direct_first","1","an06ex11","0","24","1","1","3","1","","0","1","0","null","","","<div style=""font-size:60px;"">+</div>","null","","","","","","","","","",""
"","html-keyboard-response","172","527749","0.0-10.0-1.8","56k89e4p6w","many_one","0","direct_first","1","an06ex11","0","24","1","1","3","1","","0","1","0","null","","","<img src = 'category3/CS7.png' width = '100%;'>","null","","","","","","","","","",""
"","html-keyboard-response","173","528005","0.0-10.0-2.8","56k89e4p6w","many_one","0","direct_first","1","an06ex11","0","24","1","1","3","1","","0","1","0","null","","","<img src = 'targets/4.png' width = '100%;'>","null","","","","","","","","","",""
"","html-keyboard-response","174","528834","0.0-10.0-3.8","56k89e4p6w","many_one","0","direct_first","1","an06ex11","0","24","1","1","3","1","","0","1","0","828.1800000040093","","","<img src = 'targets/mask.png' width = '100%;'>","68","neg","CS","CS","3","category3/CS7.png","","targets/4.png","indirect","0","8"
"","html-keyboard-response","175","530340","0.0-10.0-0.9","56k89e4p6w","many_one","0","direct_first","1","an06ex11","0","24","1","1","3","1","","0","1","0","null","","","<div style=""font-size:60px;"">+</div>","null","","","","","","","","","",""
"","html-keyboard-response","176","530434","0.0-10.0-1.9","56k89e4p6w","many_one","0","direct_first","1","an06ex11","0","24","1","1","3","1","","0","1","0","null","","","<img src = 'category4/CS8.png' width = '100%;'>","null","","","","","","","","","",""
"","html-keyboard-response","177","530695","0.0-10.0-2.9","56k89e4p6w","many_one","0","direct_first","1","an06ex11","0","24","1","1","3","1","","0","1","0","null","","","<img src = 'targets/16.png' width = '100%;'>","null","","","","","","","","","",""
"","html-keyboard-response","178","531682","0.0-10.0-3.9","56k89e4p6w","many_one","0","direct_first","1","an06ex11","0","24","1","1","3","1","","0","1","0","984.8049999999348","","","<img src = 'targets/mask.png' width = '100%;'>","75","pos","CS","CS","4","category4/CS8.png","","targets/16.png","indirect","1","9"
"","html-keyboard-response","179","533184","0.0-10.0-0.10","56k89e4p6w","many_one","0","direct_first","1","an06ex11","0","24","1","1","3","1","","0","1","0","null","","","<div style=""font-size:60px;"">+</div>","null","","","","","","","","","",""
"","html-keyboard-response","180","533277","0.0-10.0-1.10","56k89e4p6w","many_one","0","direct_first","1","an06ex11","0","24","1","1","3","1","","0","1","0","null","","","<img src = 'category1/CS3.png' width = '100%;'>","null","","","","","","","","","",""
"","html-keyboard-response","181","533538","0.0-10.0-2.10","56k89e4p6w","many_one","0","direct_first","1","an06ex11","0","24","1","1","3","1","","0","1","0","null","","","<img src = 'targets/2.png' width = '100%;'>","null","","","","","","","","","",""
"","html-keyboard-response","182","534459","0.0-10.0-3.10","56k89e4p6w","many_one","0","direct_first","1","an06ex11","0","24","1","1","3","1","","0","1","0","919.4149999966612","","","<img src = 'targets/mask.png' width = '100%;'>","75","pos","GS","GSold","1","category1/CS3.png","","targets/2.png","indirect","1","10"
"","html-keyboard-response","183","535965","0.0-10.0-0.11","56k89e4p6w","many_one","0","direct_first","1","an06ex11","0","24","1","1","3","1","","0","1","0","null","","","<div style=""font-size:60px;"">+</div>","null","","","","","","","","","",""
"","html-keyboard-response","184","536057","0.0-10.0-1.11","56k89e4p6w","many_one","0","direct_first","1","an06ex11","0","24","1","1","3","1","","0","1","0","null","","","<img src = 'category3/CS1.png' width = '100%;'>","null","","","","","","","","","",""
"","html-keyboard-response","185","536311","0.0-10.0-2.11","56k89e4p6w","many_one","0","direct_first","1","an06ex11","0","24","1","1","3","1","","0","1","0","null","","","<img src = 'targets/33.png' width = '100%;'>","null","","","","","","","","","",""
"","html-keyboard-response","186","536793","0.0-10.0-3.11","56k89e4p6w","many_one","0","direct_first","1","an06ex11","0","24","1","1","3","1","","0","1","0","480.9000000023516","","","<img src = 'targets/mask.png' width = '100%;'>","68","neg","GS","GSold","3","category3/CS1.png","","targets/33.png","indirect","0","11"
"","html-keyboard-response","187","538302","0.0-10.0-0.12","56k89e4p6w","many_one","0","direct_first","1","an06ex11","0","24","1","1","3","1","","0","1","0","null","","","<div style=""font-size:60px;"">+</div>","null","","","","","","","","","",""
"","html-keyboard-response","188","538394","0.0-10.0-1.12","56k89e4p6w","many_one","0","direct_first","1","an06ex11","0","24","1","1","3","1","","0","1","0","null","","","<img src = 'category1/CS7.png' width = '100%;'>","null","","","","","","","","","",""
"","html-keyboard-response","189","538650","0.0-10.0-2.12","56k89e4p6w","many_one","0","direct_first","1","an06ex11","0","24","1","1","3","1","","0","1","0","null","","","<img src = 'targets/6.png' width = '100%;'>","null","","","","","","","","","",""
"","html-keyboard-response","190","539986","0.0-10.0-3.12","56k89e4p6w","many_one","0","direct_first","1","an06ex11","0","24","1","1","3","1","","0","1","0","1334.374999998603","","","<img src = 'targets/mask.png' width = '100%;'>","75","pos","CS","CS","1","category1/CS7.png","","targets/6.png","indirect","1","12"
"","html-keyboard-response","191","541492","0.0-10.0-0.13","56k89e4p6w","many_one","0","direct_first","1","an06ex11","0","24","1","1","3","1","","0","1","0","null","","","<div style=""font-size:60px;"">+</div>","null","","","","","","","","","",""
"","html-keyboard-response","192","541588","0.0-10.0-1.13","56k89e4p6w","many_one","0","direct_first","1","an06ex11","0","24","1","1","3","1","","0","1","0","null","","","<img src = 'category4/CS4.png' width = '100%;'>","null","","","","","","","","","",""
"","html-keyboard-response","193","541846","0.0-10.0-2.13","56k89e4p6w","many_one","0","direct_first","1","an06ex11","0","24","1","1","3","1","","0","1","0","null","","","<img src = 'targets/9.png' width = '100%;'>","null","","","","","","","","","",""
"","html-keyboard-response","194","542577","0.0-10.0-3.13","56k89e4p6w","many_one","0","direct_first","1","an06ex11","0","24","1","1","3","1","","0","1","0","729.6749999950407","","","<img src = 'targets/mask.png' width = '100%;'>","75","pos","CS","CS","4","category4/CS4.png","","targets/9.png","indirect","1","13"
"","html-keyboard-response","195","544086","0.0-10.0-0.14","56k89e4p6w","many_one","0","direct_first","1","an06ex11","0","24","1","1","3","1","","0","1","0","null","","","<div style=""font-size:60px;"">+</div>","null","","","","","","","","","",""
"","html-keyboard-response","196","544181","0.0-10.0-1.14","56k89e4p6w","many_one","0","direct_first","1","an06ex11","0","24","1","1","3","1","","0","1","0","null","","","<img src = 'category3/CS5.png' width = '100%;'>","null","","","","","","","","","",""
"","html-keyboard-response","197","544442","0.0-10.0-2.14","56k89e4p6w","many_one","0","direct_first","1","an06ex11","0","24","1","1","3","1","","0","1","0","null","","","<img src = 'targets/24.png' width = '100%;'>","null","","","","","","","","","",""
"","html-keyboard-response","198","544930","0.0-10.0-3.14","56k89e4p6w","many_one","0","direct_first","1","an06ex11","0","24","1","1","3","1","","0","1","0","486.4000000015367","","","<img src = 'targets/mask.png' width = '100%;'>","68","neg","CS","CS","3","category3/CS5.png","","targets/24.png","indirect","0","14"
"","html-keyboard-response","199","546434","0.0-10.0-0.15","56k89e4p6w","many_one","0","direct_first","1","an06ex11","0","24","1","1","3","1","","0","1","0","null","","","<div style=""font-size:60px;"">+</div>","null","","","","","","","","","",""
"","html-keyboard-response","200","546529","0.0-10.0-1.15","56k89e4p6w","many_one","0","direct_first","1","an06ex11","0","24","1","1","3","1","","0","1","0","null","","","<img src = 'category3/CS2.png' width = '100%;'>","null","","","","","","","","","",""
"","html-keyboard-response","201","546784","0.0-10.0-2.15","56k89e4p6w","many_one","0","direct_first","1","an06ex11","0","24","1","1","3","1","","0","1","0","null","","","<img src = 'targets/26.png' width = '100%;'>","null","","","","","","","","","",""
"","html-keyboard-response","202","547146","0.0-10.0-3.15","56k89e4p6w","many_one","0","direct_first","1","an06ex11","0","24","1","1","3","1","","0","1","0","360.00500000233296","","","<img src = 'targets/mask.png' width = '100%;'>","68","neg","CS","CS","3","category3/CS2.png","","targets/26.png","indirect","0","15"
"","html-keyboard-response","203","548656","0.0-10.0-0.16","56k89e4p6w","many_one","0","direct_first","1","an06ex11","0","24","1","1","3","1","","0","1","0","null","","","<div style=""font-size:60px;"">+</div>","null","","","","","","","","","",""
"","html-keyboard-response","204","548751","0.0-10.0-1.16","56k89e4p6w","many_one","0","direct_first","1","an06ex11","0","24","1","1","3","1","","0","1","0","null","","","<img src = 'category1/CS5.png' width = '100%;'>","null","","","","","","","","","",""
"","html-keyboard-response","205","549007","0.0-10.0-2.16","56k89e4p6w","many_one","0","direct_first","1","an06ex11","0","24","1","1","3","1","","0","1","0","null","","","<img src = 'targets/44.png' width = '100%;'>","null","","","","","","","","","",""
"","html-keyboard-response","206","549329","0.0-10.0-3.16","56k89e4p6w","many_one","0","direct_first","1","an06ex11","0","24","1","1","3","1","","0","1","0","320.7350000011502","","","<img src = 'targets/mask.png' width = '100%;'>","75","pos","CS","CS","1","category1/CS5.png","","targets/44.png","indirect","1","16"
"","html-keyboard-response","207","550835","0.0-10.0-0.17","56k89e4p6w","many_one","0","direct_first","1","an06ex11","0","24","1","1","3","1","","0","1","0","null","","","<div style=""font-size:60px;"">+</div>","null","","","","","","","","","",""
"","html-keyboard-response","208","550931","0.0-10.0-1.17","56k89e4p6w","many_one","0","direct_first","1","an06ex11","0","24","1","1","3","1","","0","1","0","null","","","<img src = 'category2/CS1.png' width = '100%;'>","null","","","","","","","","","",""
"","html-keyboard-response","209","551192","0.0-10.0-2.17","56k89e4p6w","many_one","0","direct_first","1","an06ex11","0","24","1","1","3","1","","0","1","0","null","","","<img src = 'targets/45.png' width = '100%;'>","null","","","","","","","","","",""
"","html-keyboard-response","210","551770","0.0-10.0-3.17","56k89e4p6w","many_one","0","direct_first","1","an06ex11","0","24","1","1","3","1","","0","1","0","577.1949999979697","","","<img src = 'targets/mask.png' width = '100%;'>","68","neg","CS","CS","2","category2/CS1.png","","targets/45.png","indirect","0","17"
"","html-keyboard-response","211","553277","0.0-10.0-0.18","56k89e4p6w","many_one","0","direct_first","1","an06ex11","0","24","1","1","3","1","","0","1","0","null","","","<div style=""font-size:60px;"">+</div>","null","","","","","","","","","",""
"","html-keyboard-response","212","553373","0.0-10.0-1.18","56k89e4p6w","many_one","0","direct_first","1","an06ex11","0","24","1","1","3","1","","0","1","0","null","","","<img src = 'category3/CS6.png' width = '100%;'>","null","","","","","","","","","",""
"","html-keyboard-response","213","553633","0.0-10.0-2.18","56k89e4p6w","many_one","0","direct_first","1","an06ex11","0","24","1","1","3","1","","0","1","0","null","","","<img src = 'targets/48.png' width = '100%;'>","null","","","","","","","","","",""
"","html-keyboard-response","214","554105","0.0-10.0-3.18","56k89e4p6w","many_one","0","direct_first","1","an06ex11","0","24","1","1","3","1","","0","1","0","470.9450000008801","","","<img src = 'targets/mask.png' width = '100%;'>","68","neg","GS","GSold","3","category3/CS6.png","","targets/48.png","indirect","0","18"
"","html-keyboard-response","215","555614","0.0-10.0-0.19","56k89e4p6w","many_one","0","direct_first","1","an06ex11","0","24","1","1","3","1","","0","1","0","null","","","<div style=""font-size:60px;"">+</div>","null","","","","","","","","","",""
"","html-keyboard-response","216","555710","0.0-10.0-1.19","56k89e4p6w","many_one","0","direct_first","1","an06ex11","0","24","1","1","3","1","","0","1","0","null","","","<img src = 'category3/CS4.png' width = '100%;'>","null","","","","","","","","","",""
"","html-keyboard-response","217","555965","0.0-10.0-2.19","56k89e4p6w","many_one","0","direct_first","1","an06ex11","0","24","1","1","3","1","","0","1","0","null","","","<img src = 'targets/37.png' width = '100%;'>","null","","","","","","","","","",""
"","html-keyboard-response","218","556338","0.0-10.0-3.19","56k89e4p6w","many_one","0","direct_first","1","an06ex11","0","24","1","1","3","1","","0","1","0","371.7749999995576","","","<img src = 'targets/mask.png' width = '100%;'>","68","neg","CS","CS","3","category3/CS4.png","","targets/37.png","indirect","0","19"
"","html-keyboard-response","219","557845","0.0-10.0-0.20","56k89e4p6w","many_one","0","direct_first","1","an06ex11","0","24","1","1","3","1","","0","1","0","null","","","<div style=""font-size:60px;"">+</div>","null","","","","","","","","","",""
"","html-keyboard-response","220","557941","0.0-10.0-1.20","56k89e4p6w","many_one","0","direct_first","1","an06ex11","0","24","1","1","3","1","","0","1","0","null","","","<img src = 'category3/CS3.png' width = '100%;'>","null","","","","","","","","","",""
"","html-keyboard-response","221","558202","0.0-10.0-2.20","56k89e4p6w","many_one","0","direct_first","1","an06ex11","0","24","1","1","3","1","","0","1","0","null","","","<img src = 'targets/17.png' width = '100%;'>","null","","","","","","","","","",""
"","html-keyboard-response","222","558369","0.0-10.0-3.20","56k89e4p6w","many_one","0","direct_first","1","an06ex11","0","24","1","1","3","1","","0","1","0","166.33500000170898","","","<img src = 'targets/mask.png' width = '100%;'>","68","neg","CS","CS","3","category3/CS3.png","","targets/17.png","indirect","0","20"
"","html-keyboard-response","223","559877","0.0-10.0-0.21","56k89e4p6w","many_one","0","direct_first","1","an06ex11","0","24","1","1","3","1","","0","1","0","null","","","<div style=""font-size:60px;"">+</div>","null","","","","","","","","","",""
"","html-keyboard-response","224","559972","0.0-10.0-1.21","56k89e4p6w","many_one","0","direct_first","1","an06ex11","0","24","1","1","3","1","","0","1","0","null","","","<img src = 'category4/CS10.png' width = '100%;'>","null","","","","","","","","","",""
"","html-keyboard-response","225","560229","0.0-10.0-2.21","56k89e4p6w","many_one","0","direct_first","1","an06ex11","0","24","1","1","3","1","","0","1","0","null","","","<img src = 'targets/22.png' width = '100%;'>","null","","","","","","","","","",""
"","html-keyboard-response","226","560601","0.0-10.0-3.21","56k89e4p6w","many_one","0","direct_first","1","an06ex11","0","24","1","1","3","1","","0","1","0","371.5250000023516","","","<img src = 'targets/mask.png' width = '100%;'>","75","pos","CS","CS","4","category4/CS10.png","","targets/22.png","indirect","1","21"
"","html-keyboard-response","227","562106","0.0-10.0-0.22","56k89e4p6w","many_one","0","direct_first","1","an06ex11","0","24","1","1","3","1","","0","1","0","null","","","<div style=""font-size:60px;"">+</div>","null","","","","","","","","","",""
"","html-keyboard-response","228","562202","0.0-10.0-1.22","56k89e4p6w","many_one","0","direct_first","1","an06ex11","0","24","1","1","3","1","","0","1","0","null","","","<img src = 'category1/CS6.png' width = '100%;'>","null","","","","","","","","","",""
"","html-keyboard-response","229","562464","0.0-10.0-2.22","56k89e4p6w","many_one","0","direct_first","1","an06ex11","0","24","1","1","3","1","","0","1","0","null","","","<img src = 'targets/46.png' width = '100%;'>","null","","","","","","","","","",""
"","html-keyboard-response","230","562874","0.0-10.0-3.22","56k89e4p6w","many_one","0","direct_first","1","an06ex11","0","24","1","1","3","1","","0","1","0","409.1700000062119","","","<img src = 'targets/mask.png' width = '100%;'>","75","pos","CS","CS","1","category1/CS6.png","","targets/46.png","indirect","1","22"
"","html-keyboard-response","231","564381","0.0-10.0-0.23","56k89e4p6w","many_one","0","direct_first","1","an06ex11","0","24","1","1","3","1","","0","1","0","null","","","<div style=""font-size:60px;"">+</div>","null","","","","","","","","","",""
"","html-keyboard-response","232","564472","0.0-10.0-1.23","56k89e4p6w","many_one","0","direct_first","1","an06ex11","0","24","1","1","3","1","","0","1","0","null","","","<img src = 'category2/CS10.png' width = '100%;'>","null","","","","","","","","","",""
"","html-keyboard-response","233","564733","0.0-10.0-2.23","56k89e4p6w","many_one","0","direct_first","1","an06ex11","0","24","1","1","3","1","","0","1","0","null","","","<img src = 'targets/47.png' width = '100%;'>","null","","","","","","","","","",""
"","html-keyboard-response","234","565185","0.0-10.0-3.23","56k89e4p6w","many_one","0","direct_first","1","an06ex11","0","24","1","1","3","1","","0","1","0","450.7049999956507","","","<img src = 'targets/mask.png' width = '100%;'>","68","neg","CS","CS","2","category2/CS10.png","","targets/47.png","indirect","0","23"
"","survey-html-form","235","568849","0.0-11.0","56k89e4p6w","many_one","0","direct_first","1","an06ex11","0","24","1","1","3","1","","0","1","0","3158.945000002859","","{}","","","","","","","","","","","",""
"","html-keyboard-response","236","571869","0.0-12.0-0.0","56k89e4p6w","many_one","0","direct_first","1","an06ex11","0","24","1","1","3","1","","0","1","0","null","","","<div style=""font-size:60px;"">+</div>","null","","","","","","","","","",""
"","html-keyboard-response","237","571965","0.0-12.0-1.0","56k89e4p6w","many_one","0","direct_first","1","an06ex11","0","24","1","1","3","1","","0","1","0","null","","","<img src = 'category3/wang.png' width = '100%;'>","null","","","","","","","","","",""
"","html-keyboard-response","238","572226","0.0-12.0-2.0","56k89e4p6w","many_one","0","direct_first","1","an06ex11","0","24","1","1","3","1","","0","1","0","null","","","<img src = 'targets/43.png' width = '100%;'>","null","","","","","","","","","",""
"","html-keyboard-response","239","572775","0.0-12.0-3.0","56k89e4p6w","many_one","0","direct_first","1","an06ex11","0","24","1","1","3","1","","0","1","0","545.250000002794","","","<img src = 'targets/mask.png' width = '100%;'>","68","neg","GS","abstract","3","category3/wang.png","","targets/43.png","indirect","0","24"
"","html-keyboard-response","240","574280","0.0-12.0-0.1","56k89e4p6w","many_one","0","direct_first","1","an06ex11","0","24","1","1","3","1","","0","1","0","null","","","<div style=""font-size:60px;"">+</div>","null","","","","","","","","","",""
"","html-keyboard-response","241","574373","0.0-12.0-1.1","56k89e4p6w","many_one","0","direct_first","1","an06ex11","0","24","1","1","3","1","","0","1","0","null","","","<img src = 'category2/GS1.png' width = '100%;'>","null","","","","","","","","","",""
"","html-keyboard-response","242","574631","0.0-12.0-2.1","56k89e4p6w","many_one","0","direct_first","1","an06ex11","0","24","1","1","3","1","","0","1","0","null","","","<img src = 'targets/39.png' width = '100%;'>","null","","","","","","","","","",""
"","html-keyboard-response","243","574983","0.0-12.0-3.1","56k89e4p6w","many_one","0","direct_first","1","an06ex11","0","24","1","1","3","1","","0","1","0","351.02500000363216","","","<img src = 'targets/mask.png' width = '100%;'>","75","neg","GS","GSnew","2","category2/GS1.png","","targets/39.png","indirect","1","25"
"","html-keyboard-response","244","576490","0.0-12.0-0.2","56k89e4p6w","many_one","0","direct_first","1","an06ex11","0","24","1","1","3","1","","0","1","0","null","","","<div style=""font-size:60px;"">+</div>","null","","","","","","","","","",""
"","html-keyboard-response","245","576586","0.0-12.0-1.2","56k89e4p6w","many_one","0","direct_first","1","an06ex11","0","24","1","1","3","1","","0","1","0","null","","","<img src = 'category2/GS2.png' width = '100%;'>","null","","","","","","","","","",""
"","html-keyboard-response","246","576843","0.0-12.0-2.2","56k89e4p6w","many_one","0","direct_first","1","an06ex11","0","24","1","1","3","1","","0","1","0","null","","","<img src = 'targets/35.png' width = '100%;'>","null","","","","","","","","","",""
"","html-keyboard-response","247","577193","0.0-12.0-3.2","56k89e4p6w","many_one","0","direct_first","1","an06ex11","0","24","1","1","3","1","","0","1","0","348.4200000021374","","","<img src = 'targets/mask.png' width = '100%;'>","75","neg","GS","GSnew","2","category2/GS2.png","","targets/35.png","indirect","1","26"
"","html-keyboard-response","248","578700","0.0-12.0-0.3","56k89e4p6w","many_one","0","direct_first","1","an06ex11","0","24","1","1","3","1","","0","1","0","null","","","<div style=""font-size:60px;"">+</div>","null","","","","","","","","","",""
"","html-keyboard-response","249","578793","0.0-12.0-1.3","56k89e4p6w","many_one","0","direct_first","1","an06ex11","0","24","1","1","3","1","","0","1","0","null","","","<img src = 'category2/CS6.png' width = '100%;'>","null","","","","","","","","","",""
"","html-keyboard-response","250","579052","0.0-12.0-2.3","56k89e4p6w","many_one","0","direct_first","1","an06ex11","0","24","1","1","3","1","","0","1","0","null","","","<img src = 'targets/14.png' width = '100%;'>","null","","","","","","","","","",""
"","html-keyboard-response","251","579474","0.0-12.0-3.3","56k89e4p6w","many_one","0","direct_first","1","an06ex11","0","24","1","1","3","1","","0","1","0","420.5900000015972","","","<img src = 'targets/mask.png' width = '100%;'>","68","neg","GS","GSold","2","category2/CS6.png","","targets/14.png","indirect","0","27"
"","html-keyboard-response","252","580981","0.0-12.0-0.4","56k89e4p6w","many_one","0","direct_first","1","an06ex11","0","24","1","1","3","1","","0","1","0","null","","","<div style=""font-size:60px;"">+</div>","null","","","","","","","","","",""
"","html-keyboard-response","253","581075","0.0-12.0-1.4","56k89e4p6w","many_one","0","direct_first","1","an06ex11","0","24","1","1","3","1","","0","1","0","null","","","<img src = 'category4/GS2.png' width = '100%;'>","null","","","","","","","","","",""
"","html-keyboard-response","254","581332","0.0-12.0-2.4","56k89e4p6w","many_one","0","direct_first","1","an06ex11","0","24","1","1","3","1","","0","1","0","null","","","<img src = 'targets/13.png' width = '100%;'>","null","","","","","","","","","",""
"","html-keyboard-response","255","581657","0.0-12.0-3.4","56k89e4p6w","many_one","0","direct_first","1","an06ex11","0","24","1","1","3","1","","0","1","0","323.8149999961024","","","<img src = 'targets/mask.png' width = '100%;'>","75","pos","GS","GSnew","4","category4/GS2.png","","targets/13.png","indirect","1","28"
"","html-keyboard-response","256","583163","0.0-12.0-0.5","56k89e4p6w","many_one","0","direct_first","1","an06ex11","0","24","1","1","3","1","","0","1","0","null","","","<div style=""font-size:60px;"">+</div>","null","","","","","","","","","",""
"","html-keyboard-response","257","583256","0.0-12.0-1.5","56k89e4p6w","many_one","0","direct_first","1","an06ex11","0","24","1","1","3","1","","0","1","0","null","","","<img src = 'category4/CS9.png' width = '100%;'>","null","","","","","","","","","",""
"","html-keyboard-response","258","583513","0.0-12.0-2.5","56k89e4p6w","many_one","0","direct_first","1","an06ex11","0","24","1","1","3","1","","0","1","0","null","","","<img src = 'targets/23.png' width = '100%;'>","null","","","","","","","","","",""
"","html-keyboard-response","259","584041","0.0-12.0-3.5","56k89e4p6w","many_one","0","direct_first","1","an06ex11","0","24","1","1","3","1","","0","1","0","526.9100000004983","","","<img src = 'targets/mask.png' width = '100%;'>","75","pos","GS","GSold","4","category4/CS9.png","","targets/23.png","indirect","1","29"
"","html-keyboard-response","260","585550","0.0-12.0-0.6","56k89e4p6w","many_one","0","direct_first","1","an06ex11","0","24","1","1","3","1","","0","1","0","null","","","<div style=""font-size:60px;"">+</div>","null","","","","","","","","","",""
"","html-keyboard-response","261","585643","0.0-12.0-1.6","56k89e4p6w","many_one","0","direct_first","1","an06ex11","0","24","1","1","3","1","","0","1","0","null","","","<img src = 'category2/CS7.png' width = '100%;'>","null","","","","","","","","","",""
"","html-keyboard-response","262","585903","0.0-12.0-2.6","56k89e4p6w","many_one","0","direct_first","1","an06ex11","0","24","1","1","3","1","","0","1","0","null","","","<img src = 'targets/25.png' width = '100%;'>","null","","","","","","","","","",""
"","html-keyboard-response","263","586338","0.0-12.0-3.6","56k89e4p6w","many_one","0","direct_first","1","an06ex11","0","24","1","1","3","1","","0","1","0","433.16000000038184","","","<img src = 'targets/mask.png' width = '100%;'>","68","neg","GS","GSold","2","category2/CS7.png","","targets/25.png","indirect","0","30"
"","html-keyboard-response","264","587844","0.0-12.0-0.7","56k89e4p6w","many_one","0","direct_first","1","an06ex11","0","24","1","1","3","1","","0","1","0","null","","","<div style=""font-size:60px;"">+</div>","null","","","","","","","","","",""
"","html-keyboard-response","265","587940","0.0-12.0-1.7","56k89e4p6w","many_one","0","direct_first","1","an06ex11","0","24","1","1","3","1","","0","1","0","null","","","<img src = 'category4/CS6.png' width = '100%;'>","null","","","","","","","","","",""
"","html-keyboard-response","266","588202","0.0-12.0-2.7","56k89e4p6w","many_one","0","direct_first","1","an06ex11","0","24","1","1","3","1","","0","1","0","null","","","<img src = 'targets/5.png' width = '100%;'>","null","","","","","","","","","",""
"","html-keyboard-response","267","589107","0.0-12.0-3.7","56k89e4p6w","many_one","0","direct_first","1","an06ex11","0","24","1","1","3","1","","0","1","0","903.7349999998696","","","<img src = 'targets/mask.png' width = '100%;'>","75","pos","GS","GSold","4","category4/CS6.png","","targets/5.png","indirect","1","31"
"","html-keyboard-response","268","590619","0.0-12.0-0.8","56k89e4p6w","many_one","0","direct_first","1","an06ex11","0","24","1","1","3","1","","0","1","0","null","","","<div style=""font-size:60px;"">+</div>","null","","","","","","","","","",""
"","html-keyboard-response","269","590715","0.0-12.0-1.8","56k89e4p6w","many_one","0","direct_first","1","an06ex11","0","24","1","1","3","1","","0","1","0","null","","","<img src = 'category2/CS3.png' width = '100%;'>","null","","","","","","","","","",""
"","html-keyboard-response","270","590973","0.0-12.0-2.8","56k89e4p6w","many_one","0","direct_first","1","an06ex11","0","24","1","1","3","1","","0","1","0","null","","","<img src = 'targets/28.png' width = '100%;'>","null","","","","","","","","","",""
"","html-keyboard-response","271","591433","0.0-12.0-3.8","56k89e4p6w","many_one","0","direct_first","1","an06ex11","0","24","1","1","3","1","","0","1","0","458.70499999728054","","","<img src = 'targets/mask.png' width = '100%;'>","68","neg","GS","GSold","2","category2/CS3.png","","targets/28.png","indirect","0","32"
"","html-keyboard-response","272","592942","0.0-12.0-0.9","56k89e4p6w","many_one","0","direct_first","1","an06ex11","0","24","1","1","3","1","","0","1","0","null","","","<div style=""font-size:60px;"">+</div>","null","","","","","","","","","",""
"","html-keyboard-response","273","593039","0.0-12.0-1.9","56k89e4p6w","many_one","0","direct_first","1","an06ex11","0","24","1","1","3","1","","0","1","0","null","","","<img src = 'category1/GS2.png' width = '100%;'>","null","","","","","","","","","",""
"","html-keyboard-response","274","593290","0.0-12.0-2.9","56k89e4p6w","many_one","0","direct_first","1","an06ex11","0","24","1","1","3","1","","0","1","0","null","","","<img src = 'targets/7.png' width = '100%;'>","null","","","","","","","","","",""
"","html-keyboard-response","275","593697","0.0-12.0-3.9","56k89e4p6w","many_one","0","direct_first","1","an06ex11","0","24","1","1","3","1","","0","1","0","405.92999999353196","","","<img src = 'targets/mask.png' width = '100%;'>","75","pos","GS","GSnew","1","category1/GS2.png","","targets/7.png","indirect","1","33"
"","html-keyboard-response","276","595208","0.0-12.0-0.10","56k89e4p6w","many_one","0","direct_first","1","an06ex11","0","24","1","1","3","1","","0","1","0","null","","","<div style=""font-size:60px;"">+</div>","null","","","","","","","","","",""
"","html-keyboard-response","277","595304","0.0-12.0-1.10","56k89e4p6w","many_one","0","direct_first","1","an06ex11","0","24","1","1","3","1","","0","1","0","null","","","<img src = 'category3/GS3.png' width = '100%;'>","null","","","","","","","","","",""
"","html-keyboard-response","278","595556","0.0-12.0-2.10","56k89e4p6w","many_one","0","direct_first","1","an06ex11","0","24","1","1","3","1","","0","1","0","null","","","<img src = 'targets/3.png' width = '100%;'>","null","","","","","","","","","",""
"","html-keyboard-response","279","596025","0.0-12.0-3.10","56k89e4p6w","many_one","0","direct_first","1","an06ex11","0","24","1","1","3","1","","0","1","0","468.0450000014389","","","<img src = 'targets/mask.png' width = '100%;'>","68","neg","GS","GSnew","3","category3/GS3.png","","targets/3.png","indirect","0","34"
"","html-keyboard-response","280","597532","0.0-12.0-0.11","56k89e4p6w","many_one","0","direct_first","1","an06ex11","0","24","1","1","3","1","","0","1","0","null","","","<div style=""font-size:60px;"">+</div>","null","","","","","","","","","",""
"","html-keyboard-response","281","597627","0.0-12.0-1.11","56k89e4p6w","many_one","0","direct_first","1","an06ex11","0","24","1","1","3","1","","0","1","0","null","","","<img src = 'category1/CS4.png' width = '100%;'>","null","","","","","","","","","",""
"","html-keyboard-response","282","597888","0.0-12.0-2.11","56k89e4p6w","many_one","0","direct_first","1","an06ex11","0","24","1","1","3","1","","0","1","0","null","","","<img src = 'targets/15.png' width = '100%;'>","null","","","","","","","","","",""
"","html-keyboard-response","283","598274","0.0-12.0-3.11","56k89e4p6w","many_one","0","direct_first","1","an06ex11","0","24","1","1","3","1","","0","1","0","384.0649999984307","","","<img src = 'targets/mask.png' width = '100%;'>","75","pos","GS","GSold","1","category1/CS4.png","","targets/15.png","indirect","1","35"
"","html-keyboard-response","284","599781","0.0-12.0-0.12","56k89e4p6w","many_one","0","direct_first","1","an06ex11","0","24","1","1","3","1","","0","1","0","null","","","<div style=""font-size:60px;"">+</div>","null","","","","","","","","","",""
"","html-keyboard-response","285","599876","0.0-12.0-1.12","56k89e4p6w","many_one","0","direct_first","1","an06ex11","0","24","1","1","3","1","","0","1","0","null","","","<img src = 'category3/GS2.png' width = '100%;'>","null","","","","","","","","","",""
"","html-keyboard-response","286","600132","0.0-12.0-2.12","56k89e4p6w","many_one","0","direct_first","1","an06ex11","0","24","1","1","3","1","","0","1","0","null","","","<img src = 'targets/27.png' width = '100%;'>","null","","","","","","","","","",""
"","html-keyboard-response","287","600513","0.0-12.0-3.12","56k89e4p6w","many_one","0","direct_first","1","an06ex11","0","24","1","1","3","1","","0","1","0","380.39500000013504","","","<img src = 'targets/mask.png' width = '100%;'>","68","neg","GS","GSnew","3","category3/GS2.png","","targets/27.png","indirect","0","36"
"","html-keyboard-response","288","602019","0.0-12.0-0.13","56k89e4p6w","many_one","0","direct_first","1","an06ex11","0","24","1","1","3","1","","0","1","0","null","","","<div style=""font-size:60px;"">+</div>","null","","","","","","","","","",""
"","html-keyboard-response","289","602110","0.0-12.0-1.13","56k89e4p6w","many_one","0","direct_first","1","an06ex11","0","24","1","1","3","1","","0","1","0","null","","","<img src = 'category4/GS1.png' width = '100%;'>","null","","","","","","","","","",""
"","html-keyboard-response","290","602372","0.0-12.0-2.13","56k89e4p6w","many_one","0","direct_first","1","an06ex11","0","24","1","1","3","1","","0","1","0","null","","","<img src = 'targets/1.png' width = '100%;'>","null","","","","","","","","","",""
"","html-keyboard-response","291","602761","0.0-12.0-3.13","56k89e4p6w","many_one","0","direct_first","1","an06ex11","0","24","1","1","3","1","","0","1","0","387.9749999977648","","","<img src = 'targets/mask.png' width = '100%;'>","75","pos","GS","GSnew","4","category4/GS1.png","","targets/1.png","indirect","1","37"
"","html-keyboard-response","292","604267","0.0-12.0-0.14","56k89e4p6w","many_one","0","direct_first","1","an06ex11","0","24","1","1","3","1","","0","1","0","null","","","<div style=""font-size:60px;"">+</div>","null","","","","","","","","","",""
"","html-keyboard-response","293","604391","0.0-12.0-1.14","56k89e4p6w","many_one","0","direct_first","1","an06ex11","0","24","1","1","3","1","","0","1","0","null","","","<img src = 'category1/GS1.png' width = '100%;'>","null","","","","","","","","","",""
"","html-keyboard-response","294","604652","0.0-12.0-2.14","56k89e4p6w","many_one","0","direct_first","1","an06ex11","0","24","1","1","3","1","","0","1","0","null","","","<img src = 'targets/31.png' width = '100%;'>","null","","","","","","","","","",""
"","html-keyboard-response","295","605073","0.0-12.0-3.14","56k89e4p6w","many_one","0","direct_first","1","an06ex11","0","24","1","1","3","1","","0","1","0","419.59499999939","","","<img src = 'targets/mask.png' width = '100%;'>","75","pos","GS","GSnew","1","category1/GS1.png","","targets/31.png","indirect","1","38"
"","html-keyboard-response","296","606580","0.0-12.0-0.15","56k89e4p6w","many_one","0","direct_first","1","an06ex11","0","24","1","1","3","1","","0","1","0","null","","","<div style=""font-size:60px;"">+</div>","null","","","","","","","","","",""
"","html-keyboard-response","297","606676","0.0-12.0-1.15","56k89e4p6w","many_one","0","direct_first","1","an06ex11","0","24","1","1","3","1","","0","1","0","null","","","<img src = 'category1/GS3.png' width = '100%;'>","null","","","","","","","","","",""
"","html-keyboard-response","298","606934","0.0-12.0-2.15","56k89e4p6w","many_one","0","direct_first","1","an06ex11","0","24","1","1","3","1","","0","1","0","null","","","<img src = 'targets/32.png' width = '100%;'>","null","","","","","","","","","",""
"","html-keyboard-response","299","607273","0.0-12.0-3.15","56k89e4p6w","many_one","0","direct_first","1","an06ex11","0","24","1","1","3","1","","0","1","0","337.310000002617","","","<img src = 'targets/mask.png' width = '100%;'>","75","pos","GS","GSnew","1","category1/GS3.png","","targets/32.png","indirect","1","39"
"","html-keyboard-response","300","608778","0.0-12.0-0.16","56k89e4p6w","many_one","0","direct_first","1","an06ex11","0","24","1","1","3","1","","0","1","0","null","","","<div style=""font-size:60px;"">+</div>","null","","","","","","","","","",""
"","html-keyboard-response","301","608869","0.0-12.0-1.16","56k89e4p6w","many_one","0","direct_first","1","an06ex11","0","24","1","1","3","1","","0","1","0","null","","","<img src = 'category1/CS1.png' width = '100%;'>","null","","","","","","","","","",""
"","html-keyboard-response","302","609128","0.0-12.0-2.16","56k89e4p6w","many_one","0","direct_first","1","an06ex11","0","24","1","1","3","1","","0","1","0","null","","","<img src = 'targets/42.png' width = '100%;'>","null","","","","","","","","","",""
"","html-keyboard-response","303","610105","0.0-12.0-3.16","56k89e4p6w","many_one","0","direct_first","1","an06ex11","0","24","1","1","3","1","","0","1","0","976.3800000000047","","","<img src = 'targets/mask.png' width = '100%;'>","75","pos","GS","GSold","1","category1/CS1.png","","targets/42.png","indirect","1","40"
"","html-keyboard-response","304","611616","0.0-12.0-0.17","56k89e4p6w","many_one","0","direct_first","1","an06ex11","0","24","1","1","3","1","","0","1","0","null","","","<div style=""font-size:60px;"">+</div>","null","","","","","","","","","",""
"","html-keyboard-response","305","611709","0.0-12.0-1.17","56k89e4p6w","many_one","0","direct_first","1","an06ex11","0","24","1","1","3","1","","0","1","0","null","","","<img src = 'category3/GS1.png' width = '100%;'>","null","","","","","","","","","",""
"","html-keyboard-response","306","611967","0.0-12.0-2.17","56k89e4p6w","many_one","0","direct_first","1","an06ex11","0","24","1","1","3","1","","0","1","0","null","","","<img src = 'targets/36.png' width = '100%;'>","null","","","","","","","","","",""
"","html-keyboard-response","307","612297","0.0-12.0-3.17","56k89e4p6w","many_one","0","direct_first","1","an06ex11","0","24","1","1","3","1","","0","1","0","328.3700000029057","","","<img src = 'targets/mask.png' width = '100%;'>","68","neg","GS","GSnew","3","category3/GS1.png","","targets/36.png","indirect","0","41"
"","html-keyboard-response","308","613806","0.0-12.0-0.18","56k89e4p6w","many_one","0","direct_first","1","an06ex11","0","24","1","1","3","1","","0","1","0","null","","","<div style=""font-size:60px;"">+</div>","null","","","","","","","","","",""
"","html-keyboard-response","309","613903","0.0-12.0-1.18","56k89e4p6w","many_one","0","direct_first","1","an06ex11","0","24","1","1","3","1","","0","1","0","null","","","<img src = 'category2/GS3.png' width = '100%;'>","null","","","","","","","","","",""
"","html-keyboard-response","310","614156","0.0-12.0-2.18","56k89e4p6w","many_one","0","direct_first","1","an06ex11","0","24","1","1","3","1","","0","1","0","null","","","<img src = 'targets/8.png' width = '100%;'>","null","","","","","","","","","",""
"","html-keyboard-response","311","614401","0.0-12.0-3.18","56k89e4p6w","many_one","0","direct_first","1","an06ex11","0","24","1","1","3","1","","0","1","0","243.49500000244007","","","<img src = 'targets/mask.png' width = '100%;'>","75","neg","GS","GSnew","2","category2/GS3.png","","targets/8.png","indirect","1","42"
"","html-keyboard-response","312","615911","0.0-12.0-0.19","56k89e4p6w","many_one","0","direct_first","1","an06ex11","0","24","1","1","3","1","","0","1","0","null","","","<div style=""font-size:60px;"">+</div>","null","","","","","","","","","",""
"","html-keyboard-response","313","616003","0.0-12.0-1.19","56k89e4p6w","many_one","0","direct_first","1","an06ex11","0","24","1","1","3","1","","0","1","0","null","","","<img src = 'category4/CS5.png' width = '100%;'>","null","","","","","","","","","",""
"","html-keyboard-response","314","616263","0.0-12.0-2.19","56k89e4p6w","many_one","0","direct_first","1","an06ex11","0","24","1","1","3","1","","0","1","0","null","","","<img src = 'targets/40.png' width = '100%;'>","null","","","","","","","","","",""
"","html-keyboard-response","315","616689","0.0-12.0-3.19","56k89e4p6w","many_one","0","direct_first","1","an06ex11","0","24","1","1","3","1","","0","1","0","425.0400000018999","","","<img src = 'targets/mask.png' width = '100%;'>","75","pos","GS","GSold","4","category4/CS5.png","","targets/40.png","indirect","1","43"
"","html-keyboard-response","316","618196","0.0-12.0-0.20","56k89e4p6w","many_one","0","direct_first","1","an06ex11","0","24","1","1","3","1","","0","1","0","null","","","<div style=""font-size:60px;"">+</div>","null","","","","","","","","","",""
"","html-keyboard-response","317","618288","0.0-12.0-1.20","56k89e4p6w","many_one","0","direct_first","1","an06ex11","0","24","1","1","3","1","","0","1","0","null","","","<img src = 'category4/lin.png' width = '100%;'>","null","","","","","","","","","",""
"","html-keyboard-response","318","618545","0.0-12.0-2.20","56k89e4p6w","many_one","0","direct_first","1","an06ex11","0","24","1","1","3","1","","0","1","0","null","","","<img src = 'targets/38.png' width = '100%;'>","null","","","","","","","","","",""
"","html-keyboard-response","319","618873","0.0-12.0-3.20","56k89e4p6w","many_one","0","direct_first","1","an06ex11","0","24","1","1","3","1","","0","1","0","326.3950000037439","","","<img src = 'targets/mask.png' width = '100%;'>","75","pos","GS","abstract","4","category4/lin.png","","targets/38.png","indirect","1","44"
"","html-keyboard-response","320","620380","0.0-12.0-0.21","56k89e4p6w","many_one","0","direct_first","1","an06ex11","0","24","1","1","3","1","","0","1","0","null","","","<div style=""font-size:60px;"">+</div>","null","","","","","","","","","",""
"","html-keyboard-response","321","620474","0.0-12.0-1.21","56k89e4p6w","many_one","0","direct_first","1","an06ex11","0","24","1","1","3","1","","0","1","0","null","","","<img src = 'category4/GS3.png' width = '100%;'>","null","","","","","","","","","",""
"","html-keyboard-response","322","620732","0.0-12.0-2.21","56k89e4p6w","many_one","0","direct_first","1","an06ex11","0","24","1","1","3","1","","0","1","0","null","","","<img src = 'targets/29.png' width = '100%;'>","null","","","","","","","","","",""
"","html-keyboard-response","323","621153","0.0-12.0-3.21","56k89e4p6w","many_one","0","direct_first","1","an06ex11","0","24","1","1","3","1","","0","1","0","419.99999999825377","","","<img src = 'targets/mask.png' width = '100%;'>","75","pos","GS","GSnew","4","category4/GS3.png","","targets/29.png","indirect","1","45"
"","html-keyboard-response","324","622664","0.0-12.0-0.22","56k89e4p6w","many_one","0","direct_first","1","an06ex11","0","24","1","1","3","1","","0","1","0","null","","","<div style=""font-size:60px;"">+</div>","null","","","","","","","","","",""
"","html-keyboard-response","325","622758","0.0-12.0-1.22","56k89e4p6w","many_one","0","direct_first","1","an06ex11","0","24","1","1","3","1","","0","1","0","null","","","<img src = 'category1/ma.png' width = '100%;'>","null","","","","","","","","","",""
"","html-keyboard-response","326","623019","0.0-12.0-2.22","56k89e4p6w","many_one","0","direct_first","1","an06ex11","0","24","1","1","3","1","","0","1","0","null","","","<img src = 'targets/41.png' width = '100%;'>","null","","","","","","","","","",""
"","html-keyboard-response","327","623362","0.0-12.0-3.22","56k89e4p6w","many_one","0","direct_first","1","an06ex11","0","24","1","1","3","1","","0","1","0","340.95499999960884","","","<img src = 'targets/mask.png' width = '100%;'>","75","pos","GS","abstract","1","category1/ma.png","","targets/41.png","indirect","1","46"
