"success","trial_type","trial_index","time_elapsed","internal_node_id","subject","condition","condition_code","measure","measure_code","codeword","gender","age","education","chinese","fach","handedness","comment","hinschauen","ablenkung","gewissenhaft","rt","url","responses","stimulus","key_press","val","type","type_specific","category","cs_selected","response","target","task","indirect","nr_pres"
"true","fullscreen","0","2415","0.0-0.0","k9vu2hykn8","one_one","1","direct_first","1","er04en28","0","23","1","1","3","1","Die Silben erschienen sehr kurz auf dem Bildschirm, daher war ein Lesen dieser nicht immer gut möglich. ","0","1","0","","","","","","","","","","","","","","",""
"","external-html","1","22576","0.0-1.0","k9vu2hykn8","one_one","1","direct_first","1","er04en28","0","23","1","1","3","1","Die Silben erschienen sehr kurz auf dem Bildschirm, daher war ein Lesen dieser nicht immer gut möglich. ","0","1","0","20121.315000054892","text/information.html","","","","","","","","","","","","",""
"","external-html","2","28480","0.0-2.0","k9vu2hykn8","one_one","1","direct_first","1","er04en28","0","23","1","1","3","1","Die Silben erschienen sehr kurz auf dem Bildschirm, daher war ein Lesen dieser nicht immer gut möglich. ","0","1","0","5845.874999999069","text/consent.html","","","","","","","","","","","","",""
"","survey-html-form","3","62242","0.0-3.0","k9vu2hykn8","one_one","1","direct_first","1","er04en28","0","23","1","1","3","1","Die Silben erschienen sehr kurz auf dem Bildschirm, daher war ein Lesen dieser nicht immer gut möglich. ","0","1","0","33755.544999963604","","{""codeword_enter"":""er04en28""}","","","","","","","","","","","",""
"","survey-html-form","4","98151","0.0-4.0","k9vu2hykn8","one_one","1","direct_first","1","er04en28","0","23","1","1","3","1","Die Silben erschienen sehr kurz auf dem Bildschirm, daher war ein Lesen dieser nicht immer gut möglich. ","0","1","0","35904.105000023264","","{""age"":""23"",""education"":""1"",""subject"":""3"",""gender"":""0"",""handedness"":""1"",""chinese"":""1""}","","","","","","","","","","","",""
"","survey-html-form","5","123083","0.0-5.0","k9vu2hykn8","one_one","1","direct_first","1","er04en28","0","23","1","1","3","1","Die Silben erschienen sehr kurz auf dem Bildschirm, daher war ein Lesen dieser nicht immer gut möglich. ","0","1","0","24928.75500000082","","{}","","","","","","","","","","","",""
"","html-keyboard-response","6","127094","0.0-6.0-0.0-0.0","k9vu2hykn8","one_one","1","direct_first","1","er04en28","0","23","1","1","3","1","Die Silben erschienen sehr kurz auf dem Bildschirm, daher war ein Lesen dieser nicht immer gut möglich. ","0","1","0","null","","","<div class = 'row'><div class = 'column'><img src = 'category4/CS9.png' width = '70%;'></div><div class = 'column'><img src = 'usneg/3300.bmp' width = '100%;'></div></div>","null","neg","CS","CS","4","category4/CS9.png","","","","",""
"","html-keyboard-response","7","129602","0.0-6.0-0.0-0.1","k9vu2hykn8","one_one","1","direct_first","1","er04en28","0","23","1","1","3","1","Die Silben erschienen sehr kurz auf dem Bildschirm, daher war ein Lesen dieser nicht immer gut möglich. ","0","1","0","null","","","<div class = 'row'><div class = 'column'><img src = 'usneg/2141.bmp' width = '100%;'></div><div class = 'column'><img src = 'category2/CS6.png' width = '70%;'></div></div>","null","neg","CS","CS","2","category2/CS6.png","","","","",""
"","html-keyboard-response","8","132112","0.0-6.0-0.0-0.2","k9vu2hykn8","one_one","1","direct_first","1","er04en28","0","23","1","1","3","1","Die Silben erschienen sehr kurz auf dem Bildschirm, daher war ein Lesen dieser nicht immer gut möglich. ","0","1","0","null","","","<div class = 'row'><div class = 'column'><img src = 'category3/CS6.png' width = '70%;'></div><div class = 'column'><img src = 'uspos/5760.bmp' width = '100%;'></div></div>","null","pos","CS","CS","3","category3/CS6.png","","","","",""
"","html-keyboard-response","9","134620","0.0-6.0-0.0-0.3","k9vu2hykn8","one_one","1","direct_first","1","er04en28","0","23","1","1","3","1","Die Silben erschienen sehr kurz auf dem Bildschirm, daher war ein Lesen dieser nicht immer gut möglich. ","0","1","0","null","","","<div class = 'row'><div class = 'column'><img src = 'usneg/2141.bmp' width = '100%;'></div><div class = 'column'><img src = 'category2/CS6.png' width = '70%;'></div></div>","null","neg","CS","CS","2","category2/CS6.png","","","","",""
"","html-keyboard-response","10","137131","0.0-6.0-0.0-0.4","k9vu2hykn8","one_one","1","direct_first","1","er04en28","0","23","1","1","3","1","Die Silben erschienen sehr kurz auf dem Bildschirm, daher war ein Lesen dieser nicht immer gut möglich. ","0","1","0","null","","","<div class = 'row'><div class = 'column'><img src = 'category1/CS4.png' width = '70%;'></div><div class = 'column'><img src = 'uspos/2165.bmp' width = '100%;'></div></div>","null","pos","CS","CS","1","category1/CS4.png","","","","",""
"","html-keyboard-response","11","139644","0.0-6.0-0.0-0.5","k9vu2hykn8","one_one","1","direct_first","1","er04en28","0","23","1","1","3","1","Die Silben erschienen sehr kurz auf dem Bildschirm, daher war ein Lesen dieser nicht immer gut möglich. ","0","1","0","null","","","<div class = 'row'><div class = 'column'><img src = 'category3/CS6.png' width = '70%;'></div><div class = 'column'><img src = 'uspos/5760.bmp' width = '100%;'></div></div>","null","pos","CS","CS","3","category3/CS6.png","","","","",""
"","html-keyboard-response","12","142154","0.0-6.0-0.0-0.6","k9vu2hykn8","one_one","1","direct_first","1","er04en28","0","23","1","1","3","1","Die Silben erschienen sehr kurz auf dem Bildschirm, daher war ein Lesen dieser nicht immer gut möglich. ","0","1","0","null","","","<div class = 'row'><div class = 'column'><img src = 'category1/CS4.png' width = '70%;'></div><div class = 'column'><img src = 'uspos/2165.bmp' width = '100%;'></div></div>","null","pos","CS","CS","1","category1/CS4.png","","","","",""
"","html-keyboard-response","13","144661","0.0-6.0-0.0-0.7","k9vu2hykn8","one_one","1","direct_first","1","er04en28","0","23","1","1","3","1","Die Silben erschienen sehr kurz auf dem Bildschirm, daher war ein Lesen dieser nicht immer gut möglich. ","0","1","0","null","","","<div class = 'row'><div class = 'column'><img src = 'category4/CS9.png' width = '70%;'></div><div class = 'column'><img src = 'usneg/3300.bmp' width = '100%;'></div></div>","null","neg","CS","CS","4","category4/CS9.png","","","","",""
"","html-keyboard-response","14","147165","0.0-6.0-0.0-0.8","k9vu2hykn8","one_one","1","direct_first","1","er04en28","0","23","1","1","3","1","Die Silben erschienen sehr kurz auf dem Bildschirm, daher war ein Lesen dieser nicht immer gut möglich. ","0","1","0","null","","","<div class = 'row'><div class = 'column'><img src = 'uspos/5760.bmp' width = '100%;'></div><div class = 'column'><img src = 'category3/CS6.png' width = '70%;'></div></div>","null","pos","CS","CS","3","category3/CS6.png","","","","",""
"","html-keyboard-response","15","149677","0.0-6.0-0.0-0.9","k9vu2hykn8","one_one","1","direct_first","1","er04en28","0","23","1","1","3","1","Die Silben erschienen sehr kurz auf dem Bildschirm, daher war ein Lesen dieser nicht immer gut möglich. ","0","1","0","null","","","<div class = 'row'><div class = 'column'><img src = 'usneg/3300.bmp' width = '100%;'></div><div class = 'column'><img src = 'category4/CS9.png' width = '70%;'></div></div>","null","neg","CS","CS","4","category4/CS9.png","","","","",""
"","html-keyboard-response","16","152188","0.0-6.0-0.0-0.10","k9vu2hykn8","one_one","1","direct_first","1","er04en28","0","23","1","1","3","1","Die Silben erschienen sehr kurz auf dem Bildschirm, daher war ein Lesen dieser nicht immer gut möglich. ","0","1","0","null","","","<div class = 'row'><div class = 'column'><img src = 'usneg/2141.bmp' width = '100%;'></div><div class = 'column'><img src = 'category2/CS6.png' width = '70%;'></div></div>","null","neg","CS","CS","2","category2/CS6.png","","","","",""
"","html-keyboard-response","17","154697","0.0-6.0-0.0-0.11","k9vu2hykn8","one_one","1","direct_first","1","er04en28","0","23","1","1","3","1","Die Silben erschienen sehr kurz auf dem Bildschirm, daher war ein Lesen dieser nicht immer gut möglich. ","0","1","0","null","","","<div class = 'row'><div class = 'column'><img src = 'uspos/5760.bmp' width = '100%;'></div><div class = 'column'><img src = 'category3/CS6.png' width = '70%;'></div></div>","null","pos","CS","CS","3","category3/CS6.png","","","","",""
"","html-keyboard-response","18","157205","0.0-6.0-0.0-0.12","k9vu2hykn8","one_one","1","direct_first","1","er04en28","0","23","1","1","3","1","Die Silben erschienen sehr kurz auf dem Bildschirm, daher war ein Lesen dieser nicht immer gut möglich. ","0","1","0","null","","","<div class = 'row'><div class = 'column'><img src = 'category1/CS4.png' width = '70%;'></div><div class = 'column'><img src = 'uspos/2165.bmp' width = '100%;'></div></div>","null","pos","CS","CS","1","category1/CS4.png","","","","",""
"","html-keyboard-response","19","159714","0.0-6.0-0.0-0.13","k9vu2hykn8","one_one","1","direct_first","1","er04en28","0","23","1","1","3","1","Die Silben erschienen sehr kurz auf dem Bildschirm, daher war ein Lesen dieser nicht immer gut möglich. ","0","1","0","null","","","<div class = 'row'><div class = 'column'><img src = 'category3/CS6.png' width = '70%;'></div><div class = 'column'><img src = 'uspos/5760.bmp' width = '100%;'></div></div>","null","pos","CS","CS","3","category3/CS6.png","","","","",""
"","html-keyboard-response","20","162222","0.0-6.0-0.0-0.14","k9vu2hykn8","one_one","1","direct_first","1","er04en28","0","23","1","1","3","1","Die Silben erschienen sehr kurz auf dem Bildschirm, daher war ein Lesen dieser nicht immer gut möglich. ","0","1","0","null","","","<div class = 'row'><div class = 'column'><img src = 'category4/CS9.png' width = '70%;'></div><div class = 'column'><img src = 'usneg/3300.bmp' width = '100%;'></div></div>","null","neg","CS","CS","4","category4/CS9.png","","","","",""
"","html-keyboard-response","21","164735","0.0-6.0-0.0-0.15","k9vu2hykn8","one_one","1","direct_first","1","er04en28","0","23","1","1","3","1","Die Silben erschienen sehr kurz auf dem Bildschirm, daher war ein Lesen dieser nicht immer gut möglich. ","0","1","0","null","","","<div class = 'row'><div class = 'column'><img src = 'category2/CS6.png' width = '70%;'></div><div class = 'column'><img src = 'usneg/2141.bmp' width = '100%;'></div></div>","null","neg","CS","CS","2","category2/CS6.png","","","","",""
"","html-keyboard-response","22","167246","0.0-6.0-0.0-0.16","k9vu2hykn8","one_one","1","direct_first","1","er04en28","0","23","1","1","3","1","Die Silben erschienen sehr kurz auf dem Bildschirm, daher war ein Lesen dieser nicht immer gut möglich. ","0","1","0","null","","","<div class = 'row'><div class = 'column'><img src = 'uspos/2165.bmp' width = '100%;'></div><div class = 'column'><img src = 'category1/CS4.png' width = '70%;'></div></div>","null","pos","CS","CS","1","category1/CS4.png","","","","",""
"","html-keyboard-response","23","169750","0.0-6.0-0.0-0.17","k9vu2hykn8","one_one","1","direct_first","1","er04en28","0","23","1","1","3","1","Die Silben erschienen sehr kurz auf dem Bildschirm, daher war ein Lesen dieser nicht immer gut möglich. ","0","1","0","null","","","<div class = 'row'><div class = 'column'><img src = 'category2/CS6.png' width = '70%;'></div><div class = 'column'><img src = 'usneg/2141.bmp' width = '100%;'></div></div>","null","neg","CS","CS","2","category2/CS6.png","","","","",""
"","html-keyboard-response","24","172256","0.0-6.0-0.0-0.18","k9vu2hykn8","one_one","1","direct_first","1","er04en28","0","23","1","1","3","1","Die Silben erschienen sehr kurz auf dem Bildschirm, daher war ein Lesen dieser nicht immer gut möglich. ","0","1","0","null","","","<div class = 'row'><div class = 'column'><img src = 'uspos/2165.bmp' width = '100%;'></div><div class = 'column'><img src = 'category1/CS4.png' width = '70%;'></div></div>","null","pos","CS","CS","1","category1/CS4.png","","","","",""
"","html-keyboard-response","25","174765","0.0-6.0-0.0-0.19","k9vu2hykn8","one_one","1","direct_first","1","er04en28","0","23","1","1","3","1","Die Silben erschienen sehr kurz auf dem Bildschirm, daher war ein Lesen dieser nicht immer gut möglich. ","0","1","0","null","","","<div class = 'row'><div class = 'column'><img src = 'usneg/3300.bmp' width = '100%;'></div><div class = 'column'><img src = 'category4/CS9.png' width = '70%;'></div></div>","null","neg","CS","CS","4","category4/CS9.png","","","","",""
"","survey-html-form","26","556832","0.0-6.0-1.0","k9vu2hykn8","one_one","1","direct_first","1","er04en28","0","23","1","1","3","1","Die Silben erschienen sehr kurz auf dem Bildschirm, daher war ein Lesen dieser nicht immer gut möglich. ","0","1","0","381553.32000000635","","{}","","","","","","","","","","","",""
"","html-keyboard-response","27","560844","0.0-6.0-2.0-0.0","k9vu2hykn8","one_one","1","direct_first","1","er04en28","0","23","1","1","3","1","Die Silben erschienen sehr kurz auf dem Bildschirm, daher war ein Lesen dieser nicht immer gut möglich. ","0","1","0","null","","","<div class = 'row'><div class = 'column'><img src = 'category2/CS6.png' width = '70%;'></div><div class = 'column'><img src = 'usneg/2141.bmp' width = '100%;'></div></div>","null","neg","CS","CS","2","category2/CS6.png","","","","",""
"","html-keyboard-response","28","563356","0.0-6.0-2.0-0.1","k9vu2hykn8","one_one","1","direct_first","1","er04en28","0","23","1","1","3","1","Die Silben erschienen sehr kurz auf dem Bildschirm, daher war ein Lesen dieser nicht immer gut möglich. ","0","1","0","null","","","<div class = 'row'><div class = 'column'><img src = 'uspos/5760.bmp' width = '100%;'></div><div class = 'column'><img src = 'category3/CS6.png' width = '70%;'></div></div>","null","pos","CS","CS","3","category3/CS6.png","","","","",""
"","html-keyboard-response","29","565864","0.0-6.0-2.0-0.2","k9vu2hykn8","one_one","1","direct_first","1","er04en28","0","23","1","1","3","1","Die Silben erschienen sehr kurz auf dem Bildschirm, daher war ein Lesen dieser nicht immer gut möglich. ","0","1","0","null","","","<div class = 'row'><div class = 'column'><img src = 'usneg/2141.bmp' width = '100%;'></div><div class = 'column'><img src = 'category2/CS6.png' width = '70%;'></div></div>","null","neg","CS","CS","2","category2/CS6.png","","","","",""
"","html-keyboard-response","30","568373","0.0-6.0-2.0-0.3","k9vu2hykn8","one_one","1","direct_first","1","er04en28","0","23","1","1","3","1","Die Silben erschienen sehr kurz auf dem Bildschirm, daher war ein Lesen dieser nicht immer gut möglich. ","0","1","0","null","","","<div class = 'row'><div class = 'column'><img src = 'category1/CS4.png' width = '70%;'></div><div class = 'column'><img src = 'uspos/2165.bmp' width = '100%;'></div></div>","null","pos","CS","CS","1","category1/CS4.png","","","","",""
"","html-keyboard-response","31","570882","0.0-6.0-2.0-0.4","k9vu2hykn8","one_one","1","direct_first","1","er04en28","0","23","1","1","3","1","Die Silben erschienen sehr kurz auf dem Bildschirm, daher war ein Lesen dieser nicht immer gut möglich. ","0","1","0","null","","","<div class = 'row'><div class = 'column'><img src = 'category4/CS9.png' width = '70%;'></div><div class = 'column'><img src = 'usneg/3300.bmp' width = '100%;'></div></div>","null","neg","CS","CS","4","category4/CS9.png","","","","",""
"","html-keyboard-response","32","573392","0.0-6.0-2.0-0.5","k9vu2hykn8","one_one","1","direct_first","1","er04en28","0","23","1","1","3","1","Die Silben erschienen sehr kurz auf dem Bildschirm, daher war ein Lesen dieser nicht immer gut möglich. ","0","1","0","null","","","<div class = 'row'><div class = 'column'><img src = 'uspos/5760.bmp' width = '100%;'></div><div class = 'column'><img src = 'category3/CS6.png' width = '70%;'></div></div>","null","pos","CS","CS","3","category3/CS6.png","","","","",""
"","html-keyboard-response","33","575899","0.0-6.0-2.0-0.6","k9vu2hykn8","one_one","1","direct_first","1","er04en28","0","23","1","1","3","1","Die Silben erschienen sehr kurz auf dem Bildschirm, daher war ein Lesen dieser nicht immer gut möglich. ","0","1","0","null","","","<div class = 'row'><div class = 'column'><img src = 'category1/CS4.png' width = '70%;'></div><div class = 'column'><img src = 'uspos/2165.bmp' width = '100%;'></div></div>","null","pos","CS","CS","1","category1/CS4.png","","","","",""
"","html-keyboard-response","34","578408","0.0-6.0-2.0-0.7","k9vu2hykn8","one_one","1","direct_first","1","er04en28","0","23","1","1","3","1","Die Silben erschienen sehr kurz auf dem Bildschirm, daher war ein Lesen dieser nicht immer gut möglich. ","0","1","0","null","","","<div class = 'row'><div class = 'column'><img src = 'usneg/3300.bmp' width = '100%;'></div><div class = 'column'><img src = 'category4/CS9.png' width = '70%;'></div></div>","null","neg","CS","CS","4","category4/CS9.png","","","","",""
"","html-keyboard-response","35","580917","0.0-6.0-2.0-0.8","k9vu2hykn8","one_one","1","direct_first","1","er04en28","0","23","1","1","3","1","Die Silben erschienen sehr kurz auf dem Bildschirm, daher war ein Lesen dieser nicht immer gut möglich. ","0","1","0","null","","","<div class = 'row'><div class = 'column'><img src = 'category2/CS6.png' width = '70%;'></div><div class = 'column'><img src = 'usneg/2141.bmp' width = '100%;'></div></div>","null","neg","CS","CS","2","category2/CS6.png","","","","",""
"","html-keyboard-response","36","583427","0.0-6.0-2.0-0.9","k9vu2hykn8","one_one","1","direct_first","1","er04en28","0","23","1","1","3","1","Die Silben erschienen sehr kurz auf dem Bildschirm, daher war ein Lesen dieser nicht immer gut möglich. ","0","1","0","null","","","<div class = 'row'><div class = 'column'><img src = 'category3/CS6.png' width = '70%;'></div><div class = 'column'><img src = 'uspos/5760.bmp' width = '100%;'></div></div>","null","pos","CS","CS","3","category3/CS6.png","","","","",""
"","html-keyboard-response","37","585933","0.0-6.0-2.0-0.10","k9vu2hykn8","one_one","1","direct_first","1","er04en28","0","23","1","1","3","1","Die Silben erschienen sehr kurz auf dem Bildschirm, daher war ein Lesen dieser nicht immer gut möglich. ","0","1","0","null","","","<div class = 'row'><div class = 'column'><img src = 'category4/CS9.png' width = '70%;'></div><div class = 'column'><img src = 'usneg/3300.bmp' width = '100%;'></div></div>","null","neg","CS","CS","4","category4/CS9.png","","","","",""
"","html-keyboard-response","38","588437","0.0-6.0-2.0-0.11","k9vu2hykn8","one_one","1","direct_first","1","er04en28","0","23","1","1","3","1","Die Silben erschienen sehr kurz auf dem Bildschirm, daher war ein Lesen dieser nicht immer gut möglich. ","0","1","0","null","","","<div class = 'row'><div class = 'column'><img src = 'category1/CS4.png' width = '70%;'></div><div class = 'column'><img src = 'uspos/2165.bmp' width = '100%;'></div></div>","null","pos","CS","CS","1","category1/CS4.png","","","","",""
"","html-keyboard-response","39","590950","0.0-6.0-2.0-0.12","k9vu2hykn8","one_one","1","direct_first","1","er04en28","0","23","1","1","3","1","Die Silben erschienen sehr kurz auf dem Bildschirm, daher war ein Lesen dieser nicht immer gut möglich. ","0","1","0","null","","","<div class = 'row'><div class = 'column'><img src = 'category2/CS6.png' width = '70%;'></div><div class = 'column'><img src = 'usneg/2141.bmp' width = '100%;'></div></div>","null","neg","CS","CS","2","category2/CS6.png","","","","",""
"","html-keyboard-response","40","593461","0.0-6.0-2.0-0.13","k9vu2hykn8","one_one","1","direct_first","1","er04en28","0","23","1","1","3","1","Die Silben erschienen sehr kurz auf dem Bildschirm, daher war ein Lesen dieser nicht immer gut möglich. ","0","1","0","null","","","<div class = 'row'><div class = 'column'><img src = 'category4/CS9.png' width = '70%;'></div><div class = 'column'><img src = 'usneg/3300.bmp' width = '100%;'></div></div>","null","neg","CS","CS","4","category4/CS9.png","","","","",""
"","html-keyboard-response","41","595969","0.0-6.0-2.0-0.14","k9vu2hykn8","one_one","1","direct_first","1","er04en28","0","23","1","1","3","1","Die Silben erschienen sehr kurz auf dem Bildschirm, daher war ein Lesen dieser nicht immer gut möglich. ","0","1","0","null","","","<div class = 'row'><div class = 'column'><img src = 'usneg/2141.bmp' width = '100%;'></div><div class = 'column'><img src = 'category2/CS6.png' width = '70%;'></div></div>","null","neg","CS","CS","2","category2/CS6.png","","","","",""
"","html-keyboard-response","42","598479","0.0-6.0-2.0-0.15","k9vu2hykn8","one_one","1","direct_first","1","er04en28","0","23","1","1","3","1","Die Silben erschienen sehr kurz auf dem Bildschirm, daher war ein Lesen dieser nicht immer gut möglich. ","0","1","0","null","","","<div class = 'row'><div class = 'column'><img src = 'uspos/2165.bmp' width = '100%;'></div><div class = 'column'><img src = 'category1/CS4.png' width = '70%;'></div></div>","null","pos","CS","CS","1","category1/CS4.png","","","","",""
"","html-keyboard-response","43","600986","0.0-6.0-2.0-0.16","k9vu2hykn8","one_one","1","direct_first","1","er04en28","0","23","1","1","3","1","Die Silben erschienen sehr kurz auf dem Bildschirm, daher war ein Lesen dieser nicht immer gut möglich. ","0","1","0","null","","","<div class = 'row'><div class = 'column'><img src = 'category3/CS6.png' width = '70%;'></div><div class = 'column'><img src = 'uspos/5760.bmp' width = '100%;'></div></div>","null","pos","CS","CS","3","category3/CS6.png","","","","",""
"","html-keyboard-response","44","603499","0.0-6.0-2.0-0.17","k9vu2hykn8","one_one","1","direct_first","1","er04en28","0","23","1","1","3","1","Die Silben erschienen sehr kurz auf dem Bildschirm, daher war ein Lesen dieser nicht immer gut möglich. ","0","1","0","null","","","<div class = 'row'><div class = 'column'><img src = 'category4/CS9.png' width = '70%;'></div><div class = 'column'><img src = 'usneg/3300.bmp' width = '100%;'></div></div>","null","neg","CS","CS","4","category4/CS9.png","","","","",""
"","html-keyboard-response","45","606011","0.0-6.0-2.0-0.18","k9vu2hykn8","one_one","1","direct_first","1","er04en28","0","23","1","1","3","1","Die Silben erschienen sehr kurz auf dem Bildschirm, daher war ein Lesen dieser nicht immer gut möglich. ","0","1","0","null","","","<div class = 'row'><div class = 'column'><img src = 'category1/CS4.png' width = '70%;'></div><div class = 'column'><img src = 'uspos/2165.bmp' width = '100%;'></div></div>","null","pos","CS","CS","1","category1/CS4.png","","","","",""
"","html-keyboard-response","46","608523","0.0-6.0-2.0-0.19","k9vu2hykn8","one_one","1","direct_first","1","er04en28","0","23","1","1","3","1","Die Silben erschienen sehr kurz auf dem Bildschirm, daher war ein Lesen dieser nicht immer gut möglich. ","0","1","0","null","","","<div class = 'row'><div class = 'column'><img src = 'uspos/5760.bmp' width = '100%;'></div><div class = 'column'><img src = 'category3/CS6.png' width = '70%;'></div></div>","null","pos","CS","CS","3","category3/CS6.png","","","","",""
"","survey-html-form","47","628432","0.0-6.0-3.0","k9vu2hykn8","one_one","1","direct_first","1","er04en28","0","23","1","1","3","1","Die Silben erschienen sehr kurz auf dem Bildschirm, daher war ein Lesen dieser nicht immer gut möglich. ","0","1","0","19406.079999986105","","{}","","","","","","","","","","","",""
"","html-keyboard-response","48","632438","0.0-6.0-4.0-0.0","k9vu2hykn8","one_one","1","direct_first","1","er04en28","0","23","1","1","3","1","Die Silben erschienen sehr kurz auf dem Bildschirm, daher war ein Lesen dieser nicht immer gut möglich. ","0","1","0","null","","","<div class = 'row'><div class = 'column'><img src = 'category2/CS6.png' width = '70%;'></div><div class = 'column'><img src = 'usneg/2141.bmp' width = '100%;'></div></div>","null","neg","CS","CS","2","category2/CS6.png","","","","",""
"","html-keyboard-response","49","634950","0.0-6.0-4.0-0.1","k9vu2hykn8","one_one","1","direct_first","1","er04en28","0","23","1","1","3","1","Die Silben erschienen sehr kurz auf dem Bildschirm, daher war ein Lesen dieser nicht immer gut möglich. ","0","1","0","null","","","<div class = 'row'><div class = 'column'><img src = 'uspos/2165.bmp' width = '100%;'></div><div class = 'column'><img src = 'category1/CS4.png' width = '70%;'></div></div>","null","pos","CS","CS","1","category1/CS4.png","","","","",""
"","html-keyboard-response","50","637459","0.0-6.0-4.0-0.2","k9vu2hykn8","one_one","1","direct_first","1","er04en28","0","23","1","1","3","1","Die Silben erschienen sehr kurz auf dem Bildschirm, daher war ein Lesen dieser nicht immer gut möglich. ","0","1","0","null","","","<div class = 'row'><div class = 'column'><img src = 'uspos/5760.bmp' width = '100%;'></div><div class = 'column'><img src = 'category3/CS6.png' width = '70%;'></div></div>","null","pos","CS","CS","3","category3/CS6.png","","","","",""
"","html-keyboard-response","51","639968","0.0-6.0-4.0-0.3","k9vu2hykn8","one_one","1","direct_first","1","er04en28","0","23","1","1","3","1","Die Silben erschienen sehr kurz auf dem Bildschirm, daher war ein Lesen dieser nicht immer gut möglich. ","0","1","0","null","","","<div class = 'row'><div class = 'column'><img src = 'category2/CS6.png' width = '70%;'></div><div class = 'column'><img src = 'usneg/2141.bmp' width = '100%;'></div></div>","null","neg","CS","CS","2","category2/CS6.png","","","","",""
"","html-keyboard-response","52","642476","0.0-6.0-4.0-0.4","k9vu2hykn8","one_one","1","direct_first","1","er04en28","0","23","1","1","3","1","Die Silben erschienen sehr kurz auf dem Bildschirm, daher war ein Lesen dieser nicht immer gut möglich. ","0","1","0","null","","","<div class = 'row'><div class = 'column'><img src = 'category1/CS4.png' width = '70%;'></div><div class = 'column'><img src = 'uspos/2165.bmp' width = '100%;'></div></div>","null","pos","CS","CS","1","category1/CS4.png","","","","",""
"","html-keyboard-response","53","644980","0.0-6.0-4.0-0.5","k9vu2hykn8","one_one","1","direct_first","1","er04en28","0","23","1","1","3","1","Die Silben erschienen sehr kurz auf dem Bildschirm, daher war ein Lesen dieser nicht immer gut möglich. ","0","1","0","null","","","<div class = 'row'><div class = 'column'><img src = 'category4/CS9.png' width = '70%;'></div><div class = 'column'><img src = 'usneg/3300.bmp' width = '100%;'></div></div>","null","neg","CS","CS","4","category4/CS9.png","","","","",""
"","html-keyboard-response","54","647485","0.0-6.0-4.0-0.6","k9vu2hykn8","one_one","1","direct_first","1","er04en28","0","23","1","1","3","1","Die Silben erschienen sehr kurz auf dem Bildschirm, daher war ein Lesen dieser nicht immer gut möglich. ","0","1","0","null","","","<div class = 'row'><div class = 'column'><img src = 'usneg/2141.bmp' width = '100%;'></div><div class = 'column'><img src = 'category2/CS6.png' width = '70%;'></div></div>","null","neg","CS","CS","2","category2/CS6.png","","","","",""
"","html-keyboard-response","55","649997","0.0-6.0-4.0-0.7","k9vu2hykn8","one_one","1","direct_first","1","er04en28","0","23","1","1","3","1","Die Silben erschienen sehr kurz auf dem Bildschirm, daher war ein Lesen dieser nicht immer gut möglich. ","0","1","0","null","","","<div class = 'row'><div class = 'column'><img src = 'uspos/5760.bmp' width = '100%;'></div><div class = 'column'><img src = 'category3/CS6.png' width = '70%;'></div></div>","null","pos","CS","CS","3","category3/CS6.png","","","","",""
"","html-keyboard-response","56","652508","0.0-6.0-4.0-0.8","k9vu2hykn8","one_one","1","direct_first","1","er04en28","0","23","1","1","3","1","Die Silben erschienen sehr kurz auf dem Bildschirm, daher war ein Lesen dieser nicht immer gut möglich. ","0","1","0","null","","","<div class = 'row'><div class = 'column'><img src = 'uspos/2165.bmp' width = '100%;'></div><div class = 'column'><img src = 'category1/CS4.png' width = '70%;'></div></div>","null","pos","CS","CS","1","category1/CS4.png","","","","",""
"","html-keyboard-response","57","655016","0.0-6.0-4.0-0.9","k9vu2hykn8","one_one","1","direct_first","1","er04en28","0","23","1","1","3","1","Die Silben erschienen sehr kurz auf dem Bildschirm, daher war ein Lesen dieser nicht immer gut möglich. ","0","1","0","null","","","<div class = 'row'><div class = 'column'><img src = 'uspos/5760.bmp' width = '100%;'></div><div class = 'column'><img src = 'category3/CS6.png' width = '70%;'></div></div>","null","pos","CS","CS","3","category3/CS6.png","","","","",""
"","html-keyboard-response","58","657528","0.0-6.0-4.0-0.10","k9vu2hykn8","one_one","1","direct_first","1","er04en28","0","23","1","1","3","1","Die Silben erschienen sehr kurz auf dem Bildschirm, daher war ein Lesen dieser nicht immer gut möglich. ","0","1","0","null","","","<div class = 'row'><div class = 'column'><img src = 'usneg/2141.bmp' width = '100%;'></div><div class = 'column'><img src = 'category2/CS6.png' width = '70%;'></div></div>","null","neg","CS","CS","2","category2/CS6.png","","","","",""
"","html-keyboard-response","59","660040","0.0-6.0-4.0-0.11","k9vu2hykn8","one_one","1","direct_first","1","er04en28","0","23","1","1","3","1","Die Silben erschienen sehr kurz auf dem Bildschirm, daher war ein Lesen dieser nicht immer gut möglich. ","0","1","0","null","","","<div class = 'row'><div class = 'column'><img src = 'usneg/3300.bmp' width = '100%;'></div><div class = 'column'><img src = 'category4/CS9.png' width = '70%;'></div></div>","null","neg","CS","CS","4","category4/CS9.png","","","","",""
"","html-keyboard-response","60","662553","0.0-6.0-4.0-0.12","k9vu2hykn8","one_one","1","direct_first","1","er04en28","0","23","1","1","3","1","Die Silben erschienen sehr kurz auf dem Bildschirm, daher war ein Lesen dieser nicht immer gut möglich. ","0","1","0","null","","","<div class = 'row'><div class = 'column'><img src = 'category2/CS6.png' width = '70%;'></div><div class = 'column'><img src = 'usneg/2141.bmp' width = '100%;'></div></div>","null","neg","CS","CS","2","category2/CS6.png","","","","",""
"","html-keyboard-response","61","665065","0.0-6.0-4.0-0.13","k9vu2hykn8","one_one","1","direct_first","1","er04en28","0","23","1","1","3","1","Die Silben erschienen sehr kurz auf dem Bildschirm, daher war ein Lesen dieser nicht immer gut möglich. ","0","1","0","null","","","<div class = 'row'><div class = 'column'><img src = 'uspos/5760.bmp' width = '100%;'></div><div class = 'column'><img src = 'category3/CS6.png' width = '70%;'></div></div>","null","pos","CS","CS","3","category3/CS6.png","","","","",""
"","html-keyboard-response","62","667576","0.0-6.0-4.0-0.14","k9vu2hykn8","one_one","1","direct_first","1","er04en28","0","23","1","1","3","1","Die Silben erschienen sehr kurz auf dem Bildschirm, daher war ein Lesen dieser nicht immer gut möglich. ","0","1","0","null","","","<div class = 'row'><div class = 'column'><img src = 'usneg/3300.bmp' width = '100%;'></div><div class = 'column'><img src = 'category4/CS9.png' width = '70%;'></div></div>","null","neg","CS","CS","4","category4/CS9.png","","","","",""
"","html-keyboard-response","63","670086","0.0-6.0-4.0-0.15","k9vu2hykn8","one_one","1","direct_first","1","er04en28","0","23","1","1","3","1","Die Silben erschienen sehr kurz auf dem Bildschirm, daher war ein Lesen dieser nicht immer gut möglich. ","0","1","0","null","","","<div class = 'row'><div class = 'column'><img src = 'uspos/5760.bmp' width = '100%;'></div><div class = 'column'><img src = 'category3/CS6.png' width = '70%;'></div></div>","null","pos","CS","CS","3","category3/CS6.png","","","","",""
"","html-keyboard-response","64","672596","0.0-6.0-4.0-0.16","k9vu2hykn8","one_one","1","direct_first","1","er04en28","0","23","1","1","3","1","Die Silben erschienen sehr kurz auf dem Bildschirm, daher war ein Lesen dieser nicht immer gut möglich. ","0","1","0","null","","","<div class = 'row'><div class = 'column'><img src = 'category4/CS9.png' width = '70%;'></div><div class = 'column'><img src = 'usneg/3300.bmp' width = '100%;'></div></div>","null","neg","CS","CS","4","category4/CS9.png","","","","",""
"","html-keyboard-response","65","675109","0.0-6.0-4.0-0.17","k9vu2hykn8","one_one","1","direct_first","1","er04en28","0","23","1","1","3","1","Die Silben erschienen sehr kurz auf dem Bildschirm, daher war ein Lesen dieser nicht immer gut möglich. ","0","1","0","null","","","<div class = 'row'><div class = 'column'><img src = 'category1/CS4.png' width = '70%;'></div><div class = 'column'><img src = 'uspos/2165.bmp' width = '100%;'></div></div>","null","pos","CS","CS","1","category1/CS4.png","","","","",""
"","html-keyboard-response","66","677614","0.0-6.0-4.0-0.18","k9vu2hykn8","one_one","1","direct_first","1","er04en28","0","23","1","1","3","1","Die Silben erschienen sehr kurz auf dem Bildschirm, daher war ein Lesen dieser nicht immer gut möglich. ","0","1","0","null","","","<div class = 'row'><div class = 'column'><img src = 'category4/CS9.png' width = '70%;'></div><div class = 'column'><img src = 'usneg/3300.bmp' width = '100%;'></div></div>","null","neg","CS","CS","4","category4/CS9.png","","","","",""
"","html-keyboard-response","67","680124","0.0-6.0-4.0-0.19","k9vu2hykn8","one_one","1","direct_first","1","er04en28","0","23","1","1","3","1","Die Silben erschienen sehr kurz auf dem Bildschirm, daher war ein Lesen dieser nicht immer gut möglich. ","0","1","0","null","","","<div class = 'row'><div class = 'column'><img src = 'uspos/2165.bmp' width = '100%;'></div><div class = 'column'><img src = 'category1/CS4.png' width = '70%;'></div></div>","null","pos","CS","CS","1","category1/CS4.png","","","","",""
"","survey-html-form","68","689164","0.0-6.0-5.0","k9vu2hykn8","one_one","1","direct_first","1","er04en28","0","23","1","1","3","1","Die Silben erschienen sehr kurz auf dem Bildschirm, daher war ein Lesen dieser nicht immer gut möglich. ","0","1","0","8533.51500001736","","{}","","","","","","","","","","","",""
"","html-keyboard-response","69","693185","0.0-6.0-6.0-0.0","k9vu2hykn8","one_one","1","direct_first","1","er04en28","0","23","1","1","3","1","Die Silben erschienen sehr kurz auf dem Bildschirm, daher war ein Lesen dieser nicht immer gut möglich. ","0","1","0","null","","","<div class = 'row'><div class = 'column'><img src = 'uspos/5760.bmp' width = '100%;'></div><div class = 'column'><img src = 'category3/CS6.png' width = '70%;'></div></div>","null","pos","CS","CS","3","category3/CS6.png","","","","",""
"","html-keyboard-response","70","695698","0.0-6.0-6.0-0.1","k9vu2hykn8","one_one","1","direct_first","1","er04en28","0","23","1","1","3","1","Die Silben erschienen sehr kurz auf dem Bildschirm, daher war ein Lesen dieser nicht immer gut möglich. ","0","1","0","null","","","<div class = 'row'><div class = 'column'><img src = 'category2/CS6.png' width = '70%;'></div><div class = 'column'><img src = 'usneg/2141.bmp' width = '100%;'></div></div>","null","neg","CS","CS","2","category2/CS6.png","","","","",""
"","html-keyboard-response","71","698207","0.0-6.0-6.0-0.2","k9vu2hykn8","one_one","1","direct_first","1","er04en28","0","23","1","1","3","1","Die Silben erschienen sehr kurz auf dem Bildschirm, daher war ein Lesen dieser nicht immer gut möglich. ","0","1","0","null","","","<div class = 'row'><div class = 'column'><img src = 'uspos/2165.bmp' width = '100%;'></div><div class = 'column'><img src = 'category1/CS4.png' width = '70%;'></div></div>","null","pos","CS","CS","1","category1/CS4.png","","","","",""
"","html-keyboard-response","72","700719","0.0-6.0-6.0-0.3","k9vu2hykn8","one_one","1","direct_first","1","er04en28","0","23","1","1","3","1","Die Silben erschienen sehr kurz auf dem Bildschirm, daher war ein Lesen dieser nicht immer gut möglich. ","0","1","0","null","","","<div class = 'row'><div class = 'column'><img src = 'category3/CS6.png' width = '70%;'></div><div class = 'column'><img src = 'uspos/5760.bmp' width = '100%;'></div></div>","null","pos","CS","CS","3","category3/CS6.png","","","","",""
"","html-keyboard-response","73","703231","0.0-6.0-6.0-0.4","k9vu2hykn8","one_one","1","direct_first","1","er04en28","0","23","1","1","3","1","Die Silben erschienen sehr kurz auf dem Bildschirm, daher war ein Lesen dieser nicht immer gut möglich. ","0","1","0","null","","","<div class = 'row'><div class = 'column'><img src = 'usneg/2141.bmp' width = '100%;'></div><div class = 'column'><img src = 'category2/CS6.png' width = '70%;'></div></div>","null","neg","CS","CS","2","category2/CS6.png","","","","",""
"","html-keyboard-response","74","705739","0.0-6.0-6.0-0.5","k9vu2hykn8","one_one","1","direct_first","1","er04en28","0","23","1","1","3","1","Die Silben erschienen sehr kurz auf dem Bildschirm, daher war ein Lesen dieser nicht immer gut möglich. ","0","1","0","null","","","<div class = 'row'><div class = 'column'><img src = 'usneg/3300.bmp' width = '100%;'></div><div class = 'column'><img src = 'category4/CS9.png' width = '70%;'></div></div>","null","neg","CS","CS","4","category4/CS9.png","","","","",""
"","html-keyboard-response","75","708246","0.0-6.0-6.0-0.6","k9vu2hykn8","one_one","1","direct_first","1","er04en28","0","23","1","1","3","1","Die Silben erschienen sehr kurz auf dem Bildschirm, daher war ein Lesen dieser nicht immer gut möglich. ","0","1","0","null","","","<div class = 'row'><div class = 'column'><img src = 'uspos/5760.bmp' width = '100%;'></div><div class = 'column'><img src = 'category3/CS6.png' width = '70%;'></div></div>","null","pos","CS","CS","3","category3/CS6.png","","","","",""
"","html-keyboard-response","76","710758","0.0-6.0-6.0-0.7","k9vu2hykn8","one_one","1","direct_first","1","er04en28","0","23","1","1","3","1","Die Silben erschienen sehr kurz auf dem Bildschirm, daher war ein Lesen dieser nicht immer gut möglich. ","0","1","0","null","","","<div class = 'row'><div class = 'column'><img src = 'category1/CS4.png' width = '70%;'></div><div class = 'column'><img src = 'uspos/2165.bmp' width = '100%;'></div></div>","null","pos","CS","CS","1","category1/CS4.png","","","","",""
"","html-keyboard-response","77","713263","0.0-6.0-6.0-0.8","k9vu2hykn8","one_one","1","direct_first","1","er04en28","0","23","1","1","3","1","Die Silben erschienen sehr kurz auf dem Bildschirm, daher war ein Lesen dieser nicht immer gut möglich. ","0","1","0","null","","","<div class = 'row'><div class = 'column'><img src = 'category2/CS6.png' width = '70%;'></div><div class = 'column'><img src = 'usneg/2141.bmp' width = '100%;'></div></div>","null","neg","CS","CS","2","category2/CS6.png","","","","",""
"","html-keyboard-response","78","715769","0.0-6.0-6.0-0.9","k9vu2hykn8","one_one","1","direct_first","1","er04en28","0","23","1","1","3","1","Die Silben erschienen sehr kurz auf dem Bildschirm, daher war ein Lesen dieser nicht immer gut möglich. ","0","1","0","null","","","<div class = 'row'><div class = 'column'><img src = 'category4/CS9.png' width = '70%;'></div><div class = 'column'><img src = 'usneg/3300.bmp' width = '100%;'></div></div>","null","neg","CS","CS","4","category4/CS9.png","","","","",""
"","html-keyboard-response","79","718281","0.0-6.0-6.0-0.10","k9vu2hykn8","one_one","1","direct_first","1","er04en28","0","23","1","1","3","1","Die Silben erschienen sehr kurz auf dem Bildschirm, daher war ein Lesen dieser nicht immer gut möglich. ","0","1","0","null","","","<div class = 'row'><div class = 'column'><img src = 'uspos/2165.bmp' width = '100%;'></div><div class = 'column'><img src = 'category1/CS4.png' width = '70%;'></div></div>","null","pos","CS","CS","1","category1/CS4.png","","","","",""
"","html-keyboard-response","80","720793","0.0-6.0-6.0-0.11","k9vu2hykn8","one_one","1","direct_first","1","er04en28","0","23","1","1","3","1","Die Silben erschienen sehr kurz auf dem Bildschirm, daher war ein Lesen dieser nicht immer gut möglich. ","0","1","0","null","","","<div class = 'row'><div class = 'column'><img src = 'category4/CS9.png' width = '70%;'></div><div class = 'column'><img src = 'usneg/3300.bmp' width = '100%;'></div></div>","null","neg","CS","CS","4","category4/CS9.png","","","","",""
"","html-keyboard-response","81","723305","0.0-6.0-6.0-0.12","k9vu2hykn8","one_one","1","direct_first","1","er04en28","0","23","1","1","3","1","Die Silben erschienen sehr kurz auf dem Bildschirm, daher war ein Lesen dieser nicht immer gut möglich. ","0","1","0","null","","","<div class = 'row'><div class = 'column'><img src = 'category3/CS6.png' width = '70%;'></div><div class = 'column'><img src = 'uspos/5760.bmp' width = '100%;'></div></div>","null","pos","CS","CS","3","category3/CS6.png","","","","",""
"","html-keyboard-response","82","725816","0.0-6.0-6.0-0.13","k9vu2hykn8","one_one","1","direct_first","1","er04en28","0","23","1","1","3","1","Die Silben erschienen sehr kurz auf dem Bildschirm, daher war ein Lesen dieser nicht immer gut möglich. ","0","1","0","null","","","<div class = 'row'><div class = 'column'><img src = 'usneg/2141.bmp' width = '100%;'></div><div class = 'column'><img src = 'category2/CS6.png' width = '70%;'></div></div>","null","neg","CS","CS","2","category2/CS6.png","","","","",""
"","html-keyboard-response","83","728326","0.0-6.0-6.0-0.14","k9vu2hykn8","one_one","1","direct_first","1","er04en28","0","23","1","1","3","1","Die Silben erschienen sehr kurz auf dem Bildschirm, daher war ein Lesen dieser nicht immer gut möglich. ","0","1","0","null","","","<div class = 'row'><div class = 'column'><img src = 'usneg/3300.bmp' width = '100%;'></div><div class = 'column'><img src = 'category4/CS9.png' width = '70%;'></div></div>","null","neg","CS","CS","4","category4/CS9.png","","","","",""
"","html-keyboard-response","84","730838","0.0-6.0-6.0-0.15","k9vu2hykn8","one_one","1","direct_first","1","er04en28","0","23","1","1","3","1","Die Silben erschienen sehr kurz auf dem Bildschirm, daher war ein Lesen dieser nicht immer gut möglich. ","0","1","0","null","","","<div class = 'row'><div class = 'column'><img src = 'uspos/2165.bmp' width = '100%;'></div><div class = 'column'><img src = 'category1/CS4.png' width = '70%;'></div></div>","null","pos","CS","CS","1","category1/CS4.png","","","","",""
"","html-keyboard-response","85","733346","0.0-6.0-6.0-0.16","k9vu2hykn8","one_one","1","direct_first","1","er04en28","0","23","1","1","3","1","Die Silben erschienen sehr kurz auf dem Bildschirm, daher war ein Lesen dieser nicht immer gut möglich. ","0","1","0","null","","","<div class = 'row'><div class = 'column'><img src = 'usneg/2141.bmp' width = '100%;'></div><div class = 'column'><img src = 'category2/CS6.png' width = '70%;'></div></div>","null","neg","CS","CS","2","category2/CS6.png","","","","",""
"","html-keyboard-response","86","735859","0.0-6.0-6.0-0.17","k9vu2hykn8","one_one","1","direct_first","1","er04en28","0","23","1","1","3","1","Die Silben erschienen sehr kurz auf dem Bildschirm, daher war ein Lesen dieser nicht immer gut möglich. ","0","1","0","null","","","<div class = 'row'><div class = 'column'><img src = 'uspos/5760.bmp' width = '100%;'></div><div class = 'column'><img src = 'category3/CS6.png' width = '70%;'></div></div>","null","pos","CS","CS","3","category3/CS6.png","","","","",""
"","html-keyboard-response","87","738367","0.0-6.0-6.0-0.18","k9vu2hykn8","one_one","1","direct_first","1","er04en28","0","23","1","1","3","1","Die Silben erschienen sehr kurz auf dem Bildschirm, daher war ein Lesen dieser nicht immer gut möglich. ","0","1","0","null","","","<div class = 'row'><div class = 'column'><img src = 'category1/CS4.png' width = '70%;'></div><div class = 'column'><img src = 'uspos/2165.bmp' width = '100%;'></div></div>","null","pos","CS","CS","1","category1/CS4.png","","","","",""
"","html-keyboard-response","88","740874","0.0-6.0-6.0-0.19","k9vu2hykn8","one_one","1","direct_first","1","er04en28","0","23","1","1","3","1","Die Silben erschienen sehr kurz auf dem Bildschirm, daher war ein Lesen dieser nicht immer gut möglich. ","0","1","0","null","","","<div class = 'row'><div class = 'column'><img src = 'category4/CS9.png' width = '70%;'></div><div class = 'column'><img src = 'usneg/3300.bmp' width = '100%;'></div></div>","null","neg","CS","CS","4","category4/CS9.png","","","","",""
"","survey-html-form","89","876050","0.0-7.0","k9vu2hykn8","one_one","1","direct_first","1","er04en28","0","23","1","1","3","1","Die Silben erschienen sehr kurz auf dem Bildschirm, daher war ein Lesen dieser nicht immer gut möglich. ","0","1","0","134670.51999998512","","{}","","","","","","","","","","","",""
"","image-slider-response","90","882222","0.0-8.0-0.0","k9vu2hykn8","one_one","1","direct_first","1","er04en28","0","23","1","1","3","1","Die Silben erschienen sehr kurz auf dem Bildschirm, daher war ein Lesen dieser nicht immer gut möglich. ","0","1","0","4160.169999988284","","","","","neg","GS","GSnew","2","category2/GS1.png","45","targets/31.png","direct","",""
"","image-slider-response","91","885625","0.0-8.0-0.1","k9vu2hykn8","one_one","1","direct_first","1","er04en28","0","23","1","1","3","1","Die Silben erschienen sehr kurz auf dem Bildschirm, daher war ein Lesen dieser nicht immer gut möglich. ","0","1","0","3400.7950000232086","","","","","pos","GS","abstract","3","category3/wang.png","36","targets/27.png","direct","",""
"","image-slider-response","92","888827","0.0-8.0-0.2","k9vu2hykn8","one_one","1","direct_first","1","er04en28","0","23","1","1","3","1","Die Silben erschienen sehr kurz auf dem Bildschirm, daher war ein Lesen dieser nicht immer gut möglich. ","0","1","0","3200.3449999610893","","","","","neg","GS","abstract","4","category4/lin.png","-52","targets/7.png","direct","",""
"","image-slider-response","93","891891","0.0-8.0-0.3","k9vu2hykn8","one_one","1","direct_first","1","er04en28","0","23","1","1","3","1","Die Silben erschienen sehr kurz auf dem Bildschirm, daher war ein Lesen dieser nicht immer gut möglich. ","0","1","0","3059.8549999995157","","","","","pos","GS","GSold","1","category1/CS6.png","-46","targets/33.png","direct","",""
"","image-slider-response","94","893906","0.0-8.0-0.4","k9vu2hykn8","one_one","1","direct_first","1","er04en28","0","23","1","1","3","1","Die Silben erschienen sehr kurz auf dem Bildschirm, daher war ein Lesen dieser nicht immer gut möglich. ","0","1","0","2013.0450000287965","","","","","neg","GS","GSold","2","category2/CS1.png","43","targets/28.png","direct","",""
"","image-slider-response","95","896261","0.0-8.0-0.5","k9vu2hykn8","one_one","1","direct_first","1","er04en28","0","23","1","1","3","1","Die Silben erschienen sehr kurz auf dem Bildschirm, daher war ein Lesen dieser nicht immer gut möglich. ","0","1","0","2351.989999995567","","","","","pos","GS","GSold","3","category3/CS8.png","-51","targets/14.png","direct","",""
"","image-slider-response","96","898741","0.0-8.0-0.6","k9vu2hykn8","one_one","1","direct_first","1","er04en28","0","23","1","1","3","1","Die Silben erschienen sehr kurz auf dem Bildschirm, daher war ein Lesen dieser nicht immer gut möglich. ","0","1","0","2476.3049999601208","","","","","pos","GS","GSold","1","category1/CS9.png","42","targets/41.png","direct","",""
"","image-slider-response","97","900584","0.0-8.0-0.7","k9vu2hykn8","one_one","1","direct_first","1","er04en28","0","23","1","1","3","1","Die Silben erschienen sehr kurz auf dem Bildschirm, daher war ein Lesen dieser nicht immer gut möglich. ","0","1","0","1837.5050000031479","","","","","pos","GS","GSold","3","category3/CS2.png","-44","targets/16.png","direct","",""
"","image-slider-response","98","903362","0.0-8.0-0.8","k9vu2hykn8","one_one","1","direct_first","1","er04en28","0","23","1","1","3","1","Die Silben erschienen sehr kurz auf dem Bildschirm, daher war ein Lesen dieser nicht immer gut möglich. ","0","1","0","2774.054999987129","","","","","neg","GS","GSold","4","category4/CS2.png","-50","targets/4.png","direct","",""
"","image-slider-response","99","906001","0.0-8.0-0.9","k9vu2hykn8","one_one","1","direct_first","1","er04en28","0","23","1","1","3","1","Die Silben erschienen sehr kurz auf dem Bildschirm, daher war ein Lesen dieser nicht immer gut möglich. ","0","1","0","2636.095000023488","","","","","neg","GS","GSnew","4","category4/GS1.png","-51","targets/34.png","direct","",""
"","image-slider-response","100","907891","0.0-8.0-0.10","k9vu2hykn8","one_one","1","direct_first","1","er04en28","0","23","1","1","3","1","Die Silben erschienen sehr kurz auf dem Bildschirm, daher war ein Lesen dieser nicht immer gut möglich. ","0","1","0","1887.749999994412","","","","","pos","GS","GSnew","1","category1/GS1.png","-40","targets/32.png","direct","",""
"","image-slider-response","101","911012","0.0-8.0-0.11","k9vu2hykn8","one_one","1","direct_first","1","er04en28","0","23","1","1","3","1","Die Silben erschienen sehr kurz auf dem Bildschirm, daher war ein Lesen dieser nicht immer gut möglich. ","0","1","0","3117.3950000084005","","","","","neg","GS","GSnew","2","category2/GS3.png","-41","targets/23.png","direct","",""
"","image-slider-response","102","913768","0.0-8.0-0.12","k9vu2hykn8","one_one","1","direct_first","1","er04en28","0","23","1","1","3","1","Die Silben erschienen sehr kurz auf dem Bildschirm, daher war ein Lesen dieser nicht immer gut möglich. ","0","1","0","2752.3549999459647","","","","","neg","GS","abstract","2","category2/men.png","39","targets/11.png","direct","",""
"","image-slider-response","103","915703","0.0-8.0-0.13","k9vu2hykn8","one_one","1","direct_first","1","er04en28","0","23","1","1","3","1","Die Silben erschienen sehr kurz auf dem Bildschirm, daher war ein Lesen dieser nicht immer gut möglich. ","0","1","0","1930.8600000222214","","","","","pos","GS","GSnew","3","category3/GS3.png","-26","targets/19.png","direct","",""
"","image-slider-response","104","917553","0.0-8.0-0.14","k9vu2hykn8","one_one","1","direct_first","1","er04en28","0","23","1","1","3","1","Die Silben erschienen sehr kurz auf dem Bildschirm, daher war ein Lesen dieser nicht immer gut möglich. ","0","1","0","1846.8100000172853","","","","","pos","GS","GSnew","3","category3/GS1.png","-24","targets/25.png","direct","",""
"","image-slider-response","105","919255","0.0-8.0-0.15","k9vu2hykn8","one_one","1","direct_first","1","er04en28","0","23","1","1","3","1","Die Silben erschienen sehr kurz auf dem Bildschirm, daher war ein Lesen dieser nicht immer gut möglich. ","0","1","0","1698.004999954719","","","","","pos","GS","GSold","1","category1/CS7.png","-33","targets/38.png","direct","",""
"","image-slider-response","106","921105","0.0-8.0-0.16","k9vu2hykn8","one_one","1","direct_first","1","er04en28","0","23","1","1","3","1","Die Silben erschienen sehr kurz auf dem Bildschirm, daher war ein Lesen dieser nicht immer gut möglich. ","0","1","0","1847.6950000040233","","","","","neg","GS","GSnew","4","category4/GS2.png","-31","targets/44.png","direct","",""
"","image-slider-response","107","923165","0.0-8.0-0.17","k9vu2hykn8","one_one","1","direct_first","1","er04en28","0","23","1","1","3","1","Die Silben erschienen sehr kurz auf dem Bildschirm, daher war ein Lesen dieser nicht immer gut möglich. ","0","1","0","2056.4749999903142","","","","","pos","CS","CS","3","category3/CS6.png","-26","targets/18.png","direct","",""
"","image-slider-response","108","925619","0.0-8.0-0.18","k9vu2hykn8","one_one","1","direct_first","1","er04en28","0","23","1","1","3","1","Die Silben erschienen sehr kurz auf dem Bildschirm, daher war ein Lesen dieser nicht immer gut möglich. ","0","1","0","2452.560000005178","","","","","pos","GS","GSnew","3","category3/GS2.png","-47","targets/35.png","direct","",""
"","image-slider-response","109","928093","0.0-8.0-0.19","k9vu2hykn8","one_one","1","direct_first","1","er04en28","0","23","1","1","3","1","Die Silben erschienen sehr kurz auf dem Bildschirm, daher war ein Lesen dieser nicht immer gut möglich. ","0","1","0","2471.974999993108","","","","","pos","GS","GSold","3","category3/CS4.png","-40","targets/48.png","direct","",""
"","image-slider-response","110","931215","0.0-8.0-0.20","k9vu2hykn8","one_one","1","direct_first","1","er04en28","0","23","1","1","3","1","Die Silben erschienen sehr kurz auf dem Bildschirm, daher war ein Lesen dieser nicht immer gut möglich. ","0","1","0","3119.6600000257604","","","","","pos","GS","GSnew","1","category1/GS3.png","-34","targets/42.png","direct","",""
"","image-slider-response","111","933735","0.0-8.0-0.21","k9vu2hykn8","one_one","1","direct_first","1","er04en28","0","23","1","1","3","1","Die Silben erschienen sehr kurz auf dem Bildschirm, daher war ein Lesen dieser nicht immer gut möglich. ","0","1","0","2517.150000028778","","","","","pos","GS","abstract","1","category1/ma.png","-45","targets/43.png","direct","",""
"","image-slider-response","112","936304","0.0-8.0-0.22","k9vu2hykn8","one_one","1","direct_first","1","er04en28","0","23","1","1","3","1","Die Silben erschienen sehr kurz auf dem Bildschirm, daher war ein Lesen dieser nicht immer gut möglich. ","0","1","0","2563.8100000214763","","","","","neg","GS","GSnew","2","category2/GS2.png","-45","targets/13.png","direct","",""
"","image-slider-response","113","938668","0.0-8.0-0.23","k9vu2hykn8","one_one","1","direct_first","1","er04en28","0","23","1","1","3","1","Die Silben erschienen sehr kurz auf dem Bildschirm, daher war ein Lesen dieser nicht immer gut möglich. ","0","1","0","2360.2650000248104","","","","","neg","GS","GSold","4","category4/CS7.png","-40","targets/29.png","direct","",""
"","image-slider-response","114","940554","0.0-8.0-0.24","k9vu2hykn8","one_one","1","direct_first","1","er04en28","0","23","1","1","3","1","Die Silben erschienen sehr kurz auf dem Bildschirm, daher war ein Lesen dieser nicht immer gut möglich. ","0","1","0","1881.6699999733828","","","","","neg","CS","CS","2","category2/CS6.png","-48","targets/45.png","direct","",""
"","image-slider-response","115","942436","0.0-8.0-0.25","k9vu2hykn8","one_one","1","direct_first","1","er04en28","0","23","1","1","3","1","Die Silben erschienen sehr kurz auf dem Bildschirm, daher war ein Lesen dieser nicht immer gut möglich. ","0","1","0","1878.3600000315346","","","","","neg","GS","GSold","2","category2/CS9.png","-46","targets/10.png","direct","",""
"","image-slider-response","116","944562","0.0-8.0-0.26","k9vu2hykn8","one_one","1","direct_first","1","er04en28","0","23","1","1","3","1","Die Silben erschienen sehr kurz auf dem Bildschirm, daher war ein Lesen dieser nicht immer gut möglich. ","0","1","0","2123.28499997966","","","","","neg","CS","CS","4","category4/CS9.png","-37","targets/30.png","direct","",""
"","image-slider-response","117","946400","0.0-8.0-0.27","k9vu2hykn8","one_one","1","direct_first","1","er04en28","0","23","1","1","3","1","Die Silben erschienen sehr kurz auf dem Bildschirm, daher war ein Lesen dieser nicht immer gut möglich. ","0","1","0","1831.1899999971502","","","","","neg","GS","GSold","4","category4/CS8.png","-52","targets/15.png","direct","",""
"","image-slider-response","118","948066","0.0-8.0-0.28","k9vu2hykn8","one_one","1","direct_first","1","er04en28","0","23","1","1","3","1","Die Silben erschienen sehr kurz auf dem Bildschirm, daher war ein Lesen dieser nicht immer gut möglich. ","0","1","0","1664.4000000087544","","","","","neg","GS","GSnew","4","category4/GS3.png","-34","targets/17.png","direct","",""
"","image-slider-response","119","950375","0.0-8.0-0.29","k9vu2hykn8","one_one","1","direct_first","1","er04en28","0","23","1","1","3","1","Die Silben erschienen sehr kurz auf dem Bildschirm, daher war ein Lesen dieser nicht immer gut möglich. ","0","1","0","2307.81000002753","","","","","neg","GS","GSold","2","category2/CS10.png","-45","targets/5.png","direct","",""
"","image-slider-response","120","952896","0.0-8.0-0.30","k9vu2hykn8","one_one","1","direct_first","1","er04en28","0","23","1","1","3","1","Die Silben erschienen sehr kurz auf dem Bildschirm, daher war ein Lesen dieser nicht immer gut möglich. ","0","1","0","2517.489999998361","","","","","pos","CS","CS","1","category1/CS4.png","-44","targets/8.png","direct","",""
"","image-slider-response","121","955495","0.0-8.0-0.31","k9vu2hykn8","one_one","1","direct_first","1","er04en28","0","23","1","1","3","1","Die Silben erschienen sehr kurz auf dem Bildschirm, daher war ein Lesen dieser nicht immer gut möglich. ","0","1","0","2597.3549999762326","","","","","pos","GS","GSnew","1","category1/GS2.png","-54","targets/22.png","direct","",""
"","html-keyboard-response","122","977364","0.0-9.0","k9vu2hykn8","one_one","1","direct_first","1","er04en28","0","23","1","1","3","1","Die Silben erschienen sehr kurz auf dem Bildschirm, daher war ein Lesen dieser nicht immer gut möglich. ","0","1","0","21866.365000023507","","","<p>Sie sehen nun die chinesischen Zeichen nur ganz kurz. Danach sehen Sie die jeweilige Aussprache der Zeichen als Silbe auf dem Bildschrim. Ihre Aufgabe ist es, für jede Silbe anzugeben, ob diese etwas angenehmes, oder unangenehmes bedeuten könnte. Verlassen Sie sich hier vor allem auf Ihre Intuition.<br><br>Die Zeichen werden nur zur Orientierung dargestellt, beachten Sie sie deshalb nicht. Konzentrieren Sie sich vor allem auf die Silben. <br>Reagieren Sie mit folgenden zwei Tasten: <br><br><b>'D' </b> wenn die Silbe etwas <b>unangenehmes</b> bedeuten könnte. <br><b>'K'</b> wenn die Silbe etwas <b>angenehmes</b> bedeuten könnte. <br><br>Bitte legen Sie nun den Zeigefinger der linken Hand auf die Taste 'D' und den Zeigefinger der rechten Hand auf die Taste 'K'. <br>Reagieren Sie auf jede Silbe so schnell wie möglich. Uns interessiert Ihre spontane Reaktion. <br> <br> <br>Drücken Sie 'D' oder 'K', um die nächste Aufgabe zu starten. </p>","75","","","","","","","","","",""
"","html-keyboard-response","123","980371","0.0-10.0-0.0","k9vu2hykn8","one_one","1","direct_first","1","er04en28","0","23","1","1","3","1","Die Silben erschienen sehr kurz auf dem Bildschirm, daher war ein Lesen dieser nicht immer gut möglich. ","0","1","0","null","","","<div style=""font-size:60px;"">+</div>","null","","","","","","","","","",""
"","html-keyboard-response","124","980467","0.0-10.0-1.0","k9vu2hykn8","one_one","1","direct_first","1","er04en28","0","23","1","1","3","1","Die Silben erschienen sehr kurz auf dem Bildschirm, daher war ein Lesen dieser nicht immer gut möglich. ","0","1","0","null","","","<img src = 'category1/CS9.png' width = '100%;'>","null","","","","","","","","","",""
"","html-keyboard-response","125","980724","0.0-10.0-2.0","k9vu2hykn8","one_one","1","direct_first","1","er04en28","0","23","1","1","3","1","Die Silben erschienen sehr kurz auf dem Bildschirm, daher war ein Lesen dieser nicht immer gut möglich. ","0","1","0","null","","","<img src = 'targets/41.png' width = '100%;'>","null","","","","","","","","","",""
"","html-keyboard-response","126","985950","0.0-10.0-3.0","k9vu2hykn8","one_one","1","direct_first","1","er04en28","0","23","1","1","3","1","Die Silben erschienen sehr kurz auf dem Bildschirm, daher war ein Lesen dieser nicht immer gut möglich. ","0","1","0","5224.589999997988","","","<img src = 'targets/mask.png' width = '100%;'>","68","pos","GS","GSold","1","category1/CS9.png","","targets/41.png","indirect","0","0"
"","html-keyboard-response","127","987456","0.0-10.0-0.1","k9vu2hykn8","one_one","1","direct_first","1","er04en28","0","23","1","1","3","1","Die Silben erschienen sehr kurz auf dem Bildschirm, daher war ein Lesen dieser nicht immer gut möglich. ","0","1","0","null","","","<div style=""font-size:60px;"">+</div>","null","","","","","","","","","",""
"","html-keyboard-response","128","987551","0.0-10.0-1.1","k9vu2hykn8","one_one","1","direct_first","1","er04en28","0","23","1","1","3","1","Die Silben erschienen sehr kurz auf dem Bildschirm, daher war ein Lesen dieser nicht immer gut möglich. ","0","1","0","null","","","<img src = 'category4/CS9.png' width = '100%;'>","null","","","","","","","","","",""
"","html-keyboard-response","129","987807","0.0-10.0-2.1","k9vu2hykn8","one_one","1","direct_first","1","er04en28","0","23","1","1","3","1","Die Silben erschienen sehr kurz auf dem Bildschirm, daher war ein Lesen dieser nicht immer gut möglich. ","0","1","0","null","","","<img src = 'targets/30.png' width = '100%;'>","null","","","","","","","","","",""
"","html-keyboard-response","130","991082","0.0-10.0-3.1","k9vu2hykn8","one_one","1","direct_first","1","er04en28","0","23","1","1","3","1","Die Silben erschienen sehr kurz auf dem Bildschirm, daher war ein Lesen dieser nicht immer gut möglich. ","0","1","0","3274.150000012014","","","<img src = 'targets/mask.png' width = '100%;'>","68","neg","CS","CS","4","category4/CS9.png","","targets/30.png","indirect","0","1"
"","html-keyboard-response","131","992593","0.0-10.0-0.2","k9vu2hykn8","one_one","1","direct_first","1","er04en28","0","23","1","1","3","1","Die Silben erschienen sehr kurz auf dem Bildschirm, daher war ein Lesen dieser nicht immer gut möglich. ","0","1","0","null","","","<div style=""font-size:60px;"">+</div>","null","","","","","","","","","",""
"","html-keyboard-response","132","992689","0.0-10.0-1.2","k9vu2hykn8","one_one","1","direct_first","1","er04en28","0","23","1","1","3","1","Die Silben erschienen sehr kurz auf dem Bildschirm, daher war ein Lesen dieser nicht immer gut möglich. ","0","1","0","null","","","<img src = 'category4/CS7.png' width = '100%;'>","null","","","","","","","","","",""
"","html-keyboard-response","133","992949","0.0-10.0-2.2","k9vu2hykn8","one_one","1","direct_first","1","er04en28","0","23","1","1","3","1","Die Silben erschienen sehr kurz auf dem Bildschirm, daher war ein Lesen dieser nicht immer gut möglich. ","0","1","0","null","","","<img src = 'targets/29.png' width = '100%;'>","null","","","","","","","","","",""
"","html-keyboard-response","134","993767","0.0-10.0-3.2","k9vu2hykn8","one_one","1","direct_first","1","er04en28","0","23","1","1","3","1","Die Silben erschienen sehr kurz auf dem Bildschirm, daher war ein Lesen dieser nicht immer gut möglich. ","0","1","0","816.9500000076368","","","<img src = 'targets/mask.png' width = '100%;'>","75","neg","GS","GSold","4","category4/CS7.png","","targets/29.png","indirect","1","2"
"","html-keyboard-response","135","995273","0.0-10.0-0.3","k9vu2hykn8","one_one","1","direct_first","1","er04en28","0","23","1","1","3","1","Die Silben erschienen sehr kurz auf dem Bildschirm, daher war ein Lesen dieser nicht immer gut möglich. ","0","1","0","null","","","<div style=""font-size:60px;"">+</div>","null","","","","","","","","","",""
"","html-keyboard-response","136","995366","0.0-10.0-1.3","k9vu2hykn8","one_one","1","direct_first","1","er04en28","0","23","1","1","3","1","Die Silben erschienen sehr kurz auf dem Bildschirm, daher war ein Lesen dieser nicht immer gut möglich. ","0","1","0","null","","","<img src = 'category2/CS10.png' width = '100%;'>","null","","","","","","","","","",""
"","html-keyboard-response","137","995624","0.0-10.0-2.3","k9vu2hykn8","one_one","1","direct_first","1","er04en28","0","23","1","1","3","1","Die Silben erschienen sehr kurz auf dem Bildschirm, daher war ein Lesen dieser nicht immer gut möglich. ","0","1","0","null","","","<img src = 'targets/5.png' width = '100%;'>","null","","","","","","","","","",""
"","html-keyboard-response","138","996136","0.0-10.0-3.3","k9vu2hykn8","one_one","1","direct_first","1","er04en28","0","23","1","1","3","1","Die Silben erschienen sehr kurz auf dem Bildschirm, daher war ein Lesen dieser nicht immer gut möglich. ","0","1","0","510.0749999983236","","","<img src = 'targets/mask.png' width = '100%;'>","68","neg","GS","GSold","2","category2/CS10.png","","targets/5.png","indirect","0","3"
"","html-keyboard-response","139","997645","0.0-10.0-0.4","k9vu2hykn8","one_one","1","direct_first","1","er04en28","0","23","1","1","3","1","Die Silben erschienen sehr kurz auf dem Bildschirm, daher war ein Lesen dieser nicht immer gut möglich. ","0","1","0","null","","","<div style=""font-size:60px;"">+</div>","null","","","","","","","","","",""
"","html-keyboard-response","140","997738","0.0-10.0-1.4","k9vu2hykn8","one_one","1","direct_first","1","er04en28","0","23","1","1","3","1","Die Silben erschienen sehr kurz auf dem Bildschirm, daher war ein Lesen dieser nicht immer gut möglich. ","0","1","0","null","","","<img src = 'category3/CS8.png' width = '100%;'>","null","","","","","","","","","",""
"","html-keyboard-response","141","997994","0.0-10.0-2.4","k9vu2hykn8","one_one","1","direct_first","1","er04en28","0","23","1","1","3","1","Die Silben erschienen sehr kurz auf dem Bildschirm, daher war ein Lesen dieser nicht immer gut möglich. ","0","1","0","null","","","<img src = 'targets/14.png' width = '100%;'>","null","","","","","","","","","",""
"","html-keyboard-response","142","998377","0.0-10.0-3.4","k9vu2hykn8","one_one","1","direct_first","1","er04en28","0","23","1","1","3","1","Die Silben erschienen sehr kurz auf dem Bildschirm, daher war ein Lesen dieser nicht immer gut möglich. ","0","1","0","381.82499998947605","","","<img src = 'targets/mask.png' width = '100%;'>","68","pos","GS","GSold","3","category3/CS8.png","","targets/14.png","indirect","0","4"
"","html-keyboard-response","143","999884","0.0-10.0-0.5","k9vu2hykn8","one_one","1","direct_first","1","er04en28","0","23","1","1","3","1","Die Silben erschienen sehr kurz auf dem Bildschirm, daher war ein Lesen dieser nicht immer gut möglich. ","0","1","0","null","","","<div style=""font-size:60px;"">+</div>","null","","","","","","","","","",""
"","html-keyboard-response","144","999980","0.0-10.0-1.5","k9vu2hykn8","one_one","1","direct_first","1","er04en28","0","23","1","1","3","1","Die Silben erschienen sehr kurz auf dem Bildschirm, daher war ein Lesen dieser nicht immer gut möglich. ","0","1","0","null","","","<img src = 'category1/CS6.png' width = '100%;'>","null","","","","","","","","","",""
"","html-keyboard-response","145","1000237","0.0-10.0-2.5","k9vu2hykn8","one_one","1","direct_first","1","er04en28","0","23","1","1","3","1","Die Silben erschienen sehr kurz auf dem Bildschirm, daher war ein Lesen dieser nicht immer gut möglich. ","0","1","0","null","","","<img src = 'targets/33.png' width = '100%;'>","null","","","","","","","","","",""
"","html-keyboard-response","146","1000774","0.0-10.0-3.5","k9vu2hykn8","one_one","1","direct_first","1","er04en28","0","23","1","1","3","1","Die Silben erschienen sehr kurz auf dem Bildschirm, daher war ein Lesen dieser nicht immer gut möglich. ","0","1","0","535.6049999827519","","","<img src = 'targets/mask.png' width = '100%;'>","75","pos","GS","GSold","1","category1/CS6.png","","targets/33.png","indirect","1","5"
"","html-keyboard-response","147","1002282","0.0-10.0-0.6","k9vu2hykn8","one_one","1","direct_first","1","er04en28","0","23","1","1","3","1","Die Silben erschienen sehr kurz auf dem Bildschirm, daher war ein Lesen dieser nicht immer gut möglich. ","0","1","0","null","","","<div style=""font-size:60px;"">+</div>","null","","","","","","","","","",""
"","html-keyboard-response","148","1002378","0.0-10.0-1.6","k9vu2hykn8","one_one","1","direct_first","1","er04en28","0","23","1","1","3","1","Die Silben erschienen sehr kurz auf dem Bildschirm, daher war ein Lesen dieser nicht immer gut möglich. ","0","1","0","null","","","<img src = 'category3/CS6.png' width = '100%;'>","null","","","","","","","","","",""
"","html-keyboard-response","149","1002635","0.0-10.0-2.6","k9vu2hykn8","one_one","1","direct_first","1","er04en28","0","23","1","1","3","1","Die Silben erschienen sehr kurz auf dem Bildschirm, daher war ein Lesen dieser nicht immer gut möglich. ","0","1","0","null","","","<img src = 'targets/18.png' width = '100%;'>","null","","","","","","","","","",""
"","html-keyboard-response","150","1003045","0.0-10.0-3.6","k9vu2hykn8","one_one","1","direct_first","1","er04en28","0","23","1","1","3","1","Die Silben erschienen sehr kurz auf dem Bildschirm, daher war ein Lesen dieser nicht immer gut möglich. ","0","1","0","408.92499999608845","","","<img src = 'targets/mask.png' width = '100%;'>","68","pos","CS","CS","3","category3/CS6.png","","targets/18.png","indirect","0","6"
"","html-keyboard-response","151","1004555","0.0-10.0-0.7","k9vu2hykn8","one_one","1","direct_first","1","er04en28","0","23","1","1","3","1","Die Silben erschienen sehr kurz auf dem Bildschirm, daher war ein Lesen dieser nicht immer gut möglich. ","0","1","0","null","","","<div style=""font-size:60px;"">+</div>","null","","","","","","","","","",""
"","html-keyboard-response","152","1004647","0.0-10.0-1.7","k9vu2hykn8","one_one","1","direct_first","1","er04en28","0","23","1","1","3","1","Die Silben erschienen sehr kurz auf dem Bildschirm, daher war ein Lesen dieser nicht immer gut möglich. ","0","1","0","null","","","<img src = 'category4/CS8.png' width = '100%;'>","null","","","","","","","","","",""
"","html-keyboard-response","153","1004907","0.0-10.0-2.7","k9vu2hykn8","one_one","1","direct_first","1","er04en28","0","23","1","1","3","1","Die Silben erschienen sehr kurz auf dem Bildschirm, daher war ein Lesen dieser nicht immer gut möglich. ","0","1","0","null","","","<img src = 'targets/15.png' width = '100%;'>","null","","","","","","","","","",""
"","html-keyboard-response","154","1005527","0.0-10.0-3.7","k9vu2hykn8","one_one","1","direct_first","1","er04en28","0","23","1","1","3","1","Die Silben erschienen sehr kurz auf dem Bildschirm, daher war ein Lesen dieser nicht immer gut möglich. ","0","1","0","618.7799999606796","","","<img src = 'targets/mask.png' width = '100%;'>","68","neg","GS","GSold","4","category4/CS8.png","","targets/15.png","indirect","0","7"
"","html-keyboard-response","155","1007035","0.0-10.0-0.8","k9vu2hykn8","one_one","1","direct_first","1","er04en28","0","23","1","1","3","1","Die Silben erschienen sehr kurz auf dem Bildschirm, daher war ein Lesen dieser nicht immer gut möglich. ","0","1","0","null","","","<div style=""font-size:60px;"">+</div>","null","","","","","","","","","",""
"","html-keyboard-response","156","1007128","0.0-10.0-1.8","k9vu2hykn8","one_one","1","direct_first","1","er04en28","0","23","1","1","3","1","Die Silben erschienen sehr kurz auf dem Bildschirm, daher war ein Lesen dieser nicht immer gut möglich. ","0","1","0","null","","","<img src = 'category2/CS1.png' width = '100%;'>","null","","","","","","","","","",""
"","html-keyboard-response","157","1007385","0.0-10.0-2.8","k9vu2hykn8","one_one","1","direct_first","1","er04en28","0","23","1","1","3","1","Die Silben erschienen sehr kurz auf dem Bildschirm, daher war ein Lesen dieser nicht immer gut möglich. ","0","1","0","null","","","<img src = 'targets/28.png' width = '100%;'>","null","","","","","","","","","",""
"","html-keyboard-response","158","1007767","0.0-10.0-3.8","k9vu2hykn8","one_one","1","direct_first","1","er04en28","0","23","1","1","3","1","Die Silben erschienen sehr kurz auf dem Bildschirm, daher war ein Lesen dieser nicht immer gut möglich. ","0","1","0","381.070000003092","","","<img src = 'targets/mask.png' width = '100%;'>","68","neg","GS","GSold","2","category2/CS1.png","","targets/28.png","indirect","0","8"
"","html-keyboard-response","159","1009275","0.0-10.0-0.9","k9vu2hykn8","one_one","1","direct_first","1","er04en28","0","23","1","1","3","1","Die Silben erschienen sehr kurz auf dem Bildschirm, daher war ein Lesen dieser nicht immer gut möglich. ","0","1","0","null","","","<div style=""font-size:60px;"">+</div>","null","","","","","","","","","",""
"","html-keyboard-response","160","1009370","0.0-10.0-1.9","k9vu2hykn8","one_one","1","direct_first","1","er04en28","0","23","1","1","3","1","Die Silben erschienen sehr kurz auf dem Bildschirm, daher war ein Lesen dieser nicht immer gut möglich. ","0","1","0","null","","","<img src = 'category2/CS6.png' width = '100%;'>","null","","","","","","","","","",""
"","html-keyboard-response","161","1009629","0.0-10.0-2.9","k9vu2hykn8","one_one","1","direct_first","1","er04en28","0","23","1","1","3","1","Die Silben erschienen sehr kurz auf dem Bildschirm, daher war ein Lesen dieser nicht immer gut möglich. ","0","1","0","null","","","<img src = 'targets/45.png' width = '100%;'>","null","","","","","","","","","",""
"","html-keyboard-response","162","1010032","0.0-10.0-3.9","k9vu2hykn8","one_one","1","direct_first","1","er04en28","0","23","1","1","3","1","Die Silben erschienen sehr kurz auf dem Bildschirm, daher war ein Lesen dieser nicht immer gut möglich. ","0","1","0","401.85000002384186","","","<img src = 'targets/mask.png' width = '100%;'>","68","neg","CS","CS","2","category2/CS6.png","","targets/45.png","indirect","0","9"
"","html-keyboard-response","163","1011537","0.0-10.0-0.10","k9vu2hykn8","one_one","1","direct_first","1","er04en28","0","23","1","1","3","1","Die Silben erschienen sehr kurz auf dem Bildschirm, daher war ein Lesen dieser nicht immer gut möglich. ","0","1","0","null","","","<div style=""font-size:60px;"">+</div>","null","","","","","","","","","",""
"","html-keyboard-response","164","1011629","0.0-10.0-1.10","k9vu2hykn8","one_one","1","direct_first","1","er04en28","0","23","1","1","3","1","Die Silben erschienen sehr kurz auf dem Bildschirm, daher war ein Lesen dieser nicht immer gut möglich. ","0","1","0","null","","","<img src = 'category4/CS2.png' width = '100%;'>","null","","","","","","","","","",""
"","html-keyboard-response","165","1011890","0.0-10.0-2.10","k9vu2hykn8","one_one","1","direct_first","1","er04en28","0","23","1","1","3","1","Die Silben erschienen sehr kurz auf dem Bildschirm, daher war ein Lesen dieser nicht immer gut möglich. ","0","1","0","null","","","<img src = 'targets/4.png' width = '100%;'>","null","","","","","","","","","",""
"","html-keyboard-response","166","1012398","0.0-10.0-3.10","k9vu2hykn8","one_one","1","direct_first","1","er04en28","0","23","1","1","3","1","Die Silben erschienen sehr kurz auf dem Bildschirm, daher war ein Lesen dieser nicht immer gut möglich. ","0","1","0","507.1600000374019","","","<img src = 'targets/mask.png' width = '100%;'>","75","neg","GS","GSold","4","category4/CS2.png","","targets/4.png","indirect","1","10"
"","html-keyboard-response","167","1013907","0.0-10.0-0.11","k9vu2hykn8","one_one","1","direct_first","1","er04en28","0","23","1","1","3","1","Die Silben erschienen sehr kurz auf dem Bildschirm, daher war ein Lesen dieser nicht immer gut möglich. ","0","1","0","null","","","<div style=""font-size:60px;"">+</div>","null","","","","","","","","","",""
"","html-keyboard-response","168","1013999","0.0-10.0-1.11","k9vu2hykn8","one_one","1","direct_first","1","er04en28","0","23","1","1","3","1","Die Silben erschienen sehr kurz auf dem Bildschirm, daher war ein Lesen dieser nicht immer gut möglich. ","0","1","0","null","","","<img src = 'category3/CS2.png' width = '100%;'>","null","","","","","","","","","",""
"","html-keyboard-response","169","1014261","0.0-10.0-2.11","k9vu2hykn8","one_one","1","direct_first","1","er04en28","0","23","1","1","3","1","Die Silben erschienen sehr kurz auf dem Bildschirm, daher war ein Lesen dieser nicht immer gut möglich. ","0","1","0","null","","","<img src = 'targets/16.png' width = '100%;'>","null","","","","","","","","","",""
"","html-keyboard-response","170","1014927","0.0-10.0-3.11","k9vu2hykn8","one_one","1","direct_first","1","er04en28","0","23","1","1","3","1","Die Silben erschienen sehr kurz auf dem Bildschirm, daher war ein Lesen dieser nicht immer gut möglich. ","0","1","0","665.5650000320747","","","<img src = 'targets/mask.png' width = '100%;'>","68","pos","GS","GSold","3","category3/CS2.png","","targets/16.png","indirect","0","11"
"","html-keyboard-response","171","1016436","0.0-10.0-0.12","k9vu2hykn8","one_one","1","direct_first","1","er04en28","0","23","1","1","3","1","Die Silben erschienen sehr kurz auf dem Bildschirm, daher war ein Lesen dieser nicht immer gut möglich. ","0","1","0","null","","","<div style=""font-size:60px;"">+</div>","null","","","","","","","","","",""
"","html-keyboard-response","172","1016528","0.0-10.0-1.12","k9vu2hykn8","one_one","1","direct_first","1","er04en28","0","23","1","1","3","1","Die Silben erschienen sehr kurz auf dem Bildschirm, daher war ein Lesen dieser nicht immer gut möglich. ","0","1","0","null","","","<img src = 'category2/CS9.png' width = '100%;'>","null","","","","","","","","","",""
"","html-keyboard-response","173","1016785","0.0-10.0-2.12","k9vu2hykn8","one_one","1","direct_first","1","er04en28","0","23","1","1","3","1","Die Silben erschienen sehr kurz auf dem Bildschirm, daher war ein Lesen dieser nicht immer gut möglich. ","0","1","0","null","","","<img src = 'targets/10.png' width = '100%;'>","null","","","","","","","","","",""
"","html-keyboard-response","174","1017579","0.0-10.0-3.12","k9vu2hykn8","one_one","1","direct_first","1","er04en28","0","23","1","1","3","1","Die Silben erschienen sehr kurz auf dem Bildschirm, daher war ein Lesen dieser nicht immer gut möglich. ","0","1","0","793.1049999897368","","","<img src = 'targets/mask.png' width = '100%;'>","75","neg","GS","GSold","2","category2/CS9.png","","targets/10.png","indirect","1","12"
"","html-keyboard-response","175","1019081","0.0-10.0-0.13","k9vu2hykn8","one_one","1","direct_first","1","er04en28","0","23","1","1","3","1","Die Silben erschienen sehr kurz auf dem Bildschirm, daher war ein Lesen dieser nicht immer gut möglich. ","0","1","0","null","","","<div style=""font-size:60px;"">+</div>","null","","","","","","","","","",""
"","html-keyboard-response","176","1019177","0.0-10.0-1.13","k9vu2hykn8","one_one","1","direct_first","1","er04en28","0","23","1","1","3","1","Die Silben erschienen sehr kurz auf dem Bildschirm, daher war ein Lesen dieser nicht immer gut möglich. ","0","1","0","null","","","<img src = 'category1/CS4.png' width = '100%;'>","null","","","","","","","","","",""
"","html-keyboard-response","177","1019437","0.0-10.0-2.13","k9vu2hykn8","one_one","1","direct_first","1","er04en28","0","23","1","1","3","1","Die Silben erschienen sehr kurz auf dem Bildschirm, daher war ein Lesen dieser nicht immer gut möglich. ","0","1","0","null","","","<img src = 'targets/8.png' width = '100%;'>","null","","","","","","","","","",""
"","html-keyboard-response","178","1019985","0.0-10.0-3.13","k9vu2hykn8","one_one","1","direct_first","1","er04en28","0","23","1","1","3","1","Die Silben erschienen sehr kurz auf dem Bildschirm, daher war ein Lesen dieser nicht immer gut möglich. ","0","1","0","546.3599999784492","","","<img src = 'targets/mask.png' width = '100%;'>","75","pos","CS","CS","1","category1/CS4.png","","targets/8.png","indirect","1","13"
"","html-keyboard-response","179","1021495","0.0-10.0-0.14","k9vu2hykn8","one_one","1","direct_first","1","er04en28","0","23","1","1","3","1","Die Silben erschienen sehr kurz auf dem Bildschirm, daher war ein Lesen dieser nicht immer gut möglich. ","0","1","0","null","","","<div style=""font-size:60px;"">+</div>","null","","","","","","","","","",""
"","html-keyboard-response","180","1021591","0.0-10.0-1.14","k9vu2hykn8","one_one","1","direct_first","1","er04en28","0","23","1","1","3","1","Die Silben erschienen sehr kurz auf dem Bildschirm, daher war ein Lesen dieser nicht immer gut möglich. ","0","1","0","null","","","<img src = 'category1/CS7.png' width = '100%;'>","null","","","","","","","","","",""
"","html-keyboard-response","181","1021843","0.0-10.0-2.14","k9vu2hykn8","one_one","1","direct_first","1","er04en28","0","23","1","1","3","1","Die Silben erschienen sehr kurz auf dem Bildschirm, daher war ein Lesen dieser nicht immer gut möglich. ","0","1","0","null","","","<img src = 'targets/38.png' width = '100%;'>","null","","","","","","","","","",""
"","html-keyboard-response","182","1022527","0.0-10.0-3.14","k9vu2hykn8","one_one","1","direct_first","1","er04en28","0","23","1","1","3","1","Die Silben erschienen sehr kurz auf dem Bildschirm, daher war ein Lesen dieser nicht immer gut möglich. ","0","1","0","682.6749999891035","","","<img src = 'targets/mask.png' width = '100%;'>","75","pos","GS","GSold","1","category1/CS7.png","","targets/38.png","indirect","1","14"
"","html-keyboard-response","183","1024034","0.0-10.0-0.15","k9vu2hykn8","one_one","1","direct_first","1","er04en28","0","23","1","1","3","1","Die Silben erschienen sehr kurz auf dem Bildschirm, daher war ein Lesen dieser nicht immer gut möglich. ","0","1","0","null","","","<div style=""font-size:60px;"">+</div>","null","","","","","","","","","",""
"","html-keyboard-response","184","1024129","0.0-10.0-1.15","k9vu2hykn8","one_one","1","direct_first","1","er04en28","0","23","1","1","3","1","Die Silben erschienen sehr kurz auf dem Bildschirm, daher war ein Lesen dieser nicht immer gut möglich. ","0","1","0","null","","","<img src = 'category3/CS4.png' width = '100%;'>","null","","","","","","","","","",""
"","html-keyboard-response","185","1024387","0.0-10.0-2.15","k9vu2hykn8","one_one","1","direct_first","1","er04en28","0","23","1","1","3","1","Die Silben erschienen sehr kurz auf dem Bildschirm, daher war ein Lesen dieser nicht immer gut möglich. ","0","1","0","null","","","<img src = 'targets/48.png' width = '100%;'>","null","","","","","","","","","",""
"","html-keyboard-response","186","1024886","0.0-10.0-3.15","k9vu2hykn8","one_one","1","direct_first","1","er04en28","0","23","1","1","3","1","Die Silben erschienen sehr kurz auf dem Bildschirm, daher war ein Lesen dieser nicht immer gut möglich. ","0","1","0","498.6100000096485","","","<img src = 'targets/mask.png' width = '100%;'>","68","pos","GS","GSold","3","category3/CS4.png","","targets/48.png","indirect","0","15"
"","survey-html-form","187","1027150","0.0-11.0","k9vu2hykn8","one_one","1","direct_first","1","er04en28","0","23","1","1","3","1","Die Silben erschienen sehr kurz auf dem Bildschirm, daher war ein Lesen dieser nicht immer gut möglich. ","0","1","0","1760.840000002645","","{}","","","","","","","","","","","",""
"","html-keyboard-response","188","1030156","0.0-12.0-0.0","k9vu2hykn8","one_one","1","direct_first","1","er04en28","0","23","1","1","3","1","Die Silben erschienen sehr kurz auf dem Bildschirm, daher war ein Lesen dieser nicht immer gut möglich. ","0","1","0","null","","","<div style=""font-size:60px;"">+</div>","null","","","","","","","","","",""
"","html-keyboard-response","189","1030248","0.0-12.0-1.0","k9vu2hykn8","one_one","1","direct_first","1","er04en28","0","23","1","1","3","1","Die Silben erschienen sehr kurz auf dem Bildschirm, daher war ein Lesen dieser nicht immer gut möglich. ","0","1","0","null","","","<img src = 'category2/men.png' width = '100%;'>","null","","","","","","","","","",""
"","html-keyboard-response","190","1030507","0.0-12.0-2.0","k9vu2hykn8","one_one","1","direct_first","1","er04en28","0","23","1","1","3","1","Die Silben erschienen sehr kurz auf dem Bildschirm, daher war ein Lesen dieser nicht immer gut möglich. ","0","1","0","null","","","<img src = 'targets/11.png' width = '100%;'>","null","","","","","","","","","",""
"","html-keyboard-response","191","1031052","0.0-12.0-3.0","k9vu2hykn8","one_one","1","direct_first","1","er04en28","0","23","1","1","3","1","Die Silben erschienen sehr kurz auf dem Bildschirm, daher war ein Lesen dieser nicht immer gut möglich. ","0","1","0","543.8650000141934","","","<img src = 'targets/mask.png' width = '100%;'>","75","neg","GS","abstract","2","category2/men.png","","targets/11.png","indirect","1","16"
"","html-keyboard-response","192","1032558","0.0-12.0-0.1","k9vu2hykn8","one_one","1","direct_first","1","er04en28","0","23","1","1","3","1","Die Silben erschienen sehr kurz auf dem Bildschirm, daher war ein Lesen dieser nicht immer gut möglich. ","0","1","0","null","","","<div style=""font-size:60px;"">+</div>","null","","","","","","","","","",""
"","html-keyboard-response","193","1032653","0.0-12.0-1.1","k9vu2hykn8","one_one","1","direct_first","1","er04en28","0","23","1","1","3","1","Die Silben erschienen sehr kurz auf dem Bildschirm, daher war ein Lesen dieser nicht immer gut möglich. ","0","1","0","null","","","<img src = 'category3/wang.png' width = '100%;'>","null","","","","","","","","","",""
"","html-keyboard-response","194","1032913","0.0-12.0-2.1","k9vu2hykn8","one_one","1","direct_first","1","er04en28","0","23","1","1","3","1","Die Silben erschienen sehr kurz auf dem Bildschirm, daher war ein Lesen dieser nicht immer gut möglich. ","0","1","0","null","","","<img src = 'targets/27.png' width = '100%;'>","null","","","","","","","","","",""
"","html-keyboard-response","195","1033571","0.0-12.0-3.1","k9vu2hykn8","one_one","1","direct_first","1","er04en28","0","23","1","1","3","1","Die Silben erschienen sehr kurz auf dem Bildschirm, daher war ein Lesen dieser nicht immer gut möglich. ","0","1","0","656.9250000175089","","","<img src = 'targets/mask.png' width = '100%;'>","75","pos","GS","abstract","3","category3/wang.png","","targets/27.png","indirect","1","17"
"","html-keyboard-response","196","1035072","0.0-12.0-0.2","k9vu2hykn8","one_one","1","direct_first","1","er04en28","0","23","1","1","3","1","Die Silben erschienen sehr kurz auf dem Bildschirm, daher war ein Lesen dieser nicht immer gut möglich. ","0","1","0","null","","","<div style=""font-size:60px;"">+</div>","null","","","","","","","","","",""
"","html-keyboard-response","197","1035169","0.0-12.0-1.2","k9vu2hykn8","one_one","1","direct_first","1","er04en28","0","23","1","1","3","1","Die Silben erschienen sehr kurz auf dem Bildschirm, daher war ein Lesen dieser nicht immer gut möglich. ","0","1","0","null","","","<img src = 'category1/ma.png' width = '100%;'>","null","","","","","","","","","",""
"","html-keyboard-response","198","1035429","0.0-12.0-2.2","k9vu2hykn8","one_one","1","direct_first","1","er04en28","0","23","1","1","3","1","Die Silben erschienen sehr kurz auf dem Bildschirm, daher war ein Lesen dieser nicht immer gut möglich. ","0","1","0","null","","","<img src = 'targets/43.png' width = '100%;'>","null","","","","","","","","","",""
"","html-keyboard-response","199","1036291","0.0-12.0-3.2","k9vu2hykn8","one_one","1","direct_first","1","er04en28","0","23","1","1","3","1","Die Silben erschienen sehr kurz auf dem Bildschirm, daher war ein Lesen dieser nicht immer gut möglich. ","0","1","0","861.3100000075065","","","<img src = 'targets/mask.png' width = '100%;'>","68","pos","GS","abstract","1","category1/ma.png","","targets/43.png","indirect","0","18"
"","html-keyboard-response","200","1037802","0.0-12.0-0.3","k9vu2hykn8","one_one","1","direct_first","1","er04en28","0","23","1","1","3","1","Die Silben erschienen sehr kurz auf dem Bildschirm, daher war ein Lesen dieser nicht immer gut möglich. ","0","1","0","null","","","<div style=""font-size:60px;"">+</div>","null","","","","","","","","","",""
"","html-keyboard-response","201","1037896","0.0-12.0-1.3","k9vu2hykn8","one_one","1","direct_first","1","er04en28","0","23","1","1","3","1","Die Silben erschienen sehr kurz auf dem Bildschirm, daher war ein Lesen dieser nicht immer gut möglich. ","0","1","0","null","","","<img src = 'category1/GS1.png' width = '100%;'>","null","","","","","","","","","",""
"","html-keyboard-response","202","1038153","0.0-12.0-2.3","k9vu2hykn8","one_one","1","direct_first","1","er04en28","0","23","1","1","3","1","Die Silben erschienen sehr kurz auf dem Bildschirm, daher war ein Lesen dieser nicht immer gut möglich. ","0","1","0","null","","","<img src = 'targets/32.png' width = '100%;'>","null","","","","","","","","","",""
"","html-keyboard-response","203","1038506","0.0-12.0-3.3","k9vu2hykn8","one_one","1","direct_first","1","er04en28","0","23","1","1","3","1","Die Silben erschienen sehr kurz auf dem Bildschirm, daher war ein Lesen dieser nicht immer gut möglich. ","0","1","0","351.1399999842979","","","<img src = 'targets/mask.png' width = '100%;'>","68","pos","GS","GSnew","1","category1/GS1.png","","targets/32.png","indirect","0","19"
"","html-keyboard-response","204","1040015","0.0-12.0-0.4","k9vu2hykn8","one_one","1","direct_first","1","er04en28","0","23","1","1","3","1","Die Silben erschienen sehr kurz auf dem Bildschirm, daher war ein Lesen dieser nicht immer gut möglich. ","0","1","0","null","","","<div style=""font-size:60px;"">+</div>","null","","","","","","","","","",""
"","html-keyboard-response","205","1040106","0.0-12.0-1.4","k9vu2hykn8","one_one","1","direct_first","1","er04en28","0","23","1","1","3","1","Die Silben erschienen sehr kurz auf dem Bildschirm, daher war ein Lesen dieser nicht immer gut möglich. ","0","1","0","null","","","<img src = 'category4/GS1.png' width = '100%;'>","null","","","","","","","","","",""
"","html-keyboard-response","206","1040364","0.0-12.0-2.4","k9vu2hykn8","one_one","1","direct_first","1","er04en28","0","23","1","1","3","1","Die Silben erschienen sehr kurz auf dem Bildschirm, daher war ein Lesen dieser nicht immer gut möglich. ","0","1","0","null","","","<img src = 'targets/34.png' width = '100%;'>","null","","","","","","","","","",""
"","html-keyboard-response","207","1040721","0.0-12.0-3.4","k9vu2hykn8","one_one","1","direct_first","1","er04en28","0","23","1","1","3","1","Die Silben erschienen sehr kurz auf dem Bildschirm, daher war ein Lesen dieser nicht immer gut möglich. ","0","1","0","356.3500000163913","","","<img src = 'targets/mask.png' width = '100%;'>","75","neg","GS","GSnew","4","category4/GS1.png","","targets/34.png","indirect","1","20"
"","html-keyboard-response","208","1042231","0.0-12.0-0.5","k9vu2hykn8","one_one","1","direct_first","1","er04en28","0","23","1","1","3","1","Die Silben erschienen sehr kurz auf dem Bildschirm, daher war ein Lesen dieser nicht immer gut möglich. ","0","1","0","null","","","<div style=""font-size:60px;"">+</div>","null","","","","","","","","","",""
"","html-keyboard-response","209","1042327","0.0-12.0-1.5","k9vu2hykn8","one_one","1","direct_first","1","er04en28","0","23","1","1","3","1","Die Silben erschienen sehr kurz auf dem Bildschirm, daher war ein Lesen dieser nicht immer gut möglich. ","0","1","0","null","","","<img src = 'category3/GS1.png' width = '100%;'>","null","","","","","","","","","",""
"","html-keyboard-response","210","1042589","0.0-12.0-2.5","k9vu2hykn8","one_one","1","direct_first","1","er04en28","0","23","1","1","3","1","Die Silben erschienen sehr kurz auf dem Bildschirm, daher war ein Lesen dieser nicht immer gut möglich. ","0","1","0","null","","","<img src = 'targets/25.png' width = '100%;'>","null","","","","","","","","","",""
"","html-keyboard-response","211","1043253","0.0-12.0-3.5","k9vu2hykn8","one_one","1","direct_first","1","er04en28","0","23","1","1","3","1","Die Silben erschienen sehr kurz auf dem Bildschirm, daher war ein Lesen dieser nicht immer gut möglich. ","0","1","0","663.4350000531413","","","<img src = 'targets/mask.png' width = '100%;'>","75","pos","GS","GSnew","3","category3/GS1.png","","targets/25.png","indirect","1","21"
"","html-keyboard-response","212","1044763","0.0-12.0-0.6","k9vu2hykn8","one_one","1","direct_first","1","er04en28","0","23","1","1","3","1","Die Silben erschienen sehr kurz auf dem Bildschirm, daher war ein Lesen dieser nicht immer gut möglich. ","0","1","0","null","","","<div style=""font-size:60px;"">+</div>","null","","","","","","","","","",""
"","html-keyboard-response","213","1044859","0.0-12.0-1.6","k9vu2hykn8","one_one","1","direct_first","1","er04en28","0","23","1","1","3","1","Die Silben erschienen sehr kurz auf dem Bildschirm, daher war ein Lesen dieser nicht immer gut möglich. ","0","1","0","null","","","<img src = 'category2/GS3.png' width = '100%;'>","null","","","","","","","","","",""
"","html-keyboard-response","214","1045116","0.0-12.0-2.6","k9vu2hykn8","one_one","1","direct_first","1","er04en28","0","23","1","1","3","1","Die Silben erschienen sehr kurz auf dem Bildschirm, daher war ein Lesen dieser nicht immer gut möglich. ","0","1","0","null","","","<img src = 'targets/23.png' width = '100%;'>","null","","","","","","","","","",""
"","html-keyboard-response","215","1045771","0.0-12.0-3.6","k9vu2hykn8","one_one","1","direct_first","1","er04en28","0","23","1","1","3","1","Die Silben erschienen sehr kurz auf dem Bildschirm, daher war ein Lesen dieser nicht immer gut möglich. ","0","1","0","653.8050000090152","","","<img src = 'targets/mask.png' width = '100%;'>","75","neg","GS","GSnew","2","category2/GS3.png","","targets/23.png","indirect","1","22"
"","html-keyboard-response","216","1047279","0.0-12.0-0.7","k9vu2hykn8","one_one","1","direct_first","1","er04en28","0","23","1","1","3","1","Die Silben erschienen sehr kurz auf dem Bildschirm, daher war ein Lesen dieser nicht immer gut möglich. ","0","1","0","null","","","<div style=""font-size:60px;"">+</div>","null","","","","","","","","","",""
"","html-keyboard-response","217","1047372","0.0-12.0-1.7","k9vu2hykn8","one_one","1","direct_first","1","er04en28","0","23","1","1","3","1","Die Silben erschienen sehr kurz auf dem Bildschirm, daher war ein Lesen dieser nicht immer gut möglich. ","0","1","0","null","","","<img src = 'category4/GS3.png' width = '100%;'>","null","","","","","","","","","",""
"","html-keyboard-response","218","1047632","0.0-12.0-2.7","k9vu2hykn8","one_one","1","direct_first","1","er04en28","0","23","1","1","3","1","Die Silben erschienen sehr kurz auf dem Bildschirm, daher war ein Lesen dieser nicht immer gut möglich. ","0","1","0","null","","","<img src = 'targets/17.png' width = '100%;'>","null","","","","","","","","","",""
"","html-keyboard-response","219","1048159","0.0-12.0-3.7","k9vu2hykn8","one_one","1","direct_first","1","er04en28","0","23","1","1","3","1","Die Silben erschienen sehr kurz auf dem Bildschirm, daher war ein Lesen dieser nicht immer gut möglich. ","0","1","0","525.519999966491","","","<img src = 'targets/mask.png' width = '100%;'>","68","neg","GS","GSnew","4","category4/GS3.png","","targets/17.png","indirect","0","23"
"","html-keyboard-response","220","1049667","0.0-12.0-0.8","k9vu2hykn8","one_one","1","direct_first","1","er04en28","0","23","1","1","3","1","Die Silben erschienen sehr kurz auf dem Bildschirm, daher war ein Lesen dieser nicht immer gut möglich. ","0","1","0","null","","","<div style=""font-size:60px;"">+</div>","null","","","","","","","","","",""
"","html-keyboard-response","221","1049759","0.0-12.0-1.8","k9vu2hykn8","one_one","1","direct_first","1","er04en28","0","23","1","1","3","1","Die Silben erschienen sehr kurz auf dem Bildschirm, daher war ein Lesen dieser nicht immer gut möglich. ","0","1","0","null","","","<img src = 'category1/GS3.png' width = '100%;'>","null","","","","","","","","","",""
"","html-keyboard-response","222","1050015","0.0-12.0-2.8","k9vu2hykn8","one_one","1","direct_first","1","er04en28","0","23","1","1","3","1","Die Silben erschienen sehr kurz auf dem Bildschirm, daher war ein Lesen dieser nicht immer gut möglich. ","0","1","0","null","","","<img src = 'targets/42.png' width = '100%;'>","null","","","","","","","","","",""
"","html-keyboard-response","223","1050796","0.0-12.0-3.8","k9vu2hykn8","one_one","1","direct_first","1","er04en28","0","23","1","1","3","1","Die Silben erschienen sehr kurz auf dem Bildschirm, daher war ein Lesen dieser nicht immer gut möglich. ","0","1","0","779.5449999975972","","","<img src = 'targets/mask.png' width = '100%;'>","75","pos","GS","GSnew","1","category1/GS3.png","","targets/42.png","indirect","1","24"
"","html-keyboard-response","224","1052299","0.0-12.0-0.9","k9vu2hykn8","one_one","1","direct_first","1","er04en28","0","23","1","1","3","1","Die Silben erschienen sehr kurz auf dem Bildschirm, daher war ein Lesen dieser nicht immer gut möglich. ","0","1","0","null","","","<div style=""font-size:60px;"">+</div>","null","","","","","","","","","",""
"","html-keyboard-response","225","1052395","0.0-12.0-1.9","k9vu2hykn8","one_one","1","direct_first","1","er04en28","0","23","1","1","3","1","Die Silben erschienen sehr kurz auf dem Bildschirm, daher war ein Lesen dieser nicht immer gut möglich. ","0","1","0","null","","","<img src = 'category4/lin.png' width = '100%;'>","null","","","","","","","","","",""
"","html-keyboard-response","226","1052654","0.0-12.0-2.9","k9vu2hykn8","one_one","1","direct_first","1","er04en28","0","23","1","1","3","1","Die Silben erschienen sehr kurz auf dem Bildschirm, daher war ein Lesen dieser nicht immer gut möglich. ","0","1","0","null","","","<img src = 'targets/7.png' width = '100%;'>","null","","","","","","","","","",""
"","html-keyboard-response","227","1053617","0.0-12.0-3.9","k9vu2hykn8","one_one","1","direct_first","1","er04en28","0","23","1","1","3","1","Die Silben erschienen sehr kurz auf dem Bildschirm, daher war ein Lesen dieser nicht immer gut möglich. ","0","1","0","961.7050000233576","","","<img src = 'targets/mask.png' width = '100%;'>","75","neg","GS","abstract","4","category4/lin.png","","targets/7.png","indirect","1","25"
"","html-keyboard-response","228","1055120","0.0-12.0-0.10","k9vu2hykn8","one_one","1","direct_first","1","er04en28","0","23","1","1","3","1","Die Silben erschienen sehr kurz auf dem Bildschirm, daher war ein Lesen dieser nicht immer gut möglich. ","0","1","0","null","","","<div style=""font-size:60px;"">+</div>","null","","","","","","","","","",""
"","html-keyboard-response","229","1055214","0.0-12.0-1.10","k9vu2hykn8","one_one","1","direct_first","1","er04en28","0","23","1","1","3","1","Die Silben erschienen sehr kurz auf dem Bildschirm, daher war ein Lesen dieser nicht immer gut möglich. ","0","1","0","null","","","<img src = 'category2/GS2.png' width = '100%;'>","null","","","","","","","","","",""
"","html-keyboard-response","230","1055475","0.0-12.0-2.10","k9vu2hykn8","one_one","1","direct_first","1","er04en28","0","23","1","1","3","1","Die Silben erschienen sehr kurz auf dem Bildschirm, daher war ein Lesen dieser nicht immer gut möglich. ","0","1","0","null","","","<img src = 'targets/13.png' width = '100%;'>","null","","","","","","","","","",""
"","html-keyboard-response","231","1056028","0.0-12.0-3.10","k9vu2hykn8","one_one","1","direct_first","1","er04en28","0","23","1","1","3","1","Die Silben erschienen sehr kurz auf dem Bildschirm, daher war ein Lesen dieser nicht immer gut möglich. ","0","1","0","552.8999999514781","","","<img src = 'targets/mask.png' width = '100%;'>","68","neg","GS","GSnew","2","category2/GS2.png","","targets/13.png","indirect","0","26"
"","html-keyboard-response","232","1057533","0.0-12.0-0.11","k9vu2hykn8","one_one","1","direct_first","1","er04en28","0","23","1","1","3","1","Die Silben erschienen sehr kurz auf dem Bildschirm, daher war ein Lesen dieser nicht immer gut möglich. ","0","1","0","null","","","<div style=""font-size:60px;"">+</div>","null","","","","","","","","","",""
"","html-keyboard-response","233","1057629","0.0-12.0-1.11","k9vu2hykn8","one_one","1","direct_first","1","er04en28","0","23","1","1","3","1","Die Silben erschienen sehr kurz auf dem Bildschirm, daher war ein Lesen dieser nicht immer gut möglich. ","0","1","0","null","","","<img src = 'category4/GS2.png' width = '100%;'>","null","","","","","","","","","",""
"","html-keyboard-response","234","1057883","0.0-12.0-2.11","k9vu2hykn8","one_one","1","direct_first","1","er04en28","0","23","1","1","3","1","Die Silben erschienen sehr kurz auf dem Bildschirm, daher war ein Lesen dieser nicht immer gut möglich. ","0","1","0","null","","","<img src = 'targets/44.png' width = '100%;'>","null","","","","","","","","","",""
"","html-keyboard-response","235","1058278","0.0-12.0-3.11","k9vu2hykn8","one_one","1","direct_first","1","er04en28","0","23","1","1","3","1","Die Silben erschienen sehr kurz auf dem Bildschirm, daher war ein Lesen dieser nicht immer gut möglich. ","0","1","0","393.915000022389","","","<img src = 'targets/mask.png' width = '100%;'>","68","neg","GS","GSnew","4","category4/GS2.png","","targets/44.png","indirect","0","27"
