"success","trial_type","trial_index","time_elapsed","internal_node_id","subject","condition","condition_code","measure","measure_code","codeword","gender","age","education","chinese","fach","handedness","comment","hinschauen","ablenkung","gewissenhaft","rt","url","responses","stimulus","key_press","val","type","type_specific","category","cs_selected","response","target","task","indirect","nr_pres"
"true","fullscreen","0","4314","0.0-0.0","chq2uww95p","many_one","0","direct_first","1","er06er30","0","26","2","1","4","1","","0","0","0","","","","","","","","","","","","","","",""
"","external-html","1","50437","0.0-1.0","chq2uww95p","many_one","0","direct_first","1","er06er30","0","26","2","1","4","1","","0","0","0","46060","text/information.html","","","","","","","","","","","","",""
"","external-html","2","72837","0.0-2.0","chq2uww95p","many_one","0","direct_first","1","er06er30","0","26","2","1","4","1","","0","0","0","22311","text/consent.html","","","","","","","","","","","","",""
"","survey-html-form","3","139947","0.0-3.0","chq2uww95p","many_one","0","direct_first","1","er06er30","0","26","2","1","4","1","","0","0","0","67108","","{""codeword_enter"":""er06er30""}","","","","","","","","","","","",""
"","survey-html-form","4","163810","0.0-4.0","chq2uww95p","many_one","0","direct_first","1","er06er30","0","26","2","1","4","1","","0","0","0","23857","","{""age"":""26"",""education"":""2"",""subject"":""4"",""gender"":""0"",""handedness"":""1"",""chinese"":""1""}","","","","","","","","","","","",""
"","survey-html-form","5","181823","0.0-5.0","chq2uww95p","many_one","0","direct_first","1","er06er30","0","26","2","1","4","1","","0","0","0","18013","","{}","","","","","","","","","","","",""
"","html-keyboard-response","6","185838","0.0-6.0-0.0-0.0","chq2uww95p","many_one","0","direct_first","1","er06er30","0","26","2","1","4","1","","0","0","0","null","","","<div class = 'row'><div class = 'column'><img src = 'usneg/9635.2.bmp' width = '100%;'></div><div class = 'column'><img src = 'category2/CS2.png' width = '70%;'></div></div>","null","neg","CS","CS","2","category2/CS2.png","","","","",""
"","html-keyboard-response","7","188378","0.0-6.0-0.0-0.1","chq2uww95p","many_one","0","direct_first","1","er06er30","0","26","2","1","4","1","","0","0","0","null","","","<div class = 'row'><div class = 'column'><img src = 'category3/CS7.png' width = '70%;'></div><div class = 'column'><img src = 'uspos/2550.bmp' width = '100%;'></div></div>","null","pos","CS","CS","3","category3/CS7.png","","","","",""
"","html-keyboard-response","8","190897","0.0-6.0-0.0-0.2","chq2uww95p","many_one","0","direct_first","1","er06er30","0","26","2","1","4","1","","0","0","0","null","","","<div class = 'row'><div class = 'column'><img src = 'category2/CS4.png' width = '70%;'></div><div class = 'column'><img src = 'usneg/9435.bmp' width = '100%;'></div></div>","null","neg","CS","CS","2","category2/CS4.png","","","","",""
"","html-keyboard-response","9","193437","0.0-6.0-0.0-0.3","chq2uww95p","many_one","0","direct_first","1","er06er30","0","26","2","1","4","1","","0","0","0","null","","","<div class = 'row'><div class = 'column'><img src = 'category2/CS8.png' width = '70%;'></div><div class = 'column'><img src = 'usneg/9290.bmp' width = '100%;'></div></div>","null","neg","CS","CS","2","category2/CS8.png","","","","",""
"","html-keyboard-response","10","195968","0.0-6.0-0.0-0.4","chq2uww95p","many_one","0","direct_first","1","er06er30","0","26","2","1","4","1","","0","0","0","null","","","<div class = 'row'><div class = 'column'><img src = 'usneg/9342.bmp' width = '100%;'></div><div class = 'column'><img src = 'category4/CS5.png' width = '70%;'></div></div>","null","neg","CS","CS","4","category4/CS5.png","","","","",""
"","html-keyboard-response","11","198504","0.0-6.0-0.0-0.5","chq2uww95p","many_one","0","direct_first","1","er06er30","0","26","2","1","4","1","","0","0","0","null","","","<div class = 'row'><div class = 'column'><img src = 'uspos/2360.bmp' width = '100%;'></div><div class = 'column'><img src = 'category1/CS5.png' width = '70%;'></div></div>","null","pos","CS","CS","1","category1/CS5.png","","","","",""
"","html-keyboard-response","12","201038","0.0-6.0-0.0-0.6","chq2uww95p","many_one","0","direct_first","1","er06er30","0","26","2","1","4","1","","0","0","0","null","","","<div class = 'row'><div class = 'column'><img src = 'uspos/7580.bmp' width = '100%;'></div><div class = 'column'><img src = 'category3/CS9.png' width = '70%;'></div></div>","null","pos","CS","CS","3","category3/CS9.png","","","","",""
"","html-keyboard-response","13","203578","0.0-6.0-0.0-0.7","chq2uww95p","many_one","0","direct_first","1","er06er30","0","26","2","1","4","1","","0","0","0","null","","","<div class = 'row'><div class = 'column'><img src = 'category1/CS8.png' width = '70%;'></div><div class = 'column'><img src = 'uspos/5621.bmp' width = '100%;'></div></div>","null","pos","CS","CS","1","category1/CS8.png","","","","",""
"","html-keyboard-response","14","206108","0.0-6.0-0.0-0.8","chq2uww95p","many_one","0","direct_first","1","er06er30","0","26","2","1","4","1","","0","0","0","null","","","<div class = 'row'><div class = 'column'><img src = 'usneg/1280.bmp' width = '100%;'></div><div class = 'column'><img src = 'category4/CS1.png' width = '70%;'></div></div>","null","neg","CS","CS","4","category4/CS1.png","","","","",""
"","html-keyboard-response","15","208629","0.0-6.0-0.0-0.9","chq2uww95p","many_one","0","direct_first","1","er06er30","0","26","2","1","4","1","","0","0","0","null","","","<div class = 'row'><div class = 'column'><img src = 'uspos/1440.bmp' width = '100%;'></div><div class = 'column'><img src = 'category3/CS1.png' width = '70%;'></div></div>","null","pos","CS","CS","3","category3/CS1.png","","","","",""
"","html-keyboard-response","16","211168","0.0-6.0-0.0-0.10","chq2uww95p","many_one","0","direct_first","1","er06er30","0","26","2","1","4","1","","0","0","0","null","","","<div class = 'row'><div class = 'column'><img src = 'category3/CS10.png' width = '70%;'></div><div class = 'column'><img src = 'uspos/1460.bmp' width = '100%;'></div></div>","null","pos","CS","CS","3","category3/CS10.png","","","","",""
"","html-keyboard-response","17","213688","0.0-6.0-0.0-0.11","chq2uww95p","many_one","0","direct_first","1","er06er30","0","26","2","1","4","1","","0","0","0","null","","","<div class = 'row'><div class = 'column'><img src = 'uspos/1710.bmp' width = '100%;'></div><div class = 'column'><img src = 'category1/CS1.png' width = '70%;'></div></div>","null","pos","CS","CS","1","category1/CS1.png","","","","",""
"","html-keyboard-response","18","216208","0.0-6.0-0.0-0.12","chq2uww95p","many_one","0","direct_first","1","er06er30","0","26","2","1","4","1","","0","0","0","null","","","<div class = 'row'><div class = 'column'><img src = 'uspos/2165.bmp' width = '100%;'></div><div class = 'column'><img src = 'category3/CS4.png' width = '70%;'></div></div>","null","pos","CS","CS","3","category3/CS4.png","","","","",""
"","html-keyboard-response","19","218748","0.0-6.0-0.0-0.13","chq2uww95p","many_one","0","direct_first","1","er06er30","0","26","2","1","4","1","","0","0","0","null","","","<div class = 'row'><div class = 'column'><img src = 'category4/CS7.png' width = '70%;'></div><div class = 'column'><img src = 'usneg/2750.bmp' width = '100%;'></div></div>","null","neg","CS","CS","4","category4/CS7.png","","","","",""
"","html-keyboard-response","20","221278","0.0-6.0-0.0-0.14","chq2uww95p","many_one","0","direct_first","1","er06er30","0","26","2","1","4","1","","0","0","0","null","","","<div class = 'row'><div class = 'column'><img src = 'category1/CS10.png' width = '70%;'></div><div class = 'column'><img src = 'uspos/2040.bmp' width = '100%;'></div></div>","null","pos","CS","CS","1","category1/CS10.png","","","","",""
"","html-keyboard-response","21","223818","0.0-6.0-0.0-0.15","chq2uww95p","many_one","0","direct_first","1","er06er30","0","26","2","1","4","1","","0","0","0","null","","","<div class = 'row'><div class = 'column'><img src = 'usneg/9421.bmp' width = '100%;'></div><div class = 'column'><img src = 'category4/CS8.png' width = '70%;'></div></div>","null","neg","CS","CS","4","category4/CS8.png","","","","",""
"","html-keyboard-response","22","226354","0.0-6.0-0.0-0.16","chq2uww95p","many_one","0","direct_first","1","er06er30","0","26","2","1","4","1","","0","0","0","null","","","<div class = 'row'><div class = 'column'><img src = 'category2/CS9.png' width = '70%;'></div><div class = 'column'><img src = 'usneg/2141.bmp' width = '100%;'></div></div>","null","neg","CS","CS","2","category2/CS9.png","","","","",""
"","html-keyboard-response","23","228859","0.0-6.0-0.0-0.17","chq2uww95p","many_one","0","direct_first","1","er06er30","0","26","2","1","4","1","","0","0","0","null","","","<div class = 'row'><div class = 'column'><img src = 'usneg/9050.bmp' width = '100%;'></div><div class = 'column'><img src = 'category4/CS10.png' width = '70%;'></div></div>","null","neg","CS","CS","4","category4/CS10.png","","","","",""
"","html-keyboard-response","24","231398","0.0-6.0-0.0-0.18","chq2uww95p","many_one","0","direct_first","1","er06er30","0","26","2","1","4","1","","0","0","0","null","","","<div class = 'row'><div class = 'column'><img src = 'usneg/6212.bmp' width = '100%;'></div><div class = 'column'><img src = 'category2/CS1.png' width = '70%;'></div></div>","null","neg","CS","CS","2","category2/CS1.png","","","","",""
"","html-keyboard-response","25","233938","0.0-6.0-0.0-0.19","chq2uww95p","many_one","0","direct_first","1","er06er30","0","26","2","1","4","1","","0","0","0","null","","","<div class = 'row'><div class = 'column'><img src = 'uspos/2208.bmp' width = '100%;'></div><div class = 'column'><img src = 'category1/CS7.png' width = '70%;'></div></div>","null","pos","CS","CS","1","category1/CS7.png","","","","",""
"","survey-html-form","26","242209","0.0-6.0-1.0","chq2uww95p","many_one","0","direct_first","1","er06er30","0","26","2","1","4","1","","0","0","0","7750","","{}","","","","","","","","","","","",""
"","html-keyboard-response","27","246239","0.0-6.0-2.0-0.0","chq2uww95p","many_one","0","direct_first","1","er06er30","0","26","2","1","4","1","","0","0","0","null","","","<div class = 'row'><div class = 'column'><img src = 'uspos/2040.bmp' width = '100%;'></div><div class = 'column'><img src = 'category1/CS10.png' width = '70%;'></div></div>","null","pos","CS","CS","1","category1/CS10.png","","","","",""
"","html-keyboard-response","28","248768","0.0-6.0-2.0-0.1","chq2uww95p","many_one","0","direct_first","1","er06er30","0","26","2","1","4","1","","0","0","0","null","","","<div class = 'row'><div class = 'column'><img src = 'category1/CS7.png' width = '70%;'></div><div class = 'column'><img src = 'uspos/2208.bmp' width = '100%;'></div></div>","null","pos","CS","CS","1","category1/CS7.png","","","","",""
"","html-keyboard-response","29","251309","0.0-6.0-2.0-0.2","chq2uww95p","many_one","0","direct_first","1","er06er30","0","26","2","1","4","1","","0","0","0","null","","","<div class = 'row'><div class = 'column'><img src = 'category4/CS10.png' width = '70%;'></div><div class = 'column'><img src = 'usneg/9050.bmp' width = '100%;'></div></div>","null","neg","CS","CS","4","category4/CS10.png","","","","",""
"","html-keyboard-response","30","253839","0.0-6.0-2.0-0.3","chq2uww95p","many_one","0","direct_first","1","er06er30","0","26","2","1","4","1","","0","0","0","null","","","<div class = 'row'><div class = 'column'><img src = 'uspos/1440.bmp' width = '100%;'></div><div class = 'column'><img src = 'category3/CS1.png' width = '70%;'></div></div>","null","pos","CS","CS","3","category3/CS1.png","","","","",""
"","html-keyboard-response","31","256359","0.0-6.0-2.0-0.4","chq2uww95p","many_one","0","direct_first","1","er06er30","0","26","2","1","4","1","","0","0","0","null","","","<div class = 'row'><div class = 'column'><img src = 'uspos/2550.bmp' width = '100%;'></div><div class = 'column'><img src = 'category3/CS7.png' width = '70%;'></div></div>","null","pos","CS","CS","3","category3/CS7.png","","","","",""
"","html-keyboard-response","32","258879","0.0-6.0-2.0-0.5","chq2uww95p","many_one","0","direct_first","1","er06er30","0","26","2","1","4","1","","0","0","0","null","","","<div class = 'row'><div class = 'column'><img src = 'category1/CS5.png' width = '70%;'></div><div class = 'column'><img src = 'uspos/2360.bmp' width = '100%;'></div></div>","null","pos","CS","CS","1","category1/CS5.png","","","","",""
"","html-keyboard-response","33","261420","0.0-6.0-2.0-0.6","chq2uww95p","many_one","0","direct_first","1","er06er30","0","26","2","1","4","1","","0","0","0","null","","","<div class = 'row'><div class = 'column'><img src = 'category2/CS9.png' width = '70%;'></div><div class = 'column'><img src = 'usneg/2141.bmp' width = '100%;'></div></div>","null","neg","CS","CS","2","category2/CS9.png","","","","",""
"","html-keyboard-response","34","263959","0.0-6.0-2.0-0.7","chq2uww95p","many_one","0","direct_first","1","er06er30","0","26","2","1","4","1","","0","0","0","null","","","<div class = 'row'><div class = 'column'><img src = 'category4/CS5.png' width = '70%;'></div><div class = 'column'><img src = 'usneg/9342.bmp' width = '100%;'></div></div>","null","neg","CS","CS","4","category4/CS5.png","","","","",""
"","html-keyboard-response","35","266499","0.0-6.0-2.0-0.8","chq2uww95p","many_one","0","direct_first","1","er06er30","0","26","2","1","4","1","","0","0","0","null","","","<div class = 'row'><div class = 'column'><img src = 'category3/CS10.png' width = '70%;'></div><div class = 'column'><img src = 'uspos/1460.bmp' width = '100%;'></div></div>","null","pos","CS","CS","3","category3/CS10.png","","","","",""
"","html-keyboard-response","36","269019","0.0-6.0-2.0-0.9","chq2uww95p","many_one","0","direct_first","1","er06er30","0","26","2","1","4","1","","0","0","0","null","","","<div class = 'row'><div class = 'column'><img src = 'category3/CS4.png' width = '70%;'></div><div class = 'column'><img src = 'uspos/2165.bmp' width = '100%;'></div></div>","null","pos","CS","CS","3","category3/CS4.png","","","","",""
"","html-keyboard-response","37","271550","0.0-6.0-2.0-0.10","chq2uww95p","many_one","0","direct_first","1","er06er30","0","26","2","1","4","1","","0","0","0","null","","","<div class = 'row'><div class = 'column'><img src = 'category4/CS7.png' width = '70%;'></div><div class = 'column'><img src = 'usneg/2750.bmp' width = '100%;'></div></div>","null","neg","CS","CS","4","category4/CS7.png","","","","",""
"","html-keyboard-response","38","274090","0.0-6.0-2.0-0.11","chq2uww95p","many_one","0","direct_first","1","er06er30","0","26","2","1","4","1","","0","0","0","null","","","<div class = 'row'><div class = 'column'><img src = 'category2/CS4.png' width = '70%;'></div><div class = 'column'><img src = 'usneg/9435.bmp' width = '100%;'></div></div>","null","neg","CS","CS","2","category2/CS4.png","","","","",""
"","html-keyboard-response","39","276629","0.0-6.0-2.0-0.12","chq2uww95p","many_one","0","direct_first","1","er06er30","0","26","2","1","4","1","","0","0","0","null","","","<div class = 'row'><div class = 'column'><img src = 'uspos/1710.bmp' width = '100%;'></div><div class = 'column'><img src = 'category1/CS1.png' width = '70%;'></div></div>","null","pos","CS","CS","1","category1/CS1.png","","","","",""
"","html-keyboard-response","40","279150","0.0-6.0-2.0-0.13","chq2uww95p","many_one","0","direct_first","1","er06er30","0","26","2","1","4","1","","0","0","0","null","","","<div class = 'row'><div class = 'column'><img src = 'category2/CS2.png' width = '70%;'></div><div class = 'column'><img src = 'usneg/9635.2.bmp' width = '100%;'></div></div>","null","neg","CS","CS","2","category2/CS2.png","","","","",""
"","html-keyboard-response","41","281690","0.0-6.0-2.0-0.14","chq2uww95p","many_one","0","direct_first","1","er06er30","0","26","2","1","4","1","","0","0","0","null","","","<div class = 'row'><div class = 'column'><img src = 'category3/CS9.png' width = '70%;'></div><div class = 'column'><img src = 'uspos/7580.bmp' width = '100%;'></div></div>","null","pos","CS","CS","3","category3/CS9.png","","","","",""
"","html-keyboard-response","42","284229","0.0-6.0-2.0-0.15","chq2uww95p","many_one","0","direct_first","1","er06er30","0","26","2","1","4","1","","0","0","0","null","","","<div class = 'row'><div class = 'column'><img src = 'category1/CS8.png' width = '70%;'></div><div class = 'column'><img src = 'uspos/5621.bmp' width = '100%;'></div></div>","null","pos","CS","CS","1","category1/CS8.png","","","","",""
"","html-keyboard-response","43","286749","0.0-6.0-2.0-0.16","chq2uww95p","many_one","0","direct_first","1","er06er30","0","26","2","1","4","1","","0","0","0","null","","","<div class = 'row'><div class = 'column'><img src = 'usneg/9290.bmp' width = '100%;'></div><div class = 'column'><img src = 'category2/CS8.png' width = '70%;'></div></div>","null","neg","CS","CS","2","category2/CS8.png","","","","",""
"","html-keyboard-response","44","289290","0.0-6.0-2.0-0.17","chq2uww95p","many_one","0","direct_first","1","er06er30","0","26","2","1","4","1","","0","0","0","null","","","<div class = 'row'><div class = 'column'><img src = 'category2/CS1.png' width = '70%;'></div><div class = 'column'><img src = 'usneg/6212.bmp' width = '100%;'></div></div>","null","neg","CS","CS","2","category2/CS1.png","","","","",""
"","html-keyboard-response","45","291809","0.0-6.0-2.0-0.18","chq2uww95p","many_one","0","direct_first","1","er06er30","0","26","2","1","4","1","","0","0","0","null","","","<div class = 'row'><div class = 'column'><img src = 'usneg/1280.bmp' width = '100%;'></div><div class = 'column'><img src = 'category4/CS1.png' width = '70%;'></div></div>","null","neg","CS","CS","4","category4/CS1.png","","","","",""
"","html-keyboard-response","46","294330","0.0-6.0-2.0-0.19","chq2uww95p","many_one","0","direct_first","1","er06er30","0","26","2","1","4","1","","0","0","0","null","","","<div class = 'row'><div class = 'column'><img src = 'category4/CS8.png' width = '70%;'></div><div class = 'column'><img src = 'usneg/9421.bmp' width = '100%;'></div></div>","null","neg","CS","CS","4","category4/CS8.png","","","","",""
"","survey-html-form","47","312197","0.0-6.0-3.0","chq2uww95p","many_one","0","direct_first","1","er06er30","0","26","2","1","4","1","","0","0","0","17367","","{}","","","","","","","","","","","",""
"","html-keyboard-response","48","316221","0.0-6.0-4.0-0.0","chq2uww95p","many_one","0","direct_first","1","er06er30","0","26","2","1","4","1","","0","0","0","null","","","<div class = 'row'><div class = 'column'><img src = 'category1/CS7.png' width = '70%;'></div><div class = 'column'><img src = 'uspos/2208.bmp' width = '100%;'></div></div>","null","pos","CS","CS","1","category1/CS7.png","","","","",""
"","html-keyboard-response","49","318761","0.0-6.0-4.0-0.1","chq2uww95p","many_one","0","direct_first","1","er06er30","0","26","2","1","4","1","","0","0","0","null","","","<div class = 'row'><div class = 'column'><img src = 'category4/CS7.png' width = '70%;'></div><div class = 'column'><img src = 'usneg/2750.bmp' width = '100%;'></div></div>","null","neg","CS","CS","4","category4/CS7.png","","","","",""
"","html-keyboard-response","50","321301","0.0-6.0-4.0-0.2","chq2uww95p","many_one","0","direct_first","1","er06er30","0","26","2","1","4","1","","0","0","0","null","","","<div class = 'row'><div class = 'column'><img src = 'category2/CS8.png' width = '70%;'></div><div class = 'column'><img src = 'usneg/9290.bmp' width = '100%;'></div></div>","null","neg","CS","CS","2","category2/CS8.png","","","","",""
"","html-keyboard-response","51","323841","0.0-6.0-4.0-0.3","chq2uww95p","many_one","0","direct_first","1","er06er30","0","26","2","1","4","1","","0","0","0","null","","","<div class = 'row'><div class = 'column'><img src = 'category4/CS5.png' width = '70%;'></div><div class = 'column'><img src = 'usneg/9342.bmp' width = '100%;'></div></div>","null","neg","CS","CS","4","category4/CS5.png","","","","",""
"","html-keyboard-response","52","326381","0.0-6.0-4.0-0.4","chq2uww95p","many_one","0","direct_first","1","er06er30","0","26","2","1","4","1","","0","0","0","null","","","<div class = 'row'><div class = 'column'><img src = 'uspos/1440.bmp' width = '100%;'></div><div class = 'column'><img src = 'category3/CS1.png' width = '70%;'></div></div>","null","pos","CS","CS","3","category3/CS1.png","","","","",""
"","html-keyboard-response","53","328921","0.0-6.0-4.0-0.5","chq2uww95p","many_one","0","direct_first","1","er06er30","0","26","2","1","4","1","","0","0","0","null","","","<div class = 'row'><div class = 'column'><img src = 'usneg/9050.bmp' width = '100%;'></div><div class = 'column'><img src = 'category4/CS10.png' width = '70%;'></div></div>","null","neg","CS","CS","4","category4/CS10.png","","","","",""
"","html-keyboard-response","54","331450","0.0-6.0-4.0-0.6","chq2uww95p","many_one","0","direct_first","1","er06er30","0","26","2","1","4","1","","0","0","0","null","","","<div class = 'row'><div class = 'column'><img src = 'category1/CS5.png' width = '70%;'></div><div class = 'column'><img src = 'uspos/2360.bmp' width = '100%;'></div></div>","null","pos","CS","CS","1","category1/CS5.png","","","","",""
"","html-keyboard-response","55","333991","0.0-6.0-4.0-0.7","chq2uww95p","many_one","0","direct_first","1","er06er30","0","26","2","1","4","1","","0","0","0","null","","","<div class = 'row'><div class = 'column'><img src = 'uspos/2040.bmp' width = '100%;'></div><div class = 'column'><img src = 'category1/CS10.png' width = '70%;'></div></div>","null","pos","CS","CS","1","category1/CS10.png","","","","",""
"","html-keyboard-response","56","336521","0.0-6.0-4.0-0.8","chq2uww95p","many_one","0","direct_first","1","er06er30","0","26","2","1","4","1","","0","0","0","null","","","<div class = 'row'><div class = 'column'><img src = 'category2/CS2.png' width = '70%;'></div><div class = 'column'><img src = 'usneg/9635.2.bmp' width = '100%;'></div></div>","null","neg","CS","CS","2","category2/CS2.png","","","","",""
"","html-keyboard-response","57","339061","0.0-6.0-4.0-0.9","chq2uww95p","many_one","0","direct_first","1","er06er30","0","26","2","1","4","1","","0","0","0","null","","","<div class = 'row'><div class = 'column'><img src = 'uspos/1710.bmp' width = '100%;'></div><div class = 'column'><img src = 'category1/CS1.png' width = '70%;'></div></div>","null","pos","CS","CS","1","category1/CS1.png","","","","",""
"","html-keyboard-response","58","341571","0.0-6.0-4.0-0.10","chq2uww95p","many_one","0","direct_first","1","er06er30","0","26","2","1","4","1","","0","0","0","null","","","<div class = 'row'><div class = 'column'><img src = 'category2/CS4.png' width = '70%;'></div><div class = 'column'><img src = 'usneg/9435.bmp' width = '100%;'></div></div>","null","neg","CS","CS","2","category2/CS4.png","","","","",""
"","html-keyboard-response","59","344111","0.0-6.0-4.0-0.11","chq2uww95p","many_one","0","direct_first","1","er06er30","0","26","2","1","4","1","","0","0","0","null","","","<div class = 'row'><div class = 'column'><img src = 'category1/CS8.png' width = '70%;'></div><div class = 'column'><img src = 'uspos/5621.bmp' width = '100%;'></div></div>","null","pos","CS","CS","1","category1/CS8.png","","","","",""
"","html-keyboard-response","60","346651","0.0-6.0-4.0-0.12","chq2uww95p","many_one","0","direct_first","1","er06er30","0","26","2","1","4","1","","0","0","0","null","","","<div class = 'row'><div class = 'column'><img src = 'usneg/2141.bmp' width = '100%;'></div><div class = 'column'><img src = 'category2/CS9.png' width = '70%;'></div></div>","null","neg","CS","CS","2","category2/CS9.png","","","","",""
"","html-keyboard-response","61","349191","0.0-6.0-4.0-0.13","chq2uww95p","many_one","0","direct_first","1","er06er30","0","26","2","1","4","1","","0","0","0","null","","","<div class = 'row'><div class = 'column'><img src = 'category4/CS8.png' width = '70%;'></div><div class = 'column'><img src = 'usneg/9421.bmp' width = '100%;'></div></div>","null","neg","CS","CS","4","category4/CS8.png","","","","",""
"","html-keyboard-response","62","351701","0.0-6.0-4.0-0.14","chq2uww95p","many_one","0","direct_first","1","er06er30","0","26","2","1","4","1","","0","0","0","null","","","<div class = 'row'><div class = 'column'><img src = 'category4/CS1.png' width = '70%;'></div><div class = 'column'><img src = 'usneg/1280.bmp' width = '100%;'></div></div>","null","neg","CS","CS","4","category4/CS1.png","","","","",""
"","html-keyboard-response","63","354221","0.0-6.0-4.0-0.15","chq2uww95p","many_one","0","direct_first","1","er06er30","0","26","2","1","4","1","","0","0","0","null","","","<div class = 'row'><div class = 'column'><img src = 'category3/CS10.png' width = '70%;'></div><div class = 'column'><img src = 'uspos/1460.bmp' width = '100%;'></div></div>","null","pos","CS","CS","3","category3/CS10.png","","","","",""
"","html-keyboard-response","64","356741","0.0-6.0-4.0-0.16","chq2uww95p","many_one","0","direct_first","1","er06er30","0","26","2","1","4","1","","0","0","0","null","","","<div class = 'row'><div class = 'column'><img src = 'uspos/7580.bmp' width = '100%;'></div><div class = 'column'><img src = 'category3/CS9.png' width = '70%;'></div></div>","null","pos","CS","CS","3","category3/CS9.png","","","","",""
"","html-keyboard-response","65","359262","0.0-6.0-4.0-0.17","chq2uww95p","many_one","0","direct_first","1","er06er30","0","26","2","1","4","1","","0","0","0","null","","","<div class = 'row'><div class = 'column'><img src = 'category3/CS7.png' width = '70%;'></div><div class = 'column'><img src = 'uspos/2550.bmp' width = '100%;'></div></div>","null","pos","CS","CS","3","category3/CS7.png","","","","",""
"","html-keyboard-response","66","361802","0.0-6.0-4.0-0.18","chq2uww95p","many_one","0","direct_first","1","er06er30","0","26","2","1","4","1","","0","0","0","null","","","<div class = 'row'><div class = 'column'><img src = 'category2/CS1.png' width = '70%;'></div><div class = 'column'><img src = 'usneg/6212.bmp' width = '100%;'></div></div>","null","neg","CS","CS","2","category2/CS1.png","","","","",""
"","html-keyboard-response","67","364341","0.0-6.0-4.0-0.19","chq2uww95p","many_one","0","direct_first","1","er06er30","0","26","2","1","4","1","","0","0","0","null","","","<div class = 'row'><div class = 'column'><img src = 'category3/CS4.png' width = '70%;'></div><div class = 'column'><img src = 'uspos/2165.bmp' width = '100%;'></div></div>","null","pos","CS","CS","3","category3/CS4.png","","","","",""
"","survey-html-form","68","369621","0.0-6.0-5.0","chq2uww95p","many_one","0","direct_first","1","er06er30","0","26","2","1","4","1","","0","0","0","4769","","{}","","","","","","","","","","","",""
"","html-keyboard-response","69","373652","0.0-6.0-6.0-0.0","chq2uww95p","many_one","0","direct_first","1","er06er30","0","26","2","1","4","1","","0","0","0","null","","","<div class = 'row'><div class = 'column'><img src = 'category4/CS10.png' width = '70%;'></div><div class = 'column'><img src = 'usneg/9050.bmp' width = '100%;'></div></div>","null","neg","CS","CS","4","category4/CS10.png","","","","",""
"","html-keyboard-response","70","376172","0.0-6.0-6.0-0.1","chq2uww95p","many_one","0","direct_first","1","er06er30","0","26","2","1","4","1","","0","0","0","null","","","<div class = 'row'><div class = 'column'><img src = 'usneg/9435.bmp' width = '100%;'></div><div class = 'column'><img src = 'category2/CS4.png' width = '70%;'></div></div>","null","neg","CS","CS","2","category2/CS4.png","","","","",""
"","html-keyboard-response","71","378702","0.0-6.0-6.0-0.2","chq2uww95p","many_one","0","direct_first","1","er06er30","0","26","2","1","4","1","","0","0","0","null","","","<div class = 'row'><div class = 'column'><img src = 'uspos/2040.bmp' width = '100%;'></div><div class = 'column'><img src = 'category1/CS10.png' width = '70%;'></div></div>","null","pos","CS","CS","1","category1/CS10.png","","","","",""
"","html-keyboard-response","72","381222","0.0-6.0-6.0-0.3","chq2uww95p","many_one","0","direct_first","1","er06er30","0","26","2","1","4","1","","0","0","0","null","","","<div class = 'row'><div class = 'column'><img src = 'category1/CS8.png' width = '70%;'></div><div class = 'column'><img src = 'uspos/5621.bmp' width = '100%;'></div></div>","null","pos","CS","CS","1","category1/CS8.png","","","","",""
"","html-keyboard-response","73","383762","0.0-6.0-6.0-0.4","chq2uww95p","many_one","0","direct_first","1","er06er30","0","26","2","1","4","1","","0","0","0","null","","","<div class = 'row'><div class = 'column'><img src = 'usneg/2750.bmp' width = '100%;'></div><div class = 'column'><img src = 'category4/CS7.png' width = '70%;'></div></div>","null","neg","CS","CS","4","category4/CS7.png","","","","",""
"","html-keyboard-response","74","386303","0.0-6.0-6.0-0.5","chq2uww95p","many_one","0","direct_first","1","er06er30","0","26","2","1","4","1","","0","0","0","null","","","<div class = 'row'><div class = 'column'><img src = 'category2/CS1.png' width = '70%;'></div><div class = 'column'><img src = 'usneg/6212.bmp' width = '100%;'></div></div>","null","neg","CS","CS","2","category2/CS1.png","","","","",""
"","html-keyboard-response","75","388838","0.0-6.0-6.0-0.6","chq2uww95p","many_one","0","direct_first","1","er06er30","0","26","2","1","4","1","","0","0","0","null","","","<div class = 'row'><div class = 'column'><img src = 'category4/CS1.png' width = '70%;'></div><div class = 'column'><img src = 'usneg/1280.bmp' width = '100%;'></div></div>","null","neg","CS","CS","4","category4/CS1.png","","","","",""
"","html-keyboard-response","76","391342","0.0-6.0-6.0-0.7","chq2uww95p","many_one","0","direct_first","1","er06er30","0","26","2","1","4","1","","0","0","0","null","","","<div class = 'row'><div class = 'column'><img src = 'usneg/9421.bmp' width = '100%;'></div><div class = 'column'><img src = 'category4/CS8.png' width = '70%;'></div></div>","null","neg","CS","CS","4","category4/CS8.png","","","","",""
"","html-keyboard-response","77","393842","0.0-6.0-6.0-0.8","chq2uww95p","many_one","0","direct_first","1","er06er30","0","26","2","1","4","1","","0","0","0","null","","","<div class = 'row'><div class = 'column'><img src = 'uspos/2550.bmp' width = '100%;'></div><div class = 'column'><img src = 'category3/CS7.png' width = '70%;'></div></div>","null","pos","CS","CS","3","category3/CS7.png","","","","",""
"","html-keyboard-response","78","396363","0.0-6.0-6.0-0.9","chq2uww95p","many_one","0","direct_first","1","er06er30","0","26","2","1","4","1","","0","0","0","null","","","<div class = 'row'><div class = 'column'><img src = 'category2/CS2.png' width = '70%;'></div><div class = 'column'><img src = 'usneg/9635.2.bmp' width = '100%;'></div></div>","null","neg","CS","CS","2","category2/CS2.png","","","","",""
"","html-keyboard-response","79","398902","0.0-6.0-6.0-0.10","chq2uww95p","many_one","0","direct_first","1","er06er30","0","26","2","1","4","1","","0","0","0","null","","","<div class = 'row'><div class = 'column'><img src = 'usneg/9290.bmp' width = '100%;'></div><div class = 'column'><img src = 'category2/CS8.png' width = '70%;'></div></div>","null","neg","CS","CS","2","category2/CS8.png","","","","",""
"","html-keyboard-response","80","401443","0.0-6.0-6.0-0.11","chq2uww95p","many_one","0","direct_first","1","er06er30","0","26","2","1","4","1","","0","0","0","null","","","<div class = 'row'><div class = 'column'><img src = 'usneg/2141.bmp' width = '100%;'></div><div class = 'column'><img src = 'category2/CS9.png' width = '70%;'></div></div>","null","neg","CS","CS","2","category2/CS9.png","","","","",""
"","html-keyboard-response","81","403963","0.0-6.0-6.0-0.12","chq2uww95p","many_one","0","direct_first","1","er06er30","0","26","2","1","4","1","","0","0","0","null","","","<div class = 'row'><div class = 'column'><img src = 'uspos/1460.bmp' width = '100%;'></div><div class = 'column'><img src = 'category3/CS10.png' width = '70%;'></div></div>","null","pos","CS","CS","3","category3/CS10.png","","","","",""
"","html-keyboard-response","82","406502","0.0-6.0-6.0-0.13","chq2uww95p","many_one","0","direct_first","1","er06er30","0","26","2","1","4","1","","0","0","0","null","","","<div class = 'row'><div class = 'column'><img src = 'uspos/2360.bmp' width = '100%;'></div><div class = 'column'><img src = 'category1/CS5.png' width = '70%;'></div></div>","null","pos","CS","CS","1","category1/CS5.png","","","","",""
"","html-keyboard-response","83","409043","0.0-6.0-6.0-0.14","chq2uww95p","many_one","0","direct_first","1","er06er30","0","26","2","1","4","1","","0","0","0","null","","","<div class = 'row'><div class = 'column'><img src = 'category4/CS5.png' width = '70%;'></div><div class = 'column'><img src = 'usneg/9342.bmp' width = '100%;'></div></div>","null","neg","CS","CS","4","category4/CS5.png","","","","",""
"","html-keyboard-response","84","411583","0.0-6.0-6.0-0.15","chq2uww95p","many_one","0","direct_first","1","er06er30","0","26","2","1","4","1","","0","0","0","null","","","<div class = 'row'><div class = 'column'><img src = 'category3/CS4.png' width = '70%;'></div><div class = 'column'><img src = 'uspos/2165.bmp' width = '100%;'></div></div>","null","pos","CS","CS","3","category3/CS4.png","","","","",""
"","html-keyboard-response","85","414103","0.0-6.0-6.0-0.16","chq2uww95p","many_one","0","direct_first","1","er06er30","0","26","2","1","4","1","","0","0","0","null","","","<div class = 'row'><div class = 'column'><img src = 'category1/CS1.png' width = '70%;'></div><div class = 'column'><img src = 'uspos/1710.bmp' width = '100%;'></div></div>","null","pos","CS","CS","1","category1/CS1.png","","","","",""
"","html-keyboard-response","86","416643","0.0-6.0-6.0-0.17","chq2uww95p","many_one","0","direct_first","1","er06er30","0","26","2","1","4","1","","0","0","0","null","","","<div class = 'row'><div class = 'column'><img src = 'uspos/2208.bmp' width = '100%;'></div><div class = 'column'><img src = 'category1/CS7.png' width = '70%;'></div></div>","null","pos","CS","CS","1","category1/CS7.png","","","","",""
"","html-keyboard-response","87","419183","0.0-6.0-6.0-0.18","chq2uww95p","many_one","0","direct_first","1","er06er30","0","26","2","1","4","1","","0","0","0","null","","","<div class = 'row'><div class = 'column'><img src = 'uspos/7580.bmp' width = '100%;'></div><div class = 'column'><img src = 'category3/CS9.png' width = '70%;'></div></div>","null","pos","CS","CS","3","category3/CS9.png","","","","",""
"","html-keyboard-response","88","421703","0.0-6.0-6.0-0.19","chq2uww95p","many_one","0","direct_first","1","er06er30","0","26","2","1","4","1","","0","0","0","null","","","<div class = 'row'><div class = 'column'><img src = 'category3/CS1.png' width = '70%;'></div><div class = 'column'><img src = 'uspos/1440.bmp' width = '100%;'></div></div>","null","pos","CS","CS","3","category3/CS1.png","","","","",""
"","survey-html-form","89","446086","0.0-7.0","chq2uww95p","many_one","0","direct_first","1","er06er30","0","26","2","1","4","1","","0","0","0","23863","","{}","","","","","","","","","","","",""
"","image-slider-response","90","458038","0.0-8.0-0.0","chq2uww95p","many_one","0","direct_first","1","er06er30","0","26","2","1","4","1","","0","0","0","9930","","","","","neg","GS","GSnew","4","category4/GS1.png","25","targets/29.png","direct","",""
"","image-slider-response","91","463854","0.0-8.0-0.1","chq2uww95p","many_one","0","direct_first","1","er06er30","0","26","2","1","4","1","","0","0","0","5815","","","","","pos","GS","GSnew","1","category1/GS3.png","36","targets/40.png","direct","",""
"","image-slider-response","92","468126","0.0-8.0-0.2","chq2uww95p","many_one","0","direct_first","1","er06er30","0","26","2","1","4","1","","0","0","0","4270","","","","","neg","GS","GSold","2","category2/CS7.png","13","targets/47.png","direct","",""
"","image-slider-response","93","473134","0.0-8.0-0.3","chq2uww95p","many_one","0","direct_first","1","er06er30","0","26","2","1","4","1","","0","0","0","5007","","","","","pos","CS","CS","3","category3/CS7.png","8","targets/19.png","direct","",""
"","image-slider-response","94","477662","0.0-8.0-0.4","chq2uww95p","many_one","0","direct_first","1","er06er30","0","26","2","1","4","1","","0","0","0","4526","","","","","neg","GS","GSold","4","category4/CS3.png","-4","targets/26.png","direct","",""
"","image-slider-response","95","483942","0.0-8.0-0.5","chq2uww95p","many_one","0","direct_first","1","er06er30","0","26","2","1","4","1","","0","0","0","6277","","","","","pos","GS","GSold","1","category1/CS4.png","16","targets/44.png","direct","",""
"","image-slider-response","96","491295","0.0-8.0-0.6","chq2uww95p","many_one","0","direct_first","1","er06er30","0","26","2","1","4","1","","0","0","0","7351","","","","","pos","GS","GSnew","1","category1/GS1.png","35","targets/33.png","direct","",""
"","image-slider-response","97","495710","0.0-8.0-0.7","chq2uww95p","many_one","0","direct_first","1","er06er30","0","26","2","1","4","1","","0","0","0","4415","","","","","neg","GS","GSnew","4","category4/GS2.png","-12","targets/18.png","direct","",""
"","image-slider-response","98","501823","0.0-8.0-0.8","chq2uww95p","many_one","0","direct_first","1","er06er30","0","26","2","1","4","1","","0","0","0","6111","","","","","pos","GS","GSnew","3","category3/GS2.png","-3","targets/17.png","direct","",""
"","image-slider-response","99","504983","0.0-8.0-0.9","chq2uww95p","many_one","0","direct_first","1","er06er30","0","26","2","1","4","1","","0","0","0","3157","","","","","neg","CS","CS","4","category4/CS7.png","-6","targets/14.png","direct","",""
"","image-slider-response","100","508847","0.0-8.0-0.10","chq2uww95p","many_one","0","direct_first","1","er06er30","0","26","2","1","4","1","","0","0","0","3861","","","","","neg","GS","abstract","4","category4/lin.png","-5","targets/15.png","direct","",""
"","image-slider-response","101","514807","0.0-8.0-0.11","chq2uww95p","many_one","0","direct_first","1","er06er30","0","26","2","1","4","1","","0","0","0","5957","","","","","pos","CS","CS","1","category1/CS1.png","7","targets/4.png","direct","",""
"","image-slider-response","102","521904","0.0-8.0-0.12","chq2uww95p","many_one","0","direct_first","1","er06er30","0","26","2","1","4","1","","0","0","0","7095","","","","","neg","GS","GSold","4","category4/CS2.png","-5","targets/37.png","direct","",""
"","image-slider-response","103","525751","0.0-8.0-0.13","chq2uww95p","many_one","0","direct_first","1","er06er30","0","26","2","1","4","1","","0","0","0","3846","","","","","neg","GS","GSnew","2","category2/GS2.png","-14","targets/7.png","direct","",""
"","image-slider-response","104","531024","0.0-8.0-0.14","chq2uww95p","many_one","0","direct_first","1","er06er30","0","26","2","1","4","1","","0","0","0","5270","","","","","neg","CS","CS","2","category2/CS9.png","-23","targets/13.png","direct","",""
"","image-slider-response","105","535336","0.0-8.0-0.15","chq2uww95p","many_one","0","direct_first","1","er06er30","0","26","2","1","4","1","","0","0","0","4310","","","","","neg","GS","GSnew","2","category2/GS3.png","-27","targets/12.png","direct","",""
"","image-slider-response","106","538184","0.0-8.0-0.16","chq2uww95p","many_one","0","direct_first","1","er06er30","0","26","2","1","4","1","","0","0","0","2847","","","","","neg","GS","GSnew","4","category4/GS3.png","-8","targets/24.png","direct","",""
"","image-slider-response","107","542335","0.0-8.0-0.17","chq2uww95p","many_one","0","direct_first","1","er06er30","0","26","2","1","4","1","","0","0","0","4149","","","","","pos","GS","abstract","3","category3/wang.png","36","targets/21.png","direct","",""
"","image-slider-response","108","545872","0.0-8.0-0.18","chq2uww95p","many_one","0","direct_first","1","er06er30","0","26","2","1","4","1","","0","0","0","3534","","","","","pos","CS","CS","1","category1/CS10.png","29","targets/16.png","direct","",""
"","image-slider-response","109","549192","0.0-8.0-0.19","chq2uww95p","many_one","0","direct_first","1","er06er30","0","26","2","1","4","1","","0","0","0","3318","","","","","neg","CS","CS","2","category2/CS4.png","-8","targets/8.png","direct","",""
"","image-slider-response","110","552512","0.0-8.0-0.20","chq2uww95p","many_one","0","direct_first","1","er06er30","0","26","2","1","4","1","","0","0","0","3319","","","","","neg","GS","GSnew","2","category2/GS1.png","-20","targets/48.png","direct","",""
"","image-slider-response","111","556904","0.0-8.0-0.21","chq2uww95p","many_one","0","direct_first","1","er06er30","0","26","2","1","4","1","","0","0","0","4391","","","","","pos","GS","GSold","3","category3/CS5.png","35","targets/23.png","direct","",""
"","image-slider-response","112","560016","0.0-8.0-0.22","chq2uww95p","many_one","0","direct_first","1","er06er30","0","26","2","1","4","1","","0","0","0","3110","","","","","neg","GS","GSold","2","category2/CS5.png","-3","targets/32.png","direct","",""
"","image-slider-response","113","563129","0.0-8.0-0.23","chq2uww95p","many_one","0","direct_first","1","er06er30","0","26","2","1","4","1","","0","0","0","3110","","","","","neg","CS","CS","2","category2/CS8.png","-7","targets/3.png","direct","",""
"","image-slider-response","114","566792","0.0-8.0-0.24","chq2uww95p","many_one","0","direct_first","1","er06er30","0","26","2","1","4","1","","0","0","0","3662","","","","","pos","CS","CS","3","category3/CS4.png","-15","targets/36.png","direct","",""
"","image-slider-response","115","570353","0.0-8.0-0.25","chq2uww95p","many_one","0","direct_first","1","er06er30","0","26","2","1","4","1","","0","0","0","3558","","","","","neg","GS","abstract","2","category2/men.png","11","targets/5.png","direct","",""
"","image-slider-response","116","573944","0.0-8.0-0.26","chq2uww95p","many_one","0","direct_first","1","er06er30","0","26","2","1","4","1","","0","0","0","3590","","","","","neg","CS","CS","4","category4/CS1.png","-10","targets/22.png","direct","",""
"","image-slider-response","117","583865","0.0-8.0-0.27","chq2uww95p","many_one","0","direct_first","1","er06er30","0","26","2","1","4","1","","0","0","0","9919","","","","","pos","CS","CS","1","category1/CS5.png","-8","targets/35.png","direct","",""
"","image-slider-response","118","588648","0.0-8.0-0.28","chq2uww95p","many_one","0","direct_first","1","er06er30","0","26","2","1","4","1","","0","0","0","4782","","","","","pos","CS","CS","1","category1/CS8.png","-8","targets/6.png","direct","",""
"","image-slider-response","119","593217","0.0-8.0-0.29","chq2uww95p","many_one","0","direct_first","1","er06er30","0","26","2","1","4","1","","0","0","0","4566","","","","","neg","CS","CS","2","category2/CS2.png","5","targets/42.png","direct","",""
"","image-slider-response","120","597673","0.0-8.0-0.30","chq2uww95p","many_one","0","direct_first","1","er06er30","0","26","2","1","4","1","","0","0","0","4453","","","","","pos","GS","GSold","1","category1/CS9.png","-6","targets/11.png","direct","",""
"","image-slider-response","121","602913","0.0-8.0-0.31","chq2uww95p","many_one","0","direct_first","1","er06er30","0","26","2","1","4","1","","0","0","0","5239","","","","","neg","CS","CS","4","category4/CS5.png","-11","targets/41.png","direct","",""
"","image-slider-response","122","611106","0.0-8.0-0.32","chq2uww95p","many_one","0","direct_first","1","er06er30","0","26","2","1","4","1","","0","0","0","8191","","","","","pos","GS","GSnew","3","category3/GS3.png","22","targets/30.png","direct","",""
"","image-slider-response","123","617106","0.0-8.0-0.33","chq2uww95p","many_one","0","direct_first","1","er06er30","0","26","2","1","4","1","","0","0","0","5998","","","","","neg","CS","CS","2","category2/CS1.png","-10","targets/2.png","direct","",""
"","image-slider-response","124","625362","0.0-8.0-0.34","chq2uww95p","many_one","0","direct_first","1","er06er30","0","26","2","1","4","1","","0","0","0","8255","","","","","pos","GS","GSold","1","category1/CS6.png","-21","targets/45.png","direct","",""
"","image-slider-response","125","630841","0.0-8.0-0.35","chq2uww95p","many_one","0","direct_first","1","er06er30","0","26","2","1","4","1","","0","0","0","5478","","","","","pos","CS","CS","3","category3/CS9.png","42","targets/9.png","direct","",""
"","image-slider-response","126","638874","0.0-8.0-0.36","chq2uww95p","many_one","0","direct_first","1","er06er30","0","26","2","1","4","1","","0","0","0","8029","","","","","pos","CS","CS","3","category3/CS1.png","26","targets/10.png","direct","",""
"","image-slider-response","127","642826","0.0-8.0-0.37","chq2uww95p","many_one","0","direct_first","1","er06er30","0","26","2","1","4","1","","0","0","0","3950","","","","","pos","GS","abstract","1","category1/ma.png","6","targets/46.png","direct","",""
"","image-slider-response","128","648602","0.0-8.0-0.38","chq2uww95p","many_one","0","direct_first","1","er06er30","0","26","2","1","4","1","","0","0","0","5774","","","","","pos","GS","GSnew","1","category1/GS2.png","1","targets/28.png","direct","",""
"","image-slider-response","129","657770","0.0-8.0-0.39","chq2uww95p","many_one","0","direct_first","1","er06er30","0","26","2","1","4","1","","0","0","0","9165","","","","","neg","CS","CS","4","category4/CS10.png","-11","targets/39.png","direct","",""
"","image-slider-response","130","670722","0.0-8.0-0.40","chq2uww95p","many_one","0","direct_first","1","er06er30","0","26","2","1","4","1","","0","0","0","12950","","","","","pos","GS","GSnew","3","category3/GS1.png","2","targets/38.png","direct","",""
"","image-slider-response","131","682075","0.0-8.0-0.41","chq2uww95p","many_one","0","direct_first","1","er06er30","0","26","2","1","4","1","","0","0","0","11351","","","","","pos","GS","GSold","3","category3/CS8.png","48","targets/20.png","direct","",""
"","image-slider-response","132","692379","0.0-8.0-0.42","chq2uww95p","many_one","0","direct_first","1","er06er30","0","26","2","1","4","1","","0","0","0","10303","","","","","neg","GS","GSold","4","category4/CS9.png","-12","targets/43.png","direct","",""
"","image-slider-response","133","695715","0.0-8.0-0.43","chq2uww95p","many_one","0","direct_first","1","er06er30","0","26","2","1","4","1","","0","0","0","3335","","","","","neg","GS","GSold","2","category2/CS6.png","-4","targets/27.png","direct","",""
"","image-slider-response","134","715796","0.0-8.0-0.44","chq2uww95p","many_one","0","direct_first","1","er06er30","0","26","2","1","4","1","","0","0","0","20078","","","","","pos","CS","CS","3","category3/CS10.png","-15","targets/34.png","direct","",""
"","image-slider-response","135","719812","0.0-8.0-0.45","chq2uww95p","many_one","0","direct_first","1","er06er30","0","26","2","1","4","1","","0","0","0","4014","","","","","pos","GS","GSold","3","category3/CS2.png","10","targets/31.png","direct","",""
"","image-slider-response","136","734412","0.0-8.0-0.46","chq2uww95p","many_one","0","direct_first","1","er06er30","0","26","2","1","4","1","","0","0","0","14599","","","","","neg","CS","CS","4","category4/CS8.png","11","targets/1.png","direct","",""
"","image-slider-response","137","739964","0.0-8.0-0.47","chq2uww95p","many_one","0","direct_first","1","er06er30","0","26","2","1","4","1","","0","0","0","5550","","","","","pos","CS","CS","1","category1/CS7.png","-16","targets/25.png","direct","",""
"","html-keyboard-response","138","837117","0.0-9.0","chq2uww95p","many_one","0","direct_first","1","er06er30","0","26","2","1","4","1","","0","0","0","97151","","","<p>Sie sehen nun die chinesischen Zeichen nur ganz kurz. Danach sehen Sie die jeweilige Aussprache der Zeichen als Silbe auf dem Bildschrim. Ihre Aufgabe ist es, für jede Silbe anzugeben, ob diese etwas angenehmes, oder unangenehmes bedeuten könnte. Verlassen Sie sich hier vor allem auf Ihre Intuition.<br><br>Die Zeichen werden nur zur Orientierung dargestellt, beachten Sie sie deshalb nicht. Konzentrieren Sie sich vor allem auf die Silben. <br>Reagieren Sie mit folgenden zwei Tasten: <br><br><b>'D' </b> wenn die Silbe etwas <b>unangenehmes</b> bedeuten könnte. <br><b>'K'</b> wenn die Silbe etwas <b>angenehmes</b> bedeuten könnte. <br><br>Bitte legen Sie nun den Zeigefinger der linken Hand auf die Taste 'D' und den Zeigefinger der rechten Hand auf die Taste 'K'. <br>Reagieren Sie auf jede Silbe so schnell wie möglich. Uns interessiert Ihre spontane Reaktion. <br> <br> <br>Drücken Sie 'D' oder 'K', um die nächste Aufgabe zu starten. </p>","75","","","","","","","","","",""
"","html-keyboard-response","139","840137","0.0-10.0-0.0","chq2uww95p","many_one","0","direct_first","1","er06er30","0","26","2","1","4","1","","0","0","0","null","","","<div style=""font-size:60px;"">+</div>","null","","","","","","","","","",""
"","html-keyboard-response","140","840239","0.0-10.0-1.0","chq2uww95p","many_one","0","direct_first","1","er06er30","0","26","2","1","4","1","","0","0","0","null","","","<img src = 'category1/CS1.png' width = '100%;'>","null","","","","","","","","","",""
"","html-keyboard-response","141","840522","0.0-10.0-2.0","chq2uww95p","many_one","0","direct_first","1","er06er30","0","26","2","1","4","1","","0","0","0","null","","","<img src = 'targets/4.png' width = '100%;'>","null","","","","","","","","","",""
"","html-keyboard-response","142","843136","0.0-10.0-3.0","chq2uww95p","many_one","0","direct_first","1","er06er30","0","26","2","1","4","1","","0","0","0","2611","","","<img src = 'targets/mask.png' width = '100%;'>","75","pos","CS","CS","1","category1/CS1.png","","targets/4.png","indirect","1","0"
"","html-keyboard-response","143","844662","0.0-10.0-0.1","chq2uww95p","many_one","0","direct_first","1","er06er30","0","26","2","1","4","1","","0","0","0","null","","","<div style=""font-size:60px;"">+</div>","null","","","","","","","","","",""
"","html-keyboard-response","144","844762","0.0-10.0-1.1","chq2uww95p","many_one","0","direct_first","1","er06er30","0","26","2","1","4","1","","0","0","0","null","","","<img src = 'category2/CS2.png' width = '100%;'>","null","","","","","","","","","",""
"","html-keyboard-response","145","845042","0.0-10.0-2.1","chq2uww95p","many_one","0","direct_first","1","er06er30","0","26","2","1","4","1","","0","0","0","null","","","<img src = 'targets/42.png' width = '100%;'>","null","","","","","","","","","",""
"","html-keyboard-response","146","846348","0.0-10.0-3.1","chq2uww95p","many_one","0","direct_first","1","er06er30","0","26","2","1","4","1","","0","0","0","1305","","","<img src = 'targets/mask.png' width = '100%;'>","68","neg","CS","CS","2","category2/CS2.png","","targets/42.png","indirect","0","1"
"","html-keyboard-response","147","847883","0.0-10.0-0.2","chq2uww95p","many_one","0","direct_first","1","er06er30","0","26","2","1","4","1","","0","0","0","null","","","<div style=""font-size:60px;"">+</div>","null","","","","","","","","","",""
"","html-keyboard-response","148","847982","0.0-10.0-1.2","chq2uww95p","many_one","0","direct_first","1","er06er30","0","26","2","1","4","1","","0","0","0","null","","","<img src = 'category1/CS9.png' width = '100%;'>","null","","","","","","","","","",""
"","html-keyboard-response","149","848263","0.0-10.0-2.2","chq2uww95p","many_one","0","direct_first","1","er06er30","0","26","2","1","4","1","","0","0","0","null","","","<img src = 'targets/11.png' width = '100%;'>","null","","","","","","","","","",""
"","html-keyboard-response","150","849409","0.0-10.0-3.2","chq2uww95p","many_one","0","direct_first","1","er06er30","0","26","2","1","4","1","","0","0","0","1145","","","<img src = 'targets/mask.png' width = '100%;'>","68","pos","GS","GSold","1","category1/CS9.png","","targets/11.png","indirect","0","2"
"","html-keyboard-response","151","850943","0.0-10.0-0.3","chq2uww95p","many_one","0","direct_first","1","er06er30","0","26","2","1","4","1","","0","0","0","null","","","<div style=""font-size:60px;"">+</div>","null","","","","","","","","","",""
"","html-keyboard-response","152","851042","0.0-10.0-1.3","chq2uww95p","many_one","0","direct_first","1","er06er30","0","26","2","1","4","1","","0","0","0","null","","","<img src = 'category4/CS8.png' width = '100%;'>","null","","","","","","","","","",""
"","html-keyboard-response","153","851322","0.0-10.0-2.3","chq2uww95p","many_one","0","direct_first","1","er06er30","0","26","2","1","4","1","","0","0","0","null","","","<img src = 'targets/1.png' width = '100%;'>","null","","","","","","","","","",""
"","html-keyboard-response","154","853504","0.0-10.0-3.3","chq2uww95p","many_one","0","direct_first","1","er06er30","0","26","2","1","4","1","","0","0","0","2181","","","<img src = 'targets/mask.png' width = '100%;'>","68","neg","CS","CS","4","category4/CS8.png","","targets/1.png","indirect","0","3"
"","html-keyboard-response","155","855033","0.0-10.0-0.4","chq2uww95p","many_one","0","direct_first","1","er06er30","0","26","2","1","4","1","","0","0","0","null","","","<div style=""font-size:60px;"">+</div>","null","","","","","","","","","",""
"","html-keyboard-response","156","855133","0.0-10.0-1.4","chq2uww95p","many_one","0","direct_first","1","er06er30","0","26","2","1","4","1","","0","0","0","null","","","<img src = 'category4/CS7.png' width = '100%;'>","null","","","","","","","","","",""
"","html-keyboard-response","157","855413","0.0-10.0-2.4","chq2uww95p","many_one","0","direct_first","1","er06er30","0","26","2","1","4","1","","0","0","0","null","","","<img src = 'targets/14.png' width = '100%;'>","null","","","","","","","","","",""
"","html-keyboard-response","158","858242","0.0-10.0-3.4","chq2uww95p","many_one","0","direct_first","1","er06er30","0","26","2","1","4","1","","0","0","0","2828","","","<img src = 'targets/mask.png' width = '100%;'>","68","neg","CS","CS","4","category4/CS7.png","","targets/14.png","indirect","0","4"
"","html-keyboard-response","159","859773","0.0-10.0-0.5","chq2uww95p","many_one","0","direct_first","1","er06er30","0","26","2","1","4","1","","0","0","0","null","","","<div style=""font-size:60px;"">+</div>","null","","","","","","","","","",""
"","html-keyboard-response","160","859873","0.0-10.0-1.5","chq2uww95p","many_one","0","direct_first","1","er06er30","0","26","2","1","4","1","","0","0","0","null","","","<img src = 'category2/CS1.png' width = '100%;'>","null","","","","","","","","","",""
"","html-keyboard-response","161","860153","0.0-10.0-2.5","chq2uww95p","many_one","0","direct_first","1","er06er30","0","26","2","1","4","1","","0","0","0","null","","","<img src = 'targets/2.png' width = '100%;'>","null","","","","","","","","","",""
"","html-keyboard-response","162","862419","0.0-10.0-3.5","chq2uww95p","many_one","0","direct_first","1","er06er30","0","26","2","1","4","1","","0","0","0","2265","","","<img src = 'targets/mask.png' width = '100%;'>","75","neg","CS","CS","2","category2/CS1.png","","targets/2.png","indirect","1","5"
"","html-keyboard-response","163","863943","0.0-10.0-0.6","chq2uww95p","many_one","0","direct_first","1","er06er30","0","26","2","1","4","1","","0","0","0","null","","","<div style=""font-size:60px;"">+</div>","null","","","","","","","","","",""
"","html-keyboard-response","164","864043","0.0-10.0-1.6","chq2uww95p","many_one","0","direct_first","1","er06er30","0","26","2","1","4","1","","0","0","0","null","","","<img src = 'category2/CS6.png' width = '100%;'>","null","","","","","","","","","",""
"","html-keyboard-response","165","864323","0.0-10.0-2.6","chq2uww95p","many_one","0","direct_first","1","er06er30","0","26","2","1","4","1","","0","0","0","null","","","<img src = 'targets/27.png' width = '100%;'>","null","","","","","","","","","",""
"","html-keyboard-response","166","865592","0.0-10.0-3.6","chq2uww95p","many_one","0","direct_first","1","er06er30","0","26","2","1","4","1","","0","0","0","1269","","","<img src = 'targets/mask.png' width = '100%;'>","75","neg","GS","GSold","2","category2/CS6.png","","targets/27.png","indirect","1","6"
"","html-keyboard-response","167","867103","0.0-10.0-0.7","chq2uww95p","many_one","0","direct_first","1","er06er30","0","26","2","1","4","1","","0","0","0","null","","","<div style=""font-size:60px;"">+</div>","null","","","","","","","","","",""
"","html-keyboard-response","168","867203","0.0-10.0-1.7","chq2uww95p","many_one","0","direct_first","1","er06er30","0","26","2","1","4","1","","0","0","0","null","","","<img src = 'category2/CS7.png' width = '100%;'>","null","","","","","","","","","",""
"","html-keyboard-response","169","867483","0.0-10.0-2.7","chq2uww95p","many_one","0","direct_first","1","er06er30","0","26","2","1","4","1","","0","0","0","null","","","<img src = 'targets/47.png' width = '100%;'>","null","","","","","","","","","",""
"","html-keyboard-response","170","871717","0.0-10.0-3.7","chq2uww95p","many_one","0","direct_first","1","er06er30","0","26","2","1","4","1","","0","0","0","4233","","","<img src = 'targets/mask.png' width = '100%;'>","75","neg","GS","GSold","2","category2/CS7.png","","targets/47.png","indirect","1","7"
"","html-keyboard-response","171","873243","0.0-10.0-0.8","chq2uww95p","many_one","0","direct_first","1","er06er30","0","26","2","1","4","1","","0","0","0","null","","","<div style=""font-size:60px;"">+</div>","null","","","","","","","","","",""
"","html-keyboard-response","172","873343","0.0-10.0-1.8","chq2uww95p","many_one","0","direct_first","1","er06er30","0","26","2","1","4","1","","0","0","0","null","","","<img src = 'category1/CS10.png' width = '100%;'>","null","","","","","","","","","",""
"","html-keyboard-response","173","873623","0.0-10.0-2.8","chq2uww95p","many_one","0","direct_first","1","er06er30","0","26","2","1","4","1","","0","0","0","null","","","<img src = 'targets/16.png' width = '100%;'>","null","","","","","","","","","",""
"","html-keyboard-response","174","875113","0.0-10.0-3.8","chq2uww95p","many_one","0","direct_first","1","er06er30","0","26","2","1","4","1","","0","0","0","1490","","","<img src = 'targets/mask.png' width = '100%;'>","68","pos","CS","CS","1","category1/CS10.png","","targets/16.png","indirect","0","8"
"","html-keyboard-response","175","876643","0.0-10.0-0.9","chq2uww95p","many_one","0","direct_first","1","er06er30","0","26","2","1","4","1","","0","0","0","null","","","<div style=""font-size:60px;"">+</div>","null","","","","","","","","","",""
"","html-keyboard-response","176","876743","0.0-10.0-1.9","chq2uww95p","many_one","0","direct_first","1","er06er30","0","26","2","1","4","1","","0","0","0","null","","","<img src = 'category2/CS4.png' width = '100%;'>","null","","","","","","","","","",""
"","html-keyboard-response","177","877023","0.0-10.0-2.9","chq2uww95p","many_one","0","direct_first","1","er06er30","0","26","2","1","4","1","","0","0","0","null","","","<img src = 'targets/8.png' width = '100%;'>","null","","","","","","","","","",""
"","html-keyboard-response","178","878273","0.0-10.0-3.9","chq2uww95p","many_one","0","direct_first","1","er06er30","0","26","2","1","4","1","","0","0","0","1248","","","<img src = 'targets/mask.png' width = '100%;'>","75","neg","CS","CS","2","category2/CS4.png","","targets/8.png","indirect","1","9"
"","html-keyboard-response","179","879800","0.0-10.0-0.10","chq2uww95p","many_one","0","direct_first","1","er06er30","0","26","2","1","4","1","","0","0","0","null","","","<div style=""font-size:60px;"">+</div>","null","","","","","","","","","",""
"","html-keyboard-response","180","879900","0.0-10.0-1.10","chq2uww95p","many_one","0","direct_first","1","er06er30","0","26","2","1","4","1","","0","0","0","null","","","<img src = 'category4/CS10.png' width = '100%;'>","null","","","","","","","","","",""
"","html-keyboard-response","181","880183","0.0-10.0-2.10","chq2uww95p","many_one","0","direct_first","1","er06er30","0","26","2","1","4","1","","0","0","0","null","","","<img src = 'targets/39.png' width = '100%;'>","null","","","","","","","","","",""
"","html-keyboard-response","182","882655","0.0-10.0-3.10","chq2uww95p","many_one","0","direct_first","1","er06er30","0","26","2","1","4","1","","0","0","0","2472","","","<img src = 'targets/mask.png' width = '100%;'>","68","neg","CS","CS","4","category4/CS10.png","","targets/39.png","indirect","0","10"
"","html-keyboard-response","183","884183","0.0-10.0-0.11","chq2uww95p","many_one","0","direct_first","1","er06er30","0","26","2","1","4","1","","0","0","0","null","","","<div style=""font-size:60px;"">+</div>","null","","","","","","","","","",""
"","html-keyboard-response","184","884283","0.0-10.0-1.11","chq2uww95p","many_one","0","direct_first","1","er06er30","0","26","2","1","4","1","","0","0","0","null","","","<img src = 'category3/CS4.png' width = '100%;'>","null","","","","","","","","","",""
"","html-keyboard-response","185","884563","0.0-10.0-2.11","chq2uww95p","many_one","0","direct_first","1","er06er30","0","26","2","1","4","1","","0","0","0","null","","","<img src = 'targets/36.png' width = '100%;'>","null","","","","","","","","","",""
"","html-keyboard-response","186","886047","0.0-10.0-3.11","chq2uww95p","many_one","0","direct_first","1","er06er30","0","26","2","1","4","1","","0","0","0","1483","","","<img src = 'targets/mask.png' width = '100%;'>","75","pos","CS","CS","3","category3/CS4.png","","targets/36.png","indirect","1","11"
"","html-keyboard-response","187","887564","0.0-10.0-0.12","chq2uww95p","many_one","0","direct_first","1","er06er30","0","26","2","1","4","1","","0","0","0","null","","","<div style=""font-size:60px;"">+</div>","null","","","","","","","","","",""
"","html-keyboard-response","188","887664","0.0-10.0-1.12","chq2uww95p","many_one","0","direct_first","1","er06er30","0","26","2","1","4","1","","0","0","0","null","","","<img src = 'category2/CS9.png' width = '100%;'>","null","","","","","","","","","",""
"","html-keyboard-response","189","887943","0.0-10.0-2.12","chq2uww95p","many_one","0","direct_first","1","er06er30","0","26","2","1","4","1","","0","0","0","null","","","<img src = 'targets/13.png' width = '100%;'>","null","","","","","","","","","",""
"","html-keyboard-response","190","890269","0.0-10.0-3.12","chq2uww95p","many_one","0","direct_first","1","er06er30","0","26","2","1","4","1","","0","0","0","2325","","","<img src = 'targets/mask.png' width = '100%;'>","75","neg","CS","CS","2","category2/CS9.png","","targets/13.png","indirect","1","12"
"","html-keyboard-response","191","891803","0.0-10.0-0.13","chq2uww95p","many_one","0","direct_first","1","er06er30","0","26","2","1","4","1","","0","0","0","null","","","<div style=""font-size:60px;"">+</div>","null","","","","","","","","","",""
"","html-keyboard-response","192","891904","0.0-10.0-1.13","chq2uww95p","many_one","0","direct_first","1","er06er30","0","26","2","1","4","1","","0","0","0","null","","","<img src = 'category1/CS5.png' width = '100%;'>","null","","","","","","","","","",""
"","html-keyboard-response","193","892184","0.0-10.0-2.13","chq2uww95p","many_one","0","direct_first","1","er06er30","0","26","2","1","4","1","","0","0","0","null","","","<img src = 'targets/35.png' width = '100%;'>","null","","","","","","","","","",""
"","html-keyboard-response","194","895455","0.0-10.0-3.13","chq2uww95p","many_one","0","direct_first","1","er06er30","0","26","2","1","4","1","","0","0","0","3271","","","<img src = 'targets/mask.png' width = '100%;'>","75","pos","CS","CS","1","category1/CS5.png","","targets/35.png","indirect","1","13"
"","html-keyboard-response","195","896984","0.0-10.0-0.14","chq2uww95p","many_one","0","direct_first","1","er06er30","0","26","2","1","4","1","","0","0","0","null","","","<div style=""font-size:60px;"">+</div>","null","","","","","","","","","",""
"","html-keyboard-response","196","897084","0.0-10.0-1.14","chq2uww95p","many_one","0","direct_first","1","er06er30","0","26","2","1","4","1","","0","0","0","null","","","<img src = 'category4/CS1.png' width = '100%;'>","null","","","","","","","","","",""
"","html-keyboard-response","197","897363","0.0-10.0-2.14","chq2uww95p","many_one","0","direct_first","1","er06er30","0","26","2","1","4","1","","0","0","0","null","","","<img src = 'targets/22.png' width = '100%;'>","null","","","","","","","","","",""
"","html-keyboard-response","198","899959","0.0-10.0-3.14","chq2uww95p","many_one","0","direct_first","1","er06er30","0","26","2","1","4","1","","0","0","0","2595","","","<img src = 'targets/mask.png' width = '100%;'>","68","neg","CS","CS","4","category4/CS1.png","","targets/22.png","indirect","0","14"
"","html-keyboard-response","199","901464","0.0-10.0-0.15","chq2uww95p","many_one","0","direct_first","1","er06er30","0","26","2","1","4","1","","0","0","0","null","","","<div style=""font-size:60px;"">+</div>","null","","","","","","","","","",""
"","html-keyboard-response","200","901565","0.0-10.0-1.15","chq2uww95p","many_one","0","direct_first","1","er06er30","0","26","2","1","4","1","","0","0","0","null","","","<img src = 'category3/CS9.png' width = '100%;'>","null","","","","","","","","","",""
"","html-keyboard-response","201","901844","0.0-10.0-2.15","chq2uww95p","many_one","0","direct_first","1","er06er30","0","26","2","1","4","1","","0","0","0","null","","","<img src = 'targets/9.png' width = '100%;'>","null","","","","","","","","","",""
"","html-keyboard-response","202","911779","0.0-10.0-3.15","chq2uww95p","many_one","0","direct_first","1","er06er30","0","26","2","1","4","1","","0","0","0","9934","","","<img src = 'targets/mask.png' width = '100%;'>","75","pos","CS","CS","3","category3/CS9.png","","targets/9.png","indirect","1","15"
"","html-keyboard-response","203","913294","0.0-10.0-0.16","chq2uww95p","many_one","0","direct_first","1","er06er30","0","26","2","1","4","1","","0","0","0","null","","","<div style=""font-size:60px;"">+</div>","null","","","","","","","","","",""
"","html-keyboard-response","204","913394","0.0-10.0-1.16","chq2uww95p","many_one","0","direct_first","1","er06er30","0","26","2","1","4","1","","0","0","0","null","","","<img src = 'category3/CS1.png' width = '100%;'>","null","","","","","","","","","",""
"","html-keyboard-response","205","913674","0.0-10.0-2.16","chq2uww95p","many_one","0","direct_first","1","er06er30","0","26","2","1","4","1","","0","0","0","null","","","<img src = 'targets/10.png' width = '100%;'>","null","","","","","","","","","",""
"","html-keyboard-response","206","914864","0.0-10.0-3.16","chq2uww95p","many_one","0","direct_first","1","er06er30","0","26","2","1","4","1","","0","0","0","1190","","","<img src = 'targets/mask.png' width = '100%;'>","75","pos","CS","CS","3","category3/CS1.png","","targets/10.png","indirect","1","16"
"","html-keyboard-response","207","916375","0.0-10.0-0.17","chq2uww95p","many_one","0","direct_first","1","er06er30","0","26","2","1","4","1","","0","0","0","null","","","<div style=""font-size:60px;"">+</div>","null","","","","","","","","","",""
"","html-keyboard-response","208","916475","0.0-10.0-1.17","chq2uww95p","many_one","0","direct_first","1","er06er30","0","26","2","1","4","1","","0","0","0","null","","","<img src = 'category3/CS7.png' width = '100%;'>","null","","","","","","","","","",""
"","html-keyboard-response","209","916754","0.0-10.0-2.17","chq2uww95p","many_one","0","direct_first","1","er06er30","0","26","2","1","4","1","","0","0","0","null","","","<img src = 'targets/19.png' width = '100%;'>","null","","","","","","","","","",""
"","html-keyboard-response","210","917323","0.0-10.0-3.17","chq2uww95p","many_one","0","direct_first","1","er06er30","0","26","2","1","4","1","","0","0","0","568","","","<img src = 'targets/mask.png' width = '100%;'>","68","pos","CS","CS","3","category3/CS7.png","","targets/19.png","indirect","0","17"
"","html-keyboard-response","211","918855","0.0-10.0-0.18","chq2uww95p","many_one","0","direct_first","1","er06er30","0","26","2","1","4","1","","0","0","0","null","","","<div style=""font-size:60px;"">+</div>","null","","","","","","","","","",""
"","html-keyboard-response","212","918954","0.0-10.0-1.18","chq2uww95p","many_one","0","direct_first","1","er06er30","0","26","2","1","4","1","","0","0","0","null","","","<img src = 'category2/CS8.png' width = '100%;'>","null","","","","","","","","","",""
"","html-keyboard-response","213","919234","0.0-10.0-2.18","chq2uww95p","many_one","0","direct_first","1","er06er30","0","26","2","1","4","1","","0","0","0","null","","","<img src = 'targets/3.png' width = '100%;'>","null","","","","","","","","","",""
"","html-keyboard-response","214","920906","0.0-10.0-3.18","chq2uww95p","many_one","0","direct_first","1","er06er30","0","26","2","1","4","1","","0","0","0","1672","","","<img src = 'targets/mask.png' width = '100%;'>","75","neg","CS","CS","2","category2/CS8.png","","targets/3.png","indirect","1","18"
"","html-keyboard-response","215","922434","0.0-10.0-0.19","chq2uww95p","many_one","0","direct_first","1","er06er30","0","26","2","1","4","1","","0","0","0","null","","","<div style=""font-size:60px;"">+</div>","null","","","","","","","","","",""
"","html-keyboard-response","216","922535","0.0-10.0-1.19","chq2uww95p","many_one","0","direct_first","1","er06er30","0","26","2","1","4","1","","0","0","0","null","","","<img src = 'category1/CS8.png' width = '100%;'>","null","","","","","","","","","",""
"","html-keyboard-response","217","922815","0.0-10.0-2.19","chq2uww95p","many_one","0","direct_first","1","er06er30","0","26","2","1","4","1","","0","0","0","null","","","<img src = 'targets/6.png' width = '100%;'>","null","","","","","","","","","",""
"","html-keyboard-response","218","923880","0.0-10.0-3.19","chq2uww95p","many_one","0","direct_first","1","er06er30","0","26","2","1","4","1","","0","0","0","1066","","","<img src = 'targets/mask.png' width = '100%;'>","75","pos","CS","CS","1","category1/CS8.png","","targets/6.png","indirect","1","19"
"","html-keyboard-response","219","925415","0.0-10.0-0.20","chq2uww95p","many_one","0","direct_first","1","er06er30","0","26","2","1","4","1","","0","0","0","null","","","<div style=""font-size:60px;"">+</div>","null","","","","","","","","","",""
"","html-keyboard-response","220","925514","0.0-10.0-1.20","chq2uww95p","many_one","0","direct_first","1","er06er30","0","26","2","1","4","1","","0","0","0","null","","","<img src = 'category3/CS10.png' width = '100%;'>","null","","","","","","","","","",""
"","html-keyboard-response","221","925794","0.0-10.0-2.20","chq2uww95p","many_one","0","direct_first","1","er06er30","0","26","2","1","4","1","","0","0","0","null","","","<img src = 'targets/34.png' width = '100%;'>","null","","","","","","","","","",""
"","html-keyboard-response","222","926645","0.0-10.0-3.20","chq2uww95p","many_one","0","direct_first","1","er06er30","0","26","2","1","4","1","","0","0","0","850","","","<img src = 'targets/mask.png' width = '100%;'>","75","pos","CS","CS","3","category3/CS10.png","","targets/34.png","indirect","1","20"
"","html-keyboard-response","223","928155","0.0-10.0-0.21","chq2uww95p","many_one","0","direct_first","1","er06er30","0","26","2","1","4","1","","0","0","0","null","","","<div style=""font-size:60px;"">+</div>","null","","","","","","","","","",""
"","html-keyboard-response","224","928254","0.0-10.0-1.21","chq2uww95p","many_one","0","direct_first","1","er06er30","0","26","2","1","4","1","","0","0","0","null","","","<img src = 'category1/CS7.png' width = '100%;'>","null","","","","","","","","","",""
"","html-keyboard-response","225","928534","0.0-10.0-2.21","chq2uww95p","many_one","0","direct_first","1","er06er30","0","26","2","1","4","1","","0","0","0","null","","","<img src = 'targets/25.png' width = '100%;'>","null","","","","","","","","","",""
"","html-keyboard-response","226","930059","0.0-10.0-3.21","chq2uww95p","many_one","0","direct_first","1","er06er30","0","26","2","1","4","1","","0","0","0","1523","","","<img src = 'targets/mask.png' width = '100%;'>","75","pos","CS","CS","1","category1/CS7.png","","targets/25.png","indirect","1","21"
"","html-keyboard-response","227","931590","0.0-10.0-0.22","chq2uww95p","many_one","0","direct_first","1","er06er30","0","26","2","1","4","1","","0","0","0","null","","","<div style=""font-size:60px;"">+</div>","null","","","","","","","","","",""
"","html-keyboard-response","228","931690","0.0-10.0-1.22","chq2uww95p","many_one","0","direct_first","1","er06er30","0","26","2","1","4","1","","0","0","0","null","","","<img src = 'category4/CS5.png' width = '100%;'>","null","","","","","","","","","",""
"","html-keyboard-response","229","931975","0.0-10.0-2.22","chq2uww95p","many_one","0","direct_first","1","er06er30","0","26","2","1","4","1","","0","0","0","null","","","<img src = 'targets/41.png' width = '100%;'>","null","","","","","","","","","",""
"","html-keyboard-response","230","933281","0.0-10.0-3.22","chq2uww95p","many_one","0","direct_first","1","er06er30","0","26","2","1","4","1","","0","0","0","1305","","","<img src = 'targets/mask.png' width = '100%;'>","75","neg","CS","CS","4","category4/CS5.png","","targets/41.png","indirect","1","22"
"","html-keyboard-response","231","934815","0.0-10.0-0.23","chq2uww95p","many_one","0","direct_first","1","er06er30","0","26","2","1","4","1","","0","0","0","null","","","<div style=""font-size:60px;"">+</div>","null","","","","","","","","","",""
"","html-keyboard-response","232","934915","0.0-10.0-1.23","chq2uww95p","many_one","0","direct_first","1","er06er30","0","26","2","1","4","1","","0","0","0","null","","","<img src = 'category2/CS5.png' width = '100%;'>","null","","","","","","","","","",""
"","html-keyboard-response","233","935195","0.0-10.0-2.23","chq2uww95p","many_one","0","direct_first","1","er06er30","0","26","2","1","4","1","","0","0","0","null","","","<img src = 'targets/32.png' width = '100%;'>","null","","","","","","","","","",""
"","html-keyboard-response","234","936124","0.0-10.0-3.23","chq2uww95p","many_one","0","direct_first","1","er06er30","0","26","2","1","4","1","","0","0","0","929","","","<img src = 'targets/mask.png' width = '100%;'>","68","neg","GS","GSold","2","category2/CS5.png","","targets/32.png","indirect","0","23"
"","survey-html-form","235","1017594","0.0-11.0","chq2uww95p","many_one","0","direct_first","1","er06er30","0","26","2","1","4","1","","0","0","0","80959","","{}","","","","","","","","","","","",""
"","html-keyboard-response","236","1020627","0.0-12.0-0.0","chq2uww95p","many_one","0","direct_first","1","er06er30","0","26","2","1","4","1","","0","0","0","null","","","<div style=""font-size:60px;"">+</div>","null","","","","","","","","","",""
"","html-keyboard-response","237","1020726","0.0-12.0-1.0","chq2uww95p","many_one","0","direct_first","1","er06er30","0","26","2","1","4","1","","0","0","0","null","","","<img src = 'category4/CS2.png' width = '100%;'>","null","","","","","","","","","",""
"","html-keyboard-response","238","1021007","0.0-12.0-2.0","chq2uww95p","many_one","0","direct_first","1","er06er30","0","26","2","1","4","1","","0","0","0","null","","","<img src = 'targets/37.png' width = '100%;'>","null","","","","","","","","","",""
"","html-keyboard-response","239","1022534","0.0-12.0-3.0","chq2uww95p","many_one","0","direct_first","1","er06er30","0","26","2","1","4","1","","0","0","0","1526","","","<img src = 'targets/mask.png' width = '100%;'>","75","neg","GS","GSold","4","category4/CS2.png","","targets/37.png","indirect","1","24"
"","html-keyboard-response","240","1024047","0.0-12.0-0.1","chq2uww95p","many_one","0","direct_first","1","er06er30","0","26","2","1","4","1","","0","0","0","null","","","<div style=""font-size:60px;"">+</div>","null","","","","","","","","","",""
"","html-keyboard-response","241","1024147","0.0-12.0-1.1","chq2uww95p","many_one","0","direct_first","1","er06er30","0","26","2","1","4","1","","0","0","0","null","","","<img src = 'category4/lin.png' width = '100%;'>","null","","","","","","","","","",""
"","html-keyboard-response","242","1024426","0.0-12.0-2.1","chq2uww95p","many_one","0","direct_first","1","er06er30","0","26","2","1","4","1","","0","0","0","null","","","<img src = 'targets/15.png' width = '100%;'>","null","","","","","","","","","",""
"","html-keyboard-response","243","1025810","0.0-12.0-3.1","chq2uww95p","many_one","0","direct_first","1","er06er30","0","26","2","1","4","1","","0","0","0","1382","","","<img src = 'targets/mask.png' width = '100%;'>","68","neg","GS","abstract","4","category4/lin.png","","targets/15.png","indirect","0","25"
"","html-keyboard-response","244","1027326","0.0-12.0-0.2","chq2uww95p","many_one","0","direct_first","1","er06er30","0","26","2","1","4","1","","0","0","0","null","","","<div style=""font-size:60px;"">+</div>","null","","","","","","","","","",""
"","html-keyboard-response","245","1027427","0.0-12.0-1.2","chq2uww95p","many_one","0","direct_first","1","er06er30","0","26","2","1","4","1","","0","0","0","null","","","<img src = 'category2/GS1.png' width = '100%;'>","null","","","","","","","","","",""
"","html-keyboard-response","246","1027707","0.0-12.0-2.2","chq2uww95p","many_one","0","direct_first","1","er06er30","0","26","2","1","4","1","","0","0","0","null","","","<img src = 'targets/48.png' width = '100%;'>","null","","","","","","","","","",""
"","html-keyboard-response","247","1028521","0.0-12.0-3.2","chq2uww95p","many_one","0","direct_first","1","er06er30","0","26","2","1","4","1","","0","0","0","813","","","<img src = 'targets/mask.png' width = '100%;'>","75","neg","GS","GSnew","2","category2/GS1.png","","targets/48.png","indirect","1","26"
"","html-keyboard-response","248","1030047","0.0-12.0-0.3","chq2uww95p","many_one","0","direct_first","1","er06er30","0","26","2","1","4","1","","0","0","0","null","","","<div style=""font-size:60px;"">+</div>","null","","","","","","","","","",""
"","html-keyboard-response","249","1030146","0.0-12.0-1.3","chq2uww95p","many_one","0","direct_first","1","er06er30","0","26","2","1","4","1","","0","0","0","null","","","<img src = 'category4/GS3.png' width = '100%;'>","null","","","","","","","","","",""
"","html-keyboard-response","250","1030427","0.0-12.0-2.3","chq2uww95p","many_one","0","direct_first","1","er06er30","0","26","2","1","4","1","","0","0","0","null","","","<img src = 'targets/24.png' width = '100%;'>","null","","","","","","","","","",""
"","html-keyboard-response","251","1031831","0.0-12.0-3.3","chq2uww95p","many_one","0","direct_first","1","er06er30","0","26","2","1","4","1","","0","0","0","1403","","","<img src = 'targets/mask.png' width = '100%;'>","75","neg","GS","GSnew","4","category4/GS3.png","","targets/24.png","indirect","1","27"
"","html-keyboard-response","252","1033347","0.0-12.0-0.4","chq2uww95p","many_one","0","direct_first","1","er06er30","0","26","2","1","4","1","","0","0","0","null","","","<div style=""font-size:60px;"">+</div>","null","","","","","","","","","",""
"","html-keyboard-response","253","1033447","0.0-12.0-1.4","chq2uww95p","many_one","0","direct_first","1","er06er30","0","26","2","1","4","1","","0","0","0","null","","","<img src = 'category3/wang.png' width = '100%;'>","null","","","","","","","","","",""
"","html-keyboard-response","254","1033727","0.0-12.0-2.4","chq2uww95p","many_one","0","direct_first","1","er06er30","0","26","2","1","4","1","","0","0","0","null","","","<img src = 'targets/21.png' width = '100%;'>","null","","","","","","","","","",""
"","html-keyboard-response","255","1034812","0.0-12.0-3.4","chq2uww95p","many_one","0","direct_first","1","er06er30","0","26","2","1","4","1","","0","0","0","1085","","","<img src = 'targets/mask.png' width = '100%;'>","75","pos","GS","abstract","3","category3/wang.png","","targets/21.png","indirect","1","28"
"","html-keyboard-response","256","1036347","0.0-12.0-0.5","chq2uww95p","many_one","0","direct_first","1","er06er30","0","26","2","1","4","1","","0","0","0","null","","","<div style=""font-size:60px;"">+</div>","null","","","","","","","","","",""
"","html-keyboard-response","257","1036447","0.0-12.0-1.5","chq2uww95p","many_one","0","direct_first","1","er06er30","0","26","2","1","4","1","","0","0","0","null","","","<img src = 'category4/CS9.png' width = '100%;'>","null","","","","","","","","","",""
"","html-keyboard-response","258","1036728","0.0-12.0-2.5","chq2uww95p","many_one","0","direct_first","1","er06er30","0","26","2","1","4","1","","0","0","0","null","","","<img src = 'targets/43.png' width = '100%;'>","null","","","","","","","","","",""
"","html-keyboard-response","259","1038620","0.0-12.0-3.5","chq2uww95p","many_one","0","direct_first","1","er06er30","0","26","2","1","4","1","","0","0","0","1893","","","<img src = 'targets/mask.png' width = '100%;'>","75","neg","GS","GSold","4","category4/CS9.png","","targets/43.png","indirect","1","29"
"","html-keyboard-response","260","1040137","0.0-12.0-0.6","chq2uww95p","many_one","0","direct_first","1","er06er30","0","26","2","1","4","1","","0","0","0","null","","","<div style=""font-size:60px;"">+</div>","null","","","","","","","","","",""
"","html-keyboard-response","261","1040237","0.0-12.0-1.6","chq2uww95p","many_one","0","direct_first","1","er06er30","0","26","2","1","4","1","","0","0","0","null","","","<img src = 'category1/GS1.png' width = '100%;'>","null","","","","","","","","","",""
"","html-keyboard-response","262","1040512","0.0-12.0-2.6","chq2uww95p","many_one","0","direct_first","1","er06er30","0","26","2","1","4","1","","0","0","0","null","","","<img src = 'targets/33.png' width = '100%;'>","null","","","","","","","","","",""
"","html-keyboard-response","263","1041007","0.0-12.0-3.6","chq2uww95p","many_one","0","direct_first","1","er06er30","0","26","2","1","4","1","","0","0","0","493","","","<img src = 'targets/mask.png' width = '100%;'>","68","pos","GS","GSnew","1","category1/GS1.png","","targets/33.png","indirect","0","30"
"","html-keyboard-response","264","1042527","0.0-12.0-0.7","chq2uww95p","many_one","0","direct_first","1","er06er30","0","26","2","1","4","1","","0","0","0","null","","","<div style=""font-size:60px;"">+</div>","null","","","","","","","","","",""
"","html-keyboard-response","265","1042627","0.0-12.0-1.7","chq2uww95p","many_one","0","direct_first","1","er06er30","0","26","2","1","4","1","","0","0","0","null","","","<img src = 'category1/GS3.png' width = '100%;'>","null","","","","","","","","","",""
"","html-keyboard-response","266","1042907","0.0-12.0-2.7","chq2uww95p","many_one","0","direct_first","1","er06er30","0","26","2","1","4","1","","0","0","0","null","","","<img src = 'targets/40.png' width = '100%;'>","null","","","","","","","","","",""
"","html-keyboard-response","267","1043958","0.0-12.0-3.7","chq2uww95p","many_one","0","direct_first","1","er06er30","0","26","2","1","4","1","","0","0","0","1050","","","<img src = 'targets/mask.png' width = '100%;'>","68","pos","GS","GSnew","1","category1/GS3.png","","targets/40.png","indirect","0","31"
"","html-keyboard-response","268","1045468","0.0-12.0-0.8","chq2uww95p","many_one","0","direct_first","1","er06er30","0","26","2","1","4","1","","0","0","0","null","","","<div style=""font-size:60px;"">+</div>","null","","","","","","","","","",""
"","html-keyboard-response","269","1045568","0.0-12.0-1.8","chq2uww95p","many_one","0","direct_first","1","er06er30","0","26","2","1","4","1","","0","0","0","null","","","<img src = 'category1/GS2.png' width = '100%;'>","null","","","","","","","","","",""
"","html-keyboard-response","270","1045848","0.0-12.0-2.8","chq2uww95p","many_one","0","direct_first","1","er06er30","0","26","2","1","4","1","","0","0","0","null","","","<img src = 'targets/28.png' width = '100%;'>","null","","","","","","","","","",""
"","html-keyboard-response","271","1046419","0.0-12.0-3.8","chq2uww95p","many_one","0","direct_first","1","er06er30","0","26","2","1","4","1","","0","0","0","570","","","<img src = 'targets/mask.png' width = '100%;'>","68","pos","GS","GSnew","1","category1/GS2.png","","targets/28.png","indirect","0","32"
"","html-keyboard-response","272","1047947","0.0-12.0-0.9","chq2uww95p","many_one","0","direct_first","1","er06er30","0","26","2","1","4","1","","0","0","0","null","","","<div style=""font-size:60px;"">+</div>","null","","","","","","","","","",""
"","html-keyboard-response","273","1048048","0.0-12.0-1.9","chq2uww95p","many_one","0","direct_first","1","er06er30","0","26","2","1","4","1","","0","0","0","null","","","<img src = 'category3/GS2.png' width = '100%;'>","null","","","","","","","","","",""
"","html-keyboard-response","274","1048327","0.0-12.0-2.9","chq2uww95p","many_one","0","direct_first","1","er06er30","0","26","2","1","4","1","","0","0","0","null","","","<img src = 'targets/17.png' width = '100%;'>","null","","","","","","","","","",""
"","html-keyboard-response","275","1048839","0.0-12.0-3.9","chq2uww95p","many_one","0","direct_first","1","er06er30","0","26","2","1","4","1","","0","0","0","510","","","<img src = 'targets/mask.png' width = '100%;'>","68","pos","GS","GSnew","3","category3/GS2.png","","targets/17.png","indirect","0","33"
"","html-keyboard-response","276","1050358","0.0-12.0-0.10","chq2uww95p","many_one","0","direct_first","1","er06er30","0","26","2","1","4","1","","0","0","0","null","","","<div style=""font-size:60px;"">+</div>","null","","","","","","","","","",""
"","html-keyboard-response","277","1050458","0.0-12.0-1.10","chq2uww95p","many_one","0","direct_first","1","er06er30","0","26","2","1","4","1","","0","0","0","null","","","<img src = 'category3/GS3.png' width = '100%;'>","null","","","","","","","","","",""
"","html-keyboard-response","278","1050737","0.0-12.0-2.10","chq2uww95p","many_one","0","direct_first","1","er06er30","0","26","2","1","4","1","","0","0","0","null","","","<img src = 'targets/30.png' width = '100%;'>","null","","","","","","","","","",""
"","html-keyboard-response","279","1051878","0.0-12.0-3.10","chq2uww95p","many_one","0","direct_first","1","er06er30","0","26","2","1","4","1","","0","0","0","1140","","","<img src = 'targets/mask.png' width = '100%;'>","75","pos","GS","GSnew","3","category3/GS3.png","","targets/30.png","indirect","1","34"
"","html-keyboard-response","280","1053418","0.0-12.0-0.11","chq2uww95p","many_one","0","direct_first","1","er06er30","0","26","2","1","4","1","","0","0","0","null","","","<div style=""font-size:60px;"">+</div>","null","","","","","","","","","",""
"","html-keyboard-response","281","1053517","0.0-12.0-1.11","chq2uww95p","many_one","0","direct_first","1","er06er30","0","26","2","1","4","1","","0","0","0","null","","","<img src = 'category4/GS1.png' width = '100%;'>","null","","","","","","","","","",""
"","html-keyboard-response","282","1053798","0.0-12.0-2.11","chq2uww95p","many_one","0","direct_first","1","er06er30","0","26","2","1","4","1","","0","0","0","null","","","<img src = 'targets/29.png' width = '100%;'>","null","","","","","","","","","",""
"","html-keyboard-response","283","1054370","0.0-12.0-3.11","chq2uww95p","many_one","0","direct_first","1","er06er30","0","26","2","1","4","1","","0","0","0","572","","","<img src = 'targets/mask.png' width = '100%;'>","75","neg","GS","GSnew","4","category4/GS1.png","","targets/29.png","indirect","1","35"
"","html-keyboard-response","284","1055877","0.0-12.0-0.12","chq2uww95p","many_one","0","direct_first","1","er06er30","0","26","2","1","4","1","","0","0","0","null","","","<div style=""font-size:60px;"">+</div>","null","","","","","","","","","",""
"","html-keyboard-response","285","1055978","0.0-12.0-1.12","chq2uww95p","many_one","0","direct_first","1","er06er30","0","26","2","1","4","1","","0","0","0","null","","","<img src = 'category2/GS3.png' width = '100%;'>","null","","","","","","","","","",""
"","html-keyboard-response","286","1056258","0.0-12.0-2.12","chq2uww95p","many_one","0","direct_first","1","er06er30","0","26","2","1","4","1","","0","0","0","null","","","<img src = 'targets/12.png' width = '100%;'>","null","","","","","","","","","",""
"","html-keyboard-response","287","1057007","0.0-12.0-3.12","chq2uww95p","many_one","0","direct_first","1","er06er30","0","26","2","1","4","1","","0","0","0","750","","","<img src = 'targets/mask.png' width = '100%;'>","75","neg","GS","GSnew","2","category2/GS3.png","","targets/12.png","indirect","1","36"
"","html-keyboard-response","288","1058518","0.0-12.0-0.13","chq2uww95p","many_one","0","direct_first","1","er06er30","0","26","2","1","4","1","","0","0","0","null","","","<div style=""font-size:60px;"">+</div>","null","","","","","","","","","",""
"","html-keyboard-response","289","1058618","0.0-12.0-1.13","chq2uww95p","many_one","0","direct_first","1","er06er30","0","26","2","1","4","1","","0","0","0","null","","","<img src = 'category1/CS6.png' width = '100%;'>","null","","","","","","","","","",""
"","html-keyboard-response","290","1058897","0.0-12.0-2.13","chq2uww95p","many_one","0","direct_first","1","er06er30","0","26","2","1","4","1","","0","0","0","null","","","<img src = 'targets/45.png' width = '100%;'>","null","","","","","","","","","",""
"","html-keyboard-response","291","1059819","0.0-12.0-3.13","chq2uww95p","many_one","0","direct_first","1","er06er30","0","26","2","1","4","1","","0","0","0","921","","","<img src = 'targets/mask.png' width = '100%;'>","75","pos","GS","GSold","1","category1/CS6.png","","targets/45.png","indirect","1","37"
"","html-keyboard-response","292","1061357","0.0-12.0-0.14","chq2uww95p","many_one","0","direct_first","1","er06er30","0","26","2","1","4","1","","0","0","0","null","","","<div style=""font-size:60px;"">+</div>","null","","","","","","","","","",""
"","html-keyboard-response","293","1061458","0.0-12.0-1.14","chq2uww95p","many_one","0","direct_first","1","er06er30","0","26","2","1","4","1","","0","0","0","null","","","<img src = 'category3/CS2.png' width = '100%;'>","null","","","","","","","","","",""
"","html-keyboard-response","294","1061737","0.0-12.0-2.14","chq2uww95p","many_one","0","direct_first","1","er06er30","0","26","2","1","4","1","","0","0","0","null","","","<img src = 'targets/31.png' width = '100%;'>","null","","","","","","","","","",""
"","html-keyboard-response","295","1062239","0.0-12.0-3.14","chq2uww95p","many_one","0","direct_first","1","er06er30","0","26","2","1","4","1","","0","0","0","501","","","<img src = 'targets/mask.png' width = '100%;'>","75","pos","GS","GSold","3","category3/CS2.png","","targets/31.png","indirect","1","38"
"","html-keyboard-response","296","1063778","0.0-12.0-0.15","chq2uww95p","many_one","0","direct_first","1","er06er30","0","26","2","1","4","1","","0","0","0","null","","","<div style=""font-size:60px;"">+</div>","null","","","","","","","","","",""
"","html-keyboard-response","297","1063878","0.0-12.0-1.15","chq2uww95p","many_one","0","direct_first","1","er06er30","0","26","2","1","4","1","","0","0","0","null","","","<img src = 'category3/CS5.png' width = '100%;'>","null","","","","","","","","","",""
"","html-keyboard-response","298","1064158","0.0-12.0-2.15","chq2uww95p","many_one","0","direct_first","1","er06er30","0","26","2","1","4","1","","0","0","0","null","","","<img src = 'targets/23.png' width = '100%;'>","null","","","","","","","","","",""
"","html-keyboard-response","299","1064699","0.0-12.0-3.15","chq2uww95p","many_one","0","direct_first","1","er06er30","0","26","2","1","4","1","","0","0","0","541","","","<img src = 'targets/mask.png' width = '100%;'>","75","pos","GS","GSold","3","category3/CS5.png","","targets/23.png","indirect","1","39"
"","html-keyboard-response","300","1066238","0.0-12.0-0.16","chq2uww95p","many_one","0","direct_first","1","er06er30","0","26","2","1","4","1","","0","0","0","null","","","<div style=""font-size:60px;"">+</div>","null","","","","","","","","","",""
"","html-keyboard-response","301","1066338","0.0-12.0-1.16","chq2uww95p","many_one","0","direct_first","1","er06er30","0","26","2","1","4","1","","0","0","0","null","","","<img src = 'category1/CS4.png' width = '100%;'>","null","","","","","","","","","",""
"","html-keyboard-response","302","1066617","0.0-12.0-2.16","chq2uww95p","many_one","0","direct_first","1","er06er30","0","26","2","1","4","1","","0","0","0","null","","","<img src = 'targets/44.png' width = '100%;'>","null","","","","","","","","","",""
"","html-keyboard-response","303","1067247","0.0-12.0-3.16","chq2uww95p","many_one","0","direct_first","1","er06er30","0","26","2","1","4","1","","0","0","0","628","","","<img src = 'targets/mask.png' width = '100%;'>","68","pos","GS","GSold","1","category1/CS4.png","","targets/44.png","indirect","0","40"
"","html-keyboard-response","304","1068768","0.0-12.0-0.17","chq2uww95p","many_one","0","direct_first","1","er06er30","0","26","2","1","4","1","","0","0","0","null","","","<div style=""font-size:60px;"">+</div>","null","","","","","","","","","",""
"","html-keyboard-response","305","1068868","0.0-12.0-1.17","chq2uww95p","many_one","0","direct_first","1","er06er30","0","26","2","1","4","1","","0","0","0","null","","","<img src = 'category3/GS1.png' width = '100%;'>","null","","","","","","","","","",""
"","html-keyboard-response","306","1069148","0.0-12.0-2.17","chq2uww95p","many_one","0","direct_first","1","er06er30","0","26","2","1","4","1","","0","0","0","null","","","<img src = 'targets/38.png' width = '100%;'>","null","","","","","","","","","",""
"","html-keyboard-response","307","1071841","0.0-12.0-3.17","chq2uww95p","many_one","0","direct_first","1","er06er30","0","26","2","1","4","1","","0","0","0","2692","","","<img src = 'targets/mask.png' width = '100%;'>","75","pos","GS","GSnew","3","category3/GS1.png","","targets/38.png","indirect","1","41"
"","html-keyboard-response","308","1073368","0.0-12.0-0.18","chq2uww95p","many_one","0","direct_first","1","er06er30","0","26","2","1","4","1","","0","0","0","null","","","<div style=""font-size:60px;"">+</div>","null","","","","","","","","","",""
"","html-keyboard-response","309","1073468","0.0-12.0-1.18","chq2uww95p","many_one","0","direct_first","1","er06er30","0","26","2","1","4","1","","0","0","0","null","","","<img src = 'category4/CS3.png' width = '100%;'>","null","","","","","","","","","",""
"","html-keyboard-response","310","1073744","0.0-12.0-2.18","chq2uww95p","many_one","0","direct_first","1","er06er30","0","26","2","1","4","1","","0","0","0","null","","","<img src = 'targets/26.png' width = '100%;'>","null","","","","","","","","","",""
"","html-keyboard-response","311","1074308","0.0-12.0-3.18","chq2uww95p","many_one","0","direct_first","1","er06er30","0","26","2","1","4","1","","0","0","0","563","","","<img src = 'targets/mask.png' width = '100%;'>","68","neg","GS","GSold","4","category4/CS3.png","","targets/26.png","indirect","0","42"
"","html-keyboard-response","312","1075848","0.0-12.0-0.19","chq2uww95p","many_one","0","direct_first","1","er06er30","0","26","2","1","4","1","","0","0","0","null","","","<div style=""font-size:60px;"">+</div>","null","","","","","","","","","",""
"","html-keyboard-response","313","1075948","0.0-12.0-1.19","chq2uww95p","many_one","0","direct_first","1","er06er30","0","26","2","1","4","1","","0","0","0","null","","","<img src = 'category1/ma.png' width = '100%;'>","null","","","","","","","","","",""
"","html-keyboard-response","314","1076228","0.0-12.0-2.19","chq2uww95p","many_one","0","direct_first","1","er06er30","0","26","2","1","4","1","","0","0","0","null","","","<img src = 'targets/46.png' width = '100%;'>","null","","","","","","","","","",""
"","html-keyboard-response","315","1077315","0.0-12.0-3.19","chq2uww95p","many_one","0","direct_first","1","er06er30","0","26","2","1","4","1","","0","0","0","1085","","","<img src = 'targets/mask.png' width = '100%;'>","75","pos","GS","abstract","1","category1/ma.png","","targets/46.png","indirect","1","43"
"","html-keyboard-response","316","1078848","0.0-12.0-0.20","chq2uww95p","many_one","0","direct_first","1","er06er30","0","26","2","1","4","1","","0","0","0","null","","","<div style=""font-size:60px;"">+</div>","null","","","","","","","","","",""
"","html-keyboard-response","317","1078948","0.0-12.0-1.20","chq2uww95p","many_one","0","direct_first","1","er06er30","0","26","2","1","4","1","","0","0","0","null","","","<img src = 'category2/men.png' width = '100%;'>","null","","","","","","","","","",""
"","html-keyboard-response","318","1079228","0.0-12.0-2.20","chq2uww95p","many_one","0","direct_first","1","er06er30","0","26","2","1","4","1","","0","0","0","null","","","<img src = 'targets/5.png' width = '100%;'>","null","","","","","","","","","",""
"","html-keyboard-response","319","1080262","0.0-12.0-3.20","chq2uww95p","many_one","0","direct_first","1","er06er30","0","26","2","1","4","1","","0","0","0","1034","","","<img src = 'targets/mask.png' width = '100%;'>","68","neg","GS","abstract","2","category2/men.png","","targets/5.png","indirect","0","44"
"","html-keyboard-response","320","1081768","0.0-12.0-0.21","chq2uww95p","many_one","0","direct_first","1","er06er30","0","26","2","1","4","1","","0","0","0","null","","","<div style=""font-size:60px;"">+</div>","null","","","","","","","","","",""
"","html-keyboard-response","321","1081869","0.0-12.0-1.21","chq2uww95p","many_one","0","direct_first","1","er06er30","0","26","2","1","4","1","","0","0","0","null","","","<img src = 'category4/GS2.png' width = '100%;'>","null","","","","","","","","","",""
"","html-keyboard-response","322","1082148","0.0-12.0-2.21","chq2uww95p","many_one","0","direct_first","1","er06er30","0","26","2","1","4","1","","0","0","0","null","","","<img src = 'targets/18.png' width = '100%;'>","null","","","","","","","","","",""
"","html-keyboard-response","323","1082818","0.0-12.0-3.21","chq2uww95p","many_one","0","direct_first","1","er06er30","0","26","2","1","4","1","","0","0","0","670","","","<img src = 'targets/mask.png' width = '100%;'>","68","neg","GS","GSnew","4","category4/GS2.png","","targets/18.png","indirect","0","45"
"","html-keyboard-response","324","1084348","0.0-12.0-0.22","chq2uww95p","many_one","0","direct_first","1","er06er30","0","26","2","1","4","1","","0","0","0","null","","","<div style=""font-size:60px;"">+</div>","null","","","","","","","","","",""
"","html-keyboard-response","325","1084448","0.0-12.0-1.22","chq2uww95p","many_one","0","direct_first","1","er06er30","0","26","2","1","4","1","","0","0","0","null","","","<img src = 'category2/GS2.png' width = '100%;'>","null","","","","","","","","","",""
"","html-keyboard-response","326","1084728","0.0-12.0-2.22","chq2uww95p","many_one","0","direct_first","1","er06er30","0","26","2","1","4","1","","0","0","0","null","","","<img src = 'targets/7.png' width = '100%;'>","null","","","","","","","","","",""
"","html-keyboard-response","327","1085295","0.0-12.0-3.22","chq2uww95p","many_one","0","direct_first","1","er06er30","0","26","2","1","4","1","","0","0","0","566","","","<img src = 'targets/mask.png' width = '100%;'>","75","neg","GS","GSnew","2","category2/GS2.png","","targets/7.png","indirect","1","46"
"","html-keyboard-response","328","1086808","0.0-12.0-0.23","chq2uww95p","many_one","0","direct_first","1","er06er30","0","26","2","1","4","1","","0","0","0","null","","","<div style=""font-size:60px;"">+</div>","null","","","","","","","","","",""
"","html-keyboard-response","329","1086908","0.0-12.0-1.23","chq2uww95p","many_one","0","direct_first","1","er06er30","0","26","2","1","4","1","","0","0","0","null","","","<img src = 'category3/CS8.png' width = '100%;'>","null","","","","","","","","","",""
"","html-keyboard-response","330","1087188","0.0-12.0-2.23","chq2uww95p","many_one","0","direct_first","1","er06er30","0","26","2","1","4","1","","0","0","0","null","","","<img src = 'targets/20.png' width = '100%;'>","null","","","","","","","","","",""
"","html-keyboard-response","331","1088162","0.0-12.0-3.23","chq2uww95p","many_one","0","direct_first","1","er06er30","0","26","2","1","4","1","","0","0","0","973","","","<img src = 'targets/mask.png' width = '100%;'>","68","pos","GS","GSold","3","category3/CS8.png","","targets/20.png","indirect","0","47"
"","survey-html-form","332","1096669","0.0-13.0","chq2uww95p","many_one","0","direct_first","1","er06er30","0","26","2","1","4","1","","0","0","0","8001","","{}","","","","","","","","","","","",""
