"success","trial_type","trial_index","time_elapsed","internal_node_id","subject","condition","condition_code","measure","measure_code","codeword","gender","age","education","chinese","fach","handedness","comment","hinschauen","ablenkung","gewissenhaft","rt","url","responses","stimulus","key_press","val","type","type_specific","category","cs_selected","response","target","task","indirect","nr_pres"
"true","fullscreen","0","15837","0.0-0.0","e53autkf21","one_one","1","direct_first","1","rx07en11","0","20","1","1","3","1","","0","1","0","","","","","","","","","","","","","","",""
"","external-html","1","60298","0.0-1.0","e53autkf21","one_one","1","direct_first","1","rx07en11","0","20","1","1","3","1","","0","1","0","44384.16","text/information.html","","","","","","","","","","","","",""
"","external-html","2","86328","0.0-2.0","e53autkf21","one_one","1","direct_first","1","rx07en11","0","20","1","1","3","1","","0","1","0","25901.234999999986","text/consent.html","","","","","","","","","","","","",""
"","survey-html-form","3","160006","0.0-3.0","e53autkf21","one_one","1","direct_first","1","rx07en11","0","20","1","1","3","1","","0","1","0","73673.05","","{""codeword_enter"":""rx07en11""}","","","","","","","","","","","",""
"","survey-html-form","4","195720","0.0-4.0","e53autkf21","one_one","1","direct_first","1","rx07en11","0","20","1","1","3","1","","0","1","0","35707.79000000004","","{""age"":""20"",""education"":""1"",""subject"":""3"",""gender"":""0"",""handedness"":""1"",""chinese"":""1""}","","","","","","","","","","","",""
"","survey-html-form","5","201551","0.0-5.0","e53autkf21","one_one","1","direct_first","1","rx07en11","0","20","1","1","3","1","","0","1","0","5827.065000000031","","{}","","","","","","","","","","","",""
"","html-keyboard-response","6","205562","0.0-6.0-0.0-0.0","e53autkf21","one_one","1","direct_first","1","rx07en11","0","20","1","1","3","1","","0","1","0","null","","","<div class = 'row'><div class = 'column'><img src = 'category2/CS1.png' width = '70%;'></div><div class = 'column'><img src = 'usneg/2750.bmp' width = '100%;'></div></div>","null","neg","CS","CS","2","category2/CS1.png","","","","",""
"","html-keyboard-response","7","208074","0.0-6.0-0.0-0.1","e53autkf21","one_one","1","direct_first","1","rx07en11","0","20","1","1","3","1","","0","1","0","null","","","<div class = 'row'><div class = 'column'><img src = 'category3/CS1.png' width = '70%;'></div><div class = 'column'><img src = 'usneg/9290.bmp' width = '100%;'></div></div>","null","neg","CS","CS","3","category3/CS1.png","","","","",""
"","html-keyboard-response","8","210583","0.0-6.0-0.0-0.2","e53autkf21","one_one","1","direct_first","1","rx07en11","0","20","1","1","3","1","","0","1","0","null","","","<div class = 'row'><div class = 'column'><img src = 'category4/CS3.png' width = '70%;'></div><div class = 'column'><img src = 'uspos/8350.bmp' width = '100%;'></div></div>","null","pos","CS","CS","4","category4/CS3.png","","","","",""
"","html-keyboard-response","9","213086","0.0-6.0-0.0-0.3","e53autkf21","one_one","1","direct_first","1","rx07en11","0","20","1","1","3","1","","0","1","0","null","","","<div class = 'row'><div class = 'column'><img src = 'usneg/2750.bmp' width = '100%;'></div><div class = 'column'><img src = 'category2/CS1.png' width = '70%;'></div></div>","null","neg","CS","CS","2","category2/CS1.png","","","","",""
"","html-keyboard-response","10","215595","0.0-6.0-0.0-0.4","e53autkf21","one_one","1","direct_first","1","rx07en11","0","20","1","1","3","1","","0","1","0","null","","","<div class = 'row'><div class = 'column'><img src = 'uspos/8190.bmp' width = '100%;'></div><div class = 'column'><img src = 'category1/CS7.png' width = '70%;'></div></div>","null","pos","CS","CS","1","category1/CS7.png","","","","",""
"","html-keyboard-response","11","218107","0.0-6.0-0.0-0.5","e53autkf21","one_one","1","direct_first","1","rx07en11","0","20","1","1","3","1","","0","1","0","null","","","<div class = 'row'><div class = 'column'><img src = 'category3/CS1.png' width = '70%;'></div><div class = 'column'><img src = 'usneg/9290.bmp' width = '100%;'></div></div>","null","neg","CS","CS","3","category3/CS1.png","","","","",""
"","html-keyboard-response","12","220613","0.0-6.0-0.0-0.6","e53autkf21","one_one","1","direct_first","1","rx07en11","0","20","1","1","3","1","","0","1","0","null","","","<div class = 'row'><div class = 'column'><img src = 'category4/CS3.png' width = '70%;'></div><div class = 'column'><img src = 'uspos/8350.bmp' width = '100%;'></div></div>","null","pos","CS","CS","4","category4/CS3.png","","","","",""
"","html-keyboard-response","13","223126","0.0-6.0-0.0-0.7","e53autkf21","one_one","1","direct_first","1","rx07en11","0","20","1","1","3","1","","0","1","0","null","","","<div class = 'row'><div class = 'column'><img src = 'category1/CS7.png' width = '70%;'></div><div class = 'column'><img src = 'uspos/8190.bmp' width = '100%;'></div></div>","null","pos","CS","CS","1","category1/CS7.png","","","","",""
"","html-keyboard-response","14","225641","0.0-6.0-0.0-0.8","e53autkf21","one_one","1","direct_first","1","rx07en11","0","20","1","1","3","1","","0","1","0","null","","","<div class = 'row'><div class = 'column'><img src = 'usneg/2750.bmp' width = '100%;'></div><div class = 'column'><img src = 'category2/CS1.png' width = '70%;'></div></div>","null","neg","CS","CS","2","category2/CS1.png","","","","",""
"","html-keyboard-response","15","228148","0.0-6.0-0.0-0.9","e53autkf21","one_one","1","direct_first","1","rx07en11","0","20","1","1","3","1","","0","1","0","null","","","<div class = 'row'><div class = 'column'><img src = 'uspos/8190.bmp' width = '100%;'></div><div class = 'column'><img src = 'category1/CS7.png' width = '70%;'></div></div>","null","pos","CS","CS","1","category1/CS7.png","","","","",""
"","html-keyboard-response","16","230659","0.0-6.0-0.0-0.10","e53autkf21","one_one","1","direct_first","1","rx07en11","0","20","1","1","3","1","","0","1","0","null","","","<div class = 'row'><div class = 'column'><img src = 'category4/CS3.png' width = '70%;'></div><div class = 'column'><img src = 'uspos/8350.bmp' width = '100%;'></div></div>","null","pos","CS","CS","4","category4/CS3.png","","","","",""
"","html-keyboard-response","17","233177","0.0-6.0-0.0-0.11","e53autkf21","one_one","1","direct_first","1","rx07en11","0","20","1","1","3","1","","0","1","0","null","","","<div class = 'row'><div class = 'column'><img src = 'category1/CS7.png' width = '70%;'></div><div class = 'column'><img src = 'uspos/8190.bmp' width = '100%;'></div></div>","null","pos","CS","CS","1","category1/CS7.png","","","","",""
"","html-keyboard-response","18","235692","0.0-6.0-0.0-0.12","e53autkf21","one_one","1","direct_first","1","rx07en11","0","20","1","1","3","1","","0","1","0","null","","","<div class = 'row'><div class = 'column'><img src = 'category3/CS1.png' width = '70%;'></div><div class = 'column'><img src = 'usneg/9290.bmp' width = '100%;'></div></div>","null","neg","CS","CS","3","category3/CS1.png","","","","",""
"","html-keyboard-response","19","238199","0.0-6.0-0.0-0.13","e53autkf21","one_one","1","direct_first","1","rx07en11","0","20","1","1","3","1","","0","1","0","null","","","<div class = 'row'><div class = 'column'><img src = 'usneg/2750.bmp' width = '100%;'></div><div class = 'column'><img src = 'category2/CS1.png' width = '70%;'></div></div>","null","neg","CS","CS","2","category2/CS1.png","","","","",""
"","html-keyboard-response","20","240712","0.0-6.0-0.0-0.14","e53autkf21","one_one","1","direct_first","1","rx07en11","0","20","1","1","3","1","","0","1","0","null","","","<div class = 'row'><div class = 'column'><img src = 'category1/CS7.png' width = '70%;'></div><div class = 'column'><img src = 'uspos/8190.bmp' width = '100%;'></div></div>","null","pos","CS","CS","1","category1/CS7.png","","","","",""
"","html-keyboard-response","21","243223","0.0-6.0-0.0-0.15","e53autkf21","one_one","1","direct_first","1","rx07en11","0","20","1","1","3","1","","0","1","0","null","","","<div class = 'row'><div class = 'column'><img src = 'usneg/9290.bmp' width = '100%;'></div><div class = 'column'><img src = 'category3/CS1.png' width = '70%;'></div></div>","null","neg","CS","CS","3","category3/CS1.png","","","","",""
"","html-keyboard-response","22","245736","0.0-6.0-0.0-0.16","e53autkf21","one_one","1","direct_first","1","rx07en11","0","20","1","1","3","1","","0","1","0","null","","","<div class = 'row'><div class = 'column'><img src = 'category4/CS3.png' width = '70%;'></div><div class = 'column'><img src = 'uspos/8350.bmp' width = '100%;'></div></div>","null","pos","CS","CS","4","category4/CS3.png","","","","",""
"","html-keyboard-response","23","248253","0.0-6.0-0.0-0.17","e53autkf21","one_one","1","direct_first","1","rx07en11","0","20","1","1","3","1","","0","1","0","null","","","<div class = 'row'><div class = 'column'><img src = 'usneg/9290.bmp' width = '100%;'></div><div class = 'column'><img src = 'category3/CS1.png' width = '70%;'></div></div>","null","neg","CS","CS","3","category3/CS1.png","","","","",""
"","html-keyboard-response","24","250762","0.0-6.0-0.0-0.18","e53autkf21","one_one","1","direct_first","1","rx07en11","0","20","1","1","3","1","","0","1","0","null","","","<div class = 'row'><div class = 'column'><img src = 'uspos/8350.bmp' width = '100%;'></div><div class = 'column'><img src = 'category4/CS3.png' width = '70%;'></div></div>","null","pos","CS","CS","4","category4/CS3.png","","","","",""
"","html-keyboard-response","25","253274","0.0-6.0-0.0-0.19","e53autkf21","one_one","1","direct_first","1","rx07en11","0","20","1","1","3","1","","0","1","0","null","","","<div class = 'row'><div class = 'column'><img src = 'category2/CS1.png' width = '70%;'></div><div class = 'column'><img src = 'usneg/2750.bmp' width = '100%;'></div></div>","null","neg","CS","CS","2","category2/CS1.png","","","","",""
"","survey-html-form","26","257230","0.0-6.0-1.0","e53autkf21","one_one","1","direct_first","1","rx07en11","0","20","1","1","3","1","","0","1","0","3454.0900000000256","","{}","","","","","","","","","","","",""
"","html-keyboard-response","27","261248","0.0-6.0-2.0-0.0","e53autkf21","one_one","1","direct_first","1","rx07en11","0","20","1","1","3","1","","0","1","0","null","","","<div class = 'row'><div class = 'column'><img src = 'usneg/9290.bmp' width = '100%;'></div><div class = 'column'><img src = 'category3/CS1.png' width = '70%;'></div></div>","null","neg","CS","CS","3","category3/CS1.png","","","","",""
"","html-keyboard-response","28","263766","0.0-6.0-2.0-0.1","e53autkf21","one_one","1","direct_first","1","rx07en11","0","20","1","1","3","1","","0","1","0","null","","","<div class = 'row'><div class = 'column'><img src = 'uspos/8350.bmp' width = '100%;'></div><div class = 'column'><img src = 'category4/CS3.png' width = '70%;'></div></div>","null","pos","CS","CS","4","category4/CS3.png","","","","",""
"","html-keyboard-response","29","266278","0.0-6.0-2.0-0.2","e53autkf21","one_one","1","direct_first","1","rx07en11","0","20","1","1","3","1","","0","1","0","null","","","<div class = 'row'><div class = 'column'><img src = 'usneg/2750.bmp' width = '100%;'></div><div class = 'column'><img src = 'category2/CS1.png' width = '70%;'></div></div>","null","neg","CS","CS","2","category2/CS1.png","","","","",""
"","html-keyboard-response","30","268796","0.0-6.0-2.0-0.3","e53autkf21","one_one","1","direct_first","1","rx07en11","0","20","1","1","3","1","","0","1","0","null","","","<div class = 'row'><div class = 'column'><img src = 'category3/CS1.png' width = '70%;'></div><div class = 'column'><img src = 'usneg/9290.bmp' width = '100%;'></div></div>","null","neg","CS","CS","3","category3/CS1.png","","","","",""
"","html-keyboard-response","31","271309","0.0-6.0-2.0-0.4","e53autkf21","one_one","1","direct_first","1","rx07en11","0","20","1","1","3","1","","0","1","0","null","","","<div class = 'row'><div class = 'column'><img src = 'uspos/8350.bmp' width = '100%;'></div><div class = 'column'><img src = 'category4/CS3.png' width = '70%;'></div></div>","null","pos","CS","CS","4","category4/CS3.png","","","","",""
"","html-keyboard-response","32","273823","0.0-6.0-2.0-0.5","e53autkf21","one_one","1","direct_first","1","rx07en11","0","20","1","1","3","1","","0","1","0","null","","","<div class = 'row'><div class = 'column'><img src = 'usneg/2750.bmp' width = '100%;'></div><div class = 'column'><img src = 'category2/CS1.png' width = '70%;'></div></div>","null","neg","CS","CS","2","category2/CS1.png","","","","",""
"","html-keyboard-response","33","276339","0.0-6.0-2.0-0.6","e53autkf21","one_one","1","direct_first","1","rx07en11","0","20","1","1","3","1","","0","1","0","null","","","<div class = 'row'><div class = 'column'><img src = 'uspos/8190.bmp' width = '100%;'></div><div class = 'column'><img src = 'category1/CS7.png' width = '70%;'></div></div>","null","pos","CS","CS","1","category1/CS7.png","","","","",""
"","html-keyboard-response","34","278845","0.0-6.0-2.0-0.7","e53autkf21","one_one","1","direct_first","1","rx07en11","0","20","1","1","3","1","","0","1","0","null","","","<div class = 'row'><div class = 'column'><img src = 'uspos/8350.bmp' width = '100%;'></div><div class = 'column'><img src = 'category4/CS3.png' width = '70%;'></div></div>","null","pos","CS","CS","4","category4/CS3.png","","","","",""
"","html-keyboard-response","35","281358","0.0-6.0-2.0-0.8","e53autkf21","one_one","1","direct_first","1","rx07en11","0","20","1","1","3","1","","0","1","0","null","","","<div class = 'row'><div class = 'column'><img src = 'usneg/2750.bmp' width = '100%;'></div><div class = 'column'><img src = 'category2/CS1.png' width = '70%;'></div></div>","null","neg","CS","CS","2","category2/CS1.png","","","","",""
"","html-keyboard-response","36","283868","0.0-6.0-2.0-0.9","e53autkf21","one_one","1","direct_first","1","rx07en11","0","20","1","1","3","1","","0","1","0","null","","","<div class = 'row'><div class = 'column'><img src = 'uspos/8190.bmp' width = '100%;'></div><div class = 'column'><img src = 'category1/CS7.png' width = '70%;'></div></div>","null","pos","CS","CS","1","category1/CS7.png","","","","",""
"","html-keyboard-response","37","286378","0.0-6.0-2.0-0.10","e53autkf21","one_one","1","direct_first","1","rx07en11","0","20","1","1","3","1","","0","1","0","null","","","<div class = 'row'><div class = 'column'><img src = 'category3/CS1.png' width = '70%;'></div><div class = 'column'><img src = 'usneg/9290.bmp' width = '100%;'></div></div>","null","neg","CS","CS","3","category3/CS1.png","","","","",""
"","html-keyboard-response","38","288890","0.0-6.0-2.0-0.11","e53autkf21","one_one","1","direct_first","1","rx07en11","0","20","1","1","3","1","","0","1","0","null","","","<div class = 'row'><div class = 'column'><img src = 'usneg/2750.bmp' width = '100%;'></div><div class = 'column'><img src = 'category2/CS1.png' width = '70%;'></div></div>","null","neg","CS","CS","2","category2/CS1.png","","","","",""
"","html-keyboard-response","39","291403","0.0-6.0-2.0-0.12","e53autkf21","one_one","1","direct_first","1","rx07en11","0","20","1","1","3","1","","0","1","0","null","","","<div class = 'row'><div class = 'column'><img src = 'uspos/8190.bmp' width = '100%;'></div><div class = 'column'><img src = 'category1/CS7.png' width = '70%;'></div></div>","null","pos","CS","CS","1","category1/CS7.png","","","","",""
"","html-keyboard-response","40","293913","0.0-6.0-2.0-0.13","e53autkf21","one_one","1","direct_first","1","rx07en11","0","20","1","1","3","1","","0","1","0","null","","","<div class = 'row'><div class = 'column'><img src = 'usneg/9290.bmp' width = '100%;'></div><div class = 'column'><img src = 'category3/CS1.png' width = '70%;'></div></div>","null","neg","CS","CS","3","category3/CS1.png","","","","",""
"","html-keyboard-response","41","296432","0.0-6.0-2.0-0.14","e53autkf21","one_one","1","direct_first","1","rx07en11","0","20","1","1","3","1","","0","1","0","null","","","<div class = 'row'><div class = 'column'><img src = 'category4/CS3.png' width = '70%;'></div><div class = 'column'><img src = 'uspos/8350.bmp' width = '100%;'></div></div>","null","pos","CS","CS","4","category4/CS3.png","","","","",""
"","html-keyboard-response","42","298941","0.0-6.0-2.0-0.15","e53autkf21","one_one","1","direct_first","1","rx07en11","0","20","1","1","3","1","","0","1","0","null","","","<div class = 'row'><div class = 'column'><img src = 'category1/CS7.png' width = '70%;'></div><div class = 'column'><img src = 'uspos/8190.bmp' width = '100%;'></div></div>","null","pos","CS","CS","1","category1/CS7.png","","","","",""
"","html-keyboard-response","43","301451","0.0-6.0-2.0-0.16","e53autkf21","one_one","1","direct_first","1","rx07en11","0","20","1","1","3","1","","0","1","0","null","","","<div class = 'row'><div class = 'column'><img src = 'uspos/8350.bmp' width = '100%;'></div><div class = 'column'><img src = 'category4/CS3.png' width = '70%;'></div></div>","null","pos","CS","CS","4","category4/CS3.png","","","","",""
"","html-keyboard-response","44","303962","0.0-6.0-2.0-0.17","e53autkf21","one_one","1","direct_first","1","rx07en11","0","20","1","1","3","1","","0","1","0","null","","","<div class = 'row'><div class = 'column'><img src = 'category1/CS7.png' width = '70%;'></div><div class = 'column'><img src = 'uspos/8190.bmp' width = '100%;'></div></div>","null","pos","CS","CS","1","category1/CS7.png","","","","",""
"","html-keyboard-response","45","306469","0.0-6.0-2.0-0.18","e53autkf21","one_one","1","direct_first","1","rx07en11","0","20","1","1","3","1","","0","1","0","null","","","<div class = 'row'><div class = 'column'><img src = 'category2/CS1.png' width = '70%;'></div><div class = 'column'><img src = 'usneg/2750.bmp' width = '100%;'></div></div>","null","neg","CS","CS","2","category2/CS1.png","","","","",""
"","html-keyboard-response","46","308985","0.0-6.0-2.0-0.19","e53autkf21","one_one","1","direct_first","1","rx07en11","0","20","1","1","3","1","","0","1","0","null","","","<div class = 'row'><div class = 'column'><img src = 'category3/CS1.png' width = '70%;'></div><div class = 'column'><img src = 'usneg/9290.bmp' width = '100%;'></div></div>","null","neg","CS","CS","3","category3/CS1.png","","","","",""
"","survey-html-form","47","311469","0.0-6.0-3.0","e53autkf21","one_one","1","direct_first","1","rx07en11","0","20","1","1","3","1","","0","1","0","1978.929999999993","","{}","","","","","","","","","","","",""
"","html-keyboard-response","48","315484","0.0-6.0-4.0-0.0","e53autkf21","one_one","1","direct_first","1","rx07en11","0","20","1","1","3","1","","0","1","0","null","","","<div class = 'row'><div class = 'column'><img src = 'uspos/8190.bmp' width = '100%;'></div><div class = 'column'><img src = 'category1/CS7.png' width = '70%;'></div></div>","null","pos","CS","CS","1","category1/CS7.png","","","","",""
"","html-keyboard-response","49","317999","0.0-6.0-4.0-0.1","e53autkf21","one_one","1","direct_first","1","rx07en11","0","20","1","1","3","1","","0","1","0","null","","","<div class = 'row'><div class = 'column'><img src = 'category2/CS1.png' width = '70%;'></div><div class = 'column'><img src = 'usneg/2750.bmp' width = '100%;'></div></div>","null","neg","CS","CS","2","category2/CS1.png","","","","",""
"","html-keyboard-response","50","320510","0.0-6.0-4.0-0.2","e53autkf21","one_one","1","direct_first","1","rx07en11","0","20","1","1","3","1","","0","1","0","null","","","<div class = 'row'><div class = 'column'><img src = 'uspos/8350.bmp' width = '100%;'></div><div class = 'column'><img src = 'category4/CS3.png' width = '70%;'></div></div>","null","pos","CS","CS","4","category4/CS3.png","","","","",""
"","html-keyboard-response","51","323025","0.0-6.0-4.0-0.3","e53autkf21","one_one","1","direct_first","1","rx07en11","0","20","1","1","3","1","","0","1","0","null","","","<div class = 'row'><div class = 'column'><img src = 'category3/CS1.png' width = '70%;'></div><div class = 'column'><img src = 'usneg/9290.bmp' width = '100%;'></div></div>","null","neg","CS","CS","3","category3/CS1.png","","","","",""
"","html-keyboard-response","52","325535","0.0-6.0-4.0-0.4","e53autkf21","one_one","1","direct_first","1","rx07en11","0","20","1","1","3","1","","0","1","0","null","","","<div class = 'row'><div class = 'column'><img src = 'uspos/8350.bmp' width = '100%;'></div><div class = 'column'><img src = 'category4/CS3.png' width = '70%;'></div></div>","null","pos","CS","CS","4","category4/CS3.png","","","","",""
"","html-keyboard-response","53","328041","0.0-6.0-4.0-0.5","e53autkf21","one_one","1","direct_first","1","rx07en11","0","20","1","1","3","1","","0","1","0","null","","","<div class = 'row'><div class = 'column'><img src = 'usneg/9290.bmp' width = '100%;'></div><div class = 'column'><img src = 'category3/CS1.png' width = '70%;'></div></div>","null","neg","CS","CS","3","category3/CS1.png","","","","",""
"","html-keyboard-response","54","330554","0.0-6.0-4.0-0.6","e53autkf21","one_one","1","direct_first","1","rx07en11","0","20","1","1","3","1","","0","1","0","null","","","<div class = 'row'><div class = 'column'><img src = 'category4/CS3.png' width = '70%;'></div><div class = 'column'><img src = 'uspos/8350.bmp' width = '100%;'></div></div>","null","pos","CS","CS","4","category4/CS3.png","","","","",""
"","html-keyboard-response","55","333065","0.0-6.0-4.0-0.7","e53autkf21","one_one","1","direct_first","1","rx07en11","0","20","1","1","3","1","","0","1","0","null","","","<div class = 'row'><div class = 'column'><img src = 'category2/CS1.png' width = '70%;'></div><div class = 'column'><img src = 'usneg/2750.bmp' width = '100%;'></div></div>","null","neg","CS","CS","2","category2/CS1.png","","","","",""
"","html-keyboard-response","56","335580","0.0-6.0-4.0-0.8","e53autkf21","one_one","1","direct_first","1","rx07en11","0","20","1","1","3","1","","0","1","0","null","","","<div class = 'row'><div class = 'column'><img src = 'category4/CS3.png' width = '70%;'></div><div class = 'column'><img src = 'uspos/8350.bmp' width = '100%;'></div></div>","null","pos","CS","CS","4","category4/CS3.png","","","","",""
"","html-keyboard-response","57","338085","0.0-6.0-4.0-0.9","e53autkf21","one_one","1","direct_first","1","rx07en11","0","20","1","1","3","1","","0","1","0","null","","","<div class = 'row'><div class = 'column'><img src = 'category1/CS7.png' width = '70%;'></div><div class = 'column'><img src = 'uspos/8190.bmp' width = '100%;'></div></div>","null","pos","CS","CS","1","category1/CS7.png","","","","",""
"","html-keyboard-response","58","340599","0.0-6.0-4.0-0.10","e53autkf21","one_one","1","direct_first","1","rx07en11","0","20","1","1","3","1","","0","1","0","null","","","<div class = 'row'><div class = 'column'><img src = 'usneg/9290.bmp' width = '100%;'></div><div class = 'column'><img src = 'category3/CS1.png' width = '70%;'></div></div>","null","neg","CS","CS","3","category3/CS1.png","","","","",""
"","html-keyboard-response","59","343103","0.0-6.0-4.0-0.11","e53autkf21","one_one","1","direct_first","1","rx07en11","0","20","1","1","3","1","","0","1","0","null","","","<div class = 'row'><div class = 'column'><img src = 'category2/CS1.png' width = '70%;'></div><div class = 'column'><img src = 'usneg/2750.bmp' width = '100%;'></div></div>","null","neg","CS","CS","2","category2/CS1.png","","","","",""
"","html-keyboard-response","60","345620","0.0-6.0-4.0-0.12","e53autkf21","one_one","1","direct_first","1","rx07en11","0","20","1","1","3","1","","0","1","0","null","","","<div class = 'row'><div class = 'column'><img src = 'uspos/8190.bmp' width = '100%;'></div><div class = 'column'><img src = 'category1/CS7.png' width = '70%;'></div></div>","null","pos","CS","CS","1","category1/CS7.png","","","","",""
"","html-keyboard-response","61","348133","0.0-6.0-4.0-0.13","e53autkf21","one_one","1","direct_first","1","rx07en11","0","20","1","1","3","1","","0","1","0","null","","","<div class = 'row'><div class = 'column'><img src = 'usneg/2750.bmp' width = '100%;'></div><div class = 'column'><img src = 'category2/CS1.png' width = '70%;'></div></div>","null","neg","CS","CS","2","category2/CS1.png","","","","",""
"","html-keyboard-response","62","350646","0.0-6.0-4.0-0.14","e53autkf21","one_one","1","direct_first","1","rx07en11","0","20","1","1","3","1","","0","1","0","null","","","<div class = 'row'><div class = 'column'><img src = 'category4/CS3.png' width = '70%;'></div><div class = 'column'><img src = 'uspos/8350.bmp' width = '100%;'></div></div>","null","pos","CS","CS","4","category4/CS3.png","","","","",""
"","html-keyboard-response","63","353152","0.0-6.0-4.0-0.15","e53autkf21","one_one","1","direct_first","1","rx07en11","0","20","1","1","3","1","","0","1","0","null","","","<div class = 'row'><div class = 'column'><img src = 'uspos/8190.bmp' width = '100%;'></div><div class = 'column'><img src = 'category1/CS7.png' width = '70%;'></div></div>","null","pos","CS","CS","1","category1/CS7.png","","","","",""
"","html-keyboard-response","64","355659","0.0-6.0-4.0-0.16","e53autkf21","one_one","1","direct_first","1","rx07en11","0","20","1","1","3","1","","0","1","0","null","","","<div class = 'row'><div class = 'column'><img src = 'usneg/9290.bmp' width = '100%;'></div><div class = 'column'><img src = 'category3/CS1.png' width = '70%;'></div></div>","null","neg","CS","CS","3","category3/CS1.png","","","","",""
"","html-keyboard-response","65","358170","0.0-6.0-4.0-0.17","e53autkf21","one_one","1","direct_first","1","rx07en11","0","20","1","1","3","1","","0","1","0","null","","","<div class = 'row'><div class = 'column'><img src = 'usneg/2750.bmp' width = '100%;'></div><div class = 'column'><img src = 'category2/CS1.png' width = '70%;'></div></div>","null","neg","CS","CS","2","category2/CS1.png","","","","",""
"","html-keyboard-response","66","360683","0.0-6.0-4.0-0.18","e53autkf21","one_one","1","direct_first","1","rx07en11","0","20","1","1","3","1","","0","1","0","null","","","<div class = 'row'><div class = 'column'><img src = 'category3/CS1.png' width = '70%;'></div><div class = 'column'><img src = 'usneg/9290.bmp' width = '100%;'></div></div>","null","neg","CS","CS","3","category3/CS1.png","","","","",""
"","html-keyboard-response","67","363195","0.0-6.0-4.0-0.19","e53autkf21","one_one","1","direct_first","1","rx07en11","0","20","1","1","3","1","","0","1","0","null","","","<div class = 'row'><div class = 'column'><img src = 'uspos/8190.bmp' width = '100%;'></div><div class = 'column'><img src = 'category1/CS7.png' width = '70%;'></div></div>","null","pos","CS","CS","1","category1/CS7.png","","","","",""
"","survey-html-form","68","366362","0.0-6.0-5.0","e53autkf21","one_one","1","direct_first","1","rx07en11","0","20","1","1","3","1","","0","1","0","2659.055000000051","","{}","","","","","","","","","","","",""
"","html-keyboard-response","69","370380","0.0-6.0-6.0-0.0","e53autkf21","one_one","1","direct_first","1","rx07en11","0","20","1","1","3","1","","0","1","0","null","","","<div class = 'row'><div class = 'column'><img src = 'usneg/9290.bmp' width = '100%;'></div><div class = 'column'><img src = 'category3/CS1.png' width = '70%;'></div></div>","null","neg","CS","CS","3","category3/CS1.png","","","","",""
"","html-keyboard-response","70","372897","0.0-6.0-6.0-0.1","e53autkf21","one_one","1","direct_first","1","rx07en11","0","20","1","1","3","1","","0","1","0","null","","","<div class = 'row'><div class = 'column'><img src = 'uspos/8350.bmp' width = '100%;'></div><div class = 'column'><img src = 'category4/CS3.png' width = '70%;'></div></div>","null","pos","CS","CS","4","category4/CS3.png","","","","",""
"","html-keyboard-response","71","375408","0.0-6.0-6.0-0.2","e53autkf21","one_one","1","direct_first","1","rx07en11","0","20","1","1","3","1","","0","1","0","null","","","<div class = 'row'><div class = 'column'><img src = 'usneg/9290.bmp' width = '100%;'></div><div class = 'column'><img src = 'category3/CS1.png' width = '70%;'></div></div>","null","neg","CS","CS","3","category3/CS1.png","","","","",""
"","html-keyboard-response","72","377919","0.0-6.0-6.0-0.3","e53autkf21","one_one","1","direct_first","1","rx07en11","0","20","1","1","3","1","","0","1","0","null","","","<div class = 'row'><div class = 'column'><img src = 'category2/CS1.png' width = '70%;'></div><div class = 'column'><img src = 'usneg/2750.bmp' width = '100%;'></div></div>","null","neg","CS","CS","2","category2/CS1.png","","","","",""
"","html-keyboard-response","73","380437","0.0-6.0-6.0-0.4","e53autkf21","one_one","1","direct_first","1","rx07en11","0","20","1","1","3","1","","0","1","0","null","","","<div class = 'row'><div class = 'column'><img src = 'category1/CS7.png' width = '70%;'></div><div class = 'column'><img src = 'uspos/8190.bmp' width = '100%;'></div></div>","null","pos","CS","CS","1","category1/CS7.png","","","","",""
"","html-keyboard-response","74","382945","0.0-6.0-6.0-0.5","e53autkf21","one_one","1","direct_first","1","rx07en11","0","20","1","1","3","1","","0","1","0","null","","","<div class = 'row'><div class = 'column'><img src = 'uspos/8350.bmp' width = '100%;'></div><div class = 'column'><img src = 'category4/CS3.png' width = '70%;'></div></div>","null","pos","CS","CS","4","category4/CS3.png","","","","",""
"","html-keyboard-response","75","385453","0.0-6.0-6.0-0.6","e53autkf21","one_one","1","direct_first","1","rx07en11","0","20","1","1","3","1","","0","1","0","null","","","<div class = 'row'><div class = 'column'><img src = 'usneg/9290.bmp' width = '100%;'></div><div class = 'column'><img src = 'category3/CS1.png' width = '70%;'></div></div>","null","neg","CS","CS","3","category3/CS1.png","","","","",""
"","html-keyboard-response","76","387958","0.0-6.0-6.0-0.7","e53autkf21","one_one","1","direct_first","1","rx07en11","0","20","1","1","3","1","","0","1","0","null","","","<div class = 'row'><div class = 'column'><img src = 'usneg/2750.bmp' width = '100%;'></div><div class = 'column'><img src = 'category2/CS1.png' width = '70%;'></div></div>","null","neg","CS","CS","2","category2/CS1.png","","","","",""
"","html-keyboard-response","77","390473","0.0-6.0-6.0-0.8","e53autkf21","one_one","1","direct_first","1","rx07en11","0","20","1","1","3","1","","0","1","0","null","","","<div class = 'row'><div class = 'column'><img src = 'category1/CS7.png' width = '70%;'></div><div class = 'column'><img src = 'uspos/8190.bmp' width = '100%;'></div></div>","null","pos","CS","CS","1","category1/CS7.png","","","","",""
"","html-keyboard-response","78","392988","0.0-6.0-6.0-0.9","e53autkf21","one_one","1","direct_first","1","rx07en11","0","20","1","1","3","1","","0","1","0","null","","","<div class = 'row'><div class = 'column'><img src = 'category3/CS1.png' width = '70%;'></div><div class = 'column'><img src = 'usneg/9290.bmp' width = '100%;'></div></div>","null","neg","CS","CS","3","category3/CS1.png","","","","",""
"","html-keyboard-response","79","395501","0.0-6.0-6.0-0.10","e53autkf21","one_one","1","direct_first","1","rx07en11","0","20","1","1","3","1","","0","1","0","null","","","<div class = 'row'><div class = 'column'><img src = 'uspos/8190.bmp' width = '100%;'></div><div class = 'column'><img src = 'category1/CS7.png' width = '70%;'></div></div>","null","pos","CS","CS","1","category1/CS7.png","","","","",""
"","html-keyboard-response","80","398011","0.0-6.0-6.0-0.11","e53autkf21","one_one","1","direct_first","1","rx07en11","0","20","1","1","3","1","","0","1","0","null","","","<div class = 'row'><div class = 'column'><img src = 'uspos/8350.bmp' width = '100%;'></div><div class = 'column'><img src = 'category4/CS3.png' width = '70%;'></div></div>","null","pos","CS","CS","4","category4/CS3.png","","","","",""
"","html-keyboard-response","81","400521","0.0-6.0-6.0-0.12","e53autkf21","one_one","1","direct_first","1","rx07en11","0","20","1","1","3","1","","0","1","0","null","","","<div class = 'row'><div class = 'column'><img src = 'usneg/2750.bmp' width = '100%;'></div><div class = 'column'><img src = 'category2/CS1.png' width = '70%;'></div></div>","null","neg","CS","CS","2","category2/CS1.png","","","","",""
"","html-keyboard-response","82","403038","0.0-6.0-6.0-0.13","e53autkf21","one_one","1","direct_first","1","rx07en11","0","20","1","1","3","1","","0","1","0","null","","","<div class = 'row'><div class = 'column'><img src = 'category1/CS7.png' width = '70%;'></div><div class = 'column'><img src = 'uspos/8190.bmp' width = '100%;'></div></div>","null","pos","CS","CS","1","category1/CS7.png","","","","",""
"","html-keyboard-response","83","405551","0.0-6.0-6.0-0.14","e53autkf21","one_one","1","direct_first","1","rx07en11","0","20","1","1","3","1","","0","1","0","null","","","<div class = 'row'><div class = 'column'><img src = 'category2/CS1.png' width = '70%;'></div><div class = 'column'><img src = 'usneg/2750.bmp' width = '100%;'></div></div>","null","neg","CS","CS","2","category2/CS1.png","","","","",""
"","html-keyboard-response","84","408056","0.0-6.0-6.0-0.15","e53autkf21","one_one","1","direct_first","1","rx07en11","0","20","1","1","3","1","","0","1","0","null","","","<div class = 'row'><div class = 'column'><img src = 'uspos/8350.bmp' width = '100%;'></div><div class = 'column'><img src = 'category4/CS3.png' width = '70%;'></div></div>","null","pos","CS","CS","4","category4/CS3.png","","","","",""
"","html-keyboard-response","85","410575","0.0-6.0-6.0-0.16","e53autkf21","one_one","1","direct_first","1","rx07en11","0","20","1","1","3","1","","0","1","0","null","","","<div class = 'row'><div class = 'column'><img src = 'usneg/2750.bmp' width = '100%;'></div><div class = 'column'><img src = 'category2/CS1.png' width = '70%;'></div></div>","null","neg","CS","CS","2","category2/CS1.png","","","","",""
"","html-keyboard-response","86","413088","0.0-6.0-6.0-0.17","e53autkf21","one_one","1","direct_first","1","rx07en11","0","20","1","1","3","1","","0","1","0","null","","","<div class = 'row'><div class = 'column'><img src = 'uspos/8350.bmp' width = '100%;'></div><div class = 'column'><img src = 'category4/CS3.png' width = '70%;'></div></div>","null","pos","CS","CS","4","category4/CS3.png","","","","",""
"","html-keyboard-response","87","415603","0.0-6.0-6.0-0.18","e53autkf21","one_one","1","direct_first","1","rx07en11","0","20","1","1","3","1","","0","1","0","null","","","<div class = 'row'><div class = 'column'><img src = 'category1/CS7.png' width = '70%;'></div><div class = 'column'><img src = 'uspos/8190.bmp' width = '100%;'></div></div>","null","pos","CS","CS","1","category1/CS7.png","","","","",""
"","html-keyboard-response","88","418118","0.0-6.0-6.0-0.19","e53autkf21","one_one","1","direct_first","1","rx07en11","0","20","1","1","3","1","","0","1","0","null","","","<div class = 'row'><div class = 'column'><img src = 'category3/CS1.png' width = '70%;'></div><div class = 'column'><img src = 'usneg/9290.bmp' width = '100%;'></div></div>","null","neg","CS","CS","3","category3/CS1.png","","","","",""
"","survey-html-form","89","432753","0.0-7.0","e53autkf21","one_one","1","direct_first","1","rx07en11","0","20","1","1","3","1","","0","1","0","14128.02500000014","","{}","","","","","","","","","","","",""
"","image-slider-response","90","443314","0.0-8.0-0.0","e53autkf21","one_one","1","direct_first","1","rx07en11","0","20","1","1","3","1","","0","1","0","8551.23000000004","","","","","neg","GS","GSold","2","category2/CS4.png","-59","targets/31.png","direct","",""
"","image-slider-response","91","448883","0.0-8.0-0.1","e53autkf21","one_one","1","direct_first","1","rx07en11","0","20","1","1","3","1","","0","1","0","5565.764999999956","","","","","pos","GS","GSold","1","category1/CS3.png","39","targets/4.png","direct","",""
"","image-slider-response","92","458467","0.0-8.0-0.2","e53autkf21","one_one","1","direct_first","1","rx07en11","0","20","1","1","3","1","","0","1","0","9581.585000000021","","","","","pos","GS","GSnew","1","category1/GS2.png","43","targets/35.png","direct","",""
"","image-slider-response","93","463657","0.0-8.0-0.3","e53autkf21","one_one","1","direct_first","1","rx07en11","0","20","1","1","3","1","","0","1","0","5187.334999999963","","","","","pos","CS","CS","4","category4/CS3.png","82","targets/21.png","direct","",""
"","image-slider-response","94","468821","0.0-8.0-0.4","e53autkf21","one_one","1","direct_first","1","rx07en11","0","20","1","1","3","1","","0","1","0","5161.990000000049","","","","","neg","CS","CS","2","category2/CS1.png","-75","targets/15.png","direct","",""
"","image-slider-response","95","479827","0.0-8.0-0.5","e53autkf21","one_one","1","direct_first","1","rx07en11","0","20","1","1","3","1","","0","1","0","11003.029999999912","","","","","neg","GS","GSnew","3","category3/GS1.png","7","targets/16.png","direct","",""
"","image-slider-response","96","486548","0.0-8.0-0.6","e53autkf21","one_one","1","direct_first","1","rx07en11","0","20","1","1","3","1","","0","1","0","6718.199999999895","","","","","neg","GS","GSnew","2","category2/GS3.png","45","targets/47.png","direct","",""
"","image-slider-response","97","490404","0.0-8.0-0.7","e53autkf21","one_one","1","direct_first","1","rx07en11","0","20","1","1","3","1","","0","1","0","3853.774999999907","","","","","pos","GS","GSold","4","category4/CS1.png","60","targets/17.png","direct","",""
"","image-slider-response","98","494665","0.0-8.0-0.8","e53autkf21","one_one","1","direct_first","1","rx07en11","0","20","1","1","3","1","","0","1","0","4259.039999999921","","","","","neg","GS","abstract","3","category3/wang.png","-45","targets/23.png","direct","",""
"","image-slider-response","99","499152","0.0-8.0-0.9","e53autkf21","one_one","1","direct_first","1","rx07en11","0","20","1","1","3","1","","0","1","0","4485.1699999999255","","","","","pos","GS","GSnew","1","category1/GS1.png","65","targets/1.png","direct","",""
"","image-slider-response","100","502872","0.0-8.0-0.10","e53autkf21","one_one","1","direct_first","1","rx07en11","0","20","1","1","3","1","","0","1","0","3718.8300000000745","","","","","pos","GS","GSold","4","category4/CS4.png","23","targets/25.png","direct","",""
"","image-slider-response","101","509233","0.0-8.0-0.11","e53autkf21","one_one","1","direct_first","1","rx07en11","0","20","1","1","3","1","","0","1","0","6358.660000000149","","","","","neg","GS","GSnew","3","category3/GS3.png","-56","targets/12.png","direct","",""
"","image-slider-response","102","515776","0.0-8.0-0.12","e53autkf21","one_one","1","direct_first","1","rx07en11","0","20","1","1","3","1","","0","1","0","6538.755000000063","","","","","neg","GS","GSold","2","category2/CS2.png","65","targets/13.png","direct","",""
"","image-slider-response","103","520701","0.0-8.0-0.13","e53autkf21","one_one","1","direct_first","1","rx07en11","0","20","1","1","3","1","","0","1","0","4922.209999999963","","","","","pos","GS","abstract","1","category1/ma.png","31","targets/29.png","direct","",""
"","image-slider-response","104","527398","0.0-8.0-0.14","e53autkf21","one_one","1","direct_first","1","rx07en11","0","20","1","1","3","1","","0","1","0","6694.2949999999255","","","","","pos","GS","GSold","1","category1/CS6.png","-66","targets/28.png","direct","",""
"","image-slider-response","105","531592","0.0-8.0-0.15","e53autkf21","one_one","1","direct_first","1","rx07en11","0","20","1","1","3","1","","0","1","0","4191.679999999818","","","","","neg","GS","GSold","3","category3/CS4.png","-69","targets/39.png","direct","",""
"","image-slider-response","106","538629","0.0-8.0-0.16","e53autkf21","one_one","1","direct_first","1","rx07en11","0","20","1","1","3","1","","0","1","0","7033.919999999809","","","","","neg","GS","GSnew","2","category2/GS1.png","-57","targets/41.png","direct","",""
"","image-slider-response","107","544804","0.0-8.0-0.17","e53autkf21","one_one","1","direct_first","1","rx07en11","0","20","1","1","3","1","","0","1","0","6172.9349999999395","","","","","neg","CS","CS","3","category3/CS1.png","-26","targets/33.png","direct","",""
"","image-slider-response","108","550513","0.0-8.0-0.18","e53autkf21","one_one","1","direct_first","1","rx07en11","0","20","1","1","3","1","","0","1","0","5705.834999999963","","","","","neg","GS","GSnew","2","category2/GS2.png","-24","targets/18.png","direct","",""
"","image-slider-response","109","554034","0.0-8.0-0.19","e53autkf21","one_one","1","direct_first","1","rx07en11","0","20","1","1","3","1","","0","1","0","3518.795000000042","","","","","pos","GS","GSold","1","category1/CS2.png","84","targets/22.png","direct","",""
"","image-slider-response","110","559103","0.0-8.0-0.20","e53autkf21","one_one","1","direct_first","1","rx07en11","0","20","1","1","3","1","","0","1","0","5066.060000000172","","","","","neg","GS","GSnew","3","category3/GS2.png","-29","targets/46.png","direct","",""
"","image-slider-response","111","564753","0.0-8.0-0.21","e53autkf21","one_one","1","direct_first","1","rx07en11","0","20","1","1","3","1","","0","1","0","5647.429999999935","","","","","pos","CS","CS","1","category1/CS7.png","98","targets/9.png","direct","",""
"","image-slider-response","112","570124","0.0-8.0-0.22","e53autkf21","one_one","1","direct_first","1","rx07en11","0","20","1","1","3","1","","0","1","0","5368.285000000033","","","","","neg","GS","abstract","2","category2/men.png","50","targets/8.png","direct","",""
"","image-slider-response","113","575149","0.0-8.0-0.23","e53autkf21","one_one","1","direct_first","1","rx07en11","0","20","1","1","3","1","","0","1","0","5022.414999999921","","","","","pos","GS","GSnew","4","category4/GS3.png","43","targets/45.png","direct","",""
"","image-slider-response","114","580633","0.0-8.0-0.24","e53autkf21","one_one","1","direct_first","1","rx07en11","0","20","1","1","3","1","","0","1","0","5481.545000000042","","","","","neg","GS","GSold","2","category2/CS6.png","35","targets/34.png","direct","",""
"","image-slider-response","115","584245","0.0-8.0-0.25","e53autkf21","one_one","1","direct_first","1","rx07en11","0","20","1","1","3","1","","0","1","0","3609.774999999907","","","","","pos","GS","GSold","4","category4/CS10.png","45","targets/6.png","direct","",""
"","image-slider-response","116","587835","0.0-8.0-0.26","e53autkf21","one_one","1","direct_first","1","rx07en11","0","20","1","1","3","1","","0","1","0","3587.3950000000186","","","","","pos","GS","GSnew","1","category1/GS3.png","79","targets/19.png","direct","",""
"","image-slider-response","117","592924","0.0-8.0-0.27","e53autkf21","one_one","1","direct_first","1","rx07en11","0","20","1","1","3","1","","0","1","0","5086.160000000033","","","","","pos","GS","abstract","4","category4/lin.png","38","targets/26.png","direct","",""
"","image-slider-response","118","597904","0.0-8.0-0.28","e53autkf21","one_one","1","direct_first","1","rx07en11","0","20","1","1","3","1","","0","1","0","4977.629999999888","","","","","pos","GS","GSnew","4","category4/GS1.png","-68","targets/48.png","direct","",""
"","image-slider-response","119","601894","0.0-8.0-0.29","e53autkf21","one_one","1","direct_first","1","rx07en11","0","20","1","1","3","1","","0","1","0","3987.704999999958","","","","","neg","GS","GSold","3","category3/CS7.png","-55","targets/40.png","direct","",""
"","image-slider-response","120","606223","0.0-8.0-0.30","e53autkf21","one_one","1","direct_first","1","rx07en11","0","20","1","1","3","1","","0","1","0","4326.469999999972","","","","","pos","GS","GSnew","4","category4/GS2.png","-80","targets/30.png","direct","",""
"","image-slider-response","121","610004","0.0-8.0-0.31","e53autkf21","one_one","1","direct_first","1","rx07en11","0","20","1","1","3","1","","0","1","0","3778.6549999999115","","","","","neg","GS","GSold","3","category3/CS9.png","-49","targets/10.png","direct","",""
"","html-keyboard-response","122","651300","0.0-9.0","e53autkf21","one_one","1","direct_first","1","rx07en11","0","20","1","1","3","1","","0","1","0","41297.37999999989","","","<p>Sie sehen nun die chinesischen Zeichen nur ganz kurz. Danach sehen Sie die jeweilige Aussprache der Zeichen als Silbe auf dem Bildschrim. Ihre Aufgabe ist es, für jede Silbe anzugeben, ob diese etwas angenehmes, oder unangenehmes bedeuten könnte. Verlassen Sie sich hier vor allem auf Ihre Intuition.<br><br>Die Zeichen werden nur zur Orientierung dargestellt, beachten Sie sie deshalb nicht. Konzentrieren Sie sich vor allem auf die Silben. <br>Reagieren Sie mit folgenden zwei Tasten: <br><br><b>'D' </b> wenn die Silbe etwas <b>unangenehmes</b> bedeuten könnte. <br><b>'K'</b> wenn die Silbe etwas <b>angenehmes</b> bedeuten könnte. <br><br>Bitte legen Sie nun den Zeigefinger der linken Hand auf die Taste 'D' und den Zeigefinger der rechten Hand auf die Taste 'K'. <br>Reagieren Sie auf jede Silbe so schnell wie möglich. Uns interessiert Ihre spontane Reaktion. <br> <br> <br>Drücken Sie 'D' oder 'K', um die nächste Aufgabe zu starten. </p>","68","","","","","","","","","",""
"","html-keyboard-response","123","654306","0.0-10.0-0.0","e53autkf21","one_one","1","direct_first","1","rx07en11","0","20","1","1","3","1","","0","1","0","null","","","<div style=""font-size:60px;"">+</div>","null","","","","","","","","","",""
"","html-keyboard-response","124","654407","0.0-10.0-1.0","e53autkf21","one_one","1","direct_first","1","rx07en11","0","20","1","1","3","1","","0","1","0","null","","","<img src = 'category3/CS4.png' width = '100%;'>","null","","","","","","","","","",""
"","html-keyboard-response","125","654663","0.0-10.0-2.0","e53autkf21","one_one","1","direct_first","1","rx07en11","0","20","1","1","3","1","","0","1","0","null","","","<img src = 'targets/39.png' width = '100%;'>","null","","","","","","","","","",""
"","html-keyboard-response","126","658750","0.0-10.0-3.0","e53autkf21","one_one","1","direct_first","1","rx07en11","0","20","1","1","3","1","","0","1","0","4086.535000000149","","","<img src = 'targets/mask.png' width = '100%;'>","68","neg","GS","GSold","3","category3/CS4.png","","targets/39.png","indirect","0","0"
"","html-keyboard-response","127","660263","0.0-10.0-0.1","e53autkf21","one_one","1","direct_first","1","rx07en11","0","20","1","1","3","1","","0","1","0","null","","","<div style=""font-size:60px;"">+</div>","null","","","","","","","","","",""
"","html-keyboard-response","128","660362","0.0-10.0-1.1","e53autkf21","one_one","1","direct_first","1","rx07en11","0","20","1","1","3","1","","0","1","0","null","","","<img src = 'category2/CS6.png' width = '100%;'>","null","","","","","","","","","",""
"","html-keyboard-response","129","660621","0.0-10.0-2.1","e53autkf21","one_one","1","direct_first","1","rx07en11","0","20","1","1","3","1","","0","1","0","null","","","<img src = 'targets/34.png' width = '100%;'>","null","","","","","","","","","",""
"","html-keyboard-response","130","666311","0.0-10.0-3.1","e53autkf21","one_one","1","direct_first","1","rx07en11","0","20","1","1","3","1","","0","1","0","5688.660000000033","","","<img src = 'targets/mask.png' width = '100%;'>","75","neg","GS","GSold","2","category2/CS6.png","","targets/34.png","indirect","1","1"
"","html-keyboard-response","131","667825","0.0-10.0-0.2","e53autkf21","one_one","1","direct_first","1","rx07en11","0","20","1","1","3","1","","0","1","0","null","","","<div style=""font-size:60px;"">+</div>","null","","","","","","","","","",""
"","html-keyboard-response","132","667922","0.0-10.0-1.2","e53autkf21","one_one","1","direct_first","1","rx07en11","0","20","1","1","3","1","","0","1","0","null","","","<img src = 'category1/CS2.png' width = '100%;'>","null","","","","","","","","","",""
"","html-keyboard-response","133","668182","0.0-10.0-2.2","e53autkf21","one_one","1","direct_first","1","rx07en11","0","20","1","1","3","1","","0","1","0","null","","","<img src = 'targets/22.png' width = '100%;'>","null","","","","","","","","","",""
"","html-keyboard-response","134","670912","0.0-10.0-3.2","e53autkf21","one_one","1","direct_first","1","rx07en11","0","20","1","1","3","1","","0","1","0","2727.8299999998417","","","<img src = 'targets/mask.png' width = '100%;'>","75","pos","GS","GSold","1","category1/CS2.png","","targets/22.png","indirect","1","2"
"","html-keyboard-response","135","672421","0.0-10.0-0.3","e53autkf21","one_one","1","direct_first","1","rx07en11","0","20","1","1","3","1","","0","1","0","null","","","<div style=""font-size:60px;"">+</div>","null","","","","","","","","","",""
"","html-keyboard-response","136","672513","0.0-10.0-1.3","e53autkf21","one_one","1","direct_first","1","rx07en11","0","20","1","1","3","1","","0","1","0","null","","","<img src = 'category2/CS4.png' width = '100%;'>","null","","","","","","","","","",""
"","html-keyboard-response","137","672778","0.0-10.0-2.3","e53autkf21","one_one","1","direct_first","1","rx07en11","0","20","1","1","3","1","","0","1","0","null","","","<img src = 'targets/31.png' width = '100%;'>","null","","","","","","","","","",""
"","html-keyboard-response","138","673955","0.0-10.0-3.3","e53autkf21","one_one","1","direct_first","1","rx07en11","0","20","1","1","3","1","","0","1","0","1175.1749999999302","","","<img src = 'targets/mask.png' width = '100%;'>","68","neg","GS","GSold","2","category2/CS4.png","","targets/31.png","indirect","0","3"
"","html-keyboard-response","139","675467","0.0-10.0-0.4","e53autkf21","one_one","1","direct_first","1","rx07en11","0","20","1","1","3","1","","0","1","0","null","","","<div style=""font-size:60px;"">+</div>","null","","","","","","","","","",""
"","html-keyboard-response","140","675559","0.0-10.0-1.4","e53autkf21","one_one","1","direct_first","1","rx07en11","0","20","1","1","3","1","","0","1","0","null","","","<img src = 'category2/CS2.png' width = '100%;'>","null","","","","","","","","","",""
"","html-keyboard-response","141","675821","0.0-10.0-2.4","e53autkf21","one_one","1","direct_first","1","rx07en11","0","20","1","1","3","1","","0","1","0","null","","","<img src = 'targets/13.png' width = '100%;'>","null","","","","","","","","","",""
"","html-keyboard-response","142","677668","0.0-10.0-3.4","e53autkf21","one_one","1","direct_first","1","rx07en11","0","20","1","1","3","1","","0","1","0","1845.2550000000047","","","<img src = 'targets/mask.png' width = '100%;'>","75","neg","GS","GSold","2","category2/CS2.png","","targets/13.png","indirect","1","4"
"","html-keyboard-response","143","679184","0.0-10.0-0.5","e53autkf21","one_one","1","direct_first","1","rx07en11","0","20","1","1","3","1","","0","1","0","null","","","<div style=""font-size:60px;"">+</div>","null","","","","","","","","","",""
"","html-keyboard-response","144","679277","0.0-10.0-1.5","e53autkf21","one_one","1","direct_first","1","rx07en11","0","20","1","1","3","1","","0","1","0","null","","","<img src = 'category3/CS7.png' width = '100%;'>","null","","","","","","","","","",""
"","html-keyboard-response","145","679537","0.0-10.0-2.5","e53autkf21","one_one","1","direct_first","1","rx07en11","0","20","1","1","3","1","","0","1","0","null","","","<img src = 'targets/40.png' width = '100%;'>","null","","","","","","","","","",""
"","html-keyboard-response","146","683515","0.0-10.0-3.5","e53autkf21","one_one","1","direct_first","1","rx07en11","0","20","1","1","3","1","","0","1","0","3975.085000000079","","","<img src = 'targets/mask.png' width = '100%;'>","68","neg","GS","GSold","3","category3/CS7.png","","targets/40.png","indirect","0","5"
"","html-keyboard-response","147","685027","0.0-10.0-0.6","e53autkf21","one_one","1","direct_first","1","rx07en11","0","20","1","1","3","1","","0","1","0","null","","","<div style=""font-size:60px;"">+</div>","null","","","","","","","","","",""
"","html-keyboard-response","148","685127","0.0-10.0-1.6","e53autkf21","one_one","1","direct_first","1","rx07en11","0","20","1","1","3","1","","0","1","0","null","","","<img src = 'category1/CS6.png' width = '100%;'>","null","","","","","","","","","",""
"","html-keyboard-response","149","685387","0.0-10.0-2.6","e53autkf21","one_one","1","direct_first","1","rx07en11","0","20","1","1","3","1","","0","1","0","null","","","<img src = 'targets/28.png' width = '100%;'>","null","","","","","","","","","",""
"","html-keyboard-response","150","687130","0.0-10.0-3.6","e53autkf21","one_one","1","direct_first","1","rx07en11","0","20","1","1","3","1","","0","1","0","1740.765000000014","","","<img src = 'targets/mask.png' width = '100%;'>","75","pos","GS","GSold","1","category1/CS6.png","","targets/28.png","indirect","1","6"
"","html-keyboard-response","151","688645","0.0-10.0-0.7","e53autkf21","one_one","1","direct_first","1","rx07en11","0","20","1","1","3","1","","0","1","0","null","","","<div style=""font-size:60px;"">+</div>","null","","","","","","","","","",""
"","html-keyboard-response","152","688737","0.0-10.0-1.7","e53autkf21","one_one","1","direct_first","1","rx07en11","0","20","1","1","3","1","","0","1","0","null","","","<img src = 'category3/CS1.png' width = '100%;'>","null","","","","","","","","","",""
"","html-keyboard-response","153","689003","0.0-10.0-2.7","e53autkf21","one_one","1","direct_first","1","rx07en11","0","20","1","1","3","1","","0","1","0","null","","","<img src = 'targets/33.png' width = '100%;'>","null","","","","","","","","","",""
"","html-keyboard-response","154","690091","0.0-10.0-3.7","e53autkf21","one_one","1","direct_first","1","rx07en11","0","20","1","1","3","1","","0","1","0","1086.170000000042","","","<img src = 'targets/mask.png' width = '100%;'>","68","neg","CS","CS","3","category3/CS1.png","","targets/33.png","indirect","0","7"
"","html-keyboard-response","155","691599","0.0-10.0-0.8","e53autkf21","one_one","1","direct_first","1","rx07en11","0","20","1","1","3","1","","0","1","0","null","","","<div style=""font-size:60px;"">+</div>","null","","","","","","","","","",""
"","html-keyboard-response","156","691697","0.0-10.0-1.8","e53autkf21","one_one","1","direct_first","1","rx07en11","0","20","1","1","3","1","","0","1","0","null","","","<img src = 'category1/CS3.png' width = '100%;'>","null","","","","","","","","","",""
"","html-keyboard-response","157","691957","0.0-10.0-2.8","e53autkf21","one_one","1","direct_first","1","rx07en11","0","20","1","1","3","1","","0","1","0","null","","","<img src = 'targets/4.png' width = '100%;'>","null","","","","","","","","","",""
"","html-keyboard-response","158","695682","0.0-10.0-3.8","e53autkf21","one_one","1","direct_first","1","rx07en11","0","20","1","1","3","1","","0","1","0","3723.230000000098","","","<img src = 'targets/mask.png' width = '100%;'>","75","pos","GS","GSold","1","category1/CS3.png","","targets/4.png","indirect","1","8"
"","html-keyboard-response","159","697188","0.0-10.0-0.9","e53autkf21","one_one","1","direct_first","1","rx07en11","0","20","1","1","3","1","","0","1","0","null","","","<div style=""font-size:60px;"">+</div>","null","","","","","","","","","",""
"","html-keyboard-response","160","697287","0.0-10.0-1.9","e53autkf21","one_one","1","direct_first","1","rx07en11","0","20","1","1","3","1","","0","1","0","null","","","<img src = 'category1/CS7.png' width = '100%;'>","null","","","","","","","","","",""
"","html-keyboard-response","161","697553","0.0-10.0-2.9","e53autkf21","one_one","1","direct_first","1","rx07en11","0","20","1","1","3","1","","0","1","0","null","","","<img src = 'targets/9.png' width = '100%;'>","null","","","","","","","","","",""
"","html-keyboard-response","162","699597","0.0-10.0-3.9","e53autkf21","one_one","1","direct_first","1","rx07en11","0","20","1","1","3","1","","0","1","0","2041.420000000042","","","<img src = 'targets/mask.png' width = '100%;'>","75","pos","CS","CS","1","category1/CS7.png","","targets/9.png","indirect","1","9"
"","html-keyboard-response","163","701101","0.0-10.0-0.10","e53autkf21","one_one","1","direct_first","1","rx07en11","0","20","1","1","3","1","","0","1","0","null","","","<div style=""font-size:60px;"">+</div>","null","","","","","","","","","",""
"","html-keyboard-response","164","701196","0.0-10.0-1.10","e53autkf21","one_one","1","direct_first","1","rx07en11","0","20","1","1","3","1","","0","1","0","null","","","<img src = 'category3/CS9.png' width = '100%;'>","null","","","","","","","","","",""
"","html-keyboard-response","165","701448","0.0-10.0-2.10","e53autkf21","one_one","1","direct_first","1","rx07en11","0","20","1","1","3","1","","0","1","0","null","","","<img src = 'targets/10.png' width = '100%;'>","null","","","","","","","","","",""
"","html-keyboard-response","166","703204","0.0-10.0-3.10","e53autkf21","one_one","1","direct_first","1","rx07en11","0","20","1","1","3","1","","0","1","0","1753.830000000191","","","<img src = 'targets/mask.png' width = '100%;'>","68","neg","GS","GSold","3","category3/CS9.png","","targets/10.png","indirect","0","10"
"","html-keyboard-response","167","704714","0.0-10.0-0.11","e53autkf21","one_one","1","direct_first","1","rx07en11","0","20","1","1","3","1","","0","1","0","null","","","<div style=""font-size:60px;"">+</div>","null","","","","","","","","","",""
"","html-keyboard-response","168","704807","0.0-10.0-1.11","e53autkf21","one_one","1","direct_first","1","rx07en11","0","20","1","1","3","1","","0","1","0","null","","","<img src = 'category4/CS1.png' width = '100%;'>","null","","","","","","","","","",""
"","html-keyboard-response","169","705067","0.0-10.0-2.11","e53autkf21","one_one","1","direct_first","1","rx07en11","0","20","1","1","3","1","","0","1","0","null","","","<img src = 'targets/17.png' width = '100%;'>","null","","","","","","","","","",""
"","html-keyboard-response","170","706253","0.0-10.0-3.11","e53autkf21","one_one","1","direct_first","1","rx07en11","0","20","1","1","3","1","","0","1","0","1184.5499999999302","","","<img src = 'targets/mask.png' width = '100%;'>","75","pos","GS","GSold","4","category4/CS1.png","","targets/17.png","indirect","1","11"
"","html-keyboard-response","171","707768","0.0-10.0-0.12","e53autkf21","one_one","1","direct_first","1","rx07en11","0","20","1","1","3","1","","0","1","0","null","","","<div style=""font-size:60px;"">+</div>","null","","","","","","","","","",""
"","html-keyboard-response","172","707867","0.0-10.0-1.12","e53autkf21","one_one","1","direct_first","1","rx07en11","0","20","1","1","3","1","","0","1","0","null","","","<img src = 'category4/CS4.png' width = '100%;'>","null","","","","","","","","","",""
"","html-keyboard-response","173","708119","0.0-10.0-2.12","e53autkf21","one_one","1","direct_first","1","rx07en11","0","20","1","1","3","1","","0","1","0","null","","","<img src = 'targets/25.png' width = '100%;'>","null","","","","","","","","","",""
"","html-keyboard-response","174","710010","0.0-10.0-3.12","e53autkf21","one_one","1","direct_first","1","rx07en11","0","20","1","1","3","1","","0","1","0","1886.015000000014","","","<img src = 'targets/mask.png' width = '100%;'>","75","pos","GS","GSold","4","category4/CS4.png","","targets/25.png","indirect","1","12"
"","html-keyboard-response","175","711520","0.0-10.0-0.13","e53autkf21","one_one","1","direct_first","1","rx07en11","0","20","1","1","3","1","","0","1","0","null","","","<div style=""font-size:60px;"">+</div>","null","","","","","","","","","",""
"","html-keyboard-response","176","711614","0.0-10.0-1.13","e53autkf21","one_one","1","direct_first","1","rx07en11","0","20","1","1","3","1","","0","1","0","null","","","<img src = 'category4/CS10.png' width = '100%;'>","null","","","","","","","","","",""
"","html-keyboard-response","177","711872","0.0-10.0-2.13","e53autkf21","one_one","1","direct_first","1","rx07en11","0","20","1","1","3","1","","0","1","0","null","","","<img src = 'targets/6.png' width = '100%;'>","null","","","","","","","","","",""
"","html-keyboard-response","178","715438","0.0-10.0-3.13","e53autkf21","one_one","1","direct_first","1","rx07en11","0","20","1","1","3","1","","0","1","0","3564.375000000233","","","<img src = 'targets/mask.png' width = '100%;'>","68","pos","GS","GSold","4","category4/CS10.png","","targets/6.png","indirect","0","13"
"","html-keyboard-response","179","716947","0.0-10.0-0.14","e53autkf21","one_one","1","direct_first","1","rx07en11","0","20","1","1","3","1","","0","1","0","null","","","<div style=""font-size:60px;"">+</div>","null","","","","","","","","","",""
"","html-keyboard-response","180","717041","0.0-10.0-1.14","e53autkf21","one_one","1","direct_first","1","rx07en11","0","20","1","1","3","1","","0","1","0","null","","","<img src = 'category4/CS3.png' width = '100%;'>","null","","","","","","","","","",""
"","html-keyboard-response","181","717303","0.0-10.0-2.14","e53autkf21","one_one","1","direct_first","1","rx07en11","0","20","1","1","3","1","","0","1","0","null","","","<img src = 'targets/21.png' width = '100%;'>","null","","","","","","","","","",""
"","html-keyboard-response","182","719247","0.0-10.0-3.14","e53autkf21","one_one","1","direct_first","1","rx07en11","0","20","1","1","3","1","","0","1","0","1941.3800000000047","","","<img src = 'targets/mask.png' width = '100%;'>","75","pos","CS","CS","4","category4/CS3.png","","targets/21.png","indirect","1","14"
"","html-keyboard-response","183","720753","0.0-10.0-0.15","e53autkf21","one_one","1","direct_first","1","rx07en11","0","20","1","1","3","1","","0","1","0","null","","","<div style=""font-size:60px;"">+</div>","null","","","","","","","","","",""
"","html-keyboard-response","184","720844","0.0-10.0-1.15","e53autkf21","one_one","1","direct_first","1","rx07en11","0","20","1","1","3","1","","0","1","0","null","","","<img src = 'category2/CS1.png' width = '100%;'>","null","","","","","","","","","",""
"","html-keyboard-response","185","721104","0.0-10.0-2.15","e53autkf21","one_one","1","direct_first","1","rx07en11","0","20","1","1","3","1","","0","1","0","null","","","<img src = 'targets/15.png' width = '100%;'>","null","","","","","","","","","",""
"","html-keyboard-response","186","722492","0.0-10.0-3.15","e53autkf21","one_one","1","direct_first","1","rx07en11","0","20","1","1","3","1","","0","1","0","1385.8500000000931","","","<img src = 'targets/mask.png' width = '100%;'>","75","neg","CS","CS","2","category2/CS1.png","","targets/15.png","indirect","1","15"
"","survey-html-form","187","725036","0.0-11.0","e53autkf21","one_one","1","direct_first","1","rx07en11","0","20","1","1","3","1","","0","1","0","2035.390000000014","","{}","","","","","","","","","","","",""
"","html-keyboard-response","188","728054","0.0-12.0-0.0","e53autkf21","one_one","1","direct_first","1","rx07en11","0","20","1","1","3","1","","0","1","0","null","","","<div style=""font-size:60px;"">+</div>","null","","","","","","","","","",""
"","html-keyboard-response","189","728147","0.0-12.0-1.0","e53autkf21","one_one","1","direct_first","1","rx07en11","0","20","1","1","3","1","","0","1","0","null","","","<img src = 'category1/GS1.png' width = '100%;'>","null","","","","","","","","","",""
"","html-keyboard-response","190","728407","0.0-12.0-2.0","e53autkf21","one_one","1","direct_first","1","rx07en11","0","20","1","1","3","1","","0","1","0","null","","","<img src = 'targets/1.png' width = '100%;'>","null","","","","","","","","","",""
"","html-keyboard-response","191","729422","0.0-12.0-3.0","e53autkf21","one_one","1","direct_first","1","rx07en11","0","20","1","1","3","1","","0","1","0","1012.734999999986","","","<img src = 'targets/mask.png' width = '100%;'>","68","pos","GS","GSnew","1","category1/GS1.png","","targets/1.png","indirect","0","16"
"","html-keyboard-response","192","730944","0.0-12.0-0.1","e53autkf21","one_one","1","direct_first","1","rx07en11","0","20","1","1","3","1","","0","1","0","null","","","<div style=""font-size:60px;"">+</div>","null","","","","","","","","","",""
"","html-keyboard-response","193","731043","0.0-12.0-1.1","e53autkf21","one_one","1","direct_first","1","rx07en11","0","20","1","1","3","1","","0","1","0","null","","","<img src = 'category4/GS2.png' width = '100%;'>","null","","","","","","","","","",""
"","html-keyboard-response","194","731308","0.0-12.0-2.1","e53autkf21","one_one","1","direct_first","1","rx07en11","0","20","1","1","3","1","","0","1","0","null","","","<img src = 'targets/30.png' width = '100%;'>","null","","","","","","","","","",""
"","html-keyboard-response","195","732563","0.0-12.0-3.1","e53autkf21","one_one","1","direct_first","1","rx07en11","0","20","1","1","3","1","","0","1","0","1253.9099999999162","","","<img src = 'targets/mask.png' width = '100%;'>","75","pos","GS","GSnew","4","category4/GS2.png","","targets/30.png","indirect","1","17"
"","html-keyboard-response","196","734072","0.0-12.0-0.2","e53autkf21","one_one","1","direct_first","1","rx07en11","0","20","1","1","3","1","","0","1","0","null","","","<div style=""font-size:60px;"">+</div>","null","","","","","","","","","",""
"","html-keyboard-response","197","734167","0.0-12.0-1.2","e53autkf21","one_one","1","direct_first","1","rx07en11","0","20","1","1","3","1","","0","1","0","null","","","<img src = 'category3/GS1.png' width = '100%;'>","null","","","","","","","","","",""
"","html-keyboard-response","198","734432","0.0-12.0-2.2","e53autkf21","one_one","1","direct_first","1","rx07en11","0","20","1","1","3","1","","0","1","0","null","","","<img src = 'targets/16.png' width = '100%;'>","null","","","","","","","","","",""
"","html-keyboard-response","199","735400","0.0-12.0-3.2","e53autkf21","one_one","1","direct_first","1","rx07en11","0","20","1","1","3","1","","0","1","0","966.5950000000885","","","<img src = 'targets/mask.png' width = '100%;'>","68","neg","GS","GSnew","3","category3/GS1.png","","targets/16.png","indirect","0","18"
"","html-keyboard-response","200","736910","0.0-12.0-0.3","e53autkf21","one_one","1","direct_first","1","rx07en11","0","20","1","1","3","1","","0","1","0","null","","","<div style=""font-size:60px;"">+</div>","null","","","","","","","","","",""
"","html-keyboard-response","201","737009","0.0-12.0-1.3","e53autkf21","one_one","1","direct_first","1","rx07en11","0","20","1","1","3","1","","0","1","0","null","","","<img src = 'category2/GS2.png' width = '100%;'>","null","","","","","","","","","",""
"","html-keyboard-response","202","737269","0.0-12.0-2.3","e53autkf21","one_one","1","direct_first","1","rx07en11","0","20","1","1","3","1","","0","1","0","null","","","<img src = 'targets/18.png' width = '100%;'>","null","","","","","","","","","",""
"","html-keyboard-response","203","738339","0.0-12.0-3.3","e53autkf21","one_one","1","direct_first","1","rx07en11","0","20","1","1","3","1","","0","1","0","1068.6900000000605","","","<img src = 'targets/mask.png' width = '100%;'>","75","neg","GS","GSnew","2","category2/GS2.png","","targets/18.png","indirect","1","19"
"","html-keyboard-response","204","739846","0.0-12.0-0.4","e53autkf21","one_one","1","direct_first","1","rx07en11","0","20","1","1","3","1","","0","1","0","null","","","<div style=""font-size:60px;"">+</div>","null","","","","","","","","","",""
"","html-keyboard-response","205","739940","0.0-12.0-1.4","e53autkf21","one_one","1","direct_first","1","rx07en11","0","20","1","1","3","1","","0","1","0","null","","","<img src = 'category2/GS3.png' width = '100%;'>","null","","","","","","","","","",""
"","html-keyboard-response","206","740203","0.0-12.0-2.4","e53autkf21","one_one","1","direct_first","1","rx07en11","0","20","1","1","3","1","","0","1","0","null","","","<img src = 'targets/47.png' width = '100%;'>","null","","","","","","","","","",""
"","html-keyboard-response","207","741155","0.0-12.0-3.4","e53autkf21","one_one","1","direct_first","1","rx07en11","0","20","1","1","3","1","","0","1","0","950.6800000001676","","","<img src = 'targets/mask.png' width = '100%;'>","68","neg","GS","GSnew","2","category2/GS3.png","","targets/47.png","indirect","0","20"
"","html-keyboard-response","208","742672","0.0-12.0-0.5","e53autkf21","one_one","1","direct_first","1","rx07en11","0","20","1","1","3","1","","0","1","0","null","","","<div style=""font-size:60px;"">+</div>","null","","","","","","","","","",""
"","html-keyboard-response","209","742765","0.0-12.0-1.5","e53autkf21","one_one","1","direct_first","1","rx07en11","0","20","1","1","3","1","","0","1","0","null","","","<img src = 'category3/wang.png' width = '100%;'>","null","","","","","","","","","",""
"","html-keyboard-response","210","743022","0.0-12.0-2.5","e53autkf21","one_one","1","direct_first","1","rx07en11","0","20","1","1","3","1","","0","1","0","null","","","<img src = 'targets/23.png' width = '100%;'>","null","","","","","","","","","",""
"","html-keyboard-response","211","744674","0.0-12.0-3.5","e53autkf21","one_one","1","direct_first","1","rx07en11","0","20","1","1","3","1","","0","1","0","1650.3800000000047","","","<img src = 'targets/mask.png' width = '100%;'>","68","neg","GS","abstract","3","category3/wang.png","","targets/23.png","indirect","0","21"
"","html-keyboard-response","212","746185","0.0-12.0-0.6","e53autkf21","one_one","1","direct_first","1","rx07en11","0","20","1","1","3","1","","0","1","0","null","","","<div style=""font-size:60px;"">+</div>","null","","","","","","","","","",""
"","html-keyboard-response","213","746278","0.0-12.0-1.6","e53autkf21","one_one","1","direct_first","1","rx07en11","0","20","1","1","3","1","","0","1","0","null","","","<img src = 'category2/men.png' width = '100%;'>","null","","","","","","","","","",""
"","html-keyboard-response","214","746532","0.0-12.0-2.6","e53autkf21","one_one","1","direct_first","1","rx07en11","0","20","1","1","3","1","","0","1","0","null","","","<img src = 'targets/8.png' width = '100%;'>","null","","","","","","","","","",""
"","html-keyboard-response","215","748534","0.0-12.0-3.6","e53autkf21","one_one","1","direct_first","1","rx07en11","0","20","1","1","3","1","","0","1","0","1999.5999999998603","","","<img src = 'targets/mask.png' width = '100%;'>","75","neg","GS","abstract","2","category2/men.png","","targets/8.png","indirect","1","22"
"","html-keyboard-response","216","750045","0.0-12.0-0.7","e53autkf21","one_one","1","direct_first","1","rx07en11","0","20","1","1","3","1","","0","1","0","null","","","<div style=""font-size:60px;"">+</div>","null","","","","","","","","","",""
"","html-keyboard-response","217","750145","0.0-12.0-1.7","e53autkf21","one_one","1","direct_first","1","rx07en11","0","20","1","1","3","1","","0","1","0","null","","","<img src = 'category4/lin.png' width = '100%;'>","null","","","","","","","","","",""
"","html-keyboard-response","218","750410","0.0-12.0-2.7","e53autkf21","one_one","1","direct_first","1","rx07en11","0","20","1","1","3","1","","0","1","0","null","","","<img src = 'targets/26.png' width = '100%;'>","null","","","","","","","","","",""
"","html-keyboard-response","219","751140","0.0-12.0-3.7","e53autkf21","one_one","1","direct_first","1","rx07en11","0","20","1","1","3","1","","0","1","0","728.6950000000652","","","<img src = 'targets/mask.png' width = '100%;'>","75","pos","GS","abstract","4","category4/lin.png","","targets/26.png","indirect","1","23"
"","html-keyboard-response","220","752650","0.0-12.0-0.8","e53autkf21","one_one","1","direct_first","1","rx07en11","0","20","1","1","3","1","","0","1","0","null","","","<div style=""font-size:60px;"">+</div>","null","","","","","","","","","",""
"","html-keyboard-response","221","752749","0.0-12.0-1.8","e53autkf21","one_one","1","direct_first","1","rx07en11","0","20","1","1","3","1","","0","1","0","null","","","<img src = 'category2/GS1.png' width = '100%;'>","null","","","","","","","","","",""
"","html-keyboard-response","222","753010","0.0-12.0-2.8","e53autkf21","one_one","1","direct_first","1","rx07en11","0","20","1","1","3","1","","0","1","0","null","","","<img src = 'targets/41.png' width = '100%;'>","null","","","","","","","","","",""
"","html-keyboard-response","223","754217","0.0-12.0-3.8","e53autkf21","one_one","1","direct_first","1","rx07en11","0","20","1","1","3","1","","0","1","0","1205.6050000000978","","","<img src = 'targets/mask.png' width = '100%;'>","75","neg","GS","GSnew","2","category2/GS1.png","","targets/41.png","indirect","1","24"
"","html-keyboard-response","224","755722","0.0-12.0-0.9","e53autkf21","one_one","1","direct_first","1","rx07en11","0","20","1","1","3","1","","0","1","0","null","","","<div style=""font-size:60px;"">+</div>","null","","","","","","","","","",""
"","html-keyboard-response","225","755815","0.0-12.0-1.9","e53autkf21","one_one","1","direct_first","1","rx07en11","0","20","1","1","3","1","","0","1","0","null","","","<img src = 'category3/GS3.png' width = '100%;'>","null","","","","","","","","","",""
"","html-keyboard-response","226","756068","0.0-12.0-2.9","e53autkf21","one_one","1","direct_first","1","rx07en11","0","20","1","1","3","1","","0","1","0","null","","","<img src = 'targets/12.png' width = '100%;'>","null","","","","","","","","","",""
"","html-keyboard-response","227","757821","0.0-12.0-3.9","e53autkf21","one_one","1","direct_first","1","rx07en11","0","20","1","1","3","1","","0","1","0","1751.9350000000559","","","<img src = 'targets/mask.png' width = '100%;'>","75","neg","GS","GSnew","3","category3/GS3.png","","targets/12.png","indirect","1","25"
"","html-keyboard-response","228","759337","0.0-12.0-0.10","e53autkf21","one_one","1","direct_first","1","rx07en11","0","20","1","1","3","1","","0","1","0","null","","","<div style=""font-size:60px;"">+</div>","null","","","","","","","","","",""
"","html-keyboard-response","229","759430","0.0-12.0-1.10","e53autkf21","one_one","1","direct_first","1","rx07en11","0","20","1","1","3","1","","0","1","0","null","","","<img src = 'category3/GS2.png' width = '100%;'>","null","","","","","","","","","",""
"","html-keyboard-response","230","759682","0.0-12.0-2.10","e53autkf21","one_one","1","direct_first","1","rx07en11","0","20","1","1","3","1","","0","1","0","null","","","<img src = 'targets/46.png' width = '100%;'>","null","","","","","","","","","",""
"","html-keyboard-response","231","760279","0.0-12.0-3.10","e53autkf21","one_one","1","direct_first","1","rx07en11","0","20","1","1","3","1","","0","1","0","595.0350000000326","","","<img src = 'targets/mask.png' width = '100%;'>","68","neg","GS","GSnew","3","category3/GS2.png","","targets/46.png","indirect","0","26"
"","html-keyboard-response","232","761793","0.0-12.0-0.11","e53autkf21","one_one","1","direct_first","1","rx07en11","0","20","1","1","3","1","","0","1","0","null","","","<div style=""font-size:60px;"">+</div>","null","","","","","","","","","",""
"","html-keyboard-response","233","761885","0.0-12.0-1.11","e53autkf21","one_one","1","direct_first","1","rx07en11","0","20","1","1","3","1","","0","1","0","null","","","<img src = 'category1/GS2.png' width = '100%;'>","null","","","","","","","","","",""
"","html-keyboard-response","234","762143","0.0-12.0-2.11","e53autkf21","one_one","1","direct_first","1","rx07en11","0","20","1","1","3","1","","0","1","0","null","","","<img src = 'targets/35.png' width = '100%;'>","null","","","","","","","","","",""
"","html-keyboard-response","235","766038","0.0-12.0-3.11","e53autkf21","one_one","1","direct_first","1","rx07en11","0","20","1","1","3","1","","0","1","0","3893.82500000007","","","<img src = 'targets/mask.png' width = '100%;'>","75","pos","GS","GSnew","1","category1/GS2.png","","targets/35.png","indirect","1","27"
"","html-keyboard-response","236","767542","0.0-12.0-0.12","e53autkf21","one_one","1","direct_first","1","rx07en11","0","20","1","1","3","1","","0","1","0","null","","","<div style=""font-size:60px;"">+</div>","null","","","","","","","","","",""
"","html-keyboard-response","237","767640","0.0-12.0-1.12","e53autkf21","one_one","1","direct_first","1","rx07en11","0","20","1","1","3","1","","0","1","0","null","","","<img src = 'category4/GS3.png' width = '100%;'>","null","","","","","","","","","",""
"","html-keyboard-response","238","767907","0.0-12.0-2.12","e53autkf21","one_one","1","direct_first","1","rx07en11","0","20","1","1","3","1","","0","1","0","null","","","<img src = 'targets/45.png' width = '100%;'>","null","","","","","","","","","",""
"","html-keyboard-response","239","769523","0.0-12.0-3.12","e53autkf21","one_one","1","direct_first","1","rx07en11","0","20","1","1","3","1","","0","1","0","1614.0999999999767","","","<img src = 'targets/mask.png' width = '100%;'>","75","pos","GS","GSnew","4","category4/GS3.png","","targets/45.png","indirect","1","28"
"","html-keyboard-response","240","771031","0.0-12.0-0.13","e53autkf21","one_one","1","direct_first","1","rx07en11","0","20","1","1","3","1","","0","1","0","null","","","<div style=""font-size:60px;"">+</div>","null","","","","","","","","","",""
"","html-keyboard-response","241","771131","0.0-12.0-1.13","e53autkf21","one_one","1","direct_first","1","rx07en11","0","20","1","1","3","1","","0","1","0","null","","","<img src = 'category4/GS1.png' width = '100%;'>","null","","","","","","","","","",""
"","html-keyboard-response","242","771393","0.0-12.0-2.13","e53autkf21","one_one","1","direct_first","1","rx07en11","0","20","1","1","3","1","","0","1","0","null","","","<img src = 'targets/48.png' width = '100%;'>","null","","","","","","","","","",""
"","html-keyboard-response","243","772539","0.0-12.0-3.13","e53autkf21","one_one","1","direct_first","1","rx07en11","0","20","1","1","3","1","","0","1","0","1143.8399999999674","","","<img src = 'targets/mask.png' width = '100%;'>","75","pos","GS","GSnew","4","category4/GS1.png","","targets/48.png","indirect","1","29"
"","html-keyboard-response","244","774051","0.0-12.0-0.14","e53autkf21","one_one","1","direct_first","1","rx07en11","0","20","1","1","3","1","","0","1","0","null","","","<div style=""font-size:60px;"">+</div>","null","","","","","","","","","",""
"","html-keyboard-response","245","774150","0.0-12.0-1.14","e53autkf21","one_one","1","direct_first","1","rx07en11","0","20","1","1","3","1","","0","1","0","null","","","<img src = 'category1/GS3.png' width = '100%;'>","null","","","","","","","","","",""
"","html-keyboard-response","246","774407","0.0-12.0-2.14","e53autkf21","one_one","1","direct_first","1","rx07en11","0","20","1","1","3","1","","0","1","0","null","","","<img src = 'targets/19.png' width = '100%;'>","null","","","","","","","","","",""
"","html-keyboard-response","247","775713","0.0-12.0-3.14","e53autkf21","one_one","1","direct_first","1","rx07en11","0","20","1","1","3","1","","0","1","0","1303.8350000001956","","","<img src = 'targets/mask.png' width = '100%;'>","75","pos","GS","GSnew","1","category1/GS3.png","","targets/19.png","indirect","1","30"
"","html-keyboard-response","248","777228","0.0-12.0-0.15","e53autkf21","one_one","1","direct_first","1","rx07en11","0","20","1","1","3","1","","0","1","0","null","","","<div style=""font-size:60px;"">+</div>","null","","","","","","","","","",""
"","html-keyboard-response","249","777325","0.0-12.0-1.15","e53autkf21","one_one","1","direct_first","1","rx07en11","0","20","1","1","3","1","","0","1","0","null","","","<img src = 'category1/ma.png' width = '100%;'>","null","","","","","","","","","",""
"","html-keyboard-response","250","777581","0.0-12.0-2.15","e53autkf21","one_one","1","direct_first","1","rx07en11","0","20","1","1","3","1","","0","1","0","null","","","<img src = 'targets/29.png' width = '100%;'>","null","","","","","","","","","",""
"","html-keyboard-response","251","779025","0.0-12.0-3.15","e53autkf21","one_one","1","direct_first","1","rx07en11","0","20","1","1","3","1","","0","1","0","1442.1650000001537","","","<img src = 'targets/mask.png' width = '100%;'>","68","pos","GS","abstract","1","category1/ma.png","","targets/29.png","indirect","0","31"
"","survey-html-form","252","787754","0.0-13.0","e53autkf21","one_one","1","direct_first","1","rx07en11","0","20","1","1","3","1","","0","1","0","8227.265000000014","","{}","","","","","","","","","","","",""
"","image-slider-response","253","798317","0.0-14.0-0.0","e53autkf21","one_one","1","direct_first","1","rx07en11","0","20","1","1","3","1","","0","1","0","9557.524999999907","","","","","neg","All","all","3","category3/wang_all.png","-67","","all","",""
"","image-slider-response","254","807504","0.0-14.0-0.1","e53autkf21","one_one","1","direct_first","1","rx07en11","0","20","1","1","3","1","","0","1","0","9184.819999999949","","","","","pos","All","all","1","category1/ma_all.png","-82","","all","",""
"","image-slider-response","255","810741","0.0-14.0-0.2","e53autkf21","one_one","1","direct_first","1","rx07en11","0","20","1","1","3","1","","0","1","0","3236.04999999993","","","","","pos","All","all","4","category4/lin_all.png","55","","all","",""
"","image-slider-response","256","817384","0.0-14.0-0.3","e53autkf21","one_one","1","direct_first","1","rx07en11","0","20","1","1","3","1","","0","1","0","6641.425000000047","","","","","neg","All","all","2","category2/men_all.png","-54","","all","",""
"","survey-text","257","822559","0.0-15.0","e53autkf21","one_one","1","direct_first","1","rx07en11","0","20","1","1","3","1","","0","1","0","5162.415000000037","","{""comment"":""""}","","","","","","","","","","","",""
"","survey-html-form","258","844047","0.0-16.0","e53autkf21","one_one","1","direct_first","1","rx07en11","0","20","1","1","3","1","","0","1","0","21485.425000000047","","{""hinschauen"":""0"",""ablenkung"":""1"",""gewissenhaft"":""0""}","","","","","","","","","","","",""
