"success","trial_type","trial_index","time_elapsed","internal_node_id","subject","condition","condition_code","measure","measure_code","codeword","gender","age","education","chinese","fach","handedness","comment","hinschauen","ablenkung","gewissenhaft","rt","url","responses","stimulus","key_press","val","type","type_specific","category","cs_selected","response","target","task","indirect","nr_pres"
"true","fullscreen","0","258091","0.0-0.0","bvoueq1d6z","many_one","0","direct_first","1","ke08as27","0","31","1","1","3","1","","0","1","0","","","","","","","","","","","","","","",""
"","external-html","1","295732","0.0-1.0","bvoueq1d6z","many_one","0","direct_first","1","ke08as27","0","31","1","1","3","1","","0","1","0","37560","text/information.html","","","","","","","","","","","","",""
"","external-html","2","304976","0.0-2.0","bvoueq1d6z","many_one","0","direct_first","1","ke08as27","0","31","1","1","3","1","","0","1","0","9169","text/consent.html","","","","","","","","","","","","",""
"","survey-html-form","3","346331","0.0-3.0","bvoueq1d6z","many_one","0","direct_first","1","ke08as27","0","31","1","1","3","1","","0","1","0","41348","","{""codeword_enter"":""ke08as27""}","","","","","","","","","","","",""
"","survey-html-form","4","373847","0.0-4.0","bvoueq1d6z","many_one","0","direct_first","1","ke08as27","0","31","1","1","3","1","","0","1","0","27506","","{""age"":""31"",""education"":""1"",""subject"":""3"",""gender"":""0"",""handedness"":""1"",""chinese"":""1""}","","","","","","","","","","","",""
"","survey-html-form","5","384045","0.0-5.0","bvoueq1d6z","many_one","0","direct_first","1","ke08as27","0","31","1","1","3","1","","0","1","0","10193","","{}","","","","","","","","","","","",""
"","html-keyboard-response","6","388055","0.0-6.0-0.0-0.0","bvoueq1d6z","many_one","0","direct_first","1","ke08as27","0","31","1","1","3","1","","0","1","0","null","","","<div class = 'row'><div class = 'column'><img src = 'usneg/9342.bmp' width = '100%;'></div><div class = 'column'><img src = 'category2/CS4.png' width = '70%;'></div></div>","null","neg","CS","CS","2","category2/CS4.png","","","","",""
"","html-keyboard-response","7","390562","0.0-6.0-0.0-0.1","bvoueq1d6z","many_one","0","direct_first","1","ke08as27","0","31","1","1","3","1","","0","1","0","null","","","<div class = 'row'><div class = 'column'><img src = 'usneg/2205.bmp' width = '100%;'></div><div class = 'column'><img src = 'category2/CS6.png' width = '70%;'></div></div>","null","neg","CS","CS","2","category2/CS6.png","","","","",""
"","html-keyboard-response","8","393068","0.0-6.0-0.0-0.2","bvoueq1d6z","many_one","0","direct_first","1","ke08as27","0","31","1","1","3","1","","0","1","0","null","","","<div class = 'row'><div class = 'column'><img src = 'usneg/9280.bmp' width = '100%;'></div><div class = 'column'><img src = 'category3/CS3.png' width = '70%;'></div></div>","null","neg","CS","CS","3","category3/CS3.png","","","","",""
"","html-keyboard-response","9","395573","0.0-6.0-0.0-0.3","bvoueq1d6z","many_one","0","direct_first","1","ke08as27","0","31","1","1","3","1","","0","1","0","null","","","<div class = 'row'><div class = 'column'><img src = 'category3/CS2.png' width = '70%;'></div><div class = 'column'><img src = 'usneg/6570.1.bmp' width = '100%;'></div></div>","null","neg","CS","CS","3","category3/CS2.png","","","","",""
"","html-keyboard-response","10","398079","0.0-6.0-0.0-0.4","bvoueq1d6z","many_one","0","direct_first","1","ke08as27","0","31","1","1","3","1","","0","1","0","null","","","<div class = 'row'><div class = 'column'><img src = 'uspos/2340.bmp' width = '100%;'></div><div class = 'column'><img src = 'category4/CS8.png' width = '70%;'></div></div>","null","pos","CS","CS","4","category4/CS8.png","","","","",""
"","html-keyboard-response","11","400584","0.0-6.0-0.0-0.5","bvoueq1d6z","many_one","0","direct_first","1","ke08as27","0","31","1","1","3","1","","0","1","0","null","","","<div class = 'row'><div class = 'column'><img src = 'category1/CS2.png' width = '70%;'></div><div class = 'column'><img src = 'uspos/2058.bmp' width = '100%;'></div></div>","null","pos","CS","CS","1","category1/CS2.png","","","","",""
"","html-keyboard-response","12","403088","0.0-6.0-0.0-0.6","bvoueq1d6z","many_one","0","direct_first","1","ke08as27","0","31","1","1","3","1","","0","1","0","null","","","<div class = 'row'><div class = 'column'><img src = 'usneg/9220.bmp' width = '100%;'></div><div class = 'column'><img src = 'category2/CS10.png' width = '70%;'></div></div>","null","neg","CS","CS","2","category2/CS10.png","","","","",""
"","html-keyboard-response","13","405592","0.0-6.0-0.0-0.7","bvoueq1d6z","many_one","0","direct_first","1","ke08as27","0","31","1","1","3","1","","0","1","0","null","","","<div class = 'row'><div class = 'column'><img src = 'category2/CS7.png' width = '70%;'></div><div class = 'column'><img src = 'usneg/9635.2.bmp' width = '100%;'></div></div>","null","neg","CS","CS","2","category2/CS7.png","","","","",""
"","html-keyboard-response","14","408097","0.0-6.0-0.0-0.8","bvoueq1d6z","many_one","0","direct_first","1","ke08as27","0","31","1","1","3","1","","0","1","0","null","","","<div class = 'row'><div class = 'column'><img src = 'uspos/8490.bmp' width = '100%;'></div><div class = 'column'><img src = 'category1/CS1.png' width = '70%;'></div></div>","null","pos","CS","CS","1","category1/CS1.png","","","","",""
"","html-keyboard-response","15","410601","0.0-6.0-0.0-0.9","bvoueq1d6z","many_one","0","direct_first","1","ke08as27","0","31","1","1","3","1","","0","1","0","null","","","<div class = 'row'><div class = 'column'><img src = 'uspos/5621.bmp' width = '100%;'></div><div class = 'column'><img src = 'category4/CS7.png' width = '70%;'></div></div>","null","pos","CS","CS","4","category4/CS7.png","","","","",""
"","html-keyboard-response","16","413105","0.0-6.0-0.0-0.10","bvoueq1d6z","many_one","0","direct_first","1","ke08as27","0","31","1","1","3","1","","0","1","0","null","","","<div class = 'row'><div class = 'column'><img src = 'uspos/7325.bmp' width = '100%;'></div><div class = 'column'><img src = 'category4/CS9.png' width = '70%;'></div></div>","null","pos","CS","CS","4","category4/CS9.png","","","","",""
"","html-keyboard-response","17","415609","0.0-6.0-0.0-0.11","bvoueq1d6z","many_one","0","direct_first","1","ke08as27","0","31","1","1","3","1","","0","1","0","null","","","<div class = 'row'><div class = 'column'><img src = 'uspos/2900.2.bmp' width = '100%;'></div><div class = 'column'><img src = 'category4/CS5.png' width = '70%;'></div></div>","null","pos","CS","CS","4","category4/CS5.png","","","","",""
"","html-keyboard-response","18","418112","0.0-6.0-0.0-0.12","bvoueq1d6z","many_one","0","direct_first","1","ke08as27","0","31","1","1","3","1","","0","1","0","null","","","<div class = 'row'><div class = 'column'><img src = 'usneg/9404.bmp' width = '100%;'></div><div class = 'column'><img src = 'category3/CS6.png' width = '70%;'></div></div>","null","neg","CS","CS","3","category3/CS6.png","","","","",""
"","html-keyboard-response","19","420616","0.0-6.0-0.0-0.13","bvoueq1d6z","many_one","0","direct_first","1","ke08as27","0","31","1","1","3","1","","0","1","0","null","","","<div class = 'row'><div class = 'column'><img src = 'uspos/2530.bmp' width = '100%;'></div><div class = 'column'><img src = 'category1/CS9.png' width = '70%;'></div></div>","null","pos","CS","CS","1","category1/CS9.png","","","","",""
"","html-keyboard-response","20","423120","0.0-6.0-0.0-0.14","bvoueq1d6z","many_one","0","direct_first","1","ke08as27","0","31","1","1","3","1","","0","1","0","null","","","<div class = 'row'><div class = 'column'><img src = 'category1/CS7.png' width = '70%;'></div><div class = 'column'><img src = 'uspos/1340.bmp' width = '100%;'></div></div>","null","pos","CS","CS","1","category1/CS7.png","","","","",""
"","html-keyboard-response","21","425624","0.0-6.0-0.0-0.15","bvoueq1d6z","many_one","0","direct_first","1","ke08as27","0","31","1","1","3","1","","0","1","0","null","","","<div class = 'row'><div class = 'column'><img src = 'usneg/3160.bmp' width = '100%;'></div><div class = 'column'><img src = 'category2/CS2.png' width = '70%;'></div></div>","null","neg","CS","CS","2","category2/CS2.png","","","","",""
"","html-keyboard-response","22","428128","0.0-6.0-0.0-0.16","bvoueq1d6z","many_one","0","direct_first","1","ke08as27","0","31","1","1","3","1","","0","1","0","null","","","<div class = 'row'><div class = 'column'><img src = 'usneg/9181.bmp' width = '100%;'></div><div class = 'column'><img src = 'category3/CS5.png' width = '70%;'></div></div>","null","neg","CS","CS","3","category3/CS5.png","","","","",""
"","html-keyboard-response","23","430632","0.0-6.0-0.0-0.17","bvoueq1d6z","many_one","0","direct_first","1","ke08as27","0","31","1","1","3","1","","0","1","0","null","","","<div class = 'row'><div class = 'column'><img src = 'category1/CS5.png' width = '70%;'></div><div class = 'column'><img src = 'uspos/2040.bmp' width = '100%;'></div></div>","null","pos","CS","CS","1","category1/CS5.png","","","","",""
"","html-keyboard-response","24","433135","0.0-6.0-0.0-0.18","bvoueq1d6z","many_one","0","direct_first","1","ke08as27","0","31","1","1","3","1","","0","1","0","null","","","<div class = 'row'><div class = 'column'><img src = 'category4/CS6.png' width = '70%;'></div><div class = 'column'><img src = 'uspos/2165.bmp' width = '100%;'></div></div>","null","pos","CS","CS","4","category4/CS6.png","","","","",""
"","html-keyboard-response","25","435640","0.0-6.0-0.0-0.19","bvoueq1d6z","many_one","0","direct_first","1","ke08as27","0","31","1","1","3","1","","0","1","0","null","","","<div class = 'row'><div class = 'column'><img src = 'category3/CS8.png' width = '70%;'></div><div class = 'column'><img src = 'usneg/7380.bmp' width = '100%;'></div></div>","null","neg","CS","CS","3","category3/CS8.png","","","","",""
"","survey-html-form","26","470543","0.0-6.0-1.0","bvoueq1d6z","many_one","0","direct_first","1","ke08as27","0","31","1","1","3","1","","0","1","0","34400","","{}","","","","","","","","","","","",""
"","html-keyboard-response","27","474549","0.0-6.0-2.0-0.0","bvoueq1d6z","many_one","0","direct_first","1","ke08as27","0","31","1","1","3","1","","0","1","0","null","","","<div class = 'row'><div class = 'column'><img src = 'uspos/1340.bmp' width = '100%;'></div><div class = 'column'><img src = 'category1/CS7.png' width = '70%;'></div></div>","null","pos","CS","CS","1","category1/CS7.png","","","","",""
"","html-keyboard-response","28","477052","0.0-6.0-2.0-0.1","bvoueq1d6z","many_one","0","direct_first","1","ke08as27","0","31","1","1","3","1","","0","1","0","null","","","<div class = 'row'><div class = 'column'><img src = 'category2/CS2.png' width = '70%;'></div><div class = 'column'><img src = 'usneg/3160.bmp' width = '100%;'></div></div>","null","neg","CS","CS","2","category2/CS2.png","","","","",""
"","html-keyboard-response","29","479557","0.0-6.0-2.0-0.2","bvoueq1d6z","many_one","0","direct_first","1","ke08as27","0","31","1","1","3","1","","0","1","0","null","","","<div class = 'row'><div class = 'column'><img src = 'uspos/8490.bmp' width = '100%;'></div><div class = 'column'><img src = 'category1/CS1.png' width = '70%;'></div></div>","null","pos","CS","CS","1","category1/CS1.png","","","","",""
"","html-keyboard-response","30","482060","0.0-6.0-2.0-0.3","bvoueq1d6z","many_one","0","direct_first","1","ke08as27","0","31","1","1","3","1","","0","1","0","null","","","<div class = 'row'><div class = 'column'><img src = 'uspos/2058.bmp' width = '100%;'></div><div class = 'column'><img src = 'category1/CS2.png' width = '70%;'></div></div>","null","pos","CS","CS","1","category1/CS2.png","","","","",""
"","html-keyboard-response","31","484564","0.0-6.0-2.0-0.4","bvoueq1d6z","many_one","0","direct_first","1","ke08as27","0","31","1","1","3","1","","0","1","0","null","","","<div class = 'row'><div class = 'column'><img src = 'usneg/9220.bmp' width = '100%;'></div><div class = 'column'><img src = 'category2/CS10.png' width = '70%;'></div></div>","null","neg","CS","CS","2","category2/CS10.png","","","","",""
"","html-keyboard-response","32","487067","0.0-6.0-2.0-0.5","bvoueq1d6z","many_one","0","direct_first","1","ke08as27","0","31","1","1","3","1","","0","1","0","null","","","<div class = 'row'><div class = 'column'><img src = 'usneg/6570.1.bmp' width = '100%;'></div><div class = 'column'><img src = 'category3/CS2.png' width = '70%;'></div></div>","null","neg","CS","CS","3","category3/CS2.png","","","","",""
"","html-keyboard-response","33","489571","0.0-6.0-2.0-0.6","bvoueq1d6z","many_one","0","direct_first","1","ke08as27","0","31","1","1","3","1","","0","1","0","null","","","<div class = 'row'><div class = 'column'><img src = 'uspos/2900.2.bmp' width = '100%;'></div><div class = 'column'><img src = 'category4/CS5.png' width = '70%;'></div></div>","null","pos","CS","CS","4","category4/CS5.png","","","","",""
"","html-keyboard-response","34","492075","0.0-6.0-2.0-0.7","bvoueq1d6z","many_one","0","direct_first","1","ke08as27","0","31","1","1","3","1","","0","1","0","null","","","<div class = 'row'><div class = 'column'><img src = 'usneg/2205.bmp' width = '100%;'></div><div class = 'column'><img src = 'category2/CS6.png' width = '70%;'></div></div>","null","neg","CS","CS","2","category2/CS6.png","","","","",""
"","html-keyboard-response","35","494577","0.0-6.0-2.0-0.8","bvoueq1d6z","many_one","0","direct_first","1","ke08as27","0","31","1","1","3","1","","0","1","0","null","","","<div class = 'row'><div class = 'column'><img src = 'category2/CS7.png' width = '70%;'></div><div class = 'column'><img src = 'usneg/9635.2.bmp' width = '100%;'></div></div>","null","neg","CS","CS","2","category2/CS7.png","","","","",""
"","html-keyboard-response","36","497082","0.0-6.0-2.0-0.9","bvoueq1d6z","many_one","0","direct_first","1","ke08as27","0","31","1","1","3","1","","0","1","0","null","","","<div class = 'row'><div class = 'column'><img src = 'uspos/5621.bmp' width = '100%;'></div><div class = 'column'><img src = 'category4/CS7.png' width = '70%;'></div></div>","null","pos","CS","CS","4","category4/CS7.png","","","","",""
"","html-keyboard-response","37","499585","0.0-6.0-2.0-0.10","bvoueq1d6z","many_one","0","direct_first","1","ke08as27","0","31","1","1","3","1","","0","1","0","null","","","<div class = 'row'><div class = 'column'><img src = 'category3/CS3.png' width = '70%;'></div><div class = 'column'><img src = 'usneg/9280.bmp' width = '100%;'></div></div>","null","neg","CS","CS","3","category3/CS3.png","","","","",""
"","html-keyboard-response","38","502090","0.0-6.0-2.0-0.11","bvoueq1d6z","many_one","0","direct_first","1","ke08as27","0","31","1","1","3","1","","0","1","0","null","","","<div class = 'row'><div class = 'column'><img src = 'category4/CS8.png' width = '70%;'></div><div class = 'column'><img src = 'uspos/2340.bmp' width = '100%;'></div></div>","null","pos","CS","CS","4","category4/CS8.png","","","","",""
"","html-keyboard-response","39","504593","0.0-6.0-2.0-0.12","bvoueq1d6z","many_one","0","direct_first","1","ke08as27","0","31","1","1","3","1","","0","1","0","null","","","<div class = 'row'><div class = 'column'><img src = 'category4/CS9.png' width = '70%;'></div><div class = 'column'><img src = 'uspos/7325.bmp' width = '100%;'></div></div>","null","pos","CS","CS","4","category4/CS9.png","","","","",""
"","html-keyboard-response","40","507096","0.0-6.0-2.0-0.13","bvoueq1d6z","many_one","0","direct_first","1","ke08as27","0","31","1","1","3","1","","0","1","0","null","","","<div class = 'row'><div class = 'column'><img src = 'category1/CS5.png' width = '70%;'></div><div class = 'column'><img src = 'uspos/2040.bmp' width = '100%;'></div></div>","null","pos","CS","CS","1","category1/CS5.png","","","","",""
"","html-keyboard-response","41","509600","0.0-6.0-2.0-0.14","bvoueq1d6z","many_one","0","direct_first","1","ke08as27","0","31","1","1","3","1","","0","1","0","null","","","<div class = 'row'><div class = 'column'><img src = 'category4/CS6.png' width = '70%;'></div><div class = 'column'><img src = 'uspos/2165.bmp' width = '100%;'></div></div>","null","pos","CS","CS","4","category4/CS6.png","","","","",""
"","html-keyboard-response","42","512104","0.0-6.0-2.0-0.15","bvoueq1d6z","many_one","0","direct_first","1","ke08as27","0","31","1","1","3","1","","0","1","0","null","","","<div class = 'row'><div class = 'column'><img src = 'category1/CS9.png' width = '70%;'></div><div class = 'column'><img src = 'uspos/2530.bmp' width = '100%;'></div></div>","null","pos","CS","CS","1","category1/CS9.png","","","","",""
"","html-keyboard-response","43","514607","0.0-6.0-2.0-0.16","bvoueq1d6z","many_one","0","direct_first","1","ke08as27","0","31","1","1","3","1","","0","1","0","null","","","<div class = 'row'><div class = 'column'><img src = 'usneg/9342.bmp' width = '100%;'></div><div class = 'column'><img src = 'category2/CS4.png' width = '70%;'></div></div>","null","neg","CS","CS","2","category2/CS4.png","","","","",""
"","html-keyboard-response","44","517111","0.0-6.0-2.0-0.17","bvoueq1d6z","many_one","0","direct_first","1","ke08as27","0","31","1","1","3","1","","0","1","0","null","","","<div class = 'row'><div class = 'column'><img src = 'usneg/9181.bmp' width = '100%;'></div><div class = 'column'><img src = 'category3/CS5.png' width = '70%;'></div></div>","null","neg","CS","CS","3","category3/CS5.png","","","","",""
"","html-keyboard-response","45","519614","0.0-6.0-2.0-0.18","bvoueq1d6z","many_one","0","direct_first","1","ke08as27","0","31","1","1","3","1","","0","1","0","null","","","<div class = 'row'><div class = 'column'><img src = 'usneg/7380.bmp' width = '100%;'></div><div class = 'column'><img src = 'category3/CS8.png' width = '70%;'></div></div>","null","neg","CS","CS","3","category3/CS8.png","","","","",""
"","html-keyboard-response","46","522117","0.0-6.0-2.0-0.19","bvoueq1d6z","many_one","0","direct_first","1","ke08as27","0","31","1","1","3","1","","0","1","0","null","","","<div class = 'row'><div class = 'column'><img src = 'usneg/9404.bmp' width = '100%;'></div><div class = 'column'><img src = 'category3/CS6.png' width = '70%;'></div></div>","null","neg","CS","CS","3","category3/CS6.png","","","","",""
"","survey-html-form","47","530182","0.0-6.0-3.0","bvoueq1d6z","many_one","0","direct_first","1","ke08as27","0","31","1","1","3","1","","0","1","0","7563","","{}","","","","","","","","","","","",""
"","html-keyboard-response","48","534186","0.0-6.0-4.0-0.0","bvoueq1d6z","many_one","0","direct_first","1","ke08as27","0","31","1","1","3","1","","0","1","0","null","","","<div class = 'row'><div class = 'column'><img src = 'category4/CS8.png' width = '70%;'></div><div class = 'column'><img src = 'uspos/2340.bmp' width = '100%;'></div></div>","null","pos","CS","CS","4","category4/CS8.png","","","","",""
"","html-keyboard-response","49","536690","0.0-6.0-4.0-0.1","bvoueq1d6z","many_one","0","direct_first","1","ke08as27","0","31","1","1","3","1","","0","1","0","null","","","<div class = 'row'><div class = 'column'><img src = 'usneg/9280.bmp' width = '100%;'></div><div class = 'column'><img src = 'category3/CS3.png' width = '70%;'></div></div>","null","neg","CS","CS","3","category3/CS3.png","","","","",""
"","html-keyboard-response","50","539193","0.0-6.0-4.0-0.2","bvoueq1d6z","many_one","0","direct_first","1","ke08as27","0","31","1","1","3","1","","0","1","0","null","","","<div class = 'row'><div class = 'column'><img src = 'uspos/2530.bmp' width = '100%;'></div><div class = 'column'><img src = 'category1/CS9.png' width = '70%;'></div></div>","null","pos","CS","CS","1","category1/CS9.png","","","","",""
"","html-keyboard-response","51","541697","0.0-6.0-4.0-0.3","bvoueq1d6z","many_one","0","direct_first","1","ke08as27","0","31","1","1","3","1","","0","1","0","null","","","<div class = 'row'><div class = 'column'><img src = 'category4/CS5.png' width = '70%;'></div><div class = 'column'><img src = 'uspos/2900.2.bmp' width = '100%;'></div></div>","null","pos","CS","CS","4","category4/CS5.png","","","","",""
"","html-keyboard-response","52","544200","0.0-6.0-4.0-0.4","bvoueq1d6z","many_one","0","direct_first","1","ke08as27","0","31","1","1","3","1","","0","1","0","null","","","<div class = 'row'><div class = 'column'><img src = 'usneg/9220.bmp' width = '100%;'></div><div class = 'column'><img src = 'category2/CS10.png' width = '70%;'></div></div>","null","neg","CS","CS","2","category2/CS10.png","","","","",""
"","html-keyboard-response","53","546703","0.0-6.0-4.0-0.5","bvoueq1d6z","many_one","0","direct_first","1","ke08as27","0","31","1","1","3","1","","0","1","0","null","","","<div class = 'row'><div class = 'column'><img src = 'usneg/6570.1.bmp' width = '100%;'></div><div class = 'column'><img src = 'category3/CS2.png' width = '70%;'></div></div>","null","neg","CS","CS","3","category3/CS2.png","","","","",""
"","html-keyboard-response","54","549207","0.0-6.0-4.0-0.6","bvoueq1d6z","many_one","0","direct_first","1","ke08as27","0","31","1","1","3","1","","0","1","0","null","","","<div class = 'row'><div class = 'column'><img src = 'category1/CS1.png' width = '70%;'></div><div class = 'column'><img src = 'uspos/8490.bmp' width = '100%;'></div></div>","null","pos","CS","CS","1","category1/CS1.png","","","","",""
"","html-keyboard-response","55","551711","0.0-6.0-4.0-0.7","bvoueq1d6z","many_one","0","direct_first","1","ke08as27","0","31","1","1","3","1","","0","1","0","null","","","<div class = 'row'><div class = 'column'><img src = 'usneg/7380.bmp' width = '100%;'></div><div class = 'column'><img src = 'category3/CS8.png' width = '70%;'></div></div>","null","neg","CS","CS","3","category3/CS8.png","","","","",""
"","html-keyboard-response","56","554213","0.0-6.0-4.0-0.8","bvoueq1d6z","many_one","0","direct_first","1","ke08as27","0","31","1","1","3","1","","0","1","0","null","","","<div class = 'row'><div class = 'column'><img src = 'uspos/1340.bmp' width = '100%;'></div><div class = 'column'><img src = 'category1/CS7.png' width = '70%;'></div></div>","null","pos","CS","CS","1","category1/CS7.png","","","","",""
"","html-keyboard-response","57","556717","0.0-6.0-4.0-0.9","bvoueq1d6z","many_one","0","direct_first","1","ke08as27","0","31","1","1","3","1","","0","1","0","null","","","<div class = 'row'><div class = 'column'><img src = 'category1/CS5.png' width = '70%;'></div><div class = 'column'><img src = 'uspos/2040.bmp' width = '100%;'></div></div>","null","pos","CS","CS","1","category1/CS5.png","","","","",""
"","html-keyboard-response","58","559220","0.0-6.0-4.0-0.10","bvoueq1d6z","many_one","0","direct_first","1","ke08as27","0","31","1","1","3","1","","0","1","0","null","","","<div class = 'row'><div class = 'column'><img src = 'category2/CS4.png' width = '70%;'></div><div class = 'column'><img src = 'usneg/9342.bmp' width = '100%;'></div></div>","null","neg","CS","CS","2","category2/CS4.png","","","","",""
"","html-keyboard-response","59","561723","0.0-6.0-4.0-0.11","bvoueq1d6z","many_one","0","direct_first","1","ke08as27","0","31","1","1","3","1","","0","1","0","null","","","<div class = 'row'><div class = 'column'><img src = 'usneg/9635.2.bmp' width = '100%;'></div><div class = 'column'><img src = 'category2/CS7.png' width = '70%;'></div></div>","null","neg","CS","CS","2","category2/CS7.png","","","","",""
"","html-keyboard-response","60","564227","0.0-6.0-4.0-0.12","bvoueq1d6z","many_one","0","direct_first","1","ke08as27","0","31","1","1","3","1","","0","1","0","null","","","<div class = 'row'><div class = 'column'><img src = 'category3/CS6.png' width = '70%;'></div><div class = 'column'><img src = 'usneg/9404.bmp' width = '100%;'></div></div>","null","neg","CS","CS","3","category3/CS6.png","","","","",""
"","html-keyboard-response","61","566731","0.0-6.0-4.0-0.13","bvoueq1d6z","many_one","0","direct_first","1","ke08as27","0","31","1","1","3","1","","0","1","0","null","","","<div class = 'row'><div class = 'column'><img src = 'category4/CS6.png' width = '70%;'></div><div class = 'column'><img src = 'uspos/2165.bmp' width = '100%;'></div></div>","null","pos","CS","CS","4","category4/CS6.png","","","","",""
"","html-keyboard-response","62","569234","0.0-6.0-4.0-0.14","bvoueq1d6z","many_one","0","direct_first","1","ke08as27","0","31","1","1","3","1","","0","1","0","null","","","<div class = 'row'><div class = 'column'><img src = 'category3/CS5.png' width = '70%;'></div><div class = 'column'><img src = 'usneg/9181.bmp' width = '100%;'></div></div>","null","neg","CS","CS","3","category3/CS5.png","","","","",""
"","html-keyboard-response","63","571737","0.0-6.0-4.0-0.15","bvoueq1d6z","many_one","0","direct_first","1","ke08as27","0","31","1","1","3","1","","0","1","0","null","","","<div class = 'row'><div class = 'column'><img src = 'usneg/2205.bmp' width = '100%;'></div><div class = 'column'><img src = 'category2/CS6.png' width = '70%;'></div></div>","null","neg","CS","CS","2","category2/CS6.png","","","","",""
"","html-keyboard-response","64","574241","0.0-6.0-4.0-0.16","bvoueq1d6z","many_one","0","direct_first","1","ke08as27","0","31","1","1","3","1","","0","1","0","null","","","<div class = 'row'><div class = 'column'><img src = 'uspos/7325.bmp' width = '100%;'></div><div class = 'column'><img src = 'category4/CS9.png' width = '70%;'></div></div>","null","pos","CS","CS","4","category4/CS9.png","","","","",""
"","html-keyboard-response","65","576745","0.0-6.0-4.0-0.17","bvoueq1d6z","many_one","0","direct_first","1","ke08as27","0","31","1","1","3","1","","0","1","0","null","","","<div class = 'row'><div class = 'column'><img src = 'uspos/2058.bmp' width = '100%;'></div><div class = 'column'><img src = 'category1/CS2.png' width = '70%;'></div></div>","null","pos","CS","CS","1","category1/CS2.png","","","","",""
"","html-keyboard-response","66","579249","0.0-6.0-4.0-0.18","bvoueq1d6z","many_one","0","direct_first","1","ke08as27","0","31","1","1","3","1","","0","1","0","null","","","<div class = 'row'><div class = 'column'><img src = 'usneg/3160.bmp' width = '100%;'></div><div class = 'column'><img src = 'category2/CS2.png' width = '70%;'></div></div>","null","neg","CS","CS","2","category2/CS2.png","","","","",""
"","html-keyboard-response","67","581752","0.0-6.0-4.0-0.19","bvoueq1d6z","many_one","0","direct_first","1","ke08as27","0","31","1","1","3","1","","0","1","0","null","","","<div class = 'row'><div class = 'column'><img src = 'uspos/5621.bmp' width = '100%;'></div><div class = 'column'><img src = 'category4/CS7.png' width = '70%;'></div></div>","null","pos","CS","CS","4","category4/CS7.png","","","","",""
"","survey-html-form","68","590714","0.0-6.0-5.0","bvoueq1d6z","many_one","0","direct_first","1","ke08as27","0","31","1","1","3","1","","0","1","0","8457","","{}","","","","","","","","","","","",""
"","html-keyboard-response","69","594719","0.0-6.0-6.0-0.0","bvoueq1d6z","many_one","0","direct_first","1","ke08as27","0","31","1","1","3","1","","0","1","0","null","","","<div class = 'row'><div class = 'column'><img src = 'uspos/2530.bmp' width = '100%;'></div><div class = 'column'><img src = 'category1/CS9.png' width = '70%;'></div></div>","null","pos","CS","CS","1","category1/CS9.png","","","","",""
"","html-keyboard-response","70","597223","0.0-6.0-6.0-0.1","bvoueq1d6z","many_one","0","direct_first","1","ke08as27","0","31","1","1","3","1","","0","1","0","null","","","<div class = 'row'><div class = 'column'><img src = 'usneg/9220.bmp' width = '100%;'></div><div class = 'column'><img src = 'category2/CS10.png' width = '70%;'></div></div>","null","neg","CS","CS","2","category2/CS10.png","","","","",""
"","html-keyboard-response","71","599727","0.0-6.0-6.0-0.2","bvoueq1d6z","many_one","0","direct_first","1","ke08as27","0","31","1","1","3","1","","0","1","0","null","","","<div class = 'row'><div class = 'column'><img src = 'uspos/2040.bmp' width = '100%;'></div><div class = 'column'><img src = 'category1/CS5.png' width = '70%;'></div></div>","null","pos","CS","CS","1","category1/CS5.png","","","","",""
"","html-keyboard-response","72","602230","0.0-6.0-6.0-0.3","bvoueq1d6z","many_one","0","direct_first","1","ke08as27","0","31","1","1","3","1","","0","1","0","null","","","<div class = 'row'><div class = 'column'><img src = 'usneg/9181.bmp' width = '100%;'></div><div class = 'column'><img src = 'category3/CS5.png' width = '70%;'></div></div>","null","neg","CS","CS","3","category3/CS5.png","","","","",""
"","html-keyboard-response","73","604733","0.0-6.0-6.0-0.4","bvoueq1d6z","many_one","0","direct_first","1","ke08as27","0","31","1","1","3","1","","0","1","0","null","","","<div class = 'row'><div class = 'column'><img src = 'usneg/9635.2.bmp' width = '100%;'></div><div class = 'column'><img src = 'category2/CS7.png' width = '70%;'></div></div>","null","neg","CS","CS","2","category2/CS7.png","","","","",""
"","html-keyboard-response","74","607236","0.0-6.0-6.0-0.5","bvoueq1d6z","many_one","0","direct_first","1","ke08as27","0","31","1","1","3","1","","0","1","0","null","","","<div class = 'row'><div class = 'column'><img src = 'category4/CS6.png' width = '70%;'></div><div class = 'column'><img src = 'uspos/2165.bmp' width = '100%;'></div></div>","null","pos","CS","CS","4","category4/CS6.png","","","","",""
"","html-keyboard-response","75","609740","0.0-6.0-6.0-0.6","bvoueq1d6z","many_one","0","direct_first","1","ke08as27","0","31","1","1","3","1","","0","1","0","null","","","<div class = 'row'><div class = 'column'><img src = 'usneg/9404.bmp' width = '100%;'></div><div class = 'column'><img src = 'category3/CS6.png' width = '70%;'></div></div>","null","neg","CS","CS","3","category3/CS6.png","","","","",""
"","html-keyboard-response","76","612244","0.0-6.0-6.0-0.7","bvoueq1d6z","many_one","0","direct_first","1","ke08as27","0","31","1","1","3","1","","0","1","0","null","","","<div class = 'row'><div class = 'column'><img src = 'uspos/2058.bmp' width = '100%;'></div><div class = 'column'><img src = 'category1/CS2.png' width = '70%;'></div></div>","null","pos","CS","CS","1","category1/CS2.png","","","","",""
"","html-keyboard-response","77","614747","0.0-6.0-6.0-0.8","bvoueq1d6z","many_one","0","direct_first","1","ke08as27","0","31","1","1","3","1","","0","1","0","null","","","<div class = 'row'><div class = 'column'><img src = 'category1/CS1.png' width = '70%;'></div><div class = 'column'><img src = 'uspos/8490.bmp' width = '100%;'></div></div>","null","pos","CS","CS","1","category1/CS1.png","","","","",""
"","html-keyboard-response","78","617251","0.0-6.0-6.0-0.9","bvoueq1d6z","many_one","0","direct_first","1","ke08as27","0","31","1","1","3","1","","0","1","0","null","","","<div class = 'row'><div class = 'column'><img src = 'uspos/2340.bmp' width = '100%;'></div><div class = 'column'><img src = 'category4/CS8.png' width = '70%;'></div></div>","null","pos","CS","CS","4","category4/CS8.png","","","","",""
"","html-keyboard-response","79","619753","0.0-6.0-6.0-0.10","bvoueq1d6z","many_one","0","direct_first","1","ke08as27","0","31","1","1","3","1","","0","1","0","null","","","<div class = 'row'><div class = 'column'><img src = 'uspos/7325.bmp' width = '100%;'></div><div class = 'column'><img src = 'category4/CS9.png' width = '70%;'></div></div>","null","pos","CS","CS","4","category4/CS9.png","","","","",""
"","html-keyboard-response","80","622258","0.0-6.0-6.0-0.11","bvoueq1d6z","many_one","0","direct_first","1","ke08as27","0","31","1","1","3","1","","0","1","0","null","","","<div class = 'row'><div class = 'column'><img src = 'category1/CS7.png' width = '70%;'></div><div class = 'column'><img src = 'uspos/1340.bmp' width = '100%;'></div></div>","null","pos","CS","CS","1","category1/CS7.png","","","","",""
"","html-keyboard-response","81","624760","0.0-6.0-6.0-0.12","bvoueq1d6z","many_one","0","direct_first","1","ke08as27","0","31","1","1","3","1","","0","1","0","null","","","<div class = 'row'><div class = 'column'><img src = 'category2/CS4.png' width = '70%;'></div><div class = 'column'><img src = 'usneg/9342.bmp' width = '100%;'></div></div>","null","neg","CS","CS","2","category2/CS4.png","","","","",""
"","html-keyboard-response","82","627264","0.0-6.0-6.0-0.13","bvoueq1d6z","many_one","0","direct_first","1","ke08as27","0","31","1","1","3","1","","0","1","0","null","","","<div class = 'row'><div class = 'column'><img src = 'usneg/6570.1.bmp' width = '100%;'></div><div class = 'column'><img src = 'category3/CS2.png' width = '70%;'></div></div>","null","neg","CS","CS","3","category3/CS2.png","","","","",""
"","html-keyboard-response","83","629767","0.0-6.0-6.0-0.14","bvoueq1d6z","many_one","0","direct_first","1","ke08as27","0","31","1","1","3","1","","0","1","0","null","","","<div class = 'row'><div class = 'column'><img src = 'usneg/2205.bmp' width = '100%;'></div><div class = 'column'><img src = 'category2/CS6.png' width = '70%;'></div></div>","null","neg","CS","CS","2","category2/CS6.png","","","","",""
"","html-keyboard-response","84","632272","0.0-6.0-6.0-0.15","bvoueq1d6z","many_one","0","direct_first","1","ke08as27","0","31","1","1","3","1","","0","1","0","null","","","<div class = 'row'><div class = 'column'><img src = 'usneg/9280.bmp' width = '100%;'></div><div class = 'column'><img src = 'category3/CS3.png' width = '70%;'></div></div>","null","neg","CS","CS","3","category3/CS3.png","","","","",""
"","html-keyboard-response","85","634775","0.0-6.0-6.0-0.16","bvoueq1d6z","many_one","0","direct_first","1","ke08as27","0","31","1","1","3","1","","0","1","0","null","","","<div class = 'row'><div class = 'column'><img src = 'uspos/5621.bmp' width = '100%;'></div><div class = 'column'><img src = 'category4/CS7.png' width = '70%;'></div></div>","null","pos","CS","CS","4","category4/CS7.png","","","","",""
"","html-keyboard-response","86","637279","0.0-6.0-6.0-0.17","bvoueq1d6z","many_one","0","direct_first","1","ke08as27","0","31","1","1","3","1","","0","1","0","null","","","<div class = 'row'><div class = 'column'><img src = 'category2/CS2.png' width = '70%;'></div><div class = 'column'><img src = 'usneg/3160.bmp' width = '100%;'></div></div>","null","neg","CS","CS","2","category2/CS2.png","","","","",""
"","html-keyboard-response","87","639782","0.0-6.0-6.0-0.18","bvoueq1d6z","many_one","0","direct_first","1","ke08as27","0","31","1","1","3","1","","0","1","0","null","","","<div class = 'row'><div class = 'column'><img src = 'category3/CS8.png' width = '70%;'></div><div class = 'column'><img src = 'usneg/7380.bmp' width = '100%;'></div></div>","null","neg","CS","CS","3","category3/CS8.png","","","","",""
"","html-keyboard-response","88","642286","0.0-6.0-6.0-0.19","bvoueq1d6z","many_one","0","direct_first","1","ke08as27","0","31","1","1","3","1","","0","1","0","null","","","<div class = 'row'><div class = 'column'><img src = 'category4/CS5.png' width = '70%;'></div><div class = 'column'><img src = 'uspos/2900.2.bmp' width = '100%;'></div></div>","null","pos","CS","CS","4","category4/CS5.png","","","","",""
"","survey-html-form","89","653029","0.0-7.0","bvoueq1d6z","many_one","0","direct_first","1","ke08as27","0","31","1","1","3","1","","0","1","0","10240","","{}","","","","","","","","","","","",""
"","image-slider-response","90","666168","0.0-8.0-0.0","bvoueq1d6z","many_one","0","direct_first","1","ke08as27","0","31","1","1","3","1","","0","1","0","11123","","","","","pos","GS","GSnew","4","category4/GS2.png","-31","targets/20.png","direct","",""
"","image-slider-response","91","672320","0.0-8.0-0.1","bvoueq1d6z","many_one","0","direct_first","1","ke08as27","0","31","1","1","3","1","","0","1","0","6142","","","","","neg","CS","CS","3","category3/CS8.png","-53","targets/26.png","direct","",""
"","image-slider-response","92","682951","0.0-8.0-0.2","bvoueq1d6z","many_one","0","direct_first","1","ke08as27","0","31","1","1","3","1","","0","1","0","10624","","","","","neg","GS","GSnew","3","category3/GS1.png","19","targets/4.png","direct","",""
"","image-slider-response","93","688026","0.0-8.0-0.3","bvoueq1d6z","many_one","0","direct_first","1","ke08as27","0","31","1","1","3","1","","0","1","0","5066","","","","","pos","CS","CS","1","category1/CS2.png","17","targets/34.png","direct","",""
"","image-slider-response","94","693740","0.0-8.0-0.4","bvoueq1d6z","many_one","0","direct_first","1","ke08as27","0","31","1","1","3","1","","0","1","0","5706","","","","","pos","CS","CS","4","category4/CS7.png","29","targets/9.png","direct","",""
"","image-slider-response","95","700831","0.0-8.0-0.5","bvoueq1d6z","many_one","0","direct_first","1","ke08as27","0","31","1","1","3","1","","0","1","0","7082","","","","","pos","CS","CS","4","category4/CS5.png","-24","targets/39.png","direct","",""
"","image-slider-response","96","705658","0.0-8.0-0.6","bvoueq1d6z","many_one","0","direct_first","1","ke08as27","0","31","1","1","3","1","","0","1","0","4818","","","","","pos","CS","CS","4","category4/CS8.png","29","targets/16.png","direct","",""
"","image-slider-response","97","712398","0.0-8.0-0.7","bvoueq1d6z","many_one","0","direct_first","1","ke08as27","0","31","1","1","3","1","","0","1","0","6730","","","","","neg","GS","GSnew","2","category2/GS1.png","6","targets/45.png","direct","",""
"","image-slider-response","98","718550","0.0-8.0-0.8","bvoueq1d6z","many_one","0","direct_first","1","ke08as27","0","31","1","1","3","1","","0","1","0","6143","","","","","neg","CS","CS","3","category3/CS6.png","17","targets/23.png","direct","",""
"","image-slider-response","99","724711","0.0-8.0-0.9","bvoueq1d6z","many_one","0","direct_first","1","ke08as27","0","31","1","1","3","1","","0","1","0","6151","","","","","pos","CS","CS","1","category1/CS1.png","-26","targets/18.png","direct","",""
"","image-slider-response","100","730033","0.0-8.0-0.10","bvoueq1d6z","many_one","0","direct_first","1","ke08as27","0","31","1","1","3","1","","0","1","0","5313","","","","","neg","GS","abstract","2","category2/men.png","28","targets/24.png","direct","",""
"","image-slider-response","101","735324","0.0-8.0-0.11","bvoueq1d6z","many_one","0","direct_first","1","ke08as27","0","31","1","1","3","1","","0","1","0","5283","","","","","neg","GS","GSnew","2","category2/GS3.png","-15","targets/11.png","direct","",""
"","image-slider-response","102","740419","0.0-8.0-0.12","bvoueq1d6z","many_one","0","direct_first","1","ke08as27","0","31","1","1","3","1","","0","1","0","5086","","","","","neg","CS","CS","2","category2/CS10.png","35","targets/37.png","direct","",""
"","image-slider-response","103","745366","0.0-8.0-0.13","bvoueq1d6z","many_one","0","direct_first","1","ke08as27","0","31","1","1","3","1","","0","1","0","4938","","","","","neg","CS","CS","3","category3/CS3.png","30","targets/40.png","direct","",""
"","image-slider-response","104","753056","0.0-8.0-0.14","bvoueq1d6z","many_one","0","direct_first","1","ke08as27","0","31","1","1","3","1","","0","1","0","7681","","","","","neg","CS","CS","2","category2/CS7.png","-23","targets/35.png","direct","",""
"","image-slider-response","105","757261","0.0-8.0-0.15","bvoueq1d6z","many_one","0","direct_first","1","ke08as27","0","31","1","1","3","1","","0","1","0","4197","","","","","neg","GS","GSold","2","category2/CS3.png","24","targets/25.png","direct","",""
"","image-slider-response","106","763440","0.0-8.0-0.16","bvoueq1d6z","many_one","0","direct_first","1","ke08as27","0","31","1","1","3","1","","0","1","0","6171","","","","","pos","GS","GSold","1","category1/CS6.png","20","targets/30.png","direct","",""
"","image-slider-response","107","768861","0.0-8.0-0.17","bvoueq1d6z","many_one","0","direct_first","1","ke08as27","0","31","1","1","3","1","","0","1","0","5411","","","","","pos","GS","GSnew","1","category1/GS1.png","21","targets/1.png","direct","",""
"","image-slider-response","108","773391","0.0-8.0-0.18","bvoueq1d6z","many_one","0","direct_first","1","ke08as27","0","31","1","1","3","1","","0","1","0","4522","","","","","pos","CS","CS","4","category4/CS6.png","33","targets/47.png","direct","",""
"","image-slider-response","109","777331","0.0-8.0-0.19","bvoueq1d6z","many_one","0","direct_first","1","ke08as27","0","31","1","1","3","1","","0","1","0","3931","","","","","neg","CS","CS","3","category3/CS5.png","40","targets/6.png","direct","",""
"","image-slider-response","110","782919","0.0-8.0-0.20","bvoueq1d6z","many_one","0","direct_first","1","ke08as27","0","31","1","1","3","1","","0","1","0","5578","","","","","pos","GS","GSnew","1","category1/GS3.png","-34","targets/14.png","direct","",""
"","image-slider-response","111","788150","0.0-8.0-0.21","bvoueq1d6z","many_one","0","direct_first","1","ke08as27","0","31","1","1","3","1","","0","1","0","5222","","","","","pos","CS","CS","1","category1/CS7.png","42","targets/36.png","direct","",""
"","image-slider-response","112","796317","0.0-8.0-0.22","bvoueq1d6z","many_one","0","direct_first","1","ke08as27","0","31","1","1","3","1","","0","1","0","8157","","","","","neg","GS","GSold","3","category3/CS10.png","-9","targets/5.png","direct","",""
"","image-slider-response","113","799455","0.0-8.0-0.23","bvoueq1d6z","many_one","0","direct_first","1","ke08as27","0","31","1","1","3","1","","0","1","0","3132","","","","","pos","CS","CS","1","category1/CS5.png","24","targets/19.png","direct","",""
"","image-slider-response","114","803502","0.0-8.0-0.24","bvoueq1d6z","many_one","0","direct_first","1","ke08as27","0","31","1","1","3","1","","0","1","0","4038","","","","","pos","GS","abstract","4","category4/lin.png","48","targets/41.png","direct","",""
"","image-slider-response","115","806928","0.0-8.0-0.25","bvoueq1d6z","many_one","0","direct_first","1","ke08as27","0","31","1","1","3","1","","0","1","0","3418","","","","","pos","GS","GSold","4","category4/CS2.png","42","targets/28.png","direct","",""
"","image-slider-response","116","812090","0.0-8.0-0.26","bvoueq1d6z","many_one","0","direct_first","1","ke08as27","0","31","1","1","3","1","","0","1","0","5155","","","","","pos","GS","GSnew","4","category4/GS1.png","-25","targets/17.png","direct","",""
"","image-slider-response","117","816712","0.0-8.0-0.27","bvoueq1d6z","many_one","0","direct_first","1","ke08as27","0","31","1","1","3","1","","0","1","0","4612","","","","","pos","GS","GSold","1","category1/CS3.png","29","targets/33.png","direct","",""
"","image-slider-response","118","822604","0.0-8.0-0.28","bvoueq1d6z","many_one","0","direct_first","1","ke08as27","0","31","1","1","3","1","","0","1","0","5886","","","","","pos","GS","GSold","4","category4/CS3.png","28","targets/38.png","direct","",""
"","image-slider-response","119","826662","0.0-8.0-0.29","bvoueq1d6z","many_one","0","direct_first","1","ke08as27","0","31","1","1","3","1","","0","1","0","4050","","","","","neg","GS","GSold","3","category3/CS7.png","-31","targets/42.png","direct","",""
"","image-slider-response","120","830443","0.0-8.0-0.30","bvoueq1d6z","many_one","0","direct_first","1","ke08as27","0","31","1","1","3","1","","0","1","0","3775","","","","","pos","CS","CS","4","category4/CS9.png","34","targets/8.png","direct","",""
"","image-slider-response","121","833710","0.0-8.0-0.31","bvoueq1d6z","many_one","0","direct_first","1","ke08as27","0","31","1","1","3","1","","0","1","0","3257","","","","","pos","GS","GSold","4","category4/CS1.png","52","targets/43.png","direct","",""
"","image-slider-response","122","837578","0.0-8.0-0.32","bvoueq1d6z","many_one","0","direct_first","1","ke08as27","0","31","1","1","3","1","","0","1","0","3860","","","","","pos","GS","GSnew","1","category1/GS2.png","-30","targets/44.png","direct","",""
"","image-slider-response","123","841448","0.0-8.0-0.33","bvoueq1d6z","many_one","0","direct_first","1","ke08as27","0","31","1","1","3","1","","0","1","0","3861","","","","","neg","GS","GSnew","3","category3/GS2.png","-26","targets/2.png","direct","",""
"","image-slider-response","124","845684","0.0-8.0-0.34","bvoueq1d6z","many_one","0","direct_first","1","ke08as27","0","31","1","1","3","1","","0","1","0","4227","","","","","neg","GS","GSnew","2","category2/GS2.png","-16","targets/15.png","direct","",""
"","image-slider-response","125","851261","0.0-8.0-0.35","bvoueq1d6z","many_one","0","direct_first","1","ke08as27","0","31","1","1","3","1","","0","1","0","5567","","","","","neg","GS","GSold","2","category2/CS9.png","-17","targets/31.png","direct","",""
"","image-slider-response","126","856878","0.0-8.0-0.36","bvoueq1d6z","many_one","0","direct_first","1","ke08as27","0","31","1","1","3","1","","0","1","0","5608","","","","","neg","GS","GSnew","3","category3/GS3.png","33","targets/12.png","direct","",""
"","image-slider-response","127","863237","0.0-8.0-0.37","bvoueq1d6z","many_one","0","direct_first","1","ke08as27","0","31","1","1","3","1","","0","1","0","6351","","","","","neg","GS","GSold","3","category3/CS9.png","34","targets/7.png","direct","",""
"","image-slider-response","128","868241","0.0-8.0-0.38","bvoueq1d6z","many_one","0","direct_first","1","ke08as27","0","31","1","1","3","1","","0","1","0","4998","","","","","pos","GS","GSnew","4","category4/GS3.png","-33","targets/29.png","direct","",""
"","image-slider-response","129","873442","0.0-8.0-0.39","bvoueq1d6z","many_one","0","direct_first","1","ke08as27","0","31","1","1","3","1","","0","1","0","5194","","","","","neg","CS","CS","2","category2/CS4.png","20","targets/3.png","direct","",""
"","image-slider-response","130","878190","0.0-8.0-0.40","bvoueq1d6z","many_one","0","direct_first","1","ke08as27","0","31","1","1","3","1","","0","1","0","4742","","","","","pos","GS","abstract","1","category1/ma.png","-22","targets/10.png","direct","",""
"","image-slider-response","131","881280","0.0-8.0-0.41","bvoueq1d6z","many_one","0","direct_first","1","ke08as27","0","31","1","1","3","1","","0","1","0","3080","","","","","neg","GS","abstract","3","category3/wang.png","49","targets/21.png","direct","",""
"","image-slider-response","132","885228","0.0-8.0-0.42","bvoueq1d6z","many_one","0","direct_first","1","ke08as27","0","31","1","1","3","1","","0","1","0","3942","","","","","pos","GS","GSold","1","category1/CS8.png","-37","targets/13.png","direct","",""
"","image-slider-response","133","889404","0.0-8.0-0.43","bvoueq1d6z","many_one","0","direct_first","1","ke08as27","0","31","1","1","3","1","","0","1","0","4169","","","","","neg","GS","GSold","2","category2/CS1.png","-19","targets/22.png","direct","",""
"","image-slider-response","134","895691","0.0-8.0-0.44","bvoueq1d6z","many_one","0","direct_first","1","ke08as27","0","31","1","1","3","1","","0","1","0","6279","","","","","pos","CS","CS","1","category1/CS9.png","40","targets/48.png","direct","",""
"","image-slider-response","135","900402","0.0-8.0-0.45","bvoueq1d6z","many_one","0","direct_first","1","ke08as27","0","31","1","1","3","1","","0","1","0","4703","","","","","neg","CS","CS","2","category2/CS6.png","20","targets/27.png","direct","",""
"","image-slider-response","136","903697","0.0-8.0-0.46","bvoueq1d6z","many_one","0","direct_first","1","ke08as27","0","31","1","1","3","1","","0","1","0","3287","","","","","neg","CS","CS","2","category2/CS2.png","-26","targets/46.png","direct","",""
"","image-slider-response","137","907054","0.0-8.0-0.47","bvoueq1d6z","many_one","0","direct_first","1","ke08as27","0","31","1","1","3","1","","0","1","0","3352","","","","","neg","CS","CS","3","category3/CS2.png","35","targets/32.png","direct","",""
"","html-keyboard-response","138","935656","0.0-9.0","bvoueq1d6z","many_one","0","direct_first","1","ke08as27","0","31","1","1","3","1","","0","1","0","28596","","","<p>Sie sehen nun die chinesischen Zeichen nur ganz kurz. Danach sehen Sie die jeweilige Aussprache der Zeichen als Silbe auf dem Bildschrim. Ihre Aufgabe ist es, für jede Silbe anzugeben, ob diese etwas angenehmes, oder unangenehmes bedeuten könnte. Verlassen Sie sich hier vor allem auf Ihre Intuition.<br><br>Die Zeichen werden nur zur Orientierung dargestellt, beachten Sie sie deshalb nicht. Konzentrieren Sie sich vor allem auf die Silben. <br>Reagieren Sie mit folgenden zwei Tasten: <br><br><b>'D' </b> wenn die Silbe etwas <b>unangenehmes</b> bedeuten könnte. <br><b>'K'</b> wenn die Silbe etwas <b>angenehmes</b> bedeuten könnte. <br><br>Bitte legen Sie nun den Zeigefinger der linken Hand auf die Taste 'D' und den Zeigefinger der rechten Hand auf die Taste 'K'. <br>Reagieren Sie auf jede Silbe so schnell wie möglich. Uns interessiert Ihre spontane Reaktion. <br> <br> <br>Drücken Sie 'D' oder 'K', um die nächste Aufgabe zu starten. </p>","68","","","","","","","","","",""
"","html-keyboard-response","139","938657","0.0-10.0-0.0","bvoueq1d6z","many_one","0","direct_first","1","ke08as27","0","31","1","1","3","1","","0","1","0","null","","","<div style=""font-size:60px;"">+</div>","null","","","","","","","","","",""
"","html-keyboard-response","140","938749","0.0-10.0-1.0","bvoueq1d6z","many_one","0","direct_first","1","ke08as27","0","31","1","1","3","1","","0","1","0","null","","","<img src = 'category4/CS5.png' width = '100%;'>","null","","","","","","","","","",""
"","html-keyboard-response","141","939002","0.0-10.0-2.0","bvoueq1d6z","many_one","0","direct_first","1","ke08as27","0","31","1","1","3","1","","0","1","0","null","","","<img src = 'targets/39.png' width = '100%;'>","null","","","","","","","","","",""
"","html-keyboard-response","142","940462","0.0-10.0-3.0","bvoueq1d6z","many_one","0","direct_first","1","ke08as27","0","31","1","1","3","1","","0","1","0","1457","","","<img src = 'targets/mask.png' width = '100%;'>","75","pos","CS","CS","4","category4/CS5.png","","targets/39.png","indirect","1","0"
"","html-keyboard-response","143","941965","0.0-10.0-0.1","bvoueq1d6z","many_one","0","direct_first","1","ke08as27","0","31","1","1","3","1","","0","1","0","null","","","<div style=""font-size:60px;"">+</div>","null","","","","","","","","","",""
"","html-keyboard-response","144","942057","0.0-10.0-1.1","bvoueq1d6z","many_one","0","direct_first","1","ke08as27","0","31","1","1","3","1","","0","1","0","null","","","<img src = 'category1/CS2.png' width = '100%;'>","null","","","","","","","","","",""
"","html-keyboard-response","145","942309","0.0-10.0-2.1","bvoueq1d6z","many_one","0","direct_first","1","ke08as27","0","31","1","1","3","1","","0","1","0","null","","","<img src = 'targets/34.png' width = '100%;'>","null","","","","","","","","","",""
"","html-keyboard-response","146","943109","0.0-10.0-3.1","bvoueq1d6z","many_one","0","direct_first","1","ke08as27","0","31","1","1","3","1","","0","1","0","797","","","<img src = 'targets/mask.png' width = '100%;'>","75","pos","CS","CS","1","category1/CS2.png","","targets/34.png","indirect","1","1"
"","html-keyboard-response","147","944611","0.0-10.0-0.2","bvoueq1d6z","many_one","0","direct_first","1","ke08as27","0","31","1","1","3","1","","0","1","0","null","","","<div style=""font-size:60px;"">+</div>","null","","","","","","","","","",""
"","html-keyboard-response","148","944703","0.0-10.0-1.2","bvoueq1d6z","many_one","0","direct_first","1","ke08as27","0","31","1","1","3","1","","0","1","0","null","","","<img src = 'category2/CS10.png' width = '100%;'>","null","","","","","","","","","",""
"","html-keyboard-response","149","944956","0.0-10.0-2.2","bvoueq1d6z","many_one","0","direct_first","1","ke08as27","0","31","1","1","3","1","","0","1","0","null","","","<img src = 'targets/37.png' width = '100%;'>","null","","","","","","","","","",""
"","html-keyboard-response","150","945653","0.0-10.0-3.2","bvoueq1d6z","many_one","0","direct_first","1","ke08as27","0","31","1","1","3","1","","0","1","0","695","","","<img src = 'targets/mask.png' width = '100%;'>","75","neg","CS","CS","2","category2/CS10.png","","targets/37.png","indirect","1","2"
"","html-keyboard-response","151","947154","0.0-10.0-0.3","bvoueq1d6z","many_one","0","direct_first","1","ke08as27","0","31","1","1","3","1","","0","1","0","null","","","<div style=""font-size:60px;"">+</div>","null","","","","","","","","","",""
"","html-keyboard-response","152","947247","0.0-10.0-1.3","bvoueq1d6z","many_one","0","direct_first","1","ke08as27","0","31","1","1","3","1","","0","1","0","null","","","<img src = 'category1/CS5.png' width = '100%;'>","null","","","","","","","","","",""
"","html-keyboard-response","153","947499","0.0-10.0-2.3","bvoueq1d6z","many_one","0","direct_first","1","ke08as27","0","31","1","1","3","1","","0","1","0","null","","","<img src = 'targets/19.png' width = '100%;'>","null","","","","","","","","","",""
"","html-keyboard-response","154","948233","0.0-10.0-3.3","bvoueq1d6z","many_one","0","direct_first","1","ke08as27","0","31","1","1","3","1","","0","1","0","732","","","<img src = 'targets/mask.png' width = '100%;'>","68","pos","CS","CS","1","category1/CS5.png","","targets/19.png","indirect","0","3"
"","html-keyboard-response","155","949735","0.0-10.0-0.4","bvoueq1d6z","many_one","0","direct_first","1","ke08as27","0","31","1","1","3","1","","0","1","0","null","","","<div style=""font-size:60px;"">+</div>","null","","","","","","","","","",""
"","html-keyboard-response","156","949827","0.0-10.0-1.4","bvoueq1d6z","many_one","0","direct_first","1","ke08as27","0","31","1","1","3","1","","0","1","0","null","","","<img src = 'category3/CS6.png' width = '100%;'>","null","","","","","","","","","",""
"","html-keyboard-response","157","950080","0.0-10.0-2.4","bvoueq1d6z","many_one","0","direct_first","1","ke08as27","0","31","1","1","3","1","","0","1","0","null","","","<img src = 'targets/23.png' width = '100%;'>","null","","","","","","","","","",""
"","html-keyboard-response","158","950966","0.0-10.0-3.4","bvoueq1d6z","many_one","0","direct_first","1","ke08as27","0","31","1","1","3","1","","0","1","0","882","","","<img src = 'targets/mask.png' width = '100%;'>","68","neg","CS","CS","3","category3/CS6.png","","targets/23.png","indirect","0","4"
"","html-keyboard-response","159","952468","0.0-10.0-0.5","bvoueq1d6z","many_one","0","direct_first","1","ke08as27","0","31","1","1","3","1","","0","1","0","null","","","<div style=""font-size:60px;"">+</div>","null","","","","","","","","","",""
"","html-keyboard-response","160","952560","0.0-10.0-1.5","bvoueq1d6z","many_one","0","direct_first","1","ke08as27","0","31","1","1","3","1","","0","1","0","null","","","<img src = 'category3/CS9.png' width = '100%;'>","null","","","","","","","","","",""
"","html-keyboard-response","161","952813","0.0-10.0-2.5","bvoueq1d6z","many_one","0","direct_first","1","ke08as27","0","31","1","1","3","1","","0","1","0","null","","","<img src = 'targets/7.png' width = '100%;'>","null","","","","","","","","","",""
"","html-keyboard-response","162","953815","0.0-10.0-3.5","bvoueq1d6z","many_one","0","direct_first","1","ke08as27","0","31","1","1","3","1","","0","1","0","1001","","","<img src = 'targets/mask.png' width = '100%;'>","75","neg","GS","GSold","3","category3/CS9.png","","targets/7.png","indirect","1","5"
"","html-keyboard-response","163","955317","0.0-10.0-0.6","bvoueq1d6z","many_one","0","direct_first","1","ke08as27","0","31","1","1","3","1","","0","1","0","null","","","<div style=""font-size:60px;"">+</div>","null","","","","","","","","","",""
"","html-keyboard-response","164","955410","0.0-10.0-1.6","bvoueq1d6z","many_one","0","direct_first","1","ke08as27","0","31","1","1","3","1","","0","1","0","null","","","<img src = 'category3/CS7.png' width = '100%;'>","null","","","","","","","","","",""
"","html-keyboard-response","165","955662","0.0-10.0-2.6","bvoueq1d6z","many_one","0","direct_first","1","ke08as27","0","31","1","1","3","1","","0","1","0","null","","","<img src = 'targets/42.png' width = '100%;'>","null","","","","","","","","","",""
"","html-keyboard-response","166","956671","0.0-10.0-3.6","bvoueq1d6z","many_one","0","direct_first","1","ke08as27","0","31","1","1","3","1","","0","1","0","1007","","","<img src = 'targets/mask.png' width = '100%;'>","68","neg","GS","GSold","3","category3/CS7.png","","targets/42.png","indirect","0","6"
"","html-keyboard-response","167","958173","0.0-10.0-0.7","bvoueq1d6z","many_one","0","direct_first","1","ke08as27","0","31","1","1","3","1","","0","1","0","null","","","<div style=""font-size:60px;"">+</div>","null","","","","","","","","","",""
"","html-keyboard-response","168","958265","0.0-10.0-1.7","bvoueq1d6z","many_one","0","direct_first","1","ke08as27","0","31","1","1","3","1","","0","1","0","null","","","<img src = 'category3/CS3.png' width = '100%;'>","null","","","","","","","","","",""
"","html-keyboard-response","169","958517","0.0-10.0-2.7","bvoueq1d6z","many_one","0","direct_first","1","ke08as27","0","31","1","1","3","1","","0","1","0","null","","","<img src = 'targets/40.png' width = '100%;'>","null","","","","","","","","","",""
"","html-keyboard-response","170","959781","0.0-10.0-3.7","bvoueq1d6z","many_one","0","direct_first","1","ke08as27","0","31","1","1","3","1","","0","1","0","1262","","","<img src = 'targets/mask.png' width = '100%;'>","75","neg","CS","CS","3","category3/CS3.png","","targets/40.png","indirect","1","7"
"","html-keyboard-response","171","961284","0.0-10.0-0.8","bvoueq1d6z","many_one","0","direct_first","1","ke08as27","0","31","1","1","3","1","","0","1","0","null","","","<div style=""font-size:60px;"">+</div>","null","","","","","","","","","",""
"","html-keyboard-response","172","961375","0.0-10.0-1.8","bvoueq1d6z","many_one","0","direct_first","1","ke08as27","0","31","1","1","3","1","","0","1","0","null","","","<img src = 'category3/CS2.png' width = '100%;'>","null","","","","","","","","","",""
"","html-keyboard-response","173","961627","0.0-10.0-2.8","bvoueq1d6z","many_one","0","direct_first","1","ke08as27","0","31","1","1","3","1","","0","1","0","null","","","<img src = 'targets/32.png' width = '100%;'>","null","","","","","","","","","",""
"","html-keyboard-response","174","962809","0.0-10.0-3.8","bvoueq1d6z","many_one","0","direct_first","1","ke08as27","0","31","1","1","3","1","","0","1","0","1180","","","<img src = 'targets/mask.png' width = '100%;'>","68","neg","CS","CS","3","category3/CS2.png","","targets/32.png","indirect","0","8"
"","html-keyboard-response","175","964311","0.0-10.0-0.9","bvoueq1d6z","many_one","0","direct_first","1","ke08as27","0","31","1","1","3","1","","0","1","0","null","","","<div style=""font-size:60px;"">+</div>","null","","","","","","","","","",""
"","html-keyboard-response","176","964403","0.0-10.0-1.9","bvoueq1d6z","many_one","0","direct_first","1","ke08as27","0","31","1","1","3","1","","0","1","0","null","","","<img src = 'category3/CS8.png' width = '100%;'>","null","","","","","","","","","",""
"","html-keyboard-response","177","964656","0.0-10.0-2.9","bvoueq1d6z","many_one","0","direct_first","1","ke08as27","0","31","1","1","3","1","","0","1","0","null","","","<img src = 'targets/26.png' width = '100%;'>","null","","","","","","","","","",""
"","html-keyboard-response","178","965470","0.0-10.0-3.9","bvoueq1d6z","many_one","0","direct_first","1","ke08as27","0","31","1","1","3","1","","0","1","0","812","","","<img src = 'targets/mask.png' width = '100%;'>","68","neg","CS","CS","3","category3/CS8.png","","targets/26.png","indirect","0","9"
"","html-keyboard-response","179","966972","0.0-10.0-0.10","bvoueq1d6z","many_one","0","direct_first","1","ke08as27","0","31","1","1","3","1","","0","1","0","null","","","<div style=""font-size:60px;"">+</div>","null","","","","","","","","","",""
"","html-keyboard-response","180","967064","0.0-10.0-1.10","bvoueq1d6z","many_one","0","direct_first","1","ke08as27","0","31","1","1","3","1","","0","1","0","null","","","<img src = 'category3/CS5.png' width = '100%;'>","null","","","","","","","","","",""
"","html-keyboard-response","181","967317","0.0-10.0-2.10","bvoueq1d6z","many_one","0","direct_first","1","ke08as27","0","31","1","1","3","1","","0","1","0","null","","","<img src = 'targets/6.png' width = '100%;'>","null","","","","","","","","","",""
"","html-keyboard-response","182","968147","0.0-10.0-3.10","bvoueq1d6z","many_one","0","direct_first","1","ke08as27","0","31","1","1","3","1","","0","1","0","830","","","<img src = 'targets/mask.png' width = '100%;'>","75","neg","CS","CS","3","category3/CS5.png","","targets/6.png","indirect","1","10"
"","html-keyboard-response","183","969650","0.0-10.0-0.11","bvoueq1d6z","many_one","0","direct_first","1","ke08as27","0","31","1","1","3","1","","0","1","0","null","","","<div style=""font-size:60px;"">+</div>","null","","","","","","","","","",""
"","html-keyboard-response","184","969742","0.0-10.0-1.11","bvoueq1d6z","many_one","0","direct_first","1","ke08as27","0","31","1","1","3","1","","0","1","0","null","","","<img src = 'category1/CS9.png' width = '100%;'>","null","","","","","","","","","",""
"","html-keyboard-response","185","969994","0.0-10.0-2.11","bvoueq1d6z","many_one","0","direct_first","1","ke08as27","0","31","1","1","3","1","","0","1","0","null","","","<img src = 'targets/48.png' width = '100%;'>","null","","","","","","","","","",""
"","html-keyboard-response","186","970982","0.0-10.0-3.11","bvoueq1d6z","many_one","0","direct_first","1","ke08as27","0","31","1","1","3","1","","0","1","0","986","","","<img src = 'targets/mask.png' width = '100%;'>","75","pos","CS","CS","1","category1/CS9.png","","targets/48.png","indirect","1","11"
"","html-keyboard-response","187","972484","0.0-10.0-0.12","bvoueq1d6z","many_one","0","direct_first","1","ke08as27","0","31","1","1","3","1","","0","1","0","null","","","<div style=""font-size:60px;"">+</div>","null","","","","","","","","","",""
"","html-keyboard-response","188","972576","0.0-10.0-1.12","bvoueq1d6z","many_one","0","direct_first","1","ke08as27","0","31","1","1","3","1","","0","1","0","null","","","<img src = 'category4/CS6.png' width = '100%;'>","null","","","","","","","","","",""
"","html-keyboard-response","189","972829","0.0-10.0-2.12","bvoueq1d6z","many_one","0","direct_first","1","ke08as27","0","31","1","1","3","1","","0","1","0","null","","","<img src = 'targets/47.png' width = '100%;'>","null","","","","","","","","","",""
"","html-keyboard-response","190","973733","0.0-10.0-3.12","bvoueq1d6z","many_one","0","direct_first","1","ke08as27","0","31","1","1","3","1","","0","1","0","901","","","<img src = 'targets/mask.png' width = '100%;'>","68","pos","CS","CS","4","category4/CS6.png","","targets/47.png","indirect","0","12"
"","html-keyboard-response","191","975234","0.0-10.0-0.13","bvoueq1d6z","many_one","0","direct_first","1","ke08as27","0","31","1","1","3","1","","0","1","0","null","","","<div style=""font-size:60px;"">+</div>","null","","","","","","","","","",""
"","html-keyboard-response","192","975326","0.0-10.0-1.13","bvoueq1d6z","many_one","0","direct_first","1","ke08as27","0","31","1","1","3","1","","0","1","0","null","","","<img src = 'category1/CS7.png' width = '100%;'>","null","","","","","","","","","",""
"","html-keyboard-response","193","975579","0.0-10.0-2.13","bvoueq1d6z","many_one","0","direct_first","1","ke08as27","0","31","1","1","3","1","","0","1","0","null","","","<img src = 'targets/36.png' width = '100%;'>","null","","","","","","","","","",""
"","html-keyboard-response","194","976403","0.0-10.0-3.13","bvoueq1d6z","many_one","0","direct_first","1","ke08as27","0","31","1","1","3","1","","0","1","0","821","","","<img src = 'targets/mask.png' width = '100%;'>","75","pos","CS","CS","1","category1/CS7.png","","targets/36.png","indirect","1","13"
"","html-keyboard-response","195","977905","0.0-10.0-0.14","bvoueq1d6z","many_one","0","direct_first","1","ke08as27","0","31","1","1","3","1","","0","1","0","null","","","<div style=""font-size:60px;"">+</div>","null","","","","","","","","","",""
"","html-keyboard-response","196","977998","0.0-10.0-1.14","bvoueq1d6z","many_one","0","direct_first","1","ke08as27","0","31","1","1","3","1","","0","1","0","null","","","<img src = 'category4/CS7.png' width = '100%;'>","null","","","","","","","","","",""
"","html-keyboard-response","197","978250","0.0-10.0-2.14","bvoueq1d6z","many_one","0","direct_first","1","ke08as27","0","31","1","1","3","1","","0","1","0","null","","","<img src = 'targets/9.png' width = '100%;'>","null","","","","","","","","","",""
"","html-keyboard-response","198","979540","0.0-10.0-3.14","bvoueq1d6z","many_one","0","direct_first","1","ke08as27","0","31","1","1","3","1","","0","1","0","1287","","","<img src = 'targets/mask.png' width = '100%;'>","68","pos","CS","CS","4","category4/CS7.png","","targets/9.png","indirect","0","14"
"","html-keyboard-response","199","981042","0.0-10.0-0.15","bvoueq1d6z","many_one","0","direct_first","1","ke08as27","0","31","1","1","3","1","","0","1","0","null","","","<div style=""font-size:60px;"">+</div>","null","","","","","","","","","",""
"","html-keyboard-response","200","981134","0.0-10.0-1.15","bvoueq1d6z","many_one","0","direct_first","1","ke08as27","0","31","1","1","3","1","","0","1","0","null","","","<img src = 'category4/CS9.png' width = '100%;'>","null","","","","","","","","","",""
"","html-keyboard-response","201","981386","0.0-10.0-2.15","bvoueq1d6z","many_one","0","direct_first","1","ke08as27","0","31","1","1","3","1","","0","1","0","null","","","<img src = 'targets/8.png' width = '100%;'>","null","","","","","","","","","",""
"","html-keyboard-response","202","982207","0.0-10.0-3.15","bvoueq1d6z","many_one","0","direct_first","1","ke08as27","0","31","1","1","3","1","","0","1","0","819","","","<img src = 'targets/mask.png' width = '100%;'>","75","pos","CS","CS","4","category4/CS9.png","","targets/8.png","indirect","1","15"
"","html-keyboard-response","203","983710","0.0-10.0-0.16","bvoueq1d6z","many_one","0","direct_first","1","ke08as27","0","31","1","1","3","1","","0","1","0","null","","","<div style=""font-size:60px;"">+</div>","null","","","","","","","","","",""
"","html-keyboard-response","204","983801","0.0-10.0-1.16","bvoueq1d6z","many_one","0","direct_first","1","ke08as27","0","31","1","1","3","1","","0","1","0","null","","","<img src = 'category2/CS4.png' width = '100%;'>","null","","","","","","","","","",""
"","html-keyboard-response","205","984053","0.0-10.0-2.16","bvoueq1d6z","many_one","0","direct_first","1","ke08as27","0","31","1","1","3","1","","0","1","0","null","","","<img src = 'targets/3.png' width = '100%;'>","null","","","","","","","","","",""
"","html-keyboard-response","206","984761","0.0-10.0-3.16","bvoueq1d6z","many_one","0","direct_first","1","ke08as27","0","31","1","1","3","1","","0","1","0","704","","","<img src = 'targets/mask.png' width = '100%;'>","68","neg","CS","CS","2","category2/CS4.png","","targets/3.png","indirect","0","16"
"","html-keyboard-response","207","986263","0.0-10.0-0.17","bvoueq1d6z","many_one","0","direct_first","1","ke08as27","0","31","1","1","3","1","","0","1","0","null","","","<div style=""font-size:60px;"">+</div>","null","","","","","","","","","",""
"","html-keyboard-response","208","986355","0.0-10.0-1.17","bvoueq1d6z","many_one","0","direct_first","1","ke08as27","0","31","1","1","3","1","","0","1","0","null","","","<img src = 'category2/CS6.png' width = '100%;'>","null","","","","","","","","","",""
"","html-keyboard-response","209","986608","0.0-10.0-2.17","bvoueq1d6z","many_one","0","direct_first","1","ke08as27","0","31","1","1","3","1","","0","1","0","null","","","<img src = 'targets/27.png' width = '100%;'>","null","","","","","","","","","",""
"","html-keyboard-response","210","987613","0.0-10.0-3.17","bvoueq1d6z","many_one","0","direct_first","1","ke08as27","0","31","1","1","3","1","","0","1","0","1003","","","<img src = 'targets/mask.png' width = '100%;'>","75","neg","CS","CS","2","category2/CS6.png","","targets/27.png","indirect","1","17"
"","html-keyboard-response","211","989115","0.0-10.0-0.18","bvoueq1d6z","many_one","0","direct_first","1","ke08as27","0","31","1","1","3","1","","0","1","0","null","","","<div style=""font-size:60px;"">+</div>","null","","","","","","","","","",""
"","html-keyboard-response","212","989206","0.0-10.0-1.18","bvoueq1d6z","many_one","0","direct_first","1","ke08as27","0","31","1","1","3","1","","0","1","0","null","","","<img src = 'category2/CS2.png' width = '100%;'>","null","","","","","","","","","",""
"","html-keyboard-response","213","989458","0.0-10.0-2.18","bvoueq1d6z","many_one","0","direct_first","1","ke08as27","0","31","1","1","3","1","","0","1","0","null","","","<img src = 'targets/46.png' width = '100%;'>","null","","","","","","","","","",""
"","html-keyboard-response","214","990162","0.0-10.0-3.18","bvoueq1d6z","many_one","0","direct_first","1","ke08as27","0","31","1","1","3","1","","0","1","0","701","","","<img src = 'targets/mask.png' width = '100%;'>","75","neg","CS","CS","2","category2/CS2.png","","targets/46.png","indirect","1","18"
"","html-keyboard-response","215","991663","0.0-10.0-0.19","bvoueq1d6z","many_one","0","direct_first","1","ke08as27","0","31","1","1","3","1","","0","1","0","null","","","<div style=""font-size:60px;"">+</div>","null","","","","","","","","","",""
"","html-keyboard-response","216","991756","0.0-10.0-1.19","bvoueq1d6z","many_one","0","direct_first","1","ke08as27","0","31","1","1","3","1","","0","1","0","null","","","<img src = 'category4/CS8.png' width = '100%;'>","null","","","","","","","","","",""
"","html-keyboard-response","217","992008","0.0-10.0-2.19","bvoueq1d6z","many_one","0","direct_first","1","ke08as27","0","31","1","1","3","1","","0","1","0","null","","","<img src = 'targets/16.png' width = '100%;'>","null","","","","","","","","","",""
"","html-keyboard-response","218","992620","0.0-10.0-3.19","bvoueq1d6z","many_one","0","direct_first","1","ke08as27","0","31","1","1","3","1","","0","1","0","611","","","<img src = 'targets/mask.png' width = '100%;'>","68","pos","CS","CS","4","category4/CS8.png","","targets/16.png","indirect","0","19"
"","html-keyboard-response","219","994122","0.0-10.0-0.20","bvoueq1d6z","many_one","0","direct_first","1","ke08as27","0","31","1","1","3","1","","0","1","0","null","","","<div style=""font-size:60px;"">+</div>","null","","","","","","","","","",""
"","html-keyboard-response","220","994214","0.0-10.0-1.20","bvoueq1d6z","many_one","0","direct_first","1","ke08as27","0","31","1","1","3","1","","0","1","0","null","","","<img src = 'category2/CS7.png' width = '100%;'>","null","","","","","","","","","",""
"","html-keyboard-response","221","994468","0.0-10.0-2.20","bvoueq1d6z","many_one","0","direct_first","1","ke08as27","0","31","1","1","3","1","","0","1","0","null","","","<img src = 'targets/35.png' width = '100%;'>","null","","","","","","","","","",""
"","html-keyboard-response","222","995350","0.0-10.0-3.20","bvoueq1d6z","many_one","0","direct_first","1","ke08as27","0","31","1","1","3","1","","0","1","0","879","","","<img src = 'targets/mask.png' width = '100%;'>","75","neg","CS","CS","2","category2/CS7.png","","targets/35.png","indirect","1","20"
"","html-keyboard-response","223","996852","0.0-10.0-0.21","bvoueq1d6z","many_one","0","direct_first","1","ke08as27","0","31","1","1","3","1","","0","1","0","null","","","<div style=""font-size:60px;"">+</div>","null","","","","","","","","","",""
"","html-keyboard-response","224","996944","0.0-10.0-1.21","bvoueq1d6z","many_one","0","direct_first","1","ke08as27","0","31","1","1","3","1","","0","1","0","null","","","<img src = 'category4/CS1.png' width = '100%;'>","null","","","","","","","","","",""
"","html-keyboard-response","225","997196","0.0-10.0-2.21","bvoueq1d6z","many_one","0","direct_first","1","ke08as27","0","31","1","1","3","1","","0","1","0","null","","","<img src = 'targets/43.png' width = '100%;'>","null","","","","","","","","","",""
"","html-keyboard-response","226","998178","0.0-10.0-3.21","bvoueq1d6z","many_one","0","direct_first","1","ke08as27","0","31","1","1","3","1","","0","1","0","980","","","<img src = 'targets/mask.png' width = '100%;'>","68","pos","GS","GSold","4","category4/CS1.png","","targets/43.png","indirect","0","21"
"","html-keyboard-response","227","999681","0.0-10.0-0.22","bvoueq1d6z","many_one","0","direct_first","1","ke08as27","0","31","1","1","3","1","","0","1","0","null","","","<div style=""font-size:60px;"">+</div>","null","","","","","","","","","",""
"","html-keyboard-response","228","999773","0.0-10.0-1.22","bvoueq1d6z","many_one","0","direct_first","1","ke08as27","0","31","1","1","3","1","","0","1","0","null","","","<img src = 'category1/CS1.png' width = '100%;'>","null","","","","","","","","","",""
"","html-keyboard-response","229","1000025","0.0-10.0-2.22","bvoueq1d6z","many_one","0","direct_first","1","ke08as27","0","31","1","1","3","1","","0","1","0","null","","","<img src = 'targets/18.png' width = '100%;'>","null","","","","","","","","","",""
"","html-keyboard-response","230","1000838","0.0-10.0-3.22","bvoueq1d6z","many_one","0","direct_first","1","ke08as27","0","31","1","1","3","1","","0","1","0","810","","","<img src = 'targets/mask.png' width = '100%;'>","68","pos","CS","CS","1","category1/CS1.png","","targets/18.png","indirect","0","22"
"","html-keyboard-response","231","1002340","0.0-10.0-0.23","bvoueq1d6z","many_one","0","direct_first","1","ke08as27","0","31","1","1","3","1","","0","1","0","null","","","<div style=""font-size:60px;"">+</div>","null","","","","","","","","","",""
"","html-keyboard-response","232","1002432","0.0-10.0-1.23","bvoueq1d6z","many_one","0","direct_first","1","ke08as27","0","31","1","1","3","1","","0","1","0","null","","","<img src = 'category3/CS10.png' width = '100%;'>","null","","","","","","","","","",""
"","html-keyboard-response","233","1002685","0.0-10.0-2.23","bvoueq1d6z","many_one","0","direct_first","1","ke08as27","0","31","1","1","3","1","","0","1","0","null","","","<img src = 'targets/5.png' width = '100%;'>","null","","","","","","","","","",""
"","html-keyboard-response","234","1003388","0.0-10.0-3.23","bvoueq1d6z","many_one","0","direct_first","1","ke08as27","0","31","1","1","3","1","","0","1","0","701","","","<img src = 'targets/mask.png' width = '100%;'>","75","neg","GS","GSold","3","category3/CS10.png","","targets/5.png","indirect","1","23"
"","survey-html-form","235","1009133","0.0-11.0","bvoueq1d6z","many_one","0","direct_first","1","ke08as27","0","31","1","1","3","1","","0","1","0","5243","","{}","","","","","","","","","","","",""
"","html-keyboard-response","236","1012136","0.0-12.0-0.0","bvoueq1d6z","many_one","0","direct_first","1","ke08as27","0","31","1","1","3","1","","0","1","0","null","","","<div style=""font-size:60px;"">+</div>","null","","","","","","","","","",""
"","html-keyboard-response","237","1012228","0.0-12.0-1.0","bvoueq1d6z","many_one","0","direct_first","1","ke08as27","0","31","1","1","3","1","","0","1","0","null","","","<img src = 'category1/GS1.png' width = '100%;'>","null","","","","","","","","","",""
"","html-keyboard-response","238","1012480","0.0-12.0-2.0","bvoueq1d6z","many_one","0","direct_first","1","ke08as27","0","31","1","1","3","1","","0","1","0","null","","","<img src = 'targets/1.png' width = '100%;'>","null","","","","","","","","","",""
"","html-keyboard-response","239","1013318","0.0-12.0-3.0","bvoueq1d6z","many_one","0","direct_first","1","ke08as27","0","31","1","1","3","1","","0","1","0","835","","","<img src = 'targets/mask.png' width = '100%;'>","75","pos","GS","GSnew","1","category1/GS1.png","","targets/1.png","indirect","1","24"
"","html-keyboard-response","240","1014820","0.0-12.0-0.1","bvoueq1d6z","many_one","0","direct_first","1","ke08as27","0","31","1","1","3","1","","0","1","0","null","","","<div style=""font-size:60px;"">+</div>","null","","","","","","","","","",""
"","html-keyboard-response","241","1014912","0.0-12.0-1.1","bvoueq1d6z","many_one","0","direct_first","1","ke08as27","0","31","1","1","3","1","","0","1","0","null","","","<img src = 'category2/GS2.png' width = '100%;'>","null","","","","","","","","","",""
"","html-keyboard-response","242","1015165","0.0-12.0-2.1","bvoueq1d6z","many_one","0","direct_first","1","ke08as27","0","31","1","1","3","1","","0","1","0","null","","","<img src = 'targets/15.png' width = '100%;'>","null","","","","","","","","","",""
"","html-keyboard-response","243","1016125","0.0-12.0-3.1","bvoueq1d6z","many_one","0","direct_first","1","ke08as27","0","31","1","1","3","1","","0","1","0","959","","","<img src = 'targets/mask.png' width = '100%;'>","68","neg","GS","GSnew","2","category2/GS2.png","","targets/15.png","indirect","0","25"
"","html-keyboard-response","244","1017628","0.0-12.0-0.2","bvoueq1d6z","many_one","0","direct_first","1","ke08as27","0","31","1","1","3","1","","0","1","0","null","","","<div style=""font-size:60px;"">+</div>","null","","","","","","","","","",""
"","html-keyboard-response","245","1017719","0.0-12.0-1.2","bvoueq1d6z","many_one","0","direct_first","1","ke08as27","0","31","1","1","3","1","","0","1","0","null","","","<img src = 'category3/GS1.png' width = '100%;'>","null","","","","","","","","","",""
"","html-keyboard-response","246","1017972","0.0-12.0-2.2","bvoueq1d6z","many_one","0","direct_first","1","ke08as27","0","31","1","1","3","1","","0","1","0","null","","","<img src = 'targets/4.png' width = '100%;'>","null","","","","","","","","","",""
"","html-keyboard-response","247","1018904","0.0-12.0-3.2","bvoueq1d6z","many_one","0","direct_first","1","ke08as27","0","31","1","1","3","1","","0","1","0","930","","","<img src = 'targets/mask.png' width = '100%;'>","68","neg","GS","GSnew","3","category3/GS1.png","","targets/4.png","indirect","0","26"
"","html-keyboard-response","248","1020406","0.0-12.0-0.3","bvoueq1d6z","many_one","0","direct_first","1","ke08as27","0","31","1","1","3","1","","0","1","0","null","","","<div style=""font-size:60px;"">+</div>","null","","","","","","","","","",""
"","html-keyboard-response","249","1020498","0.0-12.0-1.3","bvoueq1d6z","many_one","0","direct_first","1","ke08as27","0","31","1","1","3","1","","0","1","0","null","","","<img src = 'category2/GS1.png' width = '100%;'>","null","","","","","","","","","",""
"","html-keyboard-response","250","1020750","0.0-12.0-2.3","bvoueq1d6z","many_one","0","direct_first","1","ke08as27","0","31","1","1","3","1","","0","1","0","null","","","<img src = 'targets/45.png' width = '100%;'>","null","","","","","","","","","",""
"","html-keyboard-response","251","1021789","0.0-12.0-3.3","bvoueq1d6z","many_one","0","direct_first","1","ke08as27","0","31","1","1","3","1","","0","1","0","1036","","","<img src = 'targets/mask.png' width = '100%;'>","75","neg","GS","GSnew","2","category2/GS1.png","","targets/45.png","indirect","1","27"
"","html-keyboard-response","252","1023292","0.0-12.0-0.4","bvoueq1d6z","many_one","0","direct_first","1","ke08as27","0","31","1","1","3","1","","0","1","0","null","","","<div style=""font-size:60px;"">+</div>","null","","","","","","","","","",""
"","html-keyboard-response","253","1023384","0.0-12.0-1.4","bvoueq1d6z","many_one","0","direct_first","1","ke08as27","0","31","1","1","3","1","","0","1","0","null","","","<img src = 'category1/ma.png' width = '100%;'>","null","","","","","","","","","",""
"","html-keyboard-response","254","1023636","0.0-12.0-2.4","bvoueq1d6z","many_one","0","direct_first","1","ke08as27","0","31","1","1","3","1","","0","1","0","null","","","<img src = 'targets/10.png' width = '100%;'>","null","","","","","","","","","",""
"","html-keyboard-response","255","1024486","0.0-12.0-3.4","bvoueq1d6z","many_one","0","direct_first","1","ke08as27","0","31","1","1","3","1","","0","1","0","847","","","<img src = 'targets/mask.png' width = '100%;'>","75","pos","GS","abstract","1","category1/ma.png","","targets/10.png","indirect","1","28"
"","html-keyboard-response","256","1025988","0.0-12.0-0.5","bvoueq1d6z","many_one","0","direct_first","1","ke08as27","0","31","1","1","3","1","","0","1","0","null","","","<div style=""font-size:60px;"">+</div>","null","","","","","","","","","",""
"","html-keyboard-response","257","1026080","0.0-12.0-1.5","bvoueq1d6z","many_one","0","direct_first","1","ke08as27","0","31","1","1","3","1","","0","1","0","null","","","<img src = 'category1/CS3.png' width = '100%;'>","null","","","","","","","","","",""
"","html-keyboard-response","258","1026332","0.0-12.0-2.5","bvoueq1d6z","many_one","0","direct_first","1","ke08as27","0","31","1","1","3","1","","0","1","0","null","","","<img src = 'targets/33.png' width = '100%;'>","null","","","","","","","","","",""
"","html-keyboard-response","259","1027270","0.0-12.0-3.5","bvoueq1d6z","many_one","0","direct_first","1","ke08as27","0","31","1","1","3","1","","0","1","0","937","","","<img src = 'targets/mask.png' width = '100%;'>","68","pos","GS","GSold","1","category1/CS3.png","","targets/33.png","indirect","0","29"
"","html-keyboard-response","260","1028772","0.0-12.0-0.6","bvoueq1d6z","many_one","0","direct_first","1","ke08as27","0","31","1","1","3","1","","0","1","0","null","","","<div style=""font-size:60px;"">+</div>","null","","","","","","","","","",""
"","html-keyboard-response","261","1028864","0.0-12.0-1.6","bvoueq1d6z","many_one","0","direct_first","1","ke08as27","0","31","1","1","3","1","","0","1","0","null","","","<img src = 'category4/lin.png' width = '100%;'>","null","","","","","","","","","",""
"","html-keyboard-response","262","1029116","0.0-12.0-2.6","bvoueq1d6z","many_one","0","direct_first","1","ke08as27","0","31","1","1","3","1","","0","1","0","null","","","<img src = 'targets/41.png' width = '100%;'>","null","","","","","","","","","",""
"","html-keyboard-response","263","1029716","0.0-12.0-3.6","bvoueq1d6z","many_one","0","direct_first","1","ke08as27","0","31","1","1","3","1","","0","1","0","599","","","<img src = 'targets/mask.png' width = '100%;'>","75","pos","GS","abstract","4","category4/lin.png","","targets/41.png","indirect","1","30"
"","html-keyboard-response","264","1031219","0.0-12.0-0.7","bvoueq1d6z","many_one","0","direct_first","1","ke08as27","0","31","1","1","3","1","","0","1","0","null","","","<div style=""font-size:60px;"">+</div>","null","","","","","","","","","",""
"","html-keyboard-response","265","1031310","0.0-12.0-1.7","bvoueq1d6z","many_one","0","direct_first","1","ke08as27","0","31","1","1","3","1","","0","1","0","null","","","<img src = 'category1/GS3.png' width = '100%;'>","null","","","","","","","","","",""
"","html-keyboard-response","266","1031564","0.0-12.0-2.7","bvoueq1d6z","many_one","0","direct_first","1","ke08as27","0","31","1","1","3","1","","0","1","0","null","","","<img src = 'targets/14.png' width = '100%;'>","null","","","","","","","","","",""
"","html-keyboard-response","267","1032462","0.0-12.0-3.7","bvoueq1d6z","many_one","0","direct_first","1","ke08as27","0","31","1","1","3","1","","0","1","0","895","","","<img src = 'targets/mask.png' width = '100%;'>","75","pos","GS","GSnew","1","category1/GS3.png","","targets/14.png","indirect","1","31"
"","html-keyboard-response","268","1033963","0.0-12.0-0.8","bvoueq1d6z","many_one","0","direct_first","1","ke08as27","0","31","1","1","3","1","","0","1","0","null","","","<div style=""font-size:60px;"">+</div>","null","","","","","","","","","",""
"","html-keyboard-response","269","1034055","0.0-12.0-1.8","bvoueq1d6z","many_one","0","direct_first","1","ke08as27","0","31","1","1","3","1","","0","1","0","null","","","<img src = 'category2/CS1.png' width = '100%;'>","null","","","","","","","","","",""
"","html-keyboard-response","270","1034308","0.0-12.0-2.8","bvoueq1d6z","many_one","0","direct_first","1","ke08as27","0","31","1","1","3","1","","0","1","0","null","","","<img src = 'targets/22.png' width = '100%;'>","null","","","","","","","","","",""
"","html-keyboard-response","271","1035028","0.0-12.0-3.8","bvoueq1d6z","many_one","0","direct_first","1","ke08as27","0","31","1","1","3","1","","0","1","0","719","","","<img src = 'targets/mask.png' width = '100%;'>","68","neg","GS","GSold","2","category2/CS1.png","","targets/22.png","indirect","0","32"
"","html-keyboard-response","272","1036532","0.0-12.0-0.9","bvoueq1d6z","many_one","0","direct_first","1","ke08as27","0","31","1","1","3","1","","0","1","0","null","","","<div style=""font-size:60px;"">+</div>","null","","","","","","","","","",""
"","html-keyboard-response","273","1036624","0.0-12.0-1.9","bvoueq1d6z","many_one","0","direct_first","1","ke08as27","0","31","1","1","3","1","","0","1","0","null","","","<img src = 'category2/men.png' width = '100%;'>","null","","","","","","","","","",""
"","html-keyboard-response","274","1036877","0.0-12.0-2.9","bvoueq1d6z","many_one","0","direct_first","1","ke08as27","0","31","1","1","3","1","","0","1","0","null","","","<img src = 'targets/24.png' width = '100%;'>","null","","","","","","","","","",""
"","html-keyboard-response","275","1037791","0.0-12.0-3.9","bvoueq1d6z","many_one","0","direct_first","1","ke08as27","0","31","1","1","3","1","","0","1","0","913","","","<img src = 'targets/mask.png' width = '100%;'>","68","neg","GS","abstract","2","category2/men.png","","targets/24.png","indirect","0","33"
"","html-keyboard-response","276","1039293","0.0-12.0-0.10","bvoueq1d6z","many_one","0","direct_first","1","ke08as27","0","31","1","1","3","1","","0","1","0","null","","","<div style=""font-size:60px;"">+</div>","null","","","","","","","","","",""
"","html-keyboard-response","277","1039385","0.0-12.0-1.10","bvoueq1d6z","many_one","0","direct_first","1","ke08as27","0","31","1","1","3","1","","0","1","0","null","","","<img src = 'category4/CS2.png' width = '100%;'>","null","","","","","","","","","",""
"","html-keyboard-response","278","1039637","0.0-12.0-2.10","bvoueq1d6z","many_one","0","direct_first","1","ke08as27","0","31","1","1","3","1","","0","1","0","null","","","<img src = 'targets/28.png' width = '100%;'>","null","","","","","","","","","",""
"","html-keyboard-response","279","1040448","0.0-12.0-3.10","bvoueq1d6z","many_one","0","direct_first","1","ke08as27","0","31","1","1","3","1","","0","1","0","808","","","<img src = 'targets/mask.png' width = '100%;'>","68","pos","GS","GSold","4","category4/CS2.png","","targets/28.png","indirect","0","34"
"","html-keyboard-response","280","1041951","0.0-12.0-0.11","bvoueq1d6z","many_one","0","direct_first","1","ke08as27","0","31","1","1","3","1","","0","1","0","null","","","<div style=""font-size:60px;"">+</div>","null","","","","","","","","","",""
"","html-keyboard-response","281","1042043","0.0-12.0-1.11","bvoueq1d6z","many_one","0","direct_first","1","ke08as27","0","31","1","1","3","1","","0","1","0","null","","","<img src = 'category1/CS8.png' width = '100%;'>","null","","","","","","","","","",""
"","html-keyboard-response","282","1042295","0.0-12.0-2.11","bvoueq1d6z","many_one","0","direct_first","1","ke08as27","0","31","1","1","3","1","","0","1","0","null","","","<img src = 'targets/13.png' width = '100%;'>","null","","","","","","","","","",""
"","html-keyboard-response","283","1043370","0.0-12.0-3.11","bvoueq1d6z","many_one","0","direct_first","1","ke08as27","0","31","1","1","3","1","","0","1","0","1073","","","<img src = 'targets/mask.png' width = '100%;'>","68","pos","GS","GSold","1","category1/CS8.png","","targets/13.png","indirect","0","35"
"","html-keyboard-response","284","1044872","0.0-12.0-0.12","bvoueq1d6z","many_one","0","direct_first","1","ke08as27","0","31","1","1","3","1","","0","1","0","null","","","<div style=""font-size:60px;"">+</div>","null","","","","","","","","","",""
"","html-keyboard-response","285","1044964","0.0-12.0-1.12","bvoueq1d6z","many_one","0","direct_first","1","ke08as27","0","31","1","1","3","1","","0","1","0","null","","","<img src = 'category4/GS1.png' width = '100%;'>","null","","","","","","","","","",""
"","html-keyboard-response","286","1045217","0.0-12.0-2.12","bvoueq1d6z","many_one","0","direct_first","1","ke08as27","0","31","1","1","3","1","","0","1","0","null","","","<img src = 'targets/17.png' width = '100%;'>","null","","","","","","","","","",""
"","html-keyboard-response","287","1046231","0.0-12.0-3.12","bvoueq1d6z","many_one","0","direct_first","1","ke08as27","0","31","1","1","3","1","","0","1","0","1011","","","<img src = 'targets/mask.png' width = '100%;'>","68","pos","GS","GSnew","4","category4/GS1.png","","targets/17.png","indirect","0","36"
"","html-keyboard-response","288","1047734","0.0-12.0-0.13","bvoueq1d6z","many_one","0","direct_first","1","ke08as27","0","31","1","1","3","1","","0","1","0","null","","","<div style=""font-size:60px;"">+</div>","null","","","","","","","","","",""
"","html-keyboard-response","289","1047826","0.0-12.0-1.13","bvoueq1d6z","many_one","0","direct_first","1","ke08as27","0","31","1","1","3","1","","0","1","0","null","","","<img src = 'category4/GS2.png' width = '100%;'>","null","","","","","","","","","",""
"","html-keyboard-response","290","1048077","0.0-12.0-2.13","bvoueq1d6z","many_one","0","direct_first","1","ke08as27","0","31","1","1","3","1","","0","1","0","null","","","<img src = 'targets/20.png' width = '100%;'>","null","","","","","","","","","",""
"","html-keyboard-response","291","1048938","0.0-12.0-3.13","bvoueq1d6z","many_one","0","direct_first","1","ke08as27","0","31","1","1","3","1","","0","1","0","858","","","<img src = 'targets/mask.png' width = '100%;'>","68","pos","GS","GSnew","4","category4/GS2.png","","targets/20.png","indirect","0","37"
"","html-keyboard-response","292","1050440","0.0-12.0-0.14","bvoueq1d6z","many_one","0","direct_first","1","ke08as27","0","31","1","1","3","1","","0","1","0","null","","","<div style=""font-size:60px;"">+</div>","null","","","","","","","","","",""
"","html-keyboard-response","293","1050532","0.0-12.0-1.14","bvoueq1d6z","many_one","0","direct_first","1","ke08as27","0","31","1","1","3","1","","0","1","0","null","","","<img src = 'category3/GS2.png' width = '100%;'>","null","","","","","","","","","",""
"","html-keyboard-response","294","1050784","0.0-12.0-2.14","bvoueq1d6z","many_one","0","direct_first","1","ke08as27","0","31","1","1","3","1","","0","1","0","null","","","<img src = 'targets/2.png' width = '100%;'>","null","","","","","","","","","",""
"","html-keyboard-response","295","1051333","0.0-12.0-3.14","bvoueq1d6z","many_one","0","direct_first","1","ke08as27","0","31","1","1","3","1","","0","1","0","546","","","<img src = 'targets/mask.png' width = '100%;'>","75","neg","GS","GSnew","3","category3/GS2.png","","targets/2.png","indirect","1","38"
"","html-keyboard-response","296","1052837","0.0-12.0-0.15","bvoueq1d6z","many_one","0","direct_first","1","ke08as27","0","31","1","1","3","1","","0","1","0","null","","","<div style=""font-size:60px;"">+</div>","null","","","","","","","","","",""
"","html-keyboard-response","297","1052929","0.0-12.0-1.15","bvoueq1d6z","many_one","0","direct_first","1","ke08as27","0","31","1","1","3","1","","0","1","0","null","","","<img src = 'category3/wang.png' width = '100%;'>","null","","","","","","","","","",""
"","html-keyboard-response","298","1053182","0.0-12.0-2.15","bvoueq1d6z","many_one","0","direct_first","1","ke08as27","0","31","1","1","3","1","","0","1","0","null","","","<img src = 'targets/21.png' width = '100%;'>","null","","","","","","","","","",""
"","html-keyboard-response","299","1053849","0.0-12.0-3.15","bvoueq1d6z","many_one","0","direct_first","1","ke08as27","0","31","1","1","3","1","","0","1","0","663","","","<img src = 'targets/mask.png' width = '100%;'>","75","neg","GS","abstract","3","category3/wang.png","","targets/21.png","indirect","1","39"
"","html-keyboard-response","300","1055353","0.0-12.0-0.16","bvoueq1d6z","many_one","0","direct_first","1","ke08as27","0","31","1","1","3","1","","0","1","0","null","","","<div style=""font-size:60px;"">+</div>","null","","","","","","","","","",""
"","html-keyboard-response","301","1055445","0.0-12.0-1.16","bvoueq1d6z","many_one","0","direct_first","1","ke08as27","0","31","1","1","3","1","","0","1","0","null","","","<img src = 'category1/GS2.png' width = '100%;'>","null","","","","","","","","","",""
"","html-keyboard-response","302","1055697","0.0-12.0-2.16","bvoueq1d6z","many_one","0","direct_first","1","ke08as27","0","31","1","1","3","1","","0","1","0","null","","","<img src = 'targets/44.png' width = '100%;'>","null","","","","","","","","","",""
"","html-keyboard-response","303","1056774","0.0-12.0-3.16","bvoueq1d6z","many_one","0","direct_first","1","ke08as27","0","31","1","1","3","1","","0","1","0","1075","","","<img src = 'targets/mask.png' width = '100%;'>","68","pos","GS","GSnew","1","category1/GS2.png","","targets/44.png","indirect","0","40"
"","html-keyboard-response","304","1058277","0.0-12.0-0.17","bvoueq1d6z","many_one","0","direct_first","1","ke08as27","0","31","1","1","3","1","","0","1","0","null","","","<div style=""font-size:60px;"">+</div>","null","","","","","","","","","",""
"","html-keyboard-response","305","1058368","0.0-12.0-1.17","bvoueq1d6z","many_one","0","direct_first","1","ke08as27","0","31","1","1","3","1","","0","1","0","null","","","<img src = 'category4/CS3.png' width = '100%;'>","null","","","","","","","","","",""
"","html-keyboard-response","306","1058622","0.0-12.0-2.17","bvoueq1d6z","many_one","0","direct_first","1","ke08as27","0","31","1","1","3","1","","0","1","0","null","","","<img src = 'targets/38.png' width = '100%;'>","null","","","","","","","","","",""
"","html-keyboard-response","307","1059193","0.0-12.0-3.17","bvoueq1d6z","many_one","0","direct_first","1","ke08as27","0","31","1","1","3","1","","0","1","0","569","","","<img src = 'targets/mask.png' width = '100%;'>","75","pos","GS","GSold","4","category4/CS3.png","","targets/38.png","indirect","1","41"
"","html-keyboard-response","308","1060695","0.0-12.0-0.18","bvoueq1d6z","many_one","0","direct_first","1","ke08as27","0","31","1","1","3","1","","0","1","0","null","","","<div style=""font-size:60px;"">+</div>","null","","","","","","","","","",""
"","html-keyboard-response","309","1060787","0.0-12.0-1.18","bvoueq1d6z","many_one","0","direct_first","1","ke08as27","0","31","1","1","3","1","","0","1","0","null","","","<img src = 'category2/CS3.png' width = '100%;'>","null","","","","","","","","","",""
"","html-keyboard-response","310","1061039","0.0-12.0-2.18","bvoueq1d6z","many_one","0","direct_first","1","ke08as27","0","31","1","1","3","1","","0","1","0","null","","","<img src = 'targets/25.png' width = '100%;'>","null","","","","","","","","","",""
"","html-keyboard-response","311","1062169","0.0-12.0-3.18","bvoueq1d6z","many_one","0","direct_first","1","ke08as27","0","31","1","1","3","1","","0","1","0","1127","","","<img src = 'targets/mask.png' width = '100%;'>","75","neg","GS","GSold","2","category2/CS3.png","","targets/25.png","indirect","1","42"
"","html-keyboard-response","312","1063672","0.0-12.0-0.19","bvoueq1d6z","many_one","0","direct_first","1","ke08as27","0","31","1","1","3","1","","0","1","0","null","","","<div style=""font-size:60px;"">+</div>","null","","","","","","","","","",""
"","html-keyboard-response","313","1063763","0.0-12.0-1.19","bvoueq1d6z","many_one","0","direct_first","1","ke08as27","0","31","1","1","3","1","","0","1","0","null","","","<img src = 'category1/CS6.png' width = '100%;'>","null","","","","","","","","","",""
"","html-keyboard-response","314","1064017","0.0-12.0-2.19","bvoueq1d6z","many_one","0","direct_first","1","ke08as27","0","31","1","1","3","1","","0","1","0","null","","","<img src = 'targets/30.png' width = '100%;'>","null","","","","","","","","","",""
"","html-keyboard-response","315","1065104","0.0-12.0-3.19","bvoueq1d6z","many_one","0","direct_first","1","ke08as27","0","31","1","1","3","1","","0","1","0","1084","","","<img src = 'targets/mask.png' width = '100%;'>","68","pos","GS","GSold","1","category1/CS6.png","","targets/30.png","indirect","0","43"
"","html-keyboard-response","316","1066607","0.0-12.0-0.20","bvoueq1d6z","many_one","0","direct_first","1","ke08as27","0","31","1","1","3","1","","0","1","0","null","","","<div style=""font-size:60px;"">+</div>","null","","","","","","","","","",""
"","html-keyboard-response","317","1066698","0.0-12.0-1.20","bvoueq1d6z","many_one","0","direct_first","1","ke08as27","0","31","1","1","3","1","","0","1","0","null","","","<img src = 'category4/GS3.png' width = '100%;'>","null","","","","","","","","","",""
"","html-keyboard-response","318","1066950","0.0-12.0-2.20","bvoueq1d6z","many_one","0","direct_first","1","ke08as27","0","31","1","1","3","1","","0","1","0","null","","","<img src = 'targets/29.png' width = '100%;'>","null","","","","","","","","","",""
"","html-keyboard-response","319","1067712","0.0-12.0-3.20","bvoueq1d6z","many_one","0","direct_first","1","ke08as27","0","31","1","1","3","1","","0","1","0","759","","","<img src = 'targets/mask.png' width = '100%;'>","75","pos","GS","GSnew","4","category4/GS3.png","","targets/29.png","indirect","1","44"
"","html-keyboard-response","320","1069214","0.0-12.0-0.21","bvoueq1d6z","many_one","0","direct_first","1","ke08as27","0","31","1","1","3","1","","0","1","0","null","","","<div style=""font-size:60px;"">+</div>","null","","","","","","","","","",""
"","html-keyboard-response","321","1069307","0.0-12.0-1.21","bvoueq1d6z","many_one","0","direct_first","1","ke08as27","0","31","1","1","3","1","","0","1","0","null","","","<img src = 'category2/CS9.png' width = '100%;'>","null","","","","","","","","","",""
"","html-keyboard-response","322","1069558","0.0-12.0-2.21","bvoueq1d6z","many_one","0","direct_first","1","ke08as27","0","31","1","1","3","1","","0","1","0","null","","","<img src = 'targets/31.png' width = '100%;'>","null","","","","","","","","","",""
"","html-keyboard-response","323","1070477","0.0-12.0-3.21","bvoueq1d6z","many_one","0","direct_first","1","ke08as27","0","31","1","1","3","1","","0","1","0","916","","","<img src = 'targets/mask.png' width = '100%;'>","75","neg","GS","GSold","2","category2/CS9.png","","targets/31.png","indirect","1","45"
"","html-keyboard-response","324","1071979","0.0-12.0-0.22","bvoueq1d6z","many_one","0","direct_first","1","ke08as27","0","31","1","1","3","1","","0","1","0","null","","","<div style=""font-size:60px;"">+</div>","null","","","","","","","","","",""
"","html-keyboard-response","325","1072071","0.0-12.0-1.22","bvoueq1d6z","many_one","0","direct_first","1","ke08as27","0","31","1","1","3","1","","0","1","0","null","","","<img src = 'category2/GS3.png' width = '100%;'>","null","","","","","","","","","",""
"","html-keyboard-response","326","1072323","0.0-12.0-2.22","bvoueq1d6z","many_one","0","direct_first","1","ke08as27","0","31","1","1","3","1","","0","1","0","null","","","<img src = 'targets/11.png' width = '100%;'>","null","","","","","","","","","",""
"","html-keyboard-response","327","1073060","0.0-12.0-3.22","bvoueq1d6z","many_one","0","direct_first","1","ke08as27","0","31","1","1","3","1","","0","1","0","735","","","<img src = 'targets/mask.png' width = '100%;'>","75","neg","GS","GSnew","2","category2/GS3.png","","targets/11.png","indirect","1","46"
"","html-keyboard-response","328","1074562","0.0-12.0-0.23","bvoueq1d6z","many_one","0","direct_first","1","ke08as27","0","31","1","1","3","1","","0","1","0","null","","","<div style=""font-size:60px;"">+</div>","null","","","","","","","","","",""
"","html-keyboard-response","329","1074654","0.0-12.0-1.23","bvoueq1d6z","many_one","0","direct_first","1","ke08as27","0","31","1","1","3","1","","0","1","0","null","","","<img src = 'category3/GS3.png' width = '100%;'>","null","","","","","","","","","",""
"","html-keyboard-response","330","1074906","0.0-12.0-2.23","bvoueq1d6z","many_one","0","direct_first","1","ke08as27","0","31","1","1","3","1","","0","1","0","null","","","<img src = 'targets/12.png' width = '100%;'>","null","","","","","","","","","",""
"","html-keyboard-response","331","1075608","0.0-12.0-3.23","bvoueq1d6z","many_one","0","direct_first","1","ke08as27","0","31","1","1","3","1","","0","1","0","700","","","<img src = 'targets/mask.png' width = '100%;'>","75","neg","GS","GSnew","3","category3/GS3.png","","targets/12.png","indirect","1","47"
"","survey-html-form","332","1093512","0.0-13.0","bvoueq1d6z","many_one","0","direct_first","1","ke08as27","0","31","1","1","3","1","","0","1","0","17400","","{}","","","","","","","","","","","",""
