"success","trial_type","trial_index","time_elapsed","internal_node_id","subject","condition","condition_code","measure","measure_code","codeword","gender","age","education","chinese","fach","handedness","comment","hinschauen","ablenkung","gewissenhaft","rt","url","responses","stimulus","key_press","val","type","type_specific","category","cs_selected","response","target","task","indirect","nr_pres"
"true","fullscreen","0","2798","0.0-0.0","tpq63n8df6","one_one","1","direct_first","1","EL08ER12","0","19","1","1","1","1","","0","1","0","","","","","","","","","","","","","","",""
"","external-html","1","6338","0.0-1.0","tpq63n8df6","one_one","1","direct_first","1","EL08ER12","0","19","1","1","1","1","","0","1","0","3524.1350000724196","text/information.html","","","","","","","","","","","","",""
"","external-html","2","96450","0.0-2.0","tpq63n8df6","one_one","1","direct_first","1","EL08ER12","0","19","1","1","1","1","","0","1","0","90020.20500018261","text/consent.html","","","","","","","","","","","","",""
"","survey-html-form","3","146693","0.0-3.0","tpq63n8df6","one_one","1","direct_first","1","EL08ER12","0","19","1","1","1","1","","0","1","0","50237.87500010803","","{""codeword_enter"":""EL08ER12""}","","","","","","","","","","","",""
"","survey-html-form","4","171438","0.0-4.0","tpq63n8df6","one_one","1","direct_first","1","EL08ER12","0","19","1","1","1","1","","0","1","0","24740.209999959916","","{""age"":""19"",""education"":""1"",""subject"":""1"",""gender"":""0"",""handedness"":""1"",""chinese"":""1""}","","","","","","","","","","","",""
"","survey-html-form","5","184312","0.0-5.0","tpq63n8df6","one_one","1","direct_first","1","EL08ER12","0","19","1","1","1","1","","0","1","0","12871.724999975413","","{}","","","","","","","","","","","",""
"","html-keyboard-response","6","188341","0.0-6.0-0.0-0.0","tpq63n8df6","one_one","1","direct_first","1","EL08ER12","0","19","1","1","1","1","","0","1","0","null","","","<div class = 'row'><div class = 'column'><img src = 'uspos/2550.bmp' width = '100%;'></div><div class = 'column'><img src = 'category1/CS1.png' width = '70%;'></div></div>","null","pos","CS","CS","1","category1/CS1.png","","","","",""
"","html-keyboard-response","7","190873","0.0-6.0-0.0-0.1","tpq63n8df6","one_one","1","direct_first","1","EL08ER12","0","19","1","1","1","1","","0","1","0","null","","","<div class = 'row'><div class = 'column'><img src = 'category4/CS3.png' width = '70%;'></div><div class = 'column'><img src = 'usneg/9561.bmp' width = '100%;'></div></div>","null","neg","CS","CS","4","category4/CS3.png","","","","",""
"","html-keyboard-response","8","193391","0.0-6.0-0.0-0.2","tpq63n8df6","one_one","1","direct_first","1","EL08ER12","0","19","1","1","1","1","","0","1","0","null","","","<div class = 'row'><div class = 'column'><img src = 'usneg/9050.bmp' width = '100%;'></div><div class = 'column'><img src = 'category2/CS10.png' width = '70%;'></div></div>","null","neg","CS","CS","2","category2/CS10.png","","","","",""
"","html-keyboard-response","9","195906","0.0-6.0-0.0-0.3","tpq63n8df6","one_one","1","direct_first","1","EL08ER12","0","19","1","1","1","1","","0","1","0","null","","","<div class = 'row'><div class = 'column'><img src = 'uspos/2530.bmp' width = '100%;'></div><div class = 'column'><img src = 'category3/CS2.png' width = '70%;'></div></div>","null","pos","CS","CS","3","category3/CS2.png","","","","",""
"","html-keyboard-response","10","198437","0.0-6.0-0.0-0.4","tpq63n8df6","one_one","1","direct_first","1","EL08ER12","0","19","1","1","1","1","","0","1","0","null","","","<div class = 'row'><div class = 'column'><img src = 'usneg/9050.bmp' width = '100%;'></div><div class = 'column'><img src = 'category2/CS10.png' width = '70%;'></div></div>","null","neg","CS","CS","2","category2/CS10.png","","","","",""
"","html-keyboard-response","11","200953","0.0-6.0-0.0-0.5","tpq63n8df6","one_one","1","direct_first","1","EL08ER12","0","19","1","1","1","1","","0","1","0","null","","","<div class = 'row'><div class = 'column'><img src = 'category1/CS1.png' width = '70%;'></div><div class = 'column'><img src = 'uspos/2550.bmp' width = '100%;'></div></div>","null","pos","CS","CS","1","category1/CS1.png","","","","",""
"","html-keyboard-response","12","203482","0.0-6.0-0.0-0.6","tpq63n8df6","one_one","1","direct_first","1","EL08ER12","0","19","1","1","1","1","","0","1","0","null","","","<div class = 'row'><div class = 'column'><img src = 'category4/CS3.png' width = '70%;'></div><div class = 'column'><img src = 'usneg/9561.bmp' width = '100%;'></div></div>","null","neg","CS","CS","4","category4/CS3.png","","","","",""
"","html-keyboard-response","13","205996","0.0-6.0-0.0-0.7","tpq63n8df6","one_one","1","direct_first","1","EL08ER12","0","19","1","1","1","1","","0","1","0","null","","","<div class = 'row'><div class = 'column'><img src = 'usneg/9050.bmp' width = '100%;'></div><div class = 'column'><img src = 'category2/CS10.png' width = '70%;'></div></div>","null","neg","CS","CS","2","category2/CS10.png","","","","",""
"","html-keyboard-response","14","208510","0.0-6.0-0.0-0.8","tpq63n8df6","one_one","1","direct_first","1","EL08ER12","0","19","1","1","1","1","","0","1","0","null","","","<div class = 'row'><div class = 'column'><img src = 'category4/CS3.png' width = '70%;'></div><div class = 'column'><img src = 'usneg/9561.bmp' width = '100%;'></div></div>","null","neg","CS","CS","4","category4/CS3.png","","","","",""
"","html-keyboard-response","15","211023","0.0-6.0-0.0-0.9","tpq63n8df6","one_one","1","direct_first","1","EL08ER12","0","19","1","1","1","1","","0","1","0","null","","","<div class = 'row'><div class = 'column'><img src = 'uspos/2550.bmp' width = '100%;'></div><div class = 'column'><img src = 'category1/CS1.png' width = '70%;'></div></div>","null","pos","CS","CS","1","category1/CS1.png","","","","",""
"","html-keyboard-response","16","213540","0.0-6.0-0.0-0.10","tpq63n8df6","one_one","1","direct_first","1","EL08ER12","0","19","1","1","1","1","","0","1","0","null","","","<div class = 'row'><div class = 'column'><img src = 'category3/CS2.png' width = '70%;'></div><div class = 'column'><img src = 'uspos/2530.bmp' width = '100%;'></div></div>","null","pos","CS","CS","3","category3/CS2.png","","","","",""
"","html-keyboard-response","17","216057","0.0-6.0-0.0-0.11","tpq63n8df6","one_one","1","direct_first","1","EL08ER12","0","19","1","1","1","1","","0","1","0","null","","","<div class = 'row'><div class = 'column'><img src = 'usneg/9050.bmp' width = '100%;'></div><div class = 'column'><img src = 'category2/CS10.png' width = '70%;'></div></div>","null","neg","CS","CS","2","category2/CS10.png","","","","",""
"","html-keyboard-response","18","218598","0.0-6.0-0.0-0.12","tpq63n8df6","one_one","1","direct_first","1","EL08ER12","0","19","1","1","1","1","","0","1","0","null","","","<div class = 'row'><div class = 'column'><img src = 'uspos/2530.bmp' width = '100%;'></div><div class = 'column'><img src = 'category3/CS2.png' width = '70%;'></div></div>","null","pos","CS","CS","3","category3/CS2.png","","","","",""
"","html-keyboard-response","19","221137","0.0-6.0-0.0-0.13","tpq63n8df6","one_one","1","direct_first","1","EL08ER12","0","19","1","1","1","1","","0","1","0","null","","","<div class = 'row'><div class = 'column'><img src = 'category2/CS10.png' width = '70%;'></div><div class = 'column'><img src = 'usneg/9050.bmp' width = '100%;'></div></div>","null","neg","CS","CS","2","category2/CS10.png","","","","",""
"","html-keyboard-response","20","223671","0.0-6.0-0.0-0.14","tpq63n8df6","one_one","1","direct_first","1","EL08ER12","0","19","1","1","1","1","","0","1","0","null","","","<div class = 'row'><div class = 'column'><img src = 'usneg/9561.bmp' width = '100%;'></div><div class = 'column'><img src = 'category4/CS3.png' width = '70%;'></div></div>","null","neg","CS","CS","4","category4/CS3.png","","","","",""
"","html-keyboard-response","21","226190","0.0-6.0-0.0-0.15","tpq63n8df6","one_one","1","direct_first","1","EL08ER12","0","19","1","1","1","1","","0","1","0","null","","","<div class = 'row'><div class = 'column'><img src = 'category1/CS1.png' width = '70%;'></div><div class = 'column'><img src = 'uspos/2550.bmp' width = '100%;'></div></div>","null","pos","CS","CS","1","category1/CS1.png","","","","",""
"","html-keyboard-response","22","228715","0.0-6.0-0.0-0.16","tpq63n8df6","one_one","1","direct_first","1","EL08ER12","0","19","1","1","1","1","","0","1","0","null","","","<div class = 'row'><div class = 'column'><img src = 'category3/CS2.png' width = '70%;'></div><div class = 'column'><img src = 'uspos/2530.bmp' width = '100%;'></div></div>","null","pos","CS","CS","3","category3/CS2.png","","","","",""
"","html-keyboard-response","23","231232","0.0-6.0-0.0-0.17","tpq63n8df6","one_one","1","direct_first","1","EL08ER12","0","19","1","1","1","1","","0","1","0","null","","","<div class = 'row'><div class = 'column'><img src = 'uspos/2550.bmp' width = '100%;'></div><div class = 'column'><img src = 'category1/CS1.png' width = '70%;'></div></div>","null","pos","CS","CS","1","category1/CS1.png","","","","",""
"","html-keyboard-response","24","233761","0.0-6.0-0.0-0.18","tpq63n8df6","one_one","1","direct_first","1","EL08ER12","0","19","1","1","1","1","","0","1","0","null","","","<div class = 'row'><div class = 'column'><img src = 'uspos/2530.bmp' width = '100%;'></div><div class = 'column'><img src = 'category3/CS2.png' width = '70%;'></div></div>","null","pos","CS","CS","3","category3/CS2.png","","","","",""
"","html-keyboard-response","25","236290","0.0-6.0-0.0-0.19","tpq63n8df6","one_one","1","direct_first","1","EL08ER12","0","19","1","1","1","1","","0","1","0","null","","","<div class = 'row'><div class = 'column'><img src = 'category4/CS3.png' width = '70%;'></div><div class = 'column'><img src = 'usneg/9561.bmp' width = '100%;'></div></div>","null","neg","CS","CS","4","category4/CS3.png","","","","",""
"","survey-html-form","26","243374","0.0-6.0-1.0","tpq63n8df6","one_one","1","direct_first","1","EL08ER12","0","19","1","1","1","1","","0","1","0","6580.760000040755","","{}","","","","","","","","","","","",""
"","html-keyboard-response","27","247415","0.0-6.0-2.0-0.0","tpq63n8df6","one_one","1","direct_first","1","EL08ER12","0","19","1","1","1","1","","0","1","0","null","","","<div class = 'row'><div class = 'column'><img src = 'usneg/9050.bmp' width = '100%;'></div><div class = 'column'><img src = 'category2/CS10.png' width = '70%;'></div></div>","null","neg","CS","CS","2","category2/CS10.png","","","","",""
"","html-keyboard-response","28","249938","0.0-6.0-2.0-0.1","tpq63n8df6","one_one","1","direct_first","1","EL08ER12","0","19","1","1","1","1","","0","1","0","null","","","<div class = 'row'><div class = 'column'><img src = 'uspos/2530.bmp' width = '100%;'></div><div class = 'column'><img src = 'category3/CS2.png' width = '70%;'></div></div>","null","pos","CS","CS","3","category3/CS2.png","","","","",""
"","html-keyboard-response","29","252468","0.0-6.0-2.0-0.2","tpq63n8df6","one_one","1","direct_first","1","EL08ER12","0","19","1","1","1","1","","0","1","0","null","","","<div class = 'row'><div class = 'column'><img src = 'usneg/9050.bmp' width = '100%;'></div><div class = 'column'><img src = 'category2/CS10.png' width = '70%;'></div></div>","null","neg","CS","CS","2","category2/CS10.png","","","","",""
"","html-keyboard-response","30","254999","0.0-6.0-2.0-0.3","tpq63n8df6","one_one","1","direct_first","1","EL08ER12","0","19","1","1","1","1","","0","1","0","null","","","<div class = 'row'><div class = 'column'><img src = 'uspos/2550.bmp' width = '100%;'></div><div class = 'column'><img src = 'category1/CS1.png' width = '70%;'></div></div>","null","pos","CS","CS","1","category1/CS1.png","","","","",""
"","html-keyboard-response","31","257533","0.0-6.0-2.0-0.4","tpq63n8df6","one_one","1","direct_first","1","EL08ER12","0","19","1","1","1","1","","0","1","0","null","","","<div class = 'row'><div class = 'column'><img src = 'usneg/9561.bmp' width = '100%;'></div><div class = 'column'><img src = 'category4/CS3.png' width = '70%;'></div></div>","null","neg","CS","CS","4","category4/CS3.png","","","","",""
"","html-keyboard-response","32","260048","0.0-6.0-2.0-0.5","tpq63n8df6","one_one","1","direct_first","1","EL08ER12","0","19","1","1","1","1","","0","1","0","null","","","<div class = 'row'><div class = 'column'><img src = 'category1/CS1.png' width = '70%;'></div><div class = 'column'><img src = 'uspos/2550.bmp' width = '100%;'></div></div>","null","pos","CS","CS","1","category1/CS1.png","","","","",""
"","html-keyboard-response","33","262565","0.0-6.0-2.0-0.6","tpq63n8df6","one_one","1","direct_first","1","EL08ER12","0","19","1","1","1","1","","0","1","0","null","","","<div class = 'row'><div class = 'column'><img src = 'category4/CS3.png' width = '70%;'></div><div class = 'column'><img src = 'usneg/9561.bmp' width = '100%;'></div></div>","null","neg","CS","CS","4","category4/CS3.png","","","","",""
"","html-keyboard-response","34","265094","0.0-6.0-2.0-0.7","tpq63n8df6","one_one","1","direct_first","1","EL08ER12","0","19","1","1","1","1","","0","1","0","null","","","<div class = 'row'><div class = 'column'><img src = 'category1/CS1.png' width = '70%;'></div><div class = 'column'><img src = 'uspos/2550.bmp' width = '100%;'></div></div>","null","pos","CS","CS","1","category1/CS1.png","","","","",""
"","html-keyboard-response","35","267606","0.0-6.0-2.0-0.8","tpq63n8df6","one_one","1","direct_first","1","EL08ER12","0","19","1","1","1","1","","0","1","0","null","","","<div class = 'row'><div class = 'column'><img src = 'uspos/2530.bmp' width = '100%;'></div><div class = 'column'><img src = 'category3/CS2.png' width = '70%;'></div></div>","null","pos","CS","CS","3","category3/CS2.png","","","","",""
"","html-keyboard-response","36","270126","0.0-6.0-2.0-0.9","tpq63n8df6","one_one","1","direct_first","1","EL08ER12","0","19","1","1","1","1","","0","1","0","null","","","<div class = 'row'><div class = 'column'><img src = 'category2/CS10.png' width = '70%;'></div><div class = 'column'><img src = 'usneg/9050.bmp' width = '100%;'></div></div>","null","neg","CS","CS","2","category2/CS10.png","","","","",""
"","html-keyboard-response","37","272650","0.0-6.0-2.0-0.10","tpq63n8df6","one_one","1","direct_first","1","EL08ER12","0","19","1","1","1","1","","0","1","0","null","","","<div class = 'row'><div class = 'column'><img src = 'uspos/2550.bmp' width = '100%;'></div><div class = 'column'><img src = 'category1/CS1.png' width = '70%;'></div></div>","null","pos","CS","CS","1","category1/CS1.png","","","","",""
"","html-keyboard-response","38","275162","0.0-6.0-2.0-0.11","tpq63n8df6","one_one","1","direct_first","1","EL08ER12","0","19","1","1","1","1","","0","1","0","null","","","<div class = 'row'><div class = 'column'><img src = 'category3/CS2.png' width = '70%;'></div><div class = 'column'><img src = 'uspos/2530.bmp' width = '100%;'></div></div>","null","pos","CS","CS","3","category3/CS2.png","","","","",""
"","html-keyboard-response","39","277686","0.0-6.0-2.0-0.12","tpq63n8df6","one_one","1","direct_first","1","EL08ER12","0","19","1","1","1","1","","0","1","0","null","","","<div class = 'row'><div class = 'column'><img src = 'category2/CS10.png' width = '70%;'></div><div class = 'column'><img src = 'usneg/9050.bmp' width = '100%;'></div></div>","null","neg","CS","CS","2","category2/CS10.png","","","","",""
"","html-keyboard-response","40","280213","0.0-6.0-2.0-0.13","tpq63n8df6","one_one","1","direct_first","1","EL08ER12","0","19","1","1","1","1","","0","1","0","null","","","<div class = 'row'><div class = 'column'><img src = 'category4/CS3.png' width = '70%;'></div><div class = 'column'><img src = 'usneg/9561.bmp' width = '100%;'></div></div>","null","neg","CS","CS","4","category4/CS3.png","","","","",""
"","html-keyboard-response","41","282731","0.0-6.0-2.0-0.14","tpq63n8df6","one_one","1","direct_first","1","EL08ER12","0","19","1","1","1","1","","0","1","0","null","","","<div class = 'row'><div class = 'column'><img src = 'category1/CS1.png' width = '70%;'></div><div class = 'column'><img src = 'uspos/2550.bmp' width = '100%;'></div></div>","null","pos","CS","CS","1","category1/CS1.png","","","","",""
"","html-keyboard-response","42","285259","0.0-6.0-2.0-0.15","tpq63n8df6","one_one","1","direct_first","1","EL08ER12","0","19","1","1","1","1","","0","1","0","null","","","<div class = 'row'><div class = 'column'><img src = 'category4/CS3.png' width = '70%;'></div><div class = 'column'><img src = 'usneg/9561.bmp' width = '100%;'></div></div>","null","neg","CS","CS","4","category4/CS3.png","","","","",""
"","html-keyboard-response","43","287781","0.0-6.0-2.0-0.16","tpq63n8df6","one_one","1","direct_first","1","EL08ER12","0","19","1","1","1","1","","0","1","0","null","","","<div class = 'row'><div class = 'column'><img src = 'category3/CS2.png' width = '70%;'></div><div class = 'column'><img src = 'uspos/2530.bmp' width = '100%;'></div></div>","null","pos","CS","CS","3","category3/CS2.png","","","","",""
"","html-keyboard-response","44","290313","0.0-6.0-2.0-0.17","tpq63n8df6","one_one","1","direct_first","1","EL08ER12","0","19","1","1","1","1","","0","1","0","null","","","<div class = 'row'><div class = 'column'><img src = 'usneg/9561.bmp' width = '100%;'></div><div class = 'column'><img src = 'category4/CS3.png' width = '70%;'></div></div>","null","neg","CS","CS","4","category4/CS3.png","","","","",""
"","html-keyboard-response","45","292827","0.0-6.0-2.0-0.18","tpq63n8df6","one_one","1","direct_first","1","EL08ER12","0","19","1","1","1","1","","0","1","0","null","","","<div class = 'row'><div class = 'column'><img src = 'usneg/9050.bmp' width = '100%;'></div><div class = 'column'><img src = 'category2/CS10.png' width = '70%;'></div></div>","null","neg","CS","CS","2","category2/CS10.png","","","","",""
"","html-keyboard-response","46","295351","0.0-6.0-2.0-0.19","tpq63n8df6","one_one","1","direct_first","1","EL08ER12","0","19","1","1","1","1","","0","1","0","null","","","<div class = 'row'><div class = 'column'><img src = 'category3/CS2.png' width = '70%;'></div><div class = 'column'><img src = 'uspos/2530.bmp' width = '100%;'></div></div>","null","pos","CS","CS","3","category3/CS2.png","","","","",""
"","survey-html-form","47","306573","0.0-6.0-3.0","tpq63n8df6","one_one","1","direct_first","1","EL08ER12","0","19","1","1","1","1","","0","1","0","10711.690000025555","","{}","","","","","","","","","","","",""
"","html-keyboard-response","48","310595","0.0-6.0-4.0-0.0","tpq63n8df6","one_one","1","direct_first","1","EL08ER12","0","19","1","1","1","1","","0","1","0","null","","","<div class = 'row'><div class = 'column'><img src = 'usneg/9561.bmp' width = '100%;'></div><div class = 'column'><img src = 'category4/CS3.png' width = '70%;'></div></div>","null","neg","CS","CS","4","category4/CS3.png","","","","",""
"","html-keyboard-response","49","313100","0.0-6.0-4.0-0.1","tpq63n8df6","one_one","1","direct_first","1","EL08ER12","0","19","1","1","1","1","","0","1","0","null","","","<div class = 'row'><div class = 'column'><img src = 'category1/CS1.png' width = '70%;'></div><div class = 'column'><img src = 'uspos/2550.bmp' width = '100%;'></div></div>","null","pos","CS","CS","1","category1/CS1.png","","","","",""
"","html-keyboard-response","50","315632","0.0-6.0-4.0-0.2","tpq63n8df6","one_one","1","direct_first","1","EL08ER12","0","19","1","1","1","1","","0","1","0","null","","","<div class = 'row'><div class = 'column'><img src = 'usneg/9561.bmp' width = '100%;'></div><div class = 'column'><img src = 'category4/CS3.png' width = '70%;'></div></div>","null","neg","CS","CS","4","category4/CS3.png","","","","",""
"","html-keyboard-response","51","318138","0.0-6.0-4.0-0.3","tpq63n8df6","one_one","1","direct_first","1","EL08ER12","0","19","1","1","1","1","","0","1","0","null","","","<div class = 'row'><div class = 'column'><img src = 'uspos/2530.bmp' width = '100%;'></div><div class = 'column'><img src = 'category3/CS2.png' width = '70%;'></div></div>","null","pos","CS","CS","3","category3/CS2.png","","","","",""
"","html-keyboard-response","52","320660","0.0-6.0-4.0-0.4","tpq63n8df6","one_one","1","direct_first","1","EL08ER12","0","19","1","1","1","1","","0","1","0","null","","","<div class = 'row'><div class = 'column'><img src = 'uspos/2550.bmp' width = '100%;'></div><div class = 'column'><img src = 'category1/CS1.png' width = '70%;'></div></div>","null","pos","CS","CS","1","category1/CS1.png","","","","",""
"","html-keyboard-response","53","323175","0.0-6.0-4.0-0.5","tpq63n8df6","one_one","1","direct_first","1","EL08ER12","0","19","1","1","1","1","","0","1","0","null","","","<div class = 'row'><div class = 'column'><img src = 'category3/CS2.png' width = '70%;'></div><div class = 'column'><img src = 'uspos/2530.bmp' width = '100%;'></div></div>","null","pos","CS","CS","3","category3/CS2.png","","","","",""
"","html-keyboard-response","54","325707","0.0-6.0-4.0-0.6","tpq63n8df6","one_one","1","direct_first","1","EL08ER12","0","19","1","1","1","1","","0","1","0","null","","","<div class = 'row'><div class = 'column'><img src = 'uspos/2550.bmp' width = '100%;'></div><div class = 'column'><img src = 'category1/CS1.png' width = '70%;'></div></div>","null","pos","CS","CS","1","category1/CS1.png","","","","",""
"","html-keyboard-response","55","328237","0.0-6.0-4.0-0.7","tpq63n8df6","one_one","1","direct_first","1","EL08ER12","0","19","1","1","1","1","","0","1","0","null","","","<div class = 'row'><div class = 'column'><img src = 'uspos/2530.bmp' width = '100%;'></div><div class = 'column'><img src = 'category3/CS2.png' width = '70%;'></div></div>","null","pos","CS","CS","3","category3/CS2.png","","","","",""
"","html-keyboard-response","56","330760","0.0-6.0-4.0-0.8","tpq63n8df6","one_one","1","direct_first","1","EL08ER12","0","19","1","1","1","1","","0","1","0","null","","","<div class = 'row'><div class = 'column'><img src = 'usneg/9050.bmp' width = '100%;'></div><div class = 'column'><img src = 'category2/CS10.png' width = '70%;'></div></div>","null","neg","CS","CS","2","category2/CS10.png","","","","",""
"","html-keyboard-response","57","333270","0.0-6.0-4.0-0.9","tpq63n8df6","one_one","1","direct_first","1","EL08ER12","0","19","1","1","1","1","","0","1","0","null","","","<div class = 'row'><div class = 'column'><img src = 'usneg/9561.bmp' width = '100%;'></div><div class = 'column'><img src = 'category4/CS3.png' width = '70%;'></div></div>","null","neg","CS","CS","4","category4/CS3.png","","","","",""
"","html-keyboard-response","58","335783","0.0-6.0-4.0-0.10","tpq63n8df6","one_one","1","direct_first","1","EL08ER12","0","19","1","1","1","1","","0","1","0","null","","","<div class = 'row'><div class = 'column'><img src = 'category2/CS10.png' width = '70%;'></div><div class = 'column'><img src = 'usneg/9050.bmp' width = '100%;'></div></div>","null","neg","CS","CS","2","category2/CS10.png","","","","",""
"","html-keyboard-response","59","338291","0.0-6.0-4.0-0.11","tpq63n8df6","one_one","1","direct_first","1","EL08ER12","0","19","1","1","1","1","","0","1","0","null","","","<div class = 'row'><div class = 'column'><img src = 'category3/CS2.png' width = '70%;'></div><div class = 'column'><img src = 'uspos/2530.bmp' width = '100%;'></div></div>","null","pos","CS","CS","3","category3/CS2.png","","","","",""
"","html-keyboard-response","60","340815","0.0-6.0-4.0-0.12","tpq63n8df6","one_one","1","direct_first","1","EL08ER12","0","19","1","1","1","1","","0","1","0","null","","","<div class = 'row'><div class = 'column'><img src = 'category2/CS10.png' width = '70%;'></div><div class = 'column'><img src = 'usneg/9050.bmp' width = '100%;'></div></div>","null","neg","CS","CS","2","category2/CS10.png","","","","",""
"","html-keyboard-response","61","343348","0.0-6.0-4.0-0.13","tpq63n8df6","one_one","1","direct_first","1","EL08ER12","0","19","1","1","1","1","","0","1","0","null","","","<div class = 'row'><div class = 'column'><img src = 'uspos/2530.bmp' width = '100%;'></div><div class = 'column'><img src = 'category3/CS2.png' width = '70%;'></div></div>","null","pos","CS","CS","3","category3/CS2.png","","","","",""
"","html-keyboard-response","62","345874","0.0-6.0-4.0-0.14","tpq63n8df6","one_one","1","direct_first","1","EL08ER12","0","19","1","1","1","1","","0","1","0","null","","","<div class = 'row'><div class = 'column'><img src = 'uspos/2550.bmp' width = '100%;'></div><div class = 'column'><img src = 'category1/CS1.png' width = '70%;'></div></div>","null","pos","CS","CS","1","category1/CS1.png","","","","",""
"","html-keyboard-response","63","348378","0.0-6.0-4.0-0.15","tpq63n8df6","one_one","1","direct_first","1","EL08ER12","0","19","1","1","1","1","","0","1","0","null","","","<div class = 'row'><div class = 'column'><img src = 'usneg/9561.bmp' width = '100%;'></div><div class = 'column'><img src = 'category4/CS3.png' width = '70%;'></div></div>","null","neg","CS","CS","4","category4/CS3.png","","","","",""
"","html-keyboard-response","64","350913","0.0-6.0-4.0-0.16","tpq63n8df6","one_one","1","direct_first","1","EL08ER12","0","19","1","1","1","1","","0","1","0","null","","","<div class = 'row'><div class = 'column'><img src = 'usneg/9050.bmp' width = '100%;'></div><div class = 'column'><img src = 'category2/CS10.png' width = '70%;'></div></div>","null","neg","CS","CS","2","category2/CS10.png","","","","",""
"","html-keyboard-response","65","353423","0.0-6.0-4.0-0.17","tpq63n8df6","one_one","1","direct_first","1","EL08ER12","0","19","1","1","1","1","","0","1","0","null","","","<div class = 'row'><div class = 'column'><img src = 'uspos/2550.bmp' width = '100%;'></div><div class = 'column'><img src = 'category1/CS1.png' width = '70%;'></div></div>","null","pos","CS","CS","1","category1/CS1.png","","","","",""
"","html-keyboard-response","66","355954","0.0-6.0-4.0-0.18","tpq63n8df6","one_one","1","direct_first","1","EL08ER12","0","19","1","1","1","1","","0","1","0","null","","","<div class = 'row'><div class = 'column'><img src = 'category4/CS3.png' width = '70%;'></div><div class = 'column'><img src = 'usneg/9561.bmp' width = '100%;'></div></div>","null","neg","CS","CS","4","category4/CS3.png","","","","",""
"","html-keyboard-response","67","358487","0.0-6.0-4.0-0.19","tpq63n8df6","one_one","1","direct_first","1","EL08ER12","0","19","1","1","1","1","","0","1","0","null","","","<div class = 'row'><div class = 'column'><img src = 'usneg/9050.bmp' width = '100%;'></div><div class = 'column'><img src = 'category2/CS10.png' width = '70%;'></div></div>","null","neg","CS","CS","2","category2/CS10.png","","","","",""
"","survey-html-form","68","362489","0.0-6.0-5.0","tpq63n8df6","one_one","1","direct_first","1","EL08ER12","0","19","1","1","1","1","","0","1","0","3485.4749999940395","","{}","","","","","","","","","","","",""
"","html-keyboard-response","69","366514","0.0-6.0-6.0-0.0","tpq63n8df6","one_one","1","direct_first","1","EL08ER12","0","19","1","1","1","1","","0","1","0","null","","","<div class = 'row'><div class = 'column'><img src = 'uspos/2550.bmp' width = '100%;'></div><div class = 'column'><img src = 'category1/CS1.png' width = '70%;'></div></div>","null","pos","CS","CS","1","category1/CS1.png","","","","",""
"","html-keyboard-response","70","369025","0.0-6.0-6.0-0.1","tpq63n8df6","one_one","1","direct_first","1","EL08ER12","0","19","1","1","1","1","","0","1","0","null","","","<div class = 'row'><div class = 'column'><img src = 'category4/CS3.png' width = '70%;'></div><div class = 'column'><img src = 'usneg/9561.bmp' width = '100%;'></div></div>","null","neg","CS","CS","4","category4/CS3.png","","","","",""
"","html-keyboard-response","71","371529","0.0-6.0-6.0-0.2","tpq63n8df6","one_one","1","direct_first","1","EL08ER12","0","19","1","1","1","1","","0","1","0","null","","","<div class = 'row'><div class = 'column'><img src = 'uspos/2550.bmp' width = '100%;'></div><div class = 'column'><img src = 'category1/CS1.png' width = '70%;'></div></div>","null","pos","CS","CS","1","category1/CS1.png","","","","",""
"","html-keyboard-response","72","374057","0.0-6.0-6.0-0.3","tpq63n8df6","one_one","1","direct_first","1","EL08ER12","0","19","1","1","1","1","","0","1","0","null","","","<div class = 'row'><div class = 'column'><img src = 'category2/CS10.png' width = '70%;'></div><div class = 'column'><img src = 'usneg/9050.bmp' width = '100%;'></div></div>","null","neg","CS","CS","2","category2/CS10.png","","","","",""
"","html-keyboard-response","73","376583","0.0-6.0-6.0-0.4","tpq63n8df6","one_one","1","direct_first","1","EL08ER12","0","19","1","1","1","1","","0","1","0","null","","","<div class = 'row'><div class = 'column'><img src = 'category3/CS2.png' width = '70%;'></div><div class = 'column'><img src = 'uspos/2530.bmp' width = '100%;'></div></div>","null","pos","CS","CS","3","category3/CS2.png","","","","",""
"","html-keyboard-response","74","379107","0.0-6.0-6.0-0.5","tpq63n8df6","one_one","1","direct_first","1","EL08ER12","0","19","1","1","1","1","","0","1","0","null","","","<div class = 'row'><div class = 'column'><img src = 'category2/CS10.png' width = '70%;'></div><div class = 'column'><img src = 'usneg/9050.bmp' width = '100%;'></div></div>","null","neg","CS","CS","2","category2/CS10.png","","","","",""
"","html-keyboard-response","75","381621","0.0-6.0-6.0-0.6","tpq63n8df6","one_one","1","direct_first","1","EL08ER12","0","19","1","1","1","1","","0","1","0","null","","","<div class = 'row'><div class = 'column'><img src = 'usneg/9561.bmp' width = '100%;'></div><div class = 'column'><img src = 'category4/CS3.png' width = '70%;'></div></div>","null","neg","CS","CS","4","category4/CS3.png","","","","",""
"","html-keyboard-response","76","384143","0.0-6.0-6.0-0.7","tpq63n8df6","one_one","1","direct_first","1","EL08ER12","0","19","1","1","1","1","","0","1","0","null","","","<div class = 'row'><div class = 'column'><img src = 'category1/CS1.png' width = '70%;'></div><div class = 'column'><img src = 'uspos/2550.bmp' width = '100%;'></div></div>","null","pos","CS","CS","1","category1/CS1.png","","","","",""
"","html-keyboard-response","77","386666","0.0-6.0-6.0-0.8","tpq63n8df6","one_one","1","direct_first","1","EL08ER12","0","19","1","1","1","1","","0","1","0","null","","","<div class = 'row'><div class = 'column'><img src = 'uspos/2530.bmp' width = '100%;'></div><div class = 'column'><img src = 'category3/CS2.png' width = '70%;'></div></div>","null","pos","CS","CS","3","category3/CS2.png","","","","",""
"","html-keyboard-response","78","389182","0.0-6.0-6.0-0.9","tpq63n8df6","one_one","1","direct_first","1","EL08ER12","0","19","1","1","1","1","","0","1","0","null","","","<div class = 'row'><div class = 'column'><img src = 'category1/CS1.png' width = '70%;'></div><div class = 'column'><img src = 'uspos/2550.bmp' width = '100%;'></div></div>","null","pos","CS","CS","1","category1/CS1.png","","","","",""
"","html-keyboard-response","79","391703","0.0-6.0-6.0-0.10","tpq63n8df6","one_one","1","direct_first","1","EL08ER12","0","19","1","1","1","1","","0","1","0","null","","","<div class = 'row'><div class = 'column'><img src = 'usneg/9050.bmp' width = '100%;'></div><div class = 'column'><img src = 'category2/CS10.png' width = '70%;'></div></div>","null","neg","CS","CS","2","category2/CS10.png","","","","",""
"","html-keyboard-response","80","394228","0.0-6.0-6.0-0.11","tpq63n8df6","one_one","1","direct_first","1","EL08ER12","0","19","1","1","1","1","","0","1","0","null","","","<div class = 'row'><div class = 'column'><img src = 'usneg/9561.bmp' width = '100%;'></div><div class = 'column'><img src = 'category4/CS3.png' width = '70%;'></div></div>","null","neg","CS","CS","4","category4/CS3.png","","","","",""
"","html-keyboard-response","81","396743","0.0-6.0-6.0-0.12","tpq63n8df6","one_one","1","direct_first","1","EL08ER12","0","19","1","1","1","1","","0","1","0","null","","","<div class = 'row'><div class = 'column'><img src = 'uspos/2530.bmp' width = '100%;'></div><div class = 'column'><img src = 'category3/CS2.png' width = '70%;'></div></div>","null","pos","CS","CS","3","category3/CS2.png","","","","",""
"","html-keyboard-response","82","399255","0.0-6.0-6.0-0.13","tpq63n8df6","one_one","1","direct_first","1","EL08ER12","0","19","1","1","1","1","","0","1","0","null","","","<div class = 'row'><div class = 'column'><img src = 'usneg/9050.bmp' width = '100%;'></div><div class = 'column'><img src = 'category2/CS10.png' width = '70%;'></div></div>","null","neg","CS","CS","2","category2/CS10.png","","","","",""
"","html-keyboard-response","83","401773","0.0-6.0-6.0-0.14","tpq63n8df6","one_one","1","direct_first","1","EL08ER12","0","19","1","1","1","1","","0","1","0","null","","","<div class = 'row'><div class = 'column'><img src = 'category1/CS1.png' width = '70%;'></div><div class = 'column'><img src = 'uspos/2550.bmp' width = '100%;'></div></div>","null","pos","CS","CS","1","category1/CS1.png","","","","",""
"","html-keyboard-response","84","404293","0.0-6.0-6.0-0.15","tpq63n8df6","one_one","1","direct_first","1","EL08ER12","0","19","1","1","1","1","","0","1","0","null","","","<div class = 'row'><div class = 'column'><img src = 'usneg/9561.bmp' width = '100%;'></div><div class = 'column'><img src = 'category4/CS3.png' width = '70%;'></div></div>","null","neg","CS","CS","4","category4/CS3.png","","","","",""
"","html-keyboard-response","85","406806","0.0-6.0-6.0-0.16","tpq63n8df6","one_one","1","direct_first","1","EL08ER12","0","19","1","1","1","1","","0","1","0","null","","","<div class = 'row'><div class = 'column'><img src = 'uspos/2530.bmp' width = '100%;'></div><div class = 'column'><img src = 'category3/CS2.png' width = '70%;'></div></div>","null","pos","CS","CS","3","category3/CS2.png","","","","",""
"","html-keyboard-response","86","409334","0.0-6.0-6.0-0.17","tpq63n8df6","one_one","1","direct_first","1","EL08ER12","0","19","1","1","1","1","","0","1","0","null","","","<div class = 'row'><div class = 'column'><img src = 'usneg/9050.bmp' width = '100%;'></div><div class = 'column'><img src = 'category2/CS10.png' width = '70%;'></div></div>","null","neg","CS","CS","2","category2/CS10.png","","","","",""
"","html-keyboard-response","87","411859","0.0-6.0-6.0-0.18","tpq63n8df6","one_one","1","direct_first","1","EL08ER12","0","19","1","1","1","1","","0","1","0","null","","","<div class = 'row'><div class = 'column'><img src = 'category4/CS3.png' width = '70%;'></div><div class = 'column'><img src = 'usneg/9561.bmp' width = '100%;'></div></div>","null","neg","CS","CS","4","category4/CS3.png","","","","",""
"","html-keyboard-response","88","414370","0.0-6.0-6.0-0.19","tpq63n8df6","one_one","1","direct_first","1","EL08ER12","0","19","1","1","1","1","","0","1","0","null","","","<div class = 'row'><div class = 'column'><img src = 'category3/CS2.png' width = '70%;'></div><div class = 'column'><img src = 'uspos/2530.bmp' width = '100%;'></div></div>","null","pos","CS","CS","3","category3/CS2.png","","","","",""
"","survey-html-form","89","427745","0.0-7.0","tpq63n8df6","one_one","1","direct_first","1","EL08ER12","0","19","1","1","1","1","","0","1","0","12871.694999979809","","{}","","","","","","","","","","","",""
"","image-slider-response","90","436752","0.0-8.0-0.0","tpq63n8df6","one_one","1","direct_first","1","EL08ER12","0","19","1","1","1","1","","0","1","0","6997.274999972433","","","","","pos","GS","GSold","3","category3/CS8.png","-16","targets/38.png","direct","",""
"","image-slider-response","91","445915","0.0-8.0-0.1","tpq63n8df6","one_one","1","direct_first","1","EL08ER12","0","19","1","1","1","1","","0","1","0","9158.909999998286","","","","","neg","CS","CS","4","category4/CS3.png","10","targets/18.png","direct","",""
"","image-slider-response","92","450403","0.0-8.0-0.2","tpq63n8df6","one_one","1","direct_first","1","EL08ER12","0","19","1","1","1","1","","0","1","0","4483.8000000454485","","","","","neg","GS","GSnew","4","category4/GS2.png","-40","targets/22.png","direct","",""
"","image-slider-response","93","454424","0.0-8.0-0.3","tpq63n8df6","one_one","1","direct_first","1","EL08ER12","0","19","1","1","1","1","","0","1","0","4016.675000078976","","","","","pos","GS","GSold","1","category1/CS6.png","-38","targets/10.png","direct","",""
"","image-slider-response","94","459077","0.0-8.0-0.4","tpq63n8df6","one_one","1","direct_first","1","EL08ER12","0","19","1","1","1","1","","0","1","0","4649.509999901056","","","","","neg","CS","CS","2","category2/CS10.png","-72","targets/28.png","direct","",""
"","image-slider-response","95","462823","0.0-8.0-0.5","tpq63n8df6","one_one","1","direct_first","1","EL08ER12","0","19","1","1","1","1","","0","1","0","3742.714999942109","","","","","pos","GS","abstract","1","category1/ma.png","19","targets/23.png","direct","",""
"","image-slider-response","96","466614","0.0-8.0-0.6","tpq63n8df6","one_one","1","direct_first","1","EL08ER12","0","19","1","1","1","1","","0","1","0","3786.979999858886","","","","","neg","GS","GSold","2","category2/CS5.png","27","targets/3.png","direct","",""
"","image-slider-response","97","470935","0.0-8.0-0.7","tpq63n8df6","one_one","1","direct_first","1","EL08ER12","0","19","1","1","1","1","","0","1","0","4317.375000100583","","","","","neg","GS","GSnew","4","category4/GS3.png","46","targets/6.png","direct","",""
"","image-slider-response","98","474886","0.0-8.0-0.8","tpq63n8df6","one_one","1","direct_first","1","EL08ER12","0","19","1","1","1","1","","0","1","0","3946.8749999068677","","","","","neg","GS","GSold","2","category2/CS6.png","20","targets/9.png","direct","",""
"","image-slider-response","99","478082","0.0-8.0-0.9","tpq63n8df6","one_one","1","direct_first","1","EL08ER12","0","19","1","1","1","1","","0","1","0","3191.5749998297542","","","","","pos","GS","GSnew","1","category1/GS2.png","-21","targets/33.png","direct","",""
"","image-slider-response","100","482579","0.0-8.0-0.10","tpq63n8df6","one_one","1","direct_first","1","EL08ER12","0","19","1","1","1","1","","0","1","0","4493.610000004992","","","","","pos","GS","abstract","3","category3/wang.png","76","targets/4.png","direct","",""
"","image-slider-response","101","486661","0.0-8.0-0.11","tpq63n8df6","one_one","1","direct_first","1","EL08ER12","0","19","1","1","1","1","","0","1","0","4078.385000117123","","","","","neg","GS","GSold","2","category2/CS4.png","36","targets/27.png","direct","",""
"","image-slider-response","102","490527","0.0-8.0-0.12","tpq63n8df6","one_one","1","direct_first","1","EL08ER12","0","19","1","1","1","1","","0","1","0","3861.985000083223","","","","","pos","GS","GSold","3","category3/CS3.png","-18","targets/40.png","direct","",""
"","image-slider-response","103","494054","0.0-8.0-0.13","tpq63n8df6","one_one","1","direct_first","1","EL08ER12","0","19","1","1","1","1","","0","1","0","3523.7250002101064","","","","","pos","CS","CS","1","category1/CS1.png","-37","targets/45.png","direct","",""
"","image-slider-response","104","498687","0.0-8.0-0.14","tpq63n8df6","one_one","1","direct_first","1","EL08ER12","0","19","1","1","1","1","","0","1","0","4629.5950000640005","","","","","neg","GS","GSnew","2","category2/GS1.png","-26","targets/21.png","direct","",""
"","image-slider-response","105","507630","0.0-8.0-0.15","tpq63n8df6","one_one","1","direct_first","1","EL08ER12","0","19","1","1","1","1","","0","1","0","8939.814999932423","","","","","pos","GS","GSnew","3","category3/GS3.png","-27","targets/46.png","direct","",""
"","image-slider-response","106","511939","0.0-8.0-0.16","tpq63n8df6","one_one","1","direct_first","1","EL08ER12","0","19","1","1","1","1","","0","1","0","4304.525000043213","","","","","neg","GS","GSnew","2","category2/GS3.png","24","targets/35.png","direct","",""
"","image-slider-response","107","515872","0.0-8.0-0.17","tpq63n8df6","one_one","1","direct_first","1","EL08ER12","0","19","1","1","1","1","","0","1","0","3929.8400001134723","","","","","neg","GS","abstract","4","category4/lin.png","77","targets/39.png","direct","",""
"","image-slider-response","108","520137","0.0-8.0-0.18","tpq63n8df6","one_one","1","direct_first","1","EL08ER12","0","19","1","1","1","1","","0","1","0","4261.47500006482","","","","","neg","GS","GSnew","2","category2/GS2.png","-46","targets/29.png","direct","",""
"","image-slider-response","109","523883","0.0-8.0-0.19","tpq63n8df6","one_one","1","direct_first","1","EL08ER12","0","19","1","1","1","1","","0","1","0","3742.185000097379","","","","","neg","GS","GSnew","4","category4/GS1.png","-20","targets/19.png","direct","",""
"","image-slider-response","110","528601","0.0-8.0-0.20","tpq63n8df6","one_one","1","direct_first","1","EL08ER12","0","19","1","1","1","1","","0","1","0","4714.464999968186","","","","","pos","GS","GSold","3","category3/CS6.png","-53","targets/2.png","direct","",""
"","image-slider-response","111","531997","0.0-8.0-0.21","tpq63n8df6","one_one","1","direct_first","1","EL08ER12","0","19","1","1","1","1","","0","1","0","3392.8000000305474","","","","","pos","GS","GSnew","1","category1/GS3.png","52","targets/5.png","direct","",""
"","image-slider-response","112","535499","0.0-8.0-0.22","tpq63n8df6","one_one","1","direct_first","1","EL08ER12","0","19","1","1","1","1","","0","1","0","3498.9650000352412","","","","","pos","CS","CS","3","category3/CS2.png","29","targets/16.png","direct","",""
"","image-slider-response","113","539010","0.0-8.0-0.23","tpq63n8df6","one_one","1","direct_first","1","EL08ER12","0","19","1","1","1","1","","0","1","0","3507.2299998719245","","","","","neg","GS","GSold","4","category4/CS10.png","78","targets/13.png","direct","",""
"","image-slider-response","114","546643","0.0-8.0-0.24","tpq63n8df6","one_one","1","direct_first","1","EL08ER12","0","19","1","1","1","1","","0","1","0","7629.549999954179","","","","","pos","GS","GSnew","1","category1/GS1.png","-19","targets/47.png","direct","",""
"","image-slider-response","115","550404","0.0-8.0-0.25","tpq63n8df6","one_one","1","direct_first","1","EL08ER12","0","19","1","1","1","1","","0","1","0","3756.620000116527","","","","","pos","GS","GSold","1","category1/CS8.png","-30","targets/37.png","direct","",""
"","image-slider-response","116","554199","0.0-8.0-0.26","tpq63n8df6","one_one","1","direct_first","1","EL08ER12","0","19","1","1","1","1","","0","1","0","3791.4050000254065","","","","","neg","GS","GSold","4","category4/CS6.png","77","targets/30.png","direct","",""
"","image-slider-response","117","557707","0.0-8.0-0.27","tpq63n8df6","one_one","1","direct_first","1","EL08ER12","0","19","1","1","1","1","","0","1","0","3504.075000062585","","","","","pos","GS","GSnew","3","category3/GS2.png","-56","targets/26.png","direct","",""
"","image-slider-response","118","561198","0.0-8.0-0.28","tpq63n8df6","one_one","1","direct_first","1","EL08ER12","0","19","1","1","1","1","","0","1","0","3488.2000000216067","","","","","pos","GS","GSold","1","category1/CS9.png","-27","targets/15.png","direct","",""
"","image-slider-response","119","565553","0.0-8.0-0.29","tpq63n8df6","one_one","1","direct_first","1","EL08ER12","0","19","1","1","1","1","","0","1","0","4350.659999996424","","","","","pos","GS","GSnew","3","category3/GS1.png","7","targets/43.png","direct","",""
"","image-slider-response","120","569107","0.0-8.0-0.30","tpq63n8df6","one_one","1","direct_first","1","EL08ER12","0","19","1","1","1","1","","0","1","0","3551.1400001123548","","","","","neg","GS","abstract","2","category2/men.png","73","targets/42.png","direct","",""
"","image-slider-response","121","572249","0.0-8.0-0.31","tpq63n8df6","one_one","1","direct_first","1","EL08ER12","0","19","1","1","1","1","","0","1","0","3137.919999891892","","","","","neg","GS","GSold","4","category4/CS4.png","76","targets/31.png","direct","",""
"","html-keyboard-response","122","601718","0.0-9.0","tpq63n8df6","one_one","1","direct_first","1","EL08ER12","0","19","1","1","1","1","","0","1","0","29466.390000190586","","","<p>Sie sehen nun die chinesischen Zeichen nur ganz kurz. Danach sehen Sie die jeweilige Aussprache der Zeichen als Silbe auf dem Bildschrim. Ihre Aufgabe ist es, für jede Silbe anzugeben, ob diese etwas angenehmes, oder unangenehmes bedeuten könnte. Verlassen Sie sich hier vor allem auf Ihre Intuition.<br><br>Die Zeichen werden nur zur Orientierung dargestellt, beachten Sie sie deshalb nicht. Konzentrieren Sie sich vor allem auf die Silben. <br>Reagieren Sie mit folgenden zwei Tasten: <br><br><b>'D' </b> wenn die Silbe etwas <b>unangenehmes</b> bedeuten könnte. <br><b>'K'</b> wenn die Silbe etwas <b>angenehmes</b> bedeuten könnte. <br><br>Bitte legen Sie nun den Zeigefinger der linken Hand auf die Taste 'D' und den Zeigefinger der rechten Hand auf die Taste 'K'. <br>Reagieren Sie auf jede Silbe so schnell wie möglich. Uns interessiert Ihre spontane Reaktion. <br> <br> <br>Drücken Sie 'D' oder 'K', um die nächste Aufgabe zu starten. </p>","75","","","","","","","","","",""
"","html-keyboard-response","123","604748","0.0-10.0-0.0","tpq63n8df6","one_one","1","direct_first","1","EL08ER12","0","19","1","1","1","1","","0","1","0","null","","","<div style=""font-size:60px;"">+</div>","null","","","","","","","","","",""
"","html-keyboard-response","124","604850","0.0-10.0-1.0","tpq63n8df6","one_one","1","direct_first","1","EL08ER12","0","19","1","1","1","1","","0","1","0","null","","","<img src = 'category4/CS3.png' width = '100%;'>","null","","","","","","","","","",""
"","html-keyboard-response","125","605117","0.0-10.0-2.0","tpq63n8df6","one_one","1","direct_first","1","EL08ER12","0","19","1","1","1","1","","0","1","0","null","","","<img src = 'targets/18.png' width = '100%;'>","null","","","","","","","","","",""
"","html-keyboard-response","126","606883","0.0-10.0-3.0","tpq63n8df6","one_one","1","direct_first","1","EL08ER12","0","19","1","1","1","1","","0","1","0","1764.3150000367314","","","<img src = 'targets/mask.png' width = '100%;'>","68","neg","CS","CS","4","category4/CS3.png","","targets/18.png","indirect","0","0"
"","html-keyboard-response","127","608390","0.0-10.0-0.1","tpq63n8df6","one_one","1","direct_first","1","EL08ER12","0","19","1","1","1","1","","0","1","0","null","","","<div style=""font-size:60px;"">+</div>","null","","","","","","","","","",""
"","html-keyboard-response","128","608484","0.0-10.0-1.1","tpq63n8df6","one_one","1","direct_first","1","EL08ER12","0","19","1","1","1","1","","0","1","0","null","","","<img src = 'category1/CS1.png' width = '100%;'>","null","","","","","","","","","",""
"","html-keyboard-response","129","608751","0.0-10.0-2.1","tpq63n8df6","one_one","1","direct_first","1","EL08ER12","0","19","1","1","1","1","","0","1","0","null","","","<img src = 'targets/45.png' width = '100%;'>","null","","","","","","","","","",""
"","html-keyboard-response","130","610090","0.0-10.0-3.1","tpq63n8df6","one_one","1","direct_first","1","EL08ER12","0","19","1","1","1","1","","0","1","0","1337.5150000210851","","","<img src = 'targets/mask.png' width = '100%;'>","75","pos","CS","CS","1","category1/CS1.png","","targets/45.png","indirect","1","1"
"","html-keyboard-response","131","611613","0.0-10.0-0.2","tpq63n8df6","one_one","1","direct_first","1","EL08ER12","0","19","1","1","1","1","","0","1","0","null","","","<div style=""font-size:60px;"">+</div>","null","","","","","","","","","",""
"","html-keyboard-response","132","611714","0.0-10.0-1.2","tpq63n8df6","one_one","1","direct_first","1","EL08ER12","0","19","1","1","1","1","","0","1","0","null","","","<img src = 'category4/CS4.png' width = '100%;'>","null","","","","","","","","","",""
"","html-keyboard-response","133","611988","0.0-10.0-2.2","tpq63n8df6","one_one","1","direct_first","1","EL08ER12","0","19","1","1","1","1","","0","1","0","null","","","<img src = 'targets/31.png' width = '100%;'>","null","","","","","","","","","",""
"","html-keyboard-response","134","613121","0.0-10.0-3.2","tpq63n8df6","one_one","1","direct_first","1","EL08ER12","0","19","1","1","1","1","","0","1","0","1130.7099999394268","","","<img src = 'targets/mask.png' width = '100%;'>","75","neg","GS","GSold","4","category4/CS4.png","","targets/31.png","indirect","1","2"
"","html-keyboard-response","135","614640","0.0-10.0-0.3","tpq63n8df6","one_one","1","direct_first","1","EL08ER12","0","19","1","1","1","1","","0","1","0","null","","","<div style=""font-size:60px;"">+</div>","null","","","","","","","","","",""
"","html-keyboard-response","136","614736","0.0-10.0-1.3","tpq63n8df6","one_one","1","direct_first","1","EL08ER12","0","19","1","1","1","1","","0","1","0","null","","","<img src = 'category2/CS6.png' width = '100%;'>","null","","","","","","","","","",""
"","html-keyboard-response","137","615014","0.0-10.0-2.3","tpq63n8df6","one_one","1","direct_first","1","EL08ER12","0","19","1","1","1","1","","0","1","0","null","","","<img src = 'targets/9.png' width = '100%;'>","null","","","","","","","","","",""
"","html-keyboard-response","138","615944","0.0-10.0-3.3","tpq63n8df6","one_one","1","direct_first","1","EL08ER12","0","19","1","1","1","1","","0","1","0","928.6899999715388","","","<img src = 'targets/mask.png' width = '100%;'>","75","neg","GS","GSold","2","category2/CS6.png","","targets/9.png","indirect","1","3"
"","html-keyboard-response","139","617457","0.0-10.0-0.4","tpq63n8df6","one_one","1","direct_first","1","EL08ER12","0","19","1","1","1","1","","0","1","0","null","","","<div style=""font-size:60px;"">+</div>","null","","","","","","","","","",""
"","html-keyboard-response","140","617551","0.0-10.0-1.4","tpq63n8df6","one_one","1","direct_first","1","EL08ER12","0","19","1","1","1","1","","0","1","0","null","","","<img src = 'category3/CS2.png' width = '100%;'>","null","","","","","","","","","",""
"","html-keyboard-response","141","617816","0.0-10.0-2.4","tpq63n8df6","one_one","1","direct_first","1","EL08ER12","0","19","1","1","1","1","","0","1","0","null","","","<img src = 'targets/16.png' width = '100%;'>","null","","","","","","","","","",""
"","html-keyboard-response","142","618260","0.0-10.0-3.4","tpq63n8df6","one_one","1","direct_first","1","EL08ER12","0","19","1","1","1","1","","0","1","0","441.16499996744096","","","<img src = 'targets/mask.png' width = '100%;'>","68","pos","CS","CS","3","category3/CS2.png","","targets/16.png","indirect","0","4"
"","html-keyboard-response","143","619765","0.0-10.0-0.5","tpq63n8df6","one_one","1","direct_first","1","EL08ER12","0","19","1","1","1","1","","0","1","0","null","","","<div style=""font-size:60px;"">+</div>","null","","","","","","","","","",""
"","html-keyboard-response","144","619859","0.0-10.0-1.5","tpq63n8df6","one_one","1","direct_first","1","EL08ER12","0","19","1","1","1","1","","0","1","0","null","","","<img src = 'category3/CS6.png' width = '100%;'>","null","","","","","","","","","",""
"","html-keyboard-response","145","620117","0.0-10.0-2.5","tpq63n8df6","one_one","1","direct_first","1","EL08ER12","0","19","1","1","1","1","","0","1","0","null","","","<img src = 'targets/2.png' width = '100%;'>","null","","","","","","","","","",""
"","html-keyboard-response","146","620956","0.0-10.0-3.5","tpq63n8df6","one_one","1","direct_first","1","EL08ER12","0","19","1","1","1","1","","0","1","0","837.3449998907745","","","<img src = 'targets/mask.png' width = '100%;'>","68","pos","GS","GSold","3","category3/CS6.png","","targets/2.png","indirect","0","5"
"","html-keyboard-response","147","622481","0.0-10.0-0.6","tpq63n8df6","one_one","1","direct_first","1","EL08ER12","0","19","1","1","1","1","","0","1","0","null","","","<div style=""font-size:60px;"">+</div>","null","","","","","","","","","",""
"","html-keyboard-response","148","622575","0.0-10.0-1.6","tpq63n8df6","one_one","1","direct_first","1","EL08ER12","0","19","1","1","1","1","","0","1","0","null","","","<img src = 'category2/CS10.png' width = '100%;'>","null","","","","","","","","","",""
"","html-keyboard-response","149","622841","0.0-10.0-2.6","tpq63n8df6","one_one","1","direct_first","1","EL08ER12","0","19","1","1","1","1","","0","1","0","null","","","<img src = 'targets/28.png' width = '100%;'>","null","","","","","","","","","",""
"","html-keyboard-response","150","623766","0.0-10.0-3.6","tpq63n8df6","one_one","1","direct_first","1","EL08ER12","0","19","1","1","1","1","","0","1","0","923.1749998871237","","","<img src = 'targets/mask.png' width = '100%;'>","68","neg","CS","CS","2","category2/CS10.png","","targets/28.png","indirect","0","6"
"","html-keyboard-response","151","625286","0.0-10.0-0.7","tpq63n8df6","one_one","1","direct_first","1","EL08ER12","0","19","1","1","1","1","","0","1","0","null","","","<div style=""font-size:60px;"">+</div>","null","","","","","","","","","",""
"","html-keyboard-response","152","625389","0.0-10.0-1.7","tpq63n8df6","one_one","1","direct_first","1","EL08ER12","0","19","1","1","1","1","","0","1","0","null","","","<img src = 'category4/CS10.png' width = '100%;'>","null","","","","","","","","","",""
"","html-keyboard-response","153","625654","0.0-10.0-2.7","tpq63n8df6","one_one","1","direct_first","1","EL08ER12","0","19","1","1","1","1","","0","1","0","null","","","<img src = 'targets/13.png' width = '100%;'>","null","","","","","","","","","",""
"","html-keyboard-response","154","626621","0.0-10.0-3.7","tpq63n8df6","one_one","1","direct_first","1","EL08ER12","0","19","1","1","1","1","","0","1","0","965.4049999080598","","","<img src = 'targets/mask.png' width = '100%;'>","75","neg","GS","GSold","4","category4/CS10.png","","targets/13.png","indirect","1","7"
"","html-keyboard-response","155","628145","0.0-10.0-0.8","tpq63n8df6","one_one","1","direct_first","1","EL08ER12","0","19","1","1","1","1","","0","1","0","null","","","<div style=""font-size:60px;"">+</div>","null","","","","","","","","","",""
"","html-keyboard-response","156","628252","0.0-10.0-1.8","tpq63n8df6","one_one","1","direct_first","1","EL08ER12","0","19","1","1","1","1","","0","1","0","null","","","<img src = 'category4/CS6.png' width = '100%;'>","null","","","","","","","","","",""
"","html-keyboard-response","157","628520","0.0-10.0-2.8","tpq63n8df6","one_one","1","direct_first","1","EL08ER12","0","19","1","1","1","1","","0","1","0","null","","","<img src = 'targets/30.png' width = '100%;'>","null","","","","","","","","","",""
"","html-keyboard-response","158","629353","0.0-10.0-3.8","tpq63n8df6","one_one","1","direct_first","1","EL08ER12","0","19","1","1","1","1","","0","1","0","830.8699999470264","","","<img src = 'targets/mask.png' width = '100%;'>","75","neg","GS","GSold","4","category4/CS6.png","","targets/30.png","indirect","1","8"
"","html-keyboard-response","159","630871","0.0-10.0-0.9","tpq63n8df6","one_one","1","direct_first","1","EL08ER12","0","19","1","1","1","1","","0","1","0","null","","","<div style=""font-size:60px;"">+</div>","null","","","","","","","","","",""
"","html-keyboard-response","160","630978","0.0-10.0-1.9","tpq63n8df6","one_one","1","direct_first","1","EL08ER12","0","19","1","1","1","1","","0","1","0","null","","","<img src = 'category1/CS8.png' width = '100%;'>","null","","","","","","","","","",""
"","html-keyboard-response","161","631256","0.0-10.0-2.9","tpq63n8df6","one_one","1","direct_first","1","EL08ER12","0","19","1","1","1","1","","0","1","0","null","","","<img src = 'targets/37.png' width = '100%;'>","null","","","","","","","","","",""
"","html-keyboard-response","162","631965","0.0-10.0-3.9","tpq63n8df6","one_one","1","direct_first","1","EL08ER12","0","19","1","1","1","1","","0","1","0","707.410000031814","","","<img src = 'targets/mask.png' width = '100%;'>","75","pos","GS","GSold","1","category1/CS8.png","","targets/37.png","indirect","1","9"
"","html-keyboard-response","163","633483","0.0-10.0-0.10","tpq63n8df6","one_one","1","direct_first","1","EL08ER12","0","19","1","1","1","1","","0","1","0","null","","","<div style=""font-size:60px;"">+</div>","null","","","","","","","","","",""
"","html-keyboard-response","164","633586","0.0-10.0-1.10","tpq63n8df6","one_one","1","direct_first","1","EL08ER12","0","19","1","1","1","1","","0","1","0","null","","","<img src = 'category3/CS8.png' width = '100%;'>","null","","","","","","","","","",""
"","html-keyboard-response","165","633852","0.0-10.0-2.10","tpq63n8df6","one_one","1","direct_first","1","EL08ER12","0","19","1","1","1","1","","0","1","0","null","","","<img src = 'targets/38.png' width = '100%;'>","null","","","","","","","","","",""
"","html-keyboard-response","166","634615","0.0-10.0-3.10","tpq63n8df6","one_one","1","direct_first","1","EL08ER12","0","19","1","1","1","1","","0","1","0","760.2099999785423","","","<img src = 'targets/mask.png' width = '100%;'>","75","pos","GS","GSold","3","category3/CS8.png","","targets/38.png","indirect","1","10"
"","html-keyboard-response","167","636132","0.0-10.0-0.11","tpq63n8df6","one_one","1","direct_first","1","EL08ER12","0","19","1","1","1","1","","0","1","0","null","","","<div style=""font-size:60px;"">+</div>","null","","","","","","","","","",""
"","html-keyboard-response","168","636236","0.0-10.0-1.11","tpq63n8df6","one_one","1","direct_first","1","EL08ER12","0","19","1","1","1","1","","0","1","0","null","","","<img src = 'category2/CS4.png' width = '100%;'>","null","","","","","","","","","",""
"","html-keyboard-response","169","636497","0.0-10.0-2.11","tpq63n8df6","one_one","1","direct_first","1","EL08ER12","0","19","1","1","1","1","","0","1","0","null","","","<img src = 'targets/27.png' width = '100%;'>","null","","","","","","","","","",""
"","html-keyboard-response","170","637169","0.0-10.0-3.11","tpq63n8df6","one_one","1","direct_first","1","EL08ER12","0","19","1","1","1","1","","0","1","0","669.96999992989","","","<img src = 'targets/mask.png' width = '100%;'>","75","neg","GS","GSold","2","category2/CS4.png","","targets/27.png","indirect","1","11"
"","html-keyboard-response","171","638701","0.0-10.0-0.12","tpq63n8df6","one_one","1","direct_first","1","EL08ER12","0","19","1","1","1","1","","0","1","0","null","","","<div style=""font-size:60px;"">+</div>","null","","","","","","","","","",""
"","html-keyboard-response","172","638800","0.0-10.0-1.12","tpq63n8df6","one_one","1","direct_first","1","EL08ER12","0","19","1","1","1","1","","0","1","0","null","","","<img src = 'category3/CS3.png' width = '100%;'>","null","","","","","","","","","",""
"","html-keyboard-response","173","639063","0.0-10.0-2.12","tpq63n8df6","one_one","1","direct_first","1","EL08ER12","0","19","1","1","1","1","","0","1","0","null","","","<img src = 'targets/40.png' width = '100%;'>","null","","","","","","","","","",""
"","html-keyboard-response","174","639727","0.0-10.0-3.12","tpq63n8df6","one_one","1","direct_first","1","EL08ER12","0","19","1","1","1","1","","0","1","0","662.0700000785291","","","<img src = 'targets/mask.png' width = '100%;'>","68","pos","GS","GSold","3","category3/CS3.png","","targets/40.png","indirect","0","12"
"","html-keyboard-response","175","641259","0.0-10.0-0.13","tpq63n8df6","one_one","1","direct_first","1","EL08ER12","0","19","1","1","1","1","","0","1","0","null","","","<div style=""font-size:60px;"">+</div>","null","","","","","","","","","",""
"","html-keyboard-response","176","641363","0.0-10.0-1.13","tpq63n8df6","one_one","1","direct_first","1","EL08ER12","0","19","1","1","1","1","","0","1","0","null","","","<img src = 'category2/CS5.png' width = '100%;'>","null","","","","","","","","","",""
"","html-keyboard-response","177","641628","0.0-10.0-2.13","tpq63n8df6","one_one","1","direct_first","1","EL08ER12","0","19","1","1","1","1","","0","1","0","null","","","<img src = 'targets/3.png' width = '100%;'>","null","","","","","","","","","",""
"","html-keyboard-response","178","642311","0.0-10.0-3.13","tpq63n8df6","one_one","1","direct_first","1","EL08ER12","0","19","1","1","1","1","","0","1","0","681.5849998965859","","","<img src = 'targets/mask.png' width = '100%;'>","68","neg","GS","GSold","2","category2/CS5.png","","targets/3.png","indirect","0","13"
"","html-keyboard-response","179","643832","0.0-10.0-0.14","tpq63n8df6","one_one","1","direct_first","1","EL08ER12","0","19","1","1","1","1","","0","1","0","null","","","<div style=""font-size:60px;"">+</div>","null","","","","","","","","","",""
"","html-keyboard-response","180","643928","0.0-10.0-1.14","tpq63n8df6","one_one","1","direct_first","1","EL08ER12","0","19","1","1","1","1","","0","1","0","null","","","<img src = 'category1/CS9.png' width = '100%;'>","null","","","","","","","","","",""
"","html-keyboard-response","181","644200","0.0-10.0-2.14","tpq63n8df6","one_one","1","direct_first","1","EL08ER12","0","19","1","1","1","1","","0","1","0","null","","","<img src = 'targets/15.png' width = '100%;'>","null","","","","","","","","","",""
"","html-keyboard-response","182","644997","0.0-10.0-3.14","tpq63n8df6","one_one","1","direct_first","1","EL08ER12","0","19","1","1","1","1","","0","1","0","794.5250000339001","","","<img src = 'targets/mask.png' width = '100%;'>","68","pos","GS","GSold","1","category1/CS9.png","","targets/15.png","indirect","0","14"
"","html-keyboard-response","183","646522","0.0-10.0-0.15","tpq63n8df6","one_one","1","direct_first","1","EL08ER12","0","19","1","1","1","1","","0","1","0","null","","","<div style=""font-size:60px;"">+</div>","null","","","","","","","","","",""
"","html-keyboard-response","184","646626","0.0-10.0-1.15","tpq63n8df6","one_one","1","direct_first","1","EL08ER12","0","19","1","1","1","1","","0","1","0","null","","","<img src = 'category1/CS6.png' width = '100%;'>","null","","","","","","","","","",""
"","html-keyboard-response","185","646892","0.0-10.0-2.15","tpq63n8df6","one_one","1","direct_first","1","EL08ER12","0","19","1","1","1","1","","0","1","0","null","","","<img src = 'targets/10.png' width = '100%;'>","null","","","","","","","","","",""
"","html-keyboard-response","186","647475","0.0-10.0-3.15","tpq63n8df6","one_one","1","direct_first","1","EL08ER12","0","19","1","1","1","1","","0","1","0","581.7950000055134","","","<img src = 'targets/mask.png' width = '100%;'>","75","pos","GS","GSold","1","category1/CS6.png","","targets/10.png","indirect","1","15"
"","survey-html-form","187","658754","0.0-11.0","tpq63n8df6","one_one","1","direct_first","1","EL08ER12","0","19","1","1","1","1","","0","1","0","10766.855000052601","","{}","","","","","","","","","","","",""
"","html-keyboard-response","188","661767","0.0-12.0-0.0","tpq63n8df6","one_one","1","direct_first","1","EL08ER12","0","19","1","1","1","1","","0","1","0","null","","","<div style=""font-size:60px;"">+</div>","null","","","","","","","","","",""
"","html-keyboard-response","189","661871","0.0-12.0-1.0","tpq63n8df6","one_one","1","direct_first","1","EL08ER12","0","19","1","1","1","1","","0","1","0","null","","","<img src = 'category1/GS2.png' width = '100%;'>","null","","","","","","","","","",""
"","html-keyboard-response","190","662139","0.0-12.0-2.0","tpq63n8df6","one_one","1","direct_first","1","EL08ER12","0","19","1","1","1","1","","0","1","0","null","","","<img src = 'targets/33.png' width = '100%;'>","null","","","","","","","","","",""
"","html-keyboard-response","191","662796","0.0-12.0-3.0","tpq63n8df6","one_one","1","direct_first","1","EL08ER12","0","19","1","1","1","1","","0","1","0","654.1949999518692","","","<img src = 'targets/mask.png' width = '100%;'>","75","pos","GS","GSnew","1","category1/GS2.png","","targets/33.png","indirect","1","16"
"","html-keyboard-response","192","664311","0.0-12.0-0.1","tpq63n8df6","one_one","1","direct_first","1","EL08ER12","0","19","1","1","1","1","","0","1","0","null","","","<div style=""font-size:60px;"">+</div>","null","","","","","","","","","",""
"","html-keyboard-response","193","664415","0.0-12.0-1.1","tpq63n8df6","one_one","1","direct_first","1","EL08ER12","0","19","1","1","1","1","","0","1","0","null","","","<img src = 'category2/GS1.png' width = '100%;'>","null","","","","","","","","","",""
"","html-keyboard-response","194","664682","0.0-12.0-2.1","tpq63n8df6","one_one","1","direct_first","1","EL08ER12","0","19","1","1","1","1","","0","1","0","null","","","<img src = 'targets/21.png' width = '100%;'>","null","","","","","","","","","",""
"","html-keyboard-response","195","665822","0.0-12.0-3.1","tpq63n8df6","one_one","1","direct_first","1","EL08ER12","0","19","1","1","1","1","","0","1","0","1139.024999924004","","","<img src = 'targets/mask.png' width = '100%;'>","68","neg","GS","GSnew","2","category2/GS1.png","","targets/21.png","indirect","0","17"
"","html-keyboard-response","196","667330","0.0-12.0-0.2","tpq63n8df6","one_one","1","direct_first","1","EL08ER12","0","19","1","1","1","1","","0","1","0","null","","","<div style=""font-size:60px;"">+</div>","null","","","","","","","","","",""
"","html-keyboard-response","197","667431","0.0-12.0-1.2","tpq63n8df6","one_one","1","direct_first","1","EL08ER12","0","19","1","1","1","1","","0","1","0","null","","","<img src = 'category4/GS3.png' width = '100%;'>","null","","","","","","","","","",""
"","html-keyboard-response","198","667697","0.0-12.0-2.2","tpq63n8df6","one_one","1","direct_first","1","EL08ER12","0","19","1","1","1","1","","0","1","0","null","","","<img src = 'targets/6.png' width = '100%;'>","null","","","","","","","","","",""
"","html-keyboard-response","199","668798","0.0-12.0-3.2","tpq63n8df6","one_one","1","direct_first","1","EL08ER12","0","19","1","1","1","1","","0","1","0","1098.7350000068545","","","<img src = 'targets/mask.png' width = '100%;'>","75","neg","GS","GSnew","4","category4/GS3.png","","targets/6.png","indirect","1","18"
"","html-keyboard-response","200","670329","0.0-12.0-0.3","tpq63n8df6","one_one","1","direct_first","1","EL08ER12","0","19","1","1","1","1","","0","1","0","null","","","<div style=""font-size:60px;"">+</div>","null","","","","","","","","","",""
"","html-keyboard-response","201","670429","0.0-12.0-1.3","tpq63n8df6","one_one","1","direct_first","1","EL08ER12","0","19","1","1","1","1","","0","1","0","null","","","<img src = 'category1/GS3.png' width = '100%;'>","null","","","","","","","","","",""
"","html-keyboard-response","202","670689","0.0-12.0-2.3","tpq63n8df6","one_one","1","direct_first","1","EL08ER12","0","19","1","1","1","1","","0","1","0","null","","","<img src = 'targets/5.png' width = '100%;'>","null","","","","","","","","","",""
"","html-keyboard-response","203","671273","0.0-12.0-3.3","tpq63n8df6","one_one","1","direct_first","1","EL08ER12","0","19","1","1","1","1","","0","1","0","582.5650000479072","","","<img src = 'targets/mask.png' width = '100%;'>","75","pos","GS","GSnew","1","category1/GS3.png","","targets/5.png","indirect","1","19"
"","html-keyboard-response","204","672788","0.0-12.0-0.4","tpq63n8df6","one_one","1","direct_first","1","EL08ER12","0","19","1","1","1","1","","0","1","0","null","","","<div style=""font-size:60px;"">+</div>","null","","","","","","","","","",""
"","html-keyboard-response","205","672893","0.0-12.0-1.4","tpq63n8df6","one_one","1","direct_first","1","EL08ER12","0","19","1","1","1","1","","0","1","0","null","","","<img src = 'category1/ma.png' width = '100%;'>","null","","","","","","","","","",""
"","html-keyboard-response","206","673158","0.0-12.0-2.4","tpq63n8df6","one_one","1","direct_first","1","EL08ER12","0","19","1","1","1","1","","0","1","0","null","","","<img src = 'targets/23.png' width = '100%;'>","null","","","","","","","","","",""
"","html-keyboard-response","207","673892","0.0-12.0-3.4","tpq63n8df6","one_one","1","direct_first","1","EL08ER12","0","19","1","1","1","1","","0","1","0","732.4249998200685","","","<img src = 'targets/mask.png' width = '100%;'>","75","pos","GS","abstract","1","category1/ma.png","","targets/23.png","indirect","1","20"
"","html-keyboard-response","208","675429","0.0-12.0-0.5","tpq63n8df6","one_one","1","direct_first","1","EL08ER12","0","19","1","1","1","1","","0","1","0","null","","","<div style=""font-size:60px;"">+</div>","null","","","","","","","","","",""
"","html-keyboard-response","209","675529","0.0-12.0-1.5","tpq63n8df6","one_one","1","direct_first","1","EL08ER12","0","19","1","1","1","1","","0","1","0","null","","","<img src = 'category4/lin.png' width = '100%;'>","null","","","","","","","","","",""
"","html-keyboard-response","210","675796","0.0-12.0-2.5","tpq63n8df6","one_one","1","direct_first","1","EL08ER12","0","19","1","1","1","1","","0","1","0","null","","","<img src = 'targets/39.png' width = '100%;'>","null","","","","","","","","","",""
"","html-keyboard-response","211","676377","0.0-12.0-3.5","tpq63n8df6","one_one","1","direct_first","1","EL08ER12","0","19","1","1","1","1","","0","1","0","579.1899999603629","","","<img src = 'targets/mask.png' width = '100%;'>","68","neg","GS","abstract","4","category4/lin.png","","targets/39.png","indirect","0","21"
"","html-keyboard-response","212","677909","0.0-12.0-0.6","tpq63n8df6","one_one","1","direct_first","1","EL08ER12","0","19","1","1","1","1","","0","1","0","null","","","<div style=""font-size:60px;"">+</div>","null","","","","","","","","","",""
"","html-keyboard-response","213","678014","0.0-12.0-1.6","tpq63n8df6","one_one","1","direct_first","1","EL08ER12","0","19","1","1","1","1","","0","1","0","null","","","<img src = 'category4/GS2.png' width = '100%;'>","null","","","","","","","","","",""
"","html-keyboard-response","214","678273","0.0-12.0-2.6","tpq63n8df6","one_one","1","direct_first","1","EL08ER12","0","19","1","1","1","1","","0","1","0","null","","","<img src = 'targets/22.png' width = '100%;'>","null","","","","","","","","","",""
"","html-keyboard-response","215","678964","0.0-12.0-3.6","tpq63n8df6","one_one","1","direct_first","1","EL08ER12","0","19","1","1","1","1","","0","1","0","689.1550000291318","","","<img src = 'targets/mask.png' width = '100%;'>","68","neg","GS","GSnew","4","category4/GS2.png","","targets/22.png","indirect","0","22"
"","html-keyboard-response","216","680485","0.0-12.0-0.7","tpq63n8df6","one_one","1","direct_first","1","EL08ER12","0","19","1","1","1","1","","0","1","0","null","","","<div style=""font-size:60px;"">+</div>","null","","","","","","","","","",""
"","html-keyboard-response","217","680590","0.0-12.0-1.7","tpq63n8df6","one_one","1","direct_first","1","EL08ER12","0","19","1","1","1","1","","0","1","0","null","","","<img src = 'category2/men.png' width = '100%;'>","null","","","","","","","","","",""
"","html-keyboard-response","218","680855","0.0-12.0-2.7","tpq63n8df6","one_one","1","direct_first","1","EL08ER12","0","19","1","1","1","1","","0","1","0","null","","","<img src = 'targets/42.png' width = '100%;'>","null","","","","","","","","","",""
"","html-keyboard-response","219","681857","0.0-12.0-3.7","tpq63n8df6","one_one","1","direct_first","1","EL08ER12","0","19","1","1","1","1","","0","1","0","1000.3649999853224","","","<img src = 'targets/mask.png' width = '100%;'>","68","neg","GS","abstract","2","category2/men.png","","targets/42.png","indirect","0","23"
"","html-keyboard-response","220","683378","0.0-12.0-0.8","tpq63n8df6","one_one","1","direct_first","1","EL08ER12","0","19","1","1","1","1","","0","1","0","null","","","<div style=""font-size:60px;"">+</div>","null","","","","","","","","","",""
"","html-keyboard-response","221","683474","0.0-12.0-1.8","tpq63n8df6","one_one","1","direct_first","1","EL08ER12","0","19","1","1","1","1","","0","1","0","null","","","<img src = 'category3/wang.png' width = '100%;'>","null","","","","","","","","","",""
"","html-keyboard-response","222","683728","0.0-12.0-2.8","tpq63n8df6","one_one","1","direct_first","1","EL08ER12","0","19","1","1","1","1","","0","1","0","null","","","<img src = 'targets/4.png' width = '100%;'>","null","","","","","","","","","",""
"","html-keyboard-response","223","684300","0.0-12.0-3.8","tpq63n8df6","one_one","1","direct_first","1","EL08ER12","0","19","1","1","1","1","","0","1","0","570.3249999787658","","","<img src = 'targets/mask.png' width = '100%;'>","75","pos","GS","abstract","3","category3/wang.png","","targets/4.png","indirect","1","24"
"","html-keyboard-response","224","685809","0.0-12.0-0.9","tpq63n8df6","one_one","1","direct_first","1","EL08ER12","0","19","1","1","1","1","","0","1","0","null","","","<div style=""font-size:60px;"">+</div>","null","","","","","","","","","",""
"","html-keyboard-response","225","685917","0.0-12.0-1.9","tpq63n8df6","one_one","1","direct_first","1","EL08ER12","0","19","1","1","1","1","","0","1","0","null","","","<img src = 'category3/GS1.png' width = '100%;'>","null","","","","","","","","","",""
"","html-keyboard-response","226","686187","0.0-12.0-2.9","tpq63n8df6","one_one","1","direct_first","1","EL08ER12","0","19","1","1","1","1","","0","1","0","null","","","<img src = 'targets/43.png' width = '100%;'>","null","","","","","","","","","",""
"","html-keyboard-response","227","687743","0.0-12.0-3.9","tpq63n8df6","one_one","1","direct_first","1","EL08ER12","0","19","1","1","1","1","","0","1","0","1553.685000166297","","","<img src = 'targets/mask.png' width = '100%;'>","68","pos","GS","GSnew","3","category3/GS1.png","","targets/43.png","indirect","0","25"
"","html-keyboard-response","228","689260","0.0-12.0-0.10","tpq63n8df6","one_one","1","direct_first","1","EL08ER12","0","19","1","1","1","1","","0","1","0","null","","","<div style=""font-size:60px;"">+</div>","null","","","","","","","","","",""
"","html-keyboard-response","229","689352","0.0-12.0-1.10","tpq63n8df6","one_one","1","direct_first","1","EL08ER12","0","19","1","1","1","1","","0","1","0","null","","","<img src = 'category3/GS2.png' width = '100%;'>","null","","","","","","","","","",""
"","html-keyboard-response","230","689618","0.0-12.0-2.10","tpq63n8df6","one_one","1","direct_first","1","EL08ER12","0","19","1","1","1","1","","0","1","0","null","","","<img src = 'targets/26.png' width = '100%;'>","null","","","","","","","","","",""
"","html-keyboard-response","231","690314","0.0-12.0-3.10","tpq63n8df6","one_one","1","direct_first","1","EL08ER12","0","19","1","1","1","1","","0","1","0","692.7099998574704","","","<img src = 'targets/mask.png' width = '100%;'>","75","pos","GS","GSnew","3","category3/GS2.png","","targets/26.png","indirect","1","26"
"","html-keyboard-response","232","691833","0.0-12.0-0.11","tpq63n8df6","one_one","1","direct_first","1","EL08ER12","0","19","1","1","1","1","","0","1","0","null","","","<div style=""font-size:60px;"">+</div>","null","","","","","","","","","",""
"","html-keyboard-response","233","691935","0.0-12.0-1.11","tpq63n8df6","one_one","1","direct_first","1","EL08ER12","0","19","1","1","1","1","","0","1","0","null","","","<img src = 'category3/GS3.png' width = '100%;'>","null","","","","","","","","","",""
"","html-keyboard-response","234","692204","0.0-12.0-2.11","tpq63n8df6","one_one","1","direct_first","1","EL08ER12","0","19","1","1","1","1","","0","1","0","null","","","<img src = 'targets/46.png' width = '100%;'>","null","","","","","","","","","",""
"","html-keyboard-response","235","692790","0.0-12.0-3.11","tpq63n8df6","one_one","1","direct_first","1","EL08ER12","0","19","1","1","1","1","","0","1","0","584.07499990426","","","<img src = 'targets/mask.png' width = '100%;'>","75","pos","GS","GSnew","3","category3/GS3.png","","targets/46.png","indirect","1","27"
"","html-keyboard-response","236","694294","0.0-12.0-0.12","tpq63n8df6","one_one","1","direct_first","1","EL08ER12","0","19","1","1","1","1","","0","1","0","null","","","<div style=""font-size:60px;"">+</div>","null","","","","","","","","","",""
"","html-keyboard-response","237","694399","0.0-12.0-1.12","tpq63n8df6","one_one","1","direct_first","1","EL08ER12","0","19","1","1","1","1","","0","1","0","null","","","<img src = 'category2/GS3.png' width = '100%;'>","null","","","","","","","","","",""
"","html-keyboard-response","238","694663","0.0-12.0-2.12","tpq63n8df6","one_one","1","direct_first","1","EL08ER12","0","19","1","1","1","1","","0","1","0","null","","","<img src = 'targets/35.png' width = '100%;'>","null","","","","","","","","","",""
"","html-keyboard-response","239","695167","0.0-12.0-3.12","tpq63n8df6","one_one","1","direct_first","1","EL08ER12","0","19","1","1","1","1","","0","1","0","501.7849998548627","","","<img src = 'targets/mask.png' width = '100%;'>","75","neg","GS","GSnew","2","category2/GS3.png","","targets/35.png","indirect","1","28"
"","html-keyboard-response","240","696679","0.0-12.0-0.13","tpq63n8df6","one_one","1","direct_first","1","EL08ER12","0","19","1","1","1","1","","0","1","0","null","","","<div style=""font-size:60px;"">+</div>","null","","","","","","","","","",""
"","html-keyboard-response","241","696780","0.0-12.0-1.13","tpq63n8df6","one_one","1","direct_first","1","EL08ER12","0","19","1","1","1","1","","0","1","0","null","","","<img src = 'category2/GS2.png' width = '100%;'>","null","","","","","","","","","",""
"","html-keyboard-response","242","697056","0.0-12.0-2.13","tpq63n8df6","one_one","1","direct_first","1","EL08ER12","0","19","1","1","1","1","","0","1","0","null","","","<img src = 'targets/29.png' width = '100%;'>","null","","","","","","","","","",""
"","html-keyboard-response","243","697723","0.0-12.0-3.13","tpq63n8df6","one_one","1","direct_first","1","EL08ER12","0","19","1","1","1","1","","0","1","0","665.2200000826269","","","<img src = 'targets/mask.png' width = '100%;'>","75","neg","GS","GSnew","2","category2/GS2.png","","targets/29.png","indirect","1","29"
"","html-keyboard-response","244","699243","0.0-12.0-0.14","tpq63n8df6","one_one","1","direct_first","1","EL08ER12","0","19","1","1","1","1","","0","1","0","null","","","<div style=""font-size:60px;"">+</div>","null","","","","","","","","","",""
"","html-keyboard-response","245","699343","0.0-12.0-1.14","tpq63n8df6","one_one","1","direct_first","1","EL08ER12","0","19","1","1","1","1","","0","1","0","null","","","<img src = 'category4/GS1.png' width = '100%;'>","null","","","","","","","","","",""
"","html-keyboard-response","246","699611","0.0-12.0-2.14","tpq63n8df6","one_one","1","direct_first","1","EL08ER12","0","19","1","1","1","1","","0","1","0","null","","","<img src = 'targets/19.png' width = '100%;'>","null","","","","","","","","","",""
"","html-keyboard-response","247","700440","0.0-12.0-3.14","tpq63n8df6","one_one","1","direct_first","1","EL08ER12","0","19","1","1","1","1","","0","1","0","827.6349999941885","","","<img src = 'targets/mask.png' width = '100%;'>","68","neg","GS","GSnew","4","category4/GS1.png","","targets/19.png","indirect","0","30"
"","html-keyboard-response","248","701955","0.0-12.0-0.15","tpq63n8df6","one_one","1","direct_first","1","EL08ER12","0","19","1","1","1","1","","0","1","0","null","","","<div style=""font-size:60px;"">+</div>","null","","","","","","","","","",""
"","html-keyboard-response","249","702059","0.0-12.0-1.15","tpq63n8df6","one_one","1","direct_first","1","EL08ER12","0","19","1","1","1","1","","0","1","0","null","","","<img src = 'category1/GS1.png' width = '100%;'>","null","","","","","","","","","",""
"","html-keyboard-response","250","702325","0.0-12.0-2.15","tpq63n8df6","one_one","1","direct_first","1","EL08ER12","0","19","1","1","1","1","","0","1","0","null","","","<img src = 'targets/47.png' width = '100%;'>","null","","","","","","","","","",""
"","html-keyboard-response","251","703021","0.0-12.0-3.15","tpq63n8df6","one_one","1","direct_first","1","EL08ER12","0","19","1","1","1","1","","0","1","0","694.3699999246746","","","<img src = 'targets/mask.png' width = '100%;'>","75","pos","GS","GSnew","1","category1/GS1.png","","targets/47.png","indirect","1","31"
"","survey-html-form","252","711437","0.0-13.0","tpq63n8df6","one_one","1","direct_first","1","EL08ER12","0","19","1","1","1","1","","0","1","0","7898.125000065193","","{}","","","","","","","","","","","",""
"","image-slider-response","253","719041","0.0-14.0-0.0","tpq63n8df6","one_one","1","direct_first","1","EL08ER12","0","19","1","1","1","1","","0","1","0","6594.795000040904","","","","","neg","All","all","2","category2/men_all.png","20","","all","",""
"","image-slider-response","254","723003","0.0-14.0-0.1","tpq63n8df6","one_one","1","direct_first","1","EL08ER12","0","19","1","1","1","1","","0","1","0","3959.535000147298","","","","","neg","All","all","4","category4/lin_all.png","62","","all","",""
"","image-slider-response","255","728323","0.0-14.0-0.2","tpq63n8df6","one_one","1","direct_first","1","EL08ER12","0","19","1","1","1","1","","0","1","0","5318.6000001151115","","","","","pos","All","all","3","category3/wang_all.png","-61","","all","",""
"","image-slider-response","256","735122","0.0-14.0-0.3","tpq63n8df6","one_one","1","direct_first","1","EL08ER12","0","19","1","1","1","1","","0","1","0","6795.15999997966","","","","","pos","All","all","1","category1/ma_all.png","-71","","all","",""
"","survey-text","257","746747","0.0-15.0","tpq63n8df6","one_one","1","direct_first","1","EL08ER12","0","19","1","1","1","1","","0","1","0","11607.23500000313","","{""comment"":""""}","","","","","","","","","","","",""
"","survey-html-form","258","763742","0.0-16.0","tpq63n8df6","one_one","1","direct_first","1","EL08ER12","0","19","1","1","1","1","","0","1","0","16989.30999985896","","{""hinschauen"":""0"",""ablenkung"":""1"",""gewissenhaft"":""0""}","","","","","","","","","","","",""
