"success","trial_type","trial_index","time_elapsed","internal_node_id","subject","condition","condition_code","measure","measure_code","codeword","gender","age","education","chinese","fach","handedness","comment","hinschauen","ablenkung","gewissenhaft","rt","url","responses","stimulus","key_press","val","type","type_specific","category","cs_selected","target","indirect","task","nr_pres","response"
"true","fullscreen","0","1091018","0.0-0.0","aplzn2l594","many_one","0","indirect_first","0","er07es16","1","22","1","1","3","1","","0","1","0","","","","","","","","","","","","","","",""
"","external-html","1","1131214","0.0-1.0","aplzn2l594","many_one","0","indirect_first","0","er07es16","1","22","1","1","3","1","","0","1","0","39744","text/information.html","","","","","","","","","","","","",""
"","external-html","2","1150598","0.0-2.0","aplzn2l594","many_one","0","indirect_first","0","er07es16","1","22","1","1","3","1","","0","1","0","19085","text/consent.html","","","","","","","","","","","","",""
"","survey-html-form","3","1227458","0.0-3.0","aplzn2l594","many_one","0","indirect_first","0","er07es16","1","22","1","1","3","1","","0","1","0","76856","","{""codeword_enter"":""er07es16""}","","","","","","","","","","","",""
"","survey-html-form","4","1256135","0.0-4.0","aplzn2l594","many_one","0","indirect_first","0","er07es16","1","22","1","1","3","1","","0","1","0","28669","","{""age"":""22"",""education"":""1"",""subject"":""3"",""gender"":""1"",""handedness"":""1"",""chinese"":""1""}","","","","","","","","","","","",""
"","survey-html-form","5","1267309","0.0-5.0","aplzn2l594","many_one","0","indirect_first","0","er07es16","1","22","1","1","3","1","","0","1","0","11170","","{}","","","","","","","","","","","",""
"","html-keyboard-response","6","1271337","0.0-6.0-0.0-0.0","aplzn2l594","many_one","0","indirect_first","0","er07es16","1","22","1","1","3","1","","0","1","0","null","","","<div class = 'row'><div class = 'column'><img src = 'usneg/9920.bmp' width = '100%;'></div><div class = 'column'><img src = 'category1/CS6.png' width = '70%;'></div></div>","null","neg","CS","CS","1","category1/CS6.png","","","","",""
"","html-keyboard-response","7","1273880","0.0-6.0-0.0-0.1","aplzn2l594","many_one","0","indirect_first","0","er07es16","1","22","1","1","3","1","","0","1","0","null","","","<div class = 'row'><div class = 'column'><img src = 'category3/CS10.png' width = '70%;'></div><div class = 'column'><img src = 'uspos/2057.bmp' width = '100%;'></div></div>","null","pos","CS","CS","3","category3/CS10.png","","","","",""
"","html-keyboard-response","8","1276418","0.0-6.0-0.0-0.2","aplzn2l594","many_one","0","indirect_first","0","er07es16","1","22","1","1","3","1","","0","1","0","null","","","<div class = 'row'><div class = 'column'><img src = 'category4/CS9.png' width = '70%;'></div><div class = 'column'><img src = 'usneg/9180.bmp' width = '100%;'></div></div>","null","neg","CS","CS","4","category4/CS9.png","","","","",""
"","html-keyboard-response","9","1278958","0.0-6.0-0.0-0.3","aplzn2l594","many_one","0","indirect_first","0","er07es16","1","22","1","1","3","1","","0","1","0","null","","","<div class = 'row'><div class = 'column'><img src = 'usneg/9290.bmp' width = '100%;'></div><div class = 'column'><img src = 'category4/CS4.png' width = '70%;'></div></div>","null","neg","CS","CS","4","category4/CS4.png","","","","",""
"","html-keyboard-response","10","1281499","0.0-6.0-0.0-0.4","aplzn2l594","many_one","0","indirect_first","0","er07es16","1","22","1","1","3","1","","0","1","0","null","","","<div class = 'row'><div class = 'column'><img src = 'uspos/7580.bmp' width = '100%;'></div><div class = 'column'><img src = 'category2/CS2.png' width = '70%;'></div></div>","null","pos","CS","CS","2","category2/CS2.png","","","","",""
"","html-keyboard-response","11","1284028","0.0-6.0-0.0-0.5","aplzn2l594","many_one","0","indirect_first","0","er07es16","1","22","1","1","3","1","","0","1","0","null","","","<div class = 'row'><div class = 'column'><img src = 'uspos/5760.bmp' width = '100%;'></div><div class = 'column'><img src = 'category2/CS10.png' width = '70%;'></div></div>","null","pos","CS","CS","2","category2/CS10.png","","","","",""
"","html-keyboard-response","12","1286568","0.0-6.0-0.0-0.6","aplzn2l594","many_one","0","indirect_first","0","er07es16","1","22","1","1","3","1","","0","1","0","null","","","<div class = 'row'><div class = 'column'><img src = 'uspos/1463.bmp' width = '100%;'></div><div class = 'column'><img src = 'category3/CS6.png' width = '70%;'></div></div>","null","pos","CS","CS","3","category3/CS6.png","","","","",""
"","html-keyboard-response","13","1289099","0.0-6.0-0.0-0.7","aplzn2l594","many_one","0","indirect_first","0","er07es16","1","22","1","1","3","1","","0","1","0","null","","","<div class = 'row'><div class = 'column'><img src = 'category4/CS6.png' width = '70%;'></div><div class = 'column'><img src = 'usneg/9435.bmp' width = '100%;'></div></div>","null","neg","CS","CS","4","category4/CS6.png","","","","",""
"","html-keyboard-response","14","1291638","0.0-6.0-0.0-0.8","aplzn2l594","many_one","0","indirect_first","0","er07es16","1","22","1","1","3","1","","0","1","0","null","","","<div class = 'row'><div class = 'column'><img src = 'category3/CS7.png' width = '70%;'></div><div class = 'column'><img src = 'uspos/1440.bmp' width = '100%;'></div></div>","null","pos","CS","CS","3","category3/CS7.png","","","","",""
"","html-keyboard-response","15","1294179","0.0-6.0-0.0-0.9","aplzn2l594","many_one","0","indirect_first","0","er07es16","1","22","1","1","3","1","","0","1","0","null","","","<div class = 'row'><div class = 'column'><img src = 'usneg/9830.bmp' width = '100%;'></div><div class = 'column'><img src = 'category1/CS5.png' width = '70%;'></div></div>","null","neg","CS","CS","1","category1/CS5.png","","","","",""
"","html-keyboard-response","16","1296719","0.0-6.0-0.0-0.10","aplzn2l594","many_one","0","indirect_first","0","er07es16","1","22","1","1","3","1","","0","1","0","null","","","<div class = 'row'><div class = 'column'><img src = 'category2/CS7.png' width = '70%;'></div><div class = 'column'><img src = 'uspos/4599.bmp' width = '100%;'></div></div>","null","pos","CS","CS","2","category2/CS7.png","","","","",""
"","html-keyboard-response","17","1299248","0.0-6.0-0.0-0.11","aplzn2l594","many_one","0","indirect_first","0","er07es16","1","22","1","1","3","1","","0","1","0","null","","","<div class = 'row'><div class = 'column'><img src = 'uspos/5621.bmp' width = '100%;'></div><div class = 'column'><img src = 'category2/CS6.png' width = '70%;'></div></div>","null","pos","CS","CS","2","category2/CS6.png","","","","",""
"","html-keyboard-response","18","1301788","0.0-6.0-0.0-0.12","aplzn2l594","many_one","0","indirect_first","0","er07es16","1","22","1","1","3","1","","0","1","0","null","","","<div class = 'row'><div class = 'column'><img src = 'category4/CS10.png' width = '70%;'></div><div class = 'column'><img src = 'usneg/6212.bmp' width = '100%;'></div></div>","null","neg","CS","CS","4","category4/CS10.png","","","","",""
"","html-keyboard-response","19","1304328","0.0-6.0-0.0-0.13","aplzn2l594","many_one","0","indirect_first","0","er07es16","1","22","1","1","3","1","","0","1","0","null","","","<div class = 'row'><div class = 'column'><img src = 'uspos/2058.bmp' width = '100%;'></div><div class = 'column'><img src = 'category3/CS1.png' width = '70%;'></div></div>","null","pos","CS","CS","3","category3/CS1.png","","","","",""
"","html-keyboard-response","20","1306868","0.0-6.0-0.0-0.14","aplzn2l594","many_one","0","indirect_first","0","er07es16","1","22","1","1","3","1","","0","1","0","null","","","<div class = 'row'><div class = 'column'><img src = 'uspos/5600.bmp' width = '100%;'></div><div class = 'column'><img src = 'category3/CS9.png' width = '70%;'></div></div>","null","pos","CS","CS","3","category3/CS9.png","","","","",""
"","html-keyboard-response","21","1309399","0.0-6.0-0.0-0.15","aplzn2l594","many_one","0","indirect_first","0","er07es16","1","22","1","1","3","1","","0","1","0","null","","","<div class = 'row'><div class = 'column'><img src = 'usneg/1280.bmp' width = '100%;'></div><div class = 'column'><img src = 'category1/CS2.png' width = '70%;'></div></div>","null","neg","CS","CS","1","category1/CS2.png","","","","",""
"","html-keyboard-response","22","1311938","0.0-6.0-0.0-0.16","aplzn2l594","many_one","0","indirect_first","0","er07es16","1","22","1","1","3","1","","0","1","0","null","","","<div class = 'row'><div class = 'column'><img src = 'category4/CS8.png' width = '70%;'></div><div class = 'column'><img src = 'usneg/3181.bmp' width = '100%;'></div></div>","null","neg","CS","CS","4","category4/CS8.png","","","","",""
"","html-keyboard-response","23","1314478","0.0-6.0-0.0-0.17","aplzn2l594","many_one","0","indirect_first","0","er07es16","1","22","1","1","3","1","","0","1","0","null","","","<div class = 'row'><div class = 'column'><img src = 'usneg/9520.bmp' width = '100%;'></div><div class = 'column'><img src = 'category1/CS10.png' width = '70%;'></div></div>","null","neg","CS","CS","1","category1/CS10.png","","","","",""
"","html-keyboard-response","24","1317018","0.0-6.0-0.0-0.18","aplzn2l594","many_one","0","indirect_first","0","er07es16","1","22","1","1","3","1","","0","1","0","null","","","<div class = 'row'><div class = 'column'><img src = 'category2/CS3.png' width = '70%;'></div><div class = 'column'><img src = 'uspos/5831.bmp' width = '100%;'></div></div>","null","pos","CS","CS","2","category2/CS3.png","","","","",""
"","html-keyboard-response","25","1319558","0.0-6.0-0.0-0.19","aplzn2l594","many_one","0","indirect_first","0","er07es16","1","22","1","1","3","1","","0","1","0","null","","","<div class = 'row'><div class = 'column'><img src = 'usneg/9342.bmp' width = '100%;'></div><div class = 'column'><img src = 'category1/CS8.png' width = '70%;'></div></div>","null","neg","CS","CS","1","category1/CS8.png","","","","",""
"","survey-html-form","26","1372546","0.0-6.0-1.0","aplzn2l594","many_one","0","indirect_first","0","er07es16","1","22","1","1","3","1","","0","1","0","52467","","{}","","","","","","","","","","","",""
"","html-keyboard-response","27","1376568","0.0-6.0-2.0-0.0","aplzn2l594","many_one","0","indirect_first","0","er07es16","1","22","1","1","3","1","","0","1","0","null","","","<div class = 'row'><div class = 'column'><img src = 'category4/CS6.png' width = '70%;'></div><div class = 'column'><img src = 'usneg/9435.bmp' width = '100%;'></div></div>","null","neg","CS","CS","4","category4/CS6.png","","","","",""
"","html-keyboard-response","28","1379107","0.0-6.0-2.0-0.1","aplzn2l594","many_one","0","indirect_first","0","er07es16","1","22","1","1","3","1","","0","1","0","null","","","<div class = 'row'><div class = 'column'><img src = 'usneg/6212.bmp' width = '100%;'></div><div class = 'column'><img src = 'category4/CS10.png' width = '70%;'></div></div>","null","neg","CS","CS","4","category4/CS10.png","","","","",""
"","html-keyboard-response","29","1381648","0.0-6.0-2.0-0.2","aplzn2l594","many_one","0","indirect_first","0","er07es16","1","22","1","1","3","1","","0","1","0","null","","","<div class = 'row'><div class = 'column'><img src = 'uspos/5621.bmp' width = '100%;'></div><div class = 'column'><img src = 'category2/CS6.png' width = '70%;'></div></div>","null","pos","CS","CS","2","category2/CS6.png","","","","",""
"","html-keyboard-response","30","1384177","0.0-6.0-2.0-0.3","aplzn2l594","many_one","0","indirect_first","0","er07es16","1","22","1","1","3","1","","0","1","0","null","","","<div class = 'row'><div class = 'column'><img src = 'category4/CS8.png' width = '70%;'></div><div class = 'column'><img src = 'usneg/3181.bmp' width = '100%;'></div></div>","null","neg","CS","CS","4","category4/CS8.png","","","","",""
"","html-keyboard-response","31","1386717","0.0-6.0-2.0-0.4","aplzn2l594","many_one","0","indirect_first","0","er07es16","1","22","1","1","3","1","","0","1","0","null","","","<div class = 'row'><div class = 'column'><img src = 'category3/CS10.png' width = '70%;'></div><div class = 'column'><img src = 'uspos/2057.bmp' width = '100%;'></div></div>","null","pos","CS","CS","3","category3/CS10.png","","","","",""
"","html-keyboard-response","32","1389251","0.0-6.0-2.0-0.5","aplzn2l594","many_one","0","indirect_first","0","er07es16","1","22","1","1","3","1","","0","1","0","null","","","<div class = 'row'><div class = 'column'><img src = 'category3/CS7.png' width = '70%;'></div><div class = 'column'><img src = 'uspos/1440.bmp' width = '100%;'></div></div>","null","pos","CS","CS","3","category3/CS7.png","","","","",""
"","html-keyboard-response","33","1391786","0.0-6.0-2.0-0.6","aplzn2l594","many_one","0","indirect_first","0","er07es16","1","22","1","1","3","1","","0","1","0","null","","","<div class = 'row'><div class = 'column'><img src = 'usneg/9520.bmp' width = '100%;'></div><div class = 'column'><img src = 'category1/CS10.png' width = '70%;'></div></div>","null","neg","CS","CS","1","category1/CS10.png","","","","",""
"","html-keyboard-response","34","1394326","0.0-6.0-2.0-0.7","aplzn2l594","many_one","0","indirect_first","0","er07es16","1","22","1","1","3","1","","0","1","0","null","","","<div class = 'row'><div class = 'column'><img src = 'category2/CS3.png' width = '70%;'></div><div class = 'column'><img src = 'uspos/5831.bmp' width = '100%;'></div></div>","null","pos","CS","CS","2","category2/CS3.png","","","","",""
"","html-keyboard-response","35","1396864","0.0-6.0-2.0-0.8","aplzn2l594","many_one","0","indirect_first","0","er07es16","1","22","1","1","3","1","","0","1","0","null","","","<div class = 'row'><div class = 'column'><img src = 'usneg/9180.bmp' width = '100%;'></div><div class = 'column'><img src = 'category4/CS9.png' width = '70%;'></div></div>","null","neg","CS","CS","4","category4/CS9.png","","","","",""
"","html-keyboard-response","36","1399367","0.0-6.0-2.0-0.9","aplzn2l594","many_one","0","indirect_first","0","er07es16","1","22","1","1","3","1","","0","1","0","null","","","<div class = 'row'><div class = 'column'><img src = 'uspos/2058.bmp' width = '100%;'></div><div class = 'column'><img src = 'category3/CS1.png' width = '70%;'></div></div>","null","pos","CS","CS","3","category3/CS1.png","","","","",""
"","html-keyboard-response","37","1401897","0.0-6.0-2.0-0.10","aplzn2l594","many_one","0","indirect_first","0","er07es16","1","22","1","1","3","1","","0","1","0","null","","","<div class = 'row'><div class = 'column'><img src = 'category2/CS7.png' width = '70%;'></div><div class = 'column'><img src = 'uspos/4599.bmp' width = '100%;'></div></div>","null","pos","CS","CS","2","category2/CS7.png","","","","",""
"","html-keyboard-response","38","1404436","0.0-6.0-2.0-0.11","aplzn2l594","many_one","0","indirect_first","0","er07es16","1","22","1","1","3","1","","0","1","0","null","","","<div class = 'row'><div class = 'column'><img src = 'usneg/9920.bmp' width = '100%;'></div><div class = 'column'><img src = 'category1/CS6.png' width = '70%;'></div></div>","null","neg","CS","CS","1","category1/CS6.png","","","","",""
"","html-keyboard-response","39","1406977","0.0-6.0-2.0-0.12","aplzn2l594","many_one","0","indirect_first","0","er07es16","1","22","1","1","3","1","","0","1","0","null","","","<div class = 'row'><div class = 'column'><img src = 'category4/CS4.png' width = '70%;'></div><div class = 'column'><img src = 'usneg/9290.bmp' width = '100%;'></div></div>","null","neg","CS","CS","4","category4/CS4.png","","","","",""
"","html-keyboard-response","40","1409517","0.0-6.0-2.0-0.13","aplzn2l594","many_one","0","indirect_first","0","er07es16","1","22","1","1","3","1","","0","1","0","null","","","<div class = 'row'><div class = 'column'><img src = 'category1/CS2.png' width = '70%;'></div><div class = 'column'><img src = 'usneg/1280.bmp' width = '100%;'></div></div>","null","neg","CS","CS","1","category1/CS2.png","","","","",""
"","html-keyboard-response","41","1412046","0.0-6.0-2.0-0.14","aplzn2l594","many_one","0","indirect_first","0","er07es16","1","22","1","1","3","1","","0","1","0","null","","","<div class = 'row'><div class = 'column'><img src = 'usneg/9342.bmp' width = '100%;'></div><div class = 'column'><img src = 'category1/CS8.png' width = '70%;'></div></div>","null","neg","CS","CS","1","category1/CS8.png","","","","",""
"","html-keyboard-response","42","1414586","0.0-6.0-2.0-0.15","aplzn2l594","many_one","0","indirect_first","0","er07es16","1","22","1","1","3","1","","0","1","0","null","","","<div class = 'row'><div class = 'column'><img src = 'uspos/1463.bmp' width = '100%;'></div><div class = 'column'><img src = 'category3/CS6.png' width = '70%;'></div></div>","null","pos","CS","CS","3","category3/CS6.png","","","","",""
"","html-keyboard-response","43","1417126","0.0-6.0-2.0-0.16","aplzn2l594","many_one","0","indirect_first","0","er07es16","1","22","1","1","3","1","","0","1","0","null","","","<div class = 'row'><div class = 'column'><img src = 'uspos/5600.bmp' width = '100%;'></div><div class = 'column'><img src = 'category3/CS9.png' width = '70%;'></div></div>","null","pos","CS","CS","3","category3/CS9.png","","","","",""
"","html-keyboard-response","44","1419656","0.0-6.0-2.0-0.17","aplzn2l594","many_one","0","indirect_first","0","er07es16","1","22","1","1","3","1","","0","1","0","null","","","<div class = 'row'><div class = 'column'><img src = 'category1/CS5.png' width = '70%;'></div><div class = 'column'><img src = 'usneg/9830.bmp' width = '100%;'></div></div>","null","neg","CS","CS","1","category1/CS5.png","","","","",""
"","html-keyboard-response","45","1422196","0.0-6.0-2.0-0.18","aplzn2l594","many_one","0","indirect_first","0","er07es16","1","22","1","1","3","1","","0","1","0","null","","","<div class = 'row'><div class = 'column'><img src = 'category2/CS2.png' width = '70%;'></div><div class = 'column'><img src = 'uspos/7580.bmp' width = '100%;'></div></div>","null","pos","CS","CS","2","category2/CS2.png","","","","",""
"","html-keyboard-response","46","1424736","0.0-6.0-2.0-0.19","aplzn2l594","many_one","0","indirect_first","0","er07es16","1","22","1","1","3","1","","0","1","0","null","","","<div class = 'row'><div class = 'column'><img src = 'category2/CS10.png' width = '70%;'></div><div class = 'column'><img src = 'uspos/5760.bmp' width = '100%;'></div></div>","null","pos","CS","CS","2","category2/CS10.png","","","","",""
"","survey-html-form","47","1429377","0.0-6.0-3.0","aplzn2l594","many_one","0","indirect_first","0","er07es16","1","22","1","1","3","1","","0","1","0","4121","","{}","","","","","","","","","","","",""
"","html-keyboard-response","48","1433416","0.0-6.0-4.0-0.0","aplzn2l594","many_one","0","indirect_first","0","er07es16","1","22","1","1","3","1","","0","1","0","null","","","<div class = 'row'><div class = 'column'><img src = 'category4/CS10.png' width = '70%;'></div><div class = 'column'><img src = 'usneg/6212.bmp' width = '100%;'></div></div>","null","neg","CS","CS","4","category4/CS10.png","","","","",""
"","html-keyboard-response","49","1435947","0.0-6.0-4.0-0.1","aplzn2l594","many_one","0","indirect_first","0","er07es16","1","22","1","1","3","1","","0","1","0","null","","","<div class = 'row'><div class = 'column'><img src = 'category1/CS2.png' width = '70%;'></div><div class = 'column'><img src = 'usneg/1280.bmp' width = '100%;'></div></div>","null","neg","CS","CS","1","category1/CS2.png","","","","",""
"","html-keyboard-response","50","1438485","0.0-6.0-4.0-0.2","aplzn2l594","many_one","0","indirect_first","0","er07es16","1","22","1","1","3","1","","0","1","0","null","","","<div class = 'row'><div class = 'column'><img src = 'uspos/2058.bmp' width = '100%;'></div><div class = 'column'><img src = 'category3/CS1.png' width = '70%;'></div></div>","null","pos","CS","CS","3","category3/CS1.png","","","","",""
"","html-keyboard-response","51","1441016","0.0-6.0-4.0-0.3","aplzn2l594","many_one","0","indirect_first","0","er07es16","1","22","1","1","3","1","","0","1","0","null","","","<div class = 'row'><div class = 'column'><img src = 'category2/CS10.png' width = '70%;'></div><div class = 'column'><img src = 'uspos/5760.bmp' width = '100%;'></div></div>","null","pos","CS","CS","2","category2/CS10.png","","","","",""
"","html-keyboard-response","52","1443546","0.0-6.0-4.0-0.4","aplzn2l594","many_one","0","indirect_first","0","er07es16","1","22","1","1","3","1","","0","1","0","null","","","<div class = 'row'><div class = 'column'><img src = 'category3/CS10.png' width = '70%;'></div><div class = 'column'><img src = 'uspos/2057.bmp' width = '100%;'></div></div>","null","pos","CS","CS","3","category3/CS10.png","","","","",""
"","html-keyboard-response","53","1446085","0.0-6.0-4.0-0.5","aplzn2l594","many_one","0","indirect_first","0","er07es16","1","22","1","1","3","1","","0","1","0","null","","","<div class = 'row'><div class = 'column'><img src = 'usneg/3181.bmp' width = '100%;'></div><div class = 'column'><img src = 'category4/CS8.png' width = '70%;'></div></div>","null","neg","CS","CS","4","category4/CS8.png","","","","",""
"","html-keyboard-response","54","1448625","0.0-6.0-4.0-0.6","aplzn2l594","many_one","0","indirect_first","0","er07es16","1","22","1","1","3","1","","0","1","0","null","","","<div class = 'row'><div class = 'column'><img src = 'uspos/5831.bmp' width = '100%;'></div><div class = 'column'><img src = 'category2/CS3.png' width = '70%;'></div></div>","null","pos","CS","CS","2","category2/CS3.png","","","","",""
"","html-keyboard-response","55","1451155","0.0-6.0-4.0-0.7","aplzn2l594","many_one","0","indirect_first","0","er07es16","1","22","1","1","3","1","","0","1","0","null","","","<div class = 'row'><div class = 'column'><img src = 'category1/CS10.png' width = '70%;'></div><div class = 'column'><img src = 'usneg/9520.bmp' width = '100%;'></div></div>","null","neg","CS","CS","1","category1/CS10.png","","","","",""
"","html-keyboard-response","56","1453695","0.0-6.0-4.0-0.8","aplzn2l594","many_one","0","indirect_first","0","er07es16","1","22","1","1","3","1","","0","1","0","null","","","<div class = 'row'><div class = 'column'><img src = 'category1/CS5.png' width = '70%;'></div><div class = 'column'><img src = 'usneg/9830.bmp' width = '100%;'></div></div>","null","neg","CS","CS","1","category1/CS5.png","","","","",""
"","html-keyboard-response","57","1456225","0.0-6.0-4.0-0.9","aplzn2l594","many_one","0","indirect_first","0","er07es16","1","22","1","1","3","1","","0","1","0","null","","","<div class = 'row'><div class = 'column'><img src = 'category3/CS7.png' width = '70%;'></div><div class = 'column'><img src = 'uspos/1440.bmp' width = '100%;'></div></div>","null","pos","CS","CS","3","category3/CS7.png","","","","",""
"","html-keyboard-response","58","1458765","0.0-6.0-4.0-0.10","aplzn2l594","many_one","0","indirect_first","0","er07es16","1","22","1","1","3","1","","0","1","0","null","","","<div class = 'row'><div class = 'column'><img src = 'category3/CS6.png' width = '70%;'></div><div class = 'column'><img src = 'uspos/1463.bmp' width = '100%;'></div></div>","null","pos","CS","CS","3","category3/CS6.png","","","","",""
"","html-keyboard-response","59","1461305","0.0-6.0-4.0-0.11","aplzn2l594","many_one","0","indirect_first","0","er07es16","1","22","1","1","3","1","","0","1","0","null","","","<div class = 'row'><div class = 'column'><img src = 'category1/CS8.png' width = '70%;'></div><div class = 'column'><img src = 'usneg/9342.bmp' width = '100%;'></div></div>","null","neg","CS","CS","1","category1/CS8.png","","","","",""
"","html-keyboard-response","60","1463846","0.0-6.0-4.0-0.12","aplzn2l594","many_one","0","indirect_first","0","er07es16","1","22","1","1","3","1","","0","1","0","null","","","<div class = 'row'><div class = 'column'><img src = 'uspos/5600.bmp' width = '100%;'></div><div class = 'column'><img src = 'category3/CS9.png' width = '70%;'></div></div>","null","pos","CS","CS","3","category3/CS9.png","","","","",""
"","html-keyboard-response","61","1466385","0.0-6.0-4.0-0.13","aplzn2l594","many_one","0","indirect_first","0","er07es16","1","22","1","1","3","1","","0","1","0","null","","","<div class = 'row'><div class = 'column'><img src = 'usneg/9435.bmp' width = '100%;'></div><div class = 'column'><img src = 'category4/CS6.png' width = '70%;'></div></div>","null","neg","CS","CS","4","category4/CS6.png","","","","",""
"","html-keyboard-response","62","1468925","0.0-6.0-4.0-0.14","aplzn2l594","many_one","0","indirect_first","0","er07es16","1","22","1","1","3","1","","0","1","0","null","","","<div class = 'row'><div class = 'column'><img src = 'category2/CS7.png' width = '70%;'></div><div class = 'column'><img src = 'uspos/4599.bmp' width = '100%;'></div></div>","null","pos","CS","CS","2","category2/CS7.png","","","","",""
"","html-keyboard-response","63","1471456","0.0-6.0-4.0-0.15","aplzn2l594","many_one","0","indirect_first","0","er07es16","1","22","1","1","3","1","","0","1","0","null","","","<div class = 'row'><div class = 'column'><img src = 'usneg/9920.bmp' width = '100%;'></div><div class = 'column'><img src = 'category1/CS6.png' width = '70%;'></div></div>","null","neg","CS","CS","1","category1/CS6.png","","","","",""
"","html-keyboard-response","64","1473995","0.0-6.0-4.0-0.16","aplzn2l594","many_one","0","indirect_first","0","er07es16","1","22","1","1","3","1","","0","1","0","null","","","<div class = 'row'><div class = 'column'><img src = 'usneg/9290.bmp' width = '100%;'></div><div class = 'column'><img src = 'category4/CS4.png' width = '70%;'></div></div>","null","neg","CS","CS","4","category4/CS4.png","","","","",""
"","html-keyboard-response","65","1476535","0.0-6.0-4.0-0.17","aplzn2l594","many_one","0","indirect_first","0","er07es16","1","22","1","1","3","1","","0","1","0","null","","","<div class = 'row'><div class = 'column'><img src = 'category2/CS2.png' width = '70%;'></div><div class = 'column'><img src = 'uspos/7580.bmp' width = '100%;'></div></div>","null","pos","CS","CS","2","category2/CS2.png","","","","",""
"","html-keyboard-response","66","1479065","0.0-6.0-4.0-0.18","aplzn2l594","many_one","0","indirect_first","0","er07es16","1","22","1","1","3","1","","0","1","0","null","","","<div class = 'row'><div class = 'column'><img src = 'uspos/5621.bmp' width = '100%;'></div><div class = 'column'><img src = 'category2/CS6.png' width = '70%;'></div></div>","null","pos","CS","CS","2","category2/CS6.png","","","","",""
"","html-keyboard-response","67","1481605","0.0-6.0-4.0-0.19","aplzn2l594","many_one","0","indirect_first","0","er07es16","1","22","1","1","3","1","","0","1","0","null","","","<div class = 'row'><div class = 'column'><img src = 'usneg/9180.bmp' width = '100%;'></div><div class = 'column'><img src = 'category4/CS9.png' width = '70%;'></div></div>","null","neg","CS","CS","4","category4/CS9.png","","","","",""
"","survey-html-form","68","1485824","0.0-6.0-5.0","aplzn2l594","many_one","0","indirect_first","0","er07es16","1","22","1","1","3","1","","0","1","0","3699","","{}","","","","","","","","","","","",""
"","html-keyboard-response","69","1489866","0.0-6.0-6.0-0.0","aplzn2l594","many_one","0","indirect_first","0","er07es16","1","22","1","1","3","1","","0","1","0","null","","","<div class = 'row'><div class = 'column'><img src = 'uspos/5760.bmp' width = '100%;'></div><div class = 'column'><img src = 'category2/CS10.png' width = '70%;'></div></div>","null","pos","CS","CS","2","category2/CS10.png","","","","",""
"","html-keyboard-response","70","1492404","0.0-6.0-6.0-0.1","aplzn2l594","many_one","0","indirect_first","0","er07es16","1","22","1","1","3","1","","0","1","0","null","","","<div class = 'row'><div class = 'column'><img src = 'category3/CS1.png' width = '70%;'></div><div class = 'column'><img src = 'uspos/2058.bmp' width = '100%;'></div></div>","null","pos","CS","CS","3","category3/CS1.png","","","","",""
"","html-keyboard-response","71","1494944","0.0-6.0-6.0-0.2","aplzn2l594","many_one","0","indirect_first","0","er07es16","1","22","1","1","3","1","","0","1","0","null","","","<div class = 'row'><div class = 'column'><img src = 'uspos/5621.bmp' width = '100%;'></div><div class = 'column'><img src = 'category2/CS6.png' width = '70%;'></div></div>","null","pos","CS","CS","2","category2/CS6.png","","","","",""
"","html-keyboard-response","72","1497484","0.0-6.0-6.0-0.3","aplzn2l594","many_one","0","indirect_first","0","er07es16","1","22","1","1","3","1","","0","1","0","null","","","<div class = 'row'><div class = 'column'><img src = 'category1/CS5.png' width = '70%;'></div><div class = 'column'><img src = 'usneg/9830.bmp' width = '100%;'></div></div>","null","neg","CS","CS","1","category1/CS5.png","","","","",""
"","html-keyboard-response","73","1500024","0.0-6.0-6.0-0.4","aplzn2l594","many_one","0","indirect_first","0","er07es16","1","22","1","1","3","1","","0","1","0","null","","","<div class = 'row'><div class = 'column'><img src = 'category4/CS8.png' width = '70%;'></div><div class = 'column'><img src = 'usneg/3181.bmp' width = '100%;'></div></div>","null","neg","CS","CS","4","category4/CS8.png","","","","",""
"","html-keyboard-response","74","1502554","0.0-6.0-6.0-0.5","aplzn2l594","many_one","0","indirect_first","0","er07es16","1","22","1","1","3","1","","0","1","0","null","","","<div class = 'row'><div class = 'column'><img src = 'category1/CS8.png' width = '70%;'></div><div class = 'column'><img src = 'usneg/9342.bmp' width = '100%;'></div></div>","null","neg","CS","CS","1","category1/CS8.png","","","","",""
"","html-keyboard-response","75","1505084","0.0-6.0-6.0-0.6","aplzn2l594","many_one","0","indirect_first","0","er07es16","1","22","1","1","3","1","","0","1","0","null","","","<div class = 'row'><div class = 'column'><img src = 'category4/CS9.png' width = '70%;'></div><div class = 'column'><img src = 'usneg/9180.bmp' width = '100%;'></div></div>","null","neg","CS","CS","4","category4/CS9.png","","","","",""
"","html-keyboard-response","76","1507624","0.0-6.0-6.0-0.7","aplzn2l594","many_one","0","indirect_first","0","er07es16","1","22","1","1","3","1","","0","1","0","null","","","<div class = 'row'><div class = 'column'><img src = 'uspos/1463.bmp' width = '100%;'></div><div class = 'column'><img src = 'category3/CS6.png' width = '70%;'></div></div>","null","pos","CS","CS","3","category3/CS6.png","","","","",""
"","html-keyboard-response","77","1510160","0.0-6.0-6.0-0.8","aplzn2l594","many_one","0","indirect_first","0","er07es16","1","22","1","1","3","1","","0","1","0","null","","","<div class = 'row'><div class = 'column'><img src = 'category3/CS7.png' width = '70%;'></div><div class = 'column'><img src = 'uspos/1440.bmp' width = '100%;'></div></div>","null","pos","CS","CS","3","category3/CS7.png","","","","",""
"","html-keyboard-response","78","1512684","0.0-6.0-6.0-0.9","aplzn2l594","many_one","0","indirect_first","0","er07es16","1","22","1","1","3","1","","0","1","0","null","","","<div class = 'row'><div class = 'column'><img src = 'category1/CS10.png' width = '70%;'></div><div class = 'column'><img src = 'usneg/9520.bmp' width = '100%;'></div></div>","null","neg","CS","CS","1","category1/CS10.png","","","","",""
"","html-keyboard-response","79","1515225","0.0-6.0-6.0-0.10","aplzn2l594","many_one","0","indirect_first","0","er07es16","1","22","1","1","3","1","","0","1","0","null","","","<div class = 'row'><div class = 'column'><img src = 'usneg/9435.bmp' width = '100%;'></div><div class = 'column'><img src = 'category4/CS6.png' width = '70%;'></div></div>","null","neg","CS","CS","4","category4/CS6.png","","","","",""
"","html-keyboard-response","80","1517764","0.0-6.0-6.0-0.11","aplzn2l594","many_one","0","indirect_first","0","er07es16","1","22","1","1","3","1","","0","1","0","null","","","<div class = 'row'><div class = 'column'><img src = 'usneg/6212.bmp' width = '100%;'></div><div class = 'column'><img src = 'category4/CS10.png' width = '70%;'></div></div>","null","neg","CS","CS","4","category4/CS10.png","","","","",""
"","html-keyboard-response","81","1520304","0.0-6.0-6.0-0.12","aplzn2l594","many_one","0","indirect_first","0","er07es16","1","22","1","1","3","1","","0","1","0","null","","","<div class = 'row'><div class = 'column'><img src = 'usneg/1280.bmp' width = '100%;'></div><div class = 'column'><img src = 'category1/CS2.png' width = '70%;'></div></div>","null","neg","CS","CS","1","category1/CS2.png","","","","",""
"","html-keyboard-response","82","1522846","0.0-6.0-6.0-0.13","aplzn2l594","many_one","0","indirect_first","0","er07es16","1","22","1","1","3","1","","0","1","0","null","","","<div class = 'row'><div class = 'column'><img src = 'category1/CS6.png' width = '70%;'></div><div class = 'column'><img src = 'usneg/9920.bmp' width = '100%;'></div></div>","null","neg","CS","CS","1","category1/CS6.png","","","","",""
"","html-keyboard-response","83","1525374","0.0-6.0-6.0-0.14","aplzn2l594","many_one","0","indirect_first","0","er07es16","1","22","1","1","3","1","","0","1","0","null","","","<div class = 'row'><div class = 'column'><img src = 'uspos/5831.bmp' width = '100%;'></div><div class = 'column'><img src = 'category2/CS3.png' width = '70%;'></div></div>","null","pos","CS","CS","2","category2/CS3.png","","","","",""
"","html-keyboard-response","84","1527914","0.0-6.0-6.0-0.15","aplzn2l594","many_one","0","indirect_first","0","er07es16","1","22","1","1","3","1","","0","1","0","null","","","<div class = 'row'><div class = 'column'><img src = 'uspos/4599.bmp' width = '100%;'></div><div class = 'column'><img src = 'category2/CS7.png' width = '70%;'></div></div>","null","pos","CS","CS","2","category2/CS7.png","","","","",""
"","html-keyboard-response","85","1530454","0.0-6.0-6.0-0.16","aplzn2l594","many_one","0","indirect_first","0","er07es16","1","22","1","1","3","1","","0","1","0","null","","","<div class = 'row'><div class = 'column'><img src = 'uspos/5600.bmp' width = '100%;'></div><div class = 'column'><img src = 'category3/CS9.png' width = '70%;'></div></div>","null","pos","CS","CS","3","category3/CS9.png","","","","",""
"","html-keyboard-response","86","1532994","0.0-6.0-6.0-0.17","aplzn2l594","many_one","0","indirect_first","0","er07es16","1","22","1","1","3","1","","0","1","0","null","","","<div class = 'row'><div class = 'column'><img src = 'category4/CS4.png' width = '70%;'></div><div class = 'column'><img src = 'usneg/9290.bmp' width = '100%;'></div></div>","null","neg","CS","CS","4","category4/CS4.png","","","","",""
"","html-keyboard-response","87","1535534","0.0-6.0-6.0-0.18","aplzn2l594","many_one","0","indirect_first","0","er07es16","1","22","1","1","3","1","","0","1","0","null","","","<div class = 'row'><div class = 'column'><img src = 'category3/CS10.png' width = '70%;'></div><div class = 'column'><img src = 'uspos/2057.bmp' width = '100%;'></div></div>","null","pos","CS","CS","3","category3/CS10.png","","","","",""
"","html-keyboard-response","88","1538064","0.0-6.0-6.0-0.19","aplzn2l594","many_one","0","indirect_first","0","er07es16","1","22","1","1","3","1","","0","1","0","null","","","<div class = 'row'><div class = 'column'><img src = 'uspos/7580.bmp' width = '100%;'></div><div class = 'column'><img src = 'category2/CS2.png' width = '70%;'></div></div>","null","pos","CS","CS","2","category2/CS2.png","","","","",""
"","html-keyboard-response","89","1588852","0.0-7.0","aplzn2l594","many_one","0","indirect_first","0","er07es16","1","22","1","1","3","1","","0","1","0","50265","","","<p>Sie sehen nun die chinesischen Zeichen nur ganz kurz. Danach sehen Sie die jeweilige Aussprache der Zeichen als Silbe auf dem Bildschrim. Ihre Aufgabe ist es, für jede Silbe anzugeben, ob diese etwas angenehmes, oder unangenehmes bedeuten könnte. Verlassen Sie sich hier vor allem auf Ihre Intuition.<br><br>Die Zeichen werden nur zur Orientierung dargestellt, beachten Sie sie deshalb nicht. Konzentrieren Sie sich vor allem auf die Silben. <br>Reagieren Sie mit folgenden zwei Tasten: <br><br><b>'D' </b> wenn die Silbe etwas <b>unangenehmes</b> bedeuten könnte. <br><b>'K'</b> wenn die Silbe etwas <b>angenehmes</b> bedeuten könnte. <br><br>Bitte legen Sie nun den Zeigefinger der linken Hand auf die Taste 'D' und den Zeigefinger der rechten Hand auf die Taste 'K'. <br>Reagieren Sie auf jede Silbe so schnell wie möglich. Uns interessiert Ihre spontane Reaktion. <br> <br> <br>Drücken Sie 'D' oder 'K', um die nächste Aufgabe zu starten. </p>","68","","","","","","","","","",""
"","html-keyboard-response","90","1591873","0.0-8.0-0.0","aplzn2l594","many_one","0","indirect_first","0","er07es16","1","22","1","1","3","1","","0","1","0","null","","","<div style=""font-size:60px;"">+</div>","null","","","","","","","","","",""
"","html-keyboard-response","91","1591973","0.0-8.0-1.0","aplzn2l594","many_one","0","indirect_first","0","er07es16","1","22","1","1","3","1","","0","1","0","null","","","<img src = 'category1/CS8.png' width = '100%;'>","null","","","","","","","","","",""
"","html-keyboard-response","92","1592252","0.0-8.0-2.0","aplzn2l594","many_one","0","indirect_first","0","er07es16","1","22","1","1","3","1","","0","1","0","null","","","<img src = 'targets/20.png' width = '100%;'>","null","","","","","","","","","",""
"","html-keyboard-response","93","1595625","0.0-8.0-3.0","aplzn2l594","many_one","0","indirect_first","0","er07es16","1","22","1","1","3","1","","0","1","0","3368","","","<img src = 'targets/mask.png' width = '100%;'>","68","neg","CS","CS","1","category1/CS8.png","targets/20.png","0","indirect","0",""
"","html-keyboard-response","94","1597152","0.0-8.0-0.1","aplzn2l594","many_one","0","indirect_first","0","er07es16","1","22","1","1","3","1","","0","1","0","null","","","<div style=""font-size:60px;"">+</div>","null","","","","","","","","","",""
"","html-keyboard-response","95","1597253","0.0-8.0-1.1","aplzn2l594","many_one","0","indirect_first","0","er07es16","1","22","1","1","3","1","","0","1","0","null","","","<img src = 'category4/CS9.png' width = '100%;'>","null","","","","","","","","","",""
"","html-keyboard-response","96","1597532","0.0-8.0-2.1","aplzn2l594","many_one","0","indirect_first","0","er07es16","1","22","1","1","3","1","","0","1","0","null","","","<img src = 'targets/18.png' width = '100%;'>","null","","","","","","","","","",""
"","html-keyboard-response","97","1597745","0.0-8.0-3.1","aplzn2l594","many_one","0","indirect_first","0","er07es16","1","22","1","1","3","1","","0","1","0","211","","","<img src = 'targets/mask.png' width = '100%;'>","75","neg","CS","CS","4","category4/CS9.png","targets/18.png","1","indirect","1",""
"","html-keyboard-response","98","1599272","0.0-8.0-0.2","aplzn2l594","many_one","0","indirect_first","0","er07es16","1","22","1","1","3","1","","0","1","0","null","","","<div style=""font-size:60px;"">+</div>","null","","","","","","","","","",""
"","html-keyboard-response","99","1599372","0.0-8.0-1.2","aplzn2l594","many_one","0","indirect_first","0","er07es16","1","22","1","1","3","1","","0","1","0","null","","","<img src = 'category4/CS4.png' width = '100%;'>","null","","","","","","","","","",""
"","html-keyboard-response","100","1599652","0.0-8.0-2.2","aplzn2l594","many_one","0","indirect_first","0","er07es16","1","22","1","1","3","1","","0","1","0","null","","","<img src = 'targets/28.png' width = '100%;'>","null","","","","","","","","","",""
"","html-keyboard-response","101","1600169","0.0-8.0-3.2","aplzn2l594","many_one","0","indirect_first","0","er07es16","1","22","1","1","3","1","","0","1","0","515","","","<img src = 'targets/mask.png' width = '100%;'>","68","neg","CS","CS","4","category4/CS4.png","targets/28.png","0","indirect","2",""
"","html-keyboard-response","102","1601692","0.0-8.0-0.3","aplzn2l594","many_one","0","indirect_first","0","er07es16","1","22","1","1","3","1","","0","1","0","null","","","<div style=""font-size:60px;"">+</div>","null","","","","","","","","","",""
"","html-keyboard-response","103","1601792","0.0-8.0-1.3","aplzn2l594","many_one","0","indirect_first","0","er07es16","1","22","1","1","3","1","","0","1","0","null","","","<img src = 'category4/CS7.png' width = '100%;'>","null","","","","","","","","","",""
"","html-keyboard-response","104","1602072","0.0-8.0-2.3","aplzn2l594","many_one","0","indirect_first","0","er07es16","1","22","1","1","3","1","","0","1","0","null","","","<img src = 'targets/47.png' width = '100%;'>","null","","","","","","","","","",""
"","html-keyboard-response","105","1602448","0.0-8.0-3.3","aplzn2l594","many_one","0","indirect_first","0","er07es16","1","22","1","1","3","1","","0","1","0","373","","","<img src = 'targets/mask.png' width = '100%;'>","68","neg","GS","GSold","4","category4/CS7.png","targets/47.png","0","indirect","3",""
"","html-keyboard-response","106","1603972","0.0-8.0-0.4","aplzn2l594","many_one","0","indirect_first","0","er07es16","1","22","1","1","3","1","","0","1","0","null","","","<div style=""font-size:60px;"">+</div>","null","","","","","","","","","",""
"","html-keyboard-response","107","1604073","0.0-8.0-1.4","aplzn2l594","many_one","0","indirect_first","0","er07es16","1","22","1","1","3","1","","0","1","0","null","","","<img src = 'category2/CS3.png' width = '100%;'>","null","","","","","","","","","",""
"","html-keyboard-response","108","1604352","0.0-8.0-2.4","aplzn2l594","many_one","0","indirect_first","0","er07es16","1","22","1","1","3","1","","0","1","0","null","","","<img src = 'targets/8.png' width = '100%;'>","null","","","","","","","","","",""
"","html-keyboard-response","109","1604641","0.0-8.0-3.4","aplzn2l594","many_one","0","indirect_first","0","er07es16","1","22","1","1","3","1","","0","1","0","285","","","<img src = 'targets/mask.png' width = '100%;'>","75","pos","CS","CS","2","category2/CS3.png","targets/8.png","1","indirect","4",""
"","html-keyboard-response","110","1606162","0.0-8.0-0.5","aplzn2l594","many_one","0","indirect_first","0","er07es16","1","22","1","1","3","1","","0","1","0","null","","","<div style=""font-size:60px;"">+</div>","null","","","","","","","","","",""
"","html-keyboard-response","111","1606262","0.0-8.0-1.5","aplzn2l594","many_one","0","indirect_first","0","er07es16","1","22","1","1","3","1","","0","1","0","null","","","<img src = 'category1/CS5.png' width = '100%;'>","null","","","","","","","","","",""
"","html-keyboard-response","112","1606542","0.0-8.0-2.5","aplzn2l594","many_one","0","indirect_first","0","er07es16","1","22","1","1","3","1","","0","1","0","null","","","<img src = 'targets/12.png' width = '100%;'>","null","","","","","","","","","",""
"","html-keyboard-response","113","1607066","0.0-8.0-3.5","aplzn2l594","many_one","0","indirect_first","0","er07es16","1","22","1","1","3","1","","0","1","0","521","","","<img src = 'targets/mask.png' width = '100%;'>","75","neg","CS","CS","1","category1/CS5.png","targets/12.png","1","indirect","5",""
"","html-keyboard-response","114","1608602","0.0-8.0-0.6","aplzn2l594","many_one","0","indirect_first","0","er07es16","1","22","1","1","3","1","","0","1","0","null","","","<div style=""font-size:60px;"">+</div>","null","","","","","","","","","",""
"","html-keyboard-response","115","1608702","0.0-8.0-1.6","aplzn2l594","many_one","0","indirect_first","0","er07es16","1","22","1","1","3","1","","0","1","0","null","","","<img src = 'category1/CS10.png' width = '100%;'>","null","","","","","","","","","",""
"","html-keyboard-response","116","1608982","0.0-8.0-2.6","aplzn2l594","many_one","0","indirect_first","0","er07es16","1","22","1","1","3","1","","0","1","0","null","","","<img src = 'targets/3.png' width = '100%;'>","null","","","","","","","","","",""
"","html-keyboard-response","117","1609344","0.0-8.0-3.6","aplzn2l594","many_one","0","indirect_first","0","er07es16","1","22","1","1","3","1","","0","1","0","361","","","<img src = 'targets/mask.png' width = '100%;'>","68","neg","CS","CS","1","category1/CS10.png","targets/3.png","0","indirect","6",""
"","html-keyboard-response","118","1610883","0.0-8.0-0.7","aplzn2l594","many_one","0","indirect_first","0","er07es16","1","22","1","1","3","1","","0","1","0","null","","","<div style=""font-size:60px;"">+</div>","null","","","","","","","","","",""
"","html-keyboard-response","119","1610981","0.0-8.0-1.7","aplzn2l594","many_one","0","indirect_first","0","er07es16","1","22","1","1","3","1","","0","1","0","null","","","<img src = 'category3/CS6.png' width = '100%;'>","null","","","","","","","","","",""
"","html-keyboard-response","120","1611262","0.0-8.0-2.7","aplzn2l594","many_one","0","indirect_first","0","er07es16","1","22","1","1","3","1","","0","1","0","null","","","<img src = 'targets/38.png' width = '100%;'>","null","","","","","","","","","",""
"","html-keyboard-response","121","1611696","0.0-8.0-3.7","aplzn2l594","many_one","0","indirect_first","0","er07es16","1","22","1","1","3","1","","0","1","0","432","","","<img src = 'targets/mask.png' width = '100%;'>","75","pos","CS","CS","3","category3/CS6.png","targets/38.png","1","indirect","7",""
"","html-keyboard-response","122","1613222","0.0-8.0-0.8","aplzn2l594","many_one","0","indirect_first","0","er07es16","1","22","1","1","3","1","","0","1","0","null","","","<div style=""font-size:60px;"">+</div>","null","","","","","","","","","",""
"","html-keyboard-response","123","1613322","0.0-8.0-1.8","aplzn2l594","many_one","0","indirect_first","0","er07es16","1","22","1","1","3","1","","0","1","0","null","","","<img src = 'category3/CS10.png' width = '100%;'>","null","","","","","","","","","",""
"","html-keyboard-response","124","1613602","0.0-8.0-2.8","aplzn2l594","many_one","0","indirect_first","0","er07es16","1","22","1","1","3","1","","0","1","0","null","","","<img src = 'targets/34.png' width = '100%;'>","null","","","","","","","","","",""
"","html-keyboard-response","125","1613745","0.0-8.0-3.8","aplzn2l594","many_one","0","indirect_first","0","er07es16","1","22","1","1","3","1","","0","1","0","142","","","<img src = 'targets/mask.png' width = '100%;'>","75","pos","CS","CS","3","category3/CS10.png","targets/34.png","1","indirect","8",""
"","html-keyboard-response","126","1615281","0.0-8.0-0.9","aplzn2l594","many_one","0","indirect_first","0","er07es16","1","22","1","1","3","1","","0","1","0","null","","","<div style=""font-size:60px;"">+</div>","null","","","","","","","","","",""
"","html-keyboard-response","127","1615382","0.0-8.0-1.9","aplzn2l594","many_one","0","indirect_first","0","er07es16","1","22","1","1","3","1","","0","1","0","null","","","<img src = 'category3/CS7.png' width = '100%;'>","null","","","","","","","","","",""
"","html-keyboard-response","128","1615662","0.0-8.0-2.9","aplzn2l594","many_one","0","indirect_first","0","er07es16","1","22","1","1","3","1","","0","1","0","null","","","<img src = 'targets/16.png' width = '100%;'>","null","","","","","","","","","",""
"","html-keyboard-response","129","1615865","0.0-8.0-3.9","aplzn2l594","many_one","0","indirect_first","0","er07es16","1","22","1","1","3","1","","0","1","0","201","","","<img src = 'targets/mask.png' width = '100%;'>","75","pos","CS","CS","3","category3/CS7.png","targets/16.png","1","indirect","9",""
"","html-keyboard-response","130","1617403","0.0-8.0-0.10","aplzn2l594","many_one","0","indirect_first","0","er07es16","1","22","1","1","3","1","","0","1","0","null","","","<div style=""font-size:60px;"">+</div>","null","","","","","","","","","",""
"","html-keyboard-response","131","1617502","0.0-8.0-1.10","aplzn2l594","many_one","0","indirect_first","0","er07es16","1","22","1","1","3","1","","0","1","0","null","","","<img src = 'category2/CS10.png' width = '100%;'>","null","","","","","","","","","",""
"","html-keyboard-response","132","1617782","0.0-8.0-2.10","aplzn2l594","many_one","0","indirect_first","0","er07es16","1","22","1","1","3","1","","0","1","0","null","","","<img src = 'targets/4.png' width = '100%;'>","null","","","","","","","","","",""
"","html-keyboard-response","133","1617984","0.0-8.0-3.10","aplzn2l594","many_one","0","indirect_first","0","er07es16","1","22","1","1","3","1","","0","1","0","200","","","<img src = 'targets/mask.png' width = '100%;'>","68","pos","CS","CS","2","category2/CS10.png","targets/4.png","0","indirect","10",""
"","html-keyboard-response","134","1619522","0.0-8.0-0.11","aplzn2l594","many_one","0","indirect_first","0","er07es16","1","22","1","1","3","1","","0","1","0","null","","","<div style=""font-size:60px;"">+</div>","null","","","","","","","","","",""
"","html-keyboard-response","135","1619622","0.0-8.0-1.11","aplzn2l594","many_one","0","indirect_first","0","er07es16","1","22","1","1","3","1","","0","1","0","null","","","<img src = 'category1/CS2.png' width = '100%;'>","null","","","","","","","","","",""
"","html-keyboard-response","136","1619902","0.0-8.0-2.11","aplzn2l594","many_one","0","indirect_first","0","er07es16","1","22","1","1","3","1","","0","1","0","null","","","<img src = 'targets/31.png' width = '100%;'>","null","","","","","","","","","",""
"","html-keyboard-response","137","1620304","0.0-8.0-3.11","aplzn2l594","many_one","0","indirect_first","0","er07es16","1","22","1","1","3","1","","0","1","0","402","","","<img src = 'targets/mask.png' width = '100%;'>","68","neg","CS","CS","1","category1/CS2.png","targets/31.png","0","indirect","11",""
"","html-keyboard-response","138","1621842","0.0-8.0-0.12","aplzn2l594","many_one","0","indirect_first","0","er07es16","1","22","1","1","3","1","","0","1","0","null","","","<div style=""font-size:60px;"">+</div>","null","","","","","","","","","",""
"","html-keyboard-response","139","1621942","0.0-8.0-1.12","aplzn2l594","many_one","0","indirect_first","0","er07es16","1","22","1","1","3","1","","0","1","0","null","","","<img src = 'category2/CS2.png' width = '100%;'>","null","","","","","","","","","",""
"","html-keyboard-response","140","1622222","0.0-8.0-2.12","aplzn2l594","many_one","0","indirect_first","0","er07es16","1","22","1","1","3","1","","0","1","0","null","","","<img src = 'targets/21.png' width = '100%;'>","null","","","","","","","","","",""
"","html-keyboard-response","141","1622448","0.0-8.0-3.12","aplzn2l594","many_one","0","indirect_first","0","er07es16","1","22","1","1","3","1","","0","1","0","225","","","<img src = 'targets/mask.png' width = '100%;'>","75","pos","CS","CS","2","category2/CS2.png","targets/21.png","1","indirect","12",""
"","html-keyboard-response","142","1623982","0.0-8.0-0.13","aplzn2l594","many_one","0","indirect_first","0","er07es16","1","22","1","1","3","1","","0","1","0","null","","","<div style=""font-size:60px;"">+</div>","null","","","","","","","","","",""
"","html-keyboard-response","143","1624081","0.0-8.0-1.13","aplzn2l594","many_one","0","indirect_first","0","er07es16","1","22","1","1","3","1","","0","1","0","null","","","<img src = 'category2/CS6.png' width = '100%;'>","null","","","","","","","","","",""
"","html-keyboard-response","144","1624357","0.0-8.0-2.13","aplzn2l594","many_one","0","indirect_first","0","er07es16","1","22","1","1","3","1","","0","1","0","null","","","<img src = 'targets/25.png' width = '100%;'>","null","","","","","","","","","",""
"","html-keyboard-response","145","1624584","0.0-8.0-3.13","aplzn2l594","many_one","0","indirect_first","0","er07es16","1","22","1","1","3","1","","0","1","0","226","","","<img src = 'targets/mask.png' width = '100%;'>","75","pos","CS","CS","2","category2/CS6.png","targets/25.png","1","indirect","13",""
"","html-keyboard-response","146","1626121","0.0-8.0-0.14","aplzn2l594","many_one","0","indirect_first","0","er07es16","1","22","1","1","3","1","","0","1","0","null","","","<div style=""font-size:60px;"">+</div>","null","","","","","","","","","",""
"","html-keyboard-response","147","1626221","0.0-8.0-1.14","aplzn2l594","many_one","0","indirect_first","0","er07es16","1","22","1","1","3","1","","0","1","0","null","","","<img src = 'category4/CS2.png' width = '100%;'>","null","","","","","","","","","",""
"","html-keyboard-response","148","1626497","0.0-8.0-2.14","aplzn2l594","many_one","0","indirect_first","0","er07es16","1","22","1","1","3","1","","0","1","0","null","","","<img src = 'targets/48.png' width = '100%;'>","null","","","","","","","","","",""
"","html-keyboard-response","149","1627062","0.0-8.0-3.14","aplzn2l594","many_one","0","indirect_first","0","er07es16","1","22","1","1","3","1","","0","1","0","564","","","<img src = 'targets/mask.png' width = '100%;'>","68","neg","GS","GSold","4","category4/CS2.png","targets/48.png","0","indirect","14",""
"","html-keyboard-response","150","1628591","0.0-8.0-0.15","aplzn2l594","many_one","0","indirect_first","0","er07es16","1","22","1","1","3","1","","0","1","0","null","","","<div style=""font-size:60px;"">+</div>","null","","","","","","","","","",""
"","html-keyboard-response","151","1628702","0.0-8.0-1.15","aplzn2l594","many_one","0","indirect_first","0","er07es16","1","22","1","1","3","1","","0","1","0","null","","","<img src = 'category2/CS7.png' width = '100%;'>","null","","","","","","","","","",""
"","html-keyboard-response","152","1628982","0.0-8.0-2.15","aplzn2l594","many_one","0","indirect_first","0","er07es16","1","22","1","1","3","1","","0","1","0","null","","","<img src = 'targets/11.png' width = '100%;'>","null","","","","","","","","","",""
"","html-keyboard-response","153","1629142","0.0-8.0-3.15","aplzn2l594","many_one","0","indirect_first","0","er07es16","1","22","1","1","3","1","","0","1","0","160","","","<img src = 'targets/mask.png' width = '100%;'>","75","pos","CS","CS","2","category2/CS7.png","targets/11.png","1","indirect","15",""
"","html-keyboard-response","154","1630682","0.0-8.0-0.16","aplzn2l594","many_one","0","indirect_first","0","er07es16","1","22","1","1","3","1","","0","1","0","null","","","<div style=""font-size:60px;"">+</div>","null","","","","","","","","","",""
"","html-keyboard-response","155","1630781","0.0-8.0-1.16","aplzn2l594","many_one","0","indirect_first","0","er07es16","1","22","1","1","3","1","","0","1","0","null","","","<img src = 'category3/CS1.png' width = '100%;'>","null","","","","","","","","","",""
"","html-keyboard-response","156","1631057","0.0-8.0-2.16","aplzn2l594","many_one","0","indirect_first","0","er07es16","1","22","1","1","3","1","","0","1","0","null","","","<img src = 'targets/1.png' width = '100%;'>","null","","","","","","","","","",""
"","html-keyboard-response","157","1631294","0.0-8.0-3.16","aplzn2l594","many_one","0","indirect_first","0","er07es16","1","22","1","1","3","1","","0","1","0","235","","","<img src = 'targets/mask.png' width = '100%;'>","75","pos","CS","CS","3","category3/CS1.png","targets/1.png","1","indirect","16",""
"","html-keyboard-response","158","1632818","0.0-8.0-0.17","aplzn2l594","many_one","0","indirect_first","0","er07es16","1","22","1","1","3","1","","0","1","0","null","","","<div style=""font-size:60px;"">+</div>","null","","","","","","","","","",""
"","html-keyboard-response","159","1632921","0.0-8.0-1.17","aplzn2l594","many_one","0","indirect_first","0","er07es16","1","22","1","1","3","1","","0","1","0","null","","","<img src = 'category4/CS6.png' width = '100%;'>","null","","","","","","","","","",""
"","html-keyboard-response","160","1633201","0.0-8.0-2.17","aplzn2l594","many_one","0","indirect_first","0","er07es16","1","22","1","1","3","1","","0","1","0","null","","","<img src = 'targets/39.png' width = '100%;'>","null","","","","","","","","","",""
"","html-keyboard-response","161","1633366","0.0-8.0-3.17","aplzn2l594","many_one","0","indirect_first","0","er07es16","1","22","1","1","3","1","","0","1","0","164","","","<img src = 'targets/mask.png' width = '100%;'>","68","neg","CS","CS","4","category4/CS6.png","targets/39.png","0","indirect","17",""
"","html-keyboard-response","162","1634871","0.0-8.0-0.18","aplzn2l594","many_one","0","indirect_first","0","er07es16","1","22","1","1","3","1","","0","1","0","null","","","<div style=""font-size:60px;"">+</div>","null","","","","","","","","","",""
"","html-keyboard-response","163","1634981","0.0-8.0-1.18","aplzn2l594","many_one","0","indirect_first","0","er07es16","1","22","1","1","3","1","","0","1","0","null","","","<img src = 'category4/CS10.png' width = '100%;'>","null","","","","","","","","","",""
"","html-keyboard-response","164","1635261","0.0-8.0-2.18","aplzn2l594","many_one","0","indirect_first","0","er07es16","1","22","1","1","3","1","","0","1","0","null","","","<img src = 'targets/15.png' width = '100%;'>","null","","","","","","","","","",""
"","html-keyboard-response","165","1635534","0.0-8.0-3.18","aplzn2l594","many_one","0","indirect_first","0","er07es16","1","22","1","1","3","1","","0","1","0","273","","","<img src = 'targets/mask.png' width = '100%;'>","68","neg","CS","CS","4","category4/CS10.png","targets/15.png","0","indirect","18",""
"","html-keyboard-response","166","1637061","0.0-8.0-0.19","aplzn2l594","many_one","0","indirect_first","0","er07es16","1","22","1","1","3","1","","0","1","0","null","","","<div style=""font-size:60px;"">+</div>","null","","","","","","","","","",""
"","html-keyboard-response","167","1637162","0.0-8.0-1.19","aplzn2l594","many_one","0","indirect_first","0","er07es16","1","22","1","1","3","1","","0","1","0","null","","","<img src = 'category1/CS6.png' width = '100%;'>","null","","","","","","","","","",""
"","html-keyboard-response","168","1637441","0.0-8.0-2.19","aplzn2l594","many_one","0","indirect_first","0","er07es16","1","22","1","1","3","1","","0","1","0","null","","","<img src = 'targets/41.png' width = '100%;'>","null","","","","","","","","","",""
"","html-keyboard-response","169","1637880","0.0-8.0-3.19","aplzn2l594","many_one","0","indirect_first","0","er07es16","1","22","1","1","3","1","","0","1","0","436","","","<img src = 'targets/mask.png' width = '100%;'>","68","neg","CS","CS","1","category1/CS6.png","targets/41.png","0","indirect","19",""
"","html-keyboard-response","170","1639402","0.0-8.0-0.20","aplzn2l594","many_one","0","indirect_first","0","er07es16","1","22","1","1","3","1","","0","1","0","null","","","<div style=""font-size:60px;"">+</div>","null","","","","","","","","","",""
"","html-keyboard-response","171","1639502","0.0-8.0-1.20","aplzn2l594","many_one","0","indirect_first","0","er07es16","1","22","1","1","3","1","","0","1","0","null","","","<img src = 'category3/CS9.png' width = '100%;'>","null","","","","","","","","","",""
"","html-keyboard-response","172","1639782","0.0-8.0-2.20","aplzn2l594","many_one","0","indirect_first","0","er07es16","1","22","1","1","3","1","","0","1","0","null","","","<img src = 'targets/46.png' width = '100%;'>","null","","","","","","","","","",""
"","html-keyboard-response","173","1639888","0.0-8.0-3.20","aplzn2l594","many_one","0","indirect_first","0","er07es16","1","22","1","1","3","1","","0","1","0","104","","","<img src = 'targets/mask.png' width = '100%;'>","75","pos","CS","CS","3","category3/CS9.png","targets/46.png","1","indirect","20",""
"","html-keyboard-response","174","1641422","0.0-8.0-0.21","aplzn2l594","many_one","0","indirect_first","0","er07es16","1","22","1","1","3","1","","0","1","0","null","","","<div style=""font-size:60px;"">+</div>","null","","","","","","","","","",""
"","html-keyboard-response","175","1641521","0.0-8.0-1.21","aplzn2l594","many_one","0","indirect_first","0","er07es16","1","22","1","1","3","1","","0","1","0","null","","","<img src = 'category4/CS1.png' width = '100%;'>","null","","","","","","","","","",""
"","html-keyboard-response","176","1641802","0.0-8.0-2.21","aplzn2l594","many_one","0","indirect_first","0","er07es16","1","22","1","1","3","1","","0","1","0","null","","","<img src = 'targets/37.png' width = '100%;'>","null","","","","","","","","","",""
"","html-keyboard-response","177","1642168","0.0-8.0-3.21","aplzn2l594","many_one","0","indirect_first","0","er07es16","1","22","1","1","3","1","","0","1","0","364","","","<img src = 'targets/mask.png' width = '100%;'>","68","neg","GS","GSold","4","category4/CS1.png","targets/37.png","0","indirect","21",""
"","html-keyboard-response","178","1643702","0.0-8.0-0.22","aplzn2l594","many_one","0","indirect_first","0","er07es16","1","22","1","1","3","1","","0","1","0","null","","","<div style=""font-size:60px;"">+</div>","null","","","","","","","","","",""
"","html-keyboard-response","179","1643802","0.0-8.0-1.22","aplzn2l594","many_one","0","indirect_first","0","er07es16","1","22","1","1","3","1","","0","1","0","null","","","<img src = 'category4/CS8.png' width = '100%;'>","null","","","","","","","","","",""
"","html-keyboard-response","180","1644072","0.0-8.0-2.22","aplzn2l594","many_one","0","indirect_first","0","er07es16","1","22","1","1","3","1","","0","1","0","null","","","<img src = 'targets/43.png' width = '100%;'>","null","","","","","","","","","",""
"","html-keyboard-response","181","1644376","0.0-8.0-3.22","aplzn2l594","many_one","0","indirect_first","0","er07es16","1","22","1","1","3","1","","0","1","0","302","","","<img src = 'targets/mask.png' width = '100%;'>","68","neg","CS","CS","4","category4/CS8.png","targets/43.png","0","indirect","22",""
"","html-keyboard-response","182","1645901","0.0-8.0-0.23","aplzn2l594","many_one","0","indirect_first","0","er07es16","1","22","1","1","3","1","","0","1","0","null","","","<div style=""font-size:60px;"">+</div>","null","","","","","","","","","",""
"","html-keyboard-response","183","1646002","0.0-8.0-1.23","aplzn2l594","many_one","0","indirect_first","0","er07es16","1","22","1","1","3","1","","0","1","0","null","","","<img src = 'category3/CS8.png' width = '100%;'>","null","","","","","","","","","",""
"","html-keyboard-response","184","1646282","0.0-8.0-2.23","aplzn2l594","many_one","0","indirect_first","0","er07es16","1","22","1","1","3","1","","0","1","0","null","","","<img src = 'targets/24.png' width = '100%;'>","null","","","","","","","","","",""
"","html-keyboard-response","185","1646384","0.0-8.0-3.23","aplzn2l594","many_one","0","indirect_first","0","er07es16","1","22","1","1","3","1","","0","1","0","101","","","<img src = 'targets/mask.png' width = '100%;'>","75","pos","GS","GSold","3","category3/CS8.png","targets/24.png","1","indirect","23",""
"","survey-html-form","186","1650413","0.0-9.0","aplzn2l594","many_one","0","indirect_first","0","er07es16","1","22","1","1","3","1","","0","1","0","3510","","{}","","","","","","","","","","","",""
"","html-keyboard-response","187","1653442","0.0-10.0-0.0","aplzn2l594","many_one","0","indirect_first","0","er07es16","1","22","1","1","3","1","","0","1","0","null","","","<div style=""font-size:60px;"">+</div>","null","","","","","","","","","",""
"","html-keyboard-response","188","1653542","0.0-10.0-1.0","aplzn2l594","many_one","0","indirect_first","0","er07es16","1","22","1","1","3","1","","0","1","0","null","","","<img src = 'category4/lin.png' width = '100%;'>","null","","","","","","","","","",""
"","html-keyboard-response","189","1653822","0.0-10.0-2.0","aplzn2l594","many_one","0","indirect_first","0","er07es16","1","22","1","1","3","1","","0","1","0","null","","","<img src = 'targets/13.png' width = '100%;'>","null","","","","","","","","","",""
"","html-keyboard-response","190","1654984","0.0-10.0-3.0","aplzn2l594","many_one","0","indirect_first","0","er07es16","1","22","1","1","3","1","","0","1","0","1161","","","<img src = 'targets/mask.png' width = '100%;'>","68","neg","GS","abstract","4","category4/lin.png","targets/13.png","0","indirect","24",""
"","html-keyboard-response","191","1656511","0.0-10.0-0.1","aplzn2l594","many_one","0","indirect_first","0","er07es16","1","22","1","1","3","1","","0","1","0","null","","","<div style=""font-size:60px;"">+</div>","null","","","","","","","","","",""
"","html-keyboard-response","192","1656612","0.0-10.0-1.1","aplzn2l594","many_one","0","indirect_first","0","er07es16","1","22","1","1","3","1","","0","1","0","null","","","<img src = 'category2/CS8.png' width = '100%;'>","null","","","","","","","","","",""
"","html-keyboard-response","193","1656891","0.0-10.0-2.1","aplzn2l594","many_one","0","indirect_first","0","er07es16","1","22","1","1","3","1","","0","1","0","null","","","<img src = 'targets/42.png' width = '100%;'>","null","","","","","","","","","",""
"","html-keyboard-response","194","1657312","0.0-10.0-3.1","aplzn2l594","many_one","0","indirect_first","0","er07es16","1","22","1","1","3","1","","0","1","0","419","","","<img src = 'targets/mask.png' width = '100%;'>","75","pos","GS","GSold","2","category2/CS8.png","targets/42.png","1","indirect","25",""
"","html-keyboard-response","195","1658841","0.0-10.0-0.2","aplzn2l594","many_one","0","indirect_first","0","er07es16","1","22","1","1","3","1","","0","1","0","null","","","<div style=""font-size:60px;"">+</div>","null","","","","","","","","","",""
"","html-keyboard-response","196","1658941","0.0-10.0-1.2","aplzn2l594","many_one","0","indirect_first","0","er07es16","1","22","1","1","3","1","","0","1","0","null","","","<img src = 'category2/GS1.png' width = '100%;'>","null","","","","","","","","","",""
"","html-keyboard-response","197","1659222","0.0-10.0-2.2","aplzn2l594","many_one","0","indirect_first","0","er07es16","1","22","1","1","3","1","","0","1","0","null","","","<img src = 'targets/22.png' width = '100%;'>","null","","","","","","","","","",""
"","html-keyboard-response","198","1659720","0.0-10.0-3.2","aplzn2l594","many_one","0","indirect_first","0","er07es16","1","22","1","1","3","1","","0","1","0","496","","","<img src = 'targets/mask.png' width = '100%;'>","68","pos","GS","GSnew","2","category2/GS1.png","targets/22.png","0","indirect","26",""
"","html-keyboard-response","199","1661242","0.0-10.0-0.3","aplzn2l594","many_one","0","indirect_first","0","er07es16","1","22","1","1","3","1","","0","1","0","null","","","<div style=""font-size:60px;"">+</div>","null","","","","","","","","","",""
"","html-keyboard-response","200","1661341","0.0-10.0-1.3","aplzn2l594","many_one","0","indirect_first","0","er07es16","1","22","1","1","3","1","","0","1","0","null","","","<img src = 'category1/CS1.png' width = '100%;'>","null","","","","","","","","","",""
"","html-keyboard-response","201","1661621","0.0-10.0-2.3","aplzn2l594","many_one","0","indirect_first","0","er07es16","1","22","1","1","3","1","","0","1","0","null","","","<img src = 'targets/40.png' width = '100%;'>","null","","","","","","","","","",""
"","html-keyboard-response","202","1662096","0.0-10.0-3.3","aplzn2l594","many_one","0","indirect_first","0","er07es16","1","22","1","1","3","1","","0","1","0","472","","","<img src = 'targets/mask.png' width = '100%;'>","68","neg","GS","GSold","1","category1/CS1.png","targets/40.png","0","indirect","27",""
"","html-keyboard-response","203","1663621","0.0-10.0-0.4","aplzn2l594","many_one","0","indirect_first","0","er07es16","1","22","1","1","3","1","","0","1","0","null","","","<div style=""font-size:60px;"">+</div>","null","","","","","","","","","",""
"","html-keyboard-response","204","1663722","0.0-10.0-1.4","aplzn2l594","many_one","0","indirect_first","0","er07es16","1","22","1","1","3","1","","0","1","0","null","","","<img src = 'category1/CS4.png' width = '100%;'>","null","","","","","","","","","",""
"","html-keyboard-response","205","1664001","0.0-10.0-2.4","aplzn2l594","many_one","0","indirect_first","0","er07es16","1","22","1","1","3","1","","0","1","0","null","","","<img src = 'targets/19.png' width = '100%;'>","null","","","","","","","","","",""
"","html-keyboard-response","206","1664247","0.0-10.0-3.4","aplzn2l594","many_one","0","indirect_first","0","er07es16","1","22","1","1","3","1","","0","1","0","245","","","<img src = 'targets/mask.png' width = '100%;'>","68","neg","GS","GSold","1","category1/CS4.png","targets/19.png","0","indirect","28",""
"","html-keyboard-response","207","1665781","0.0-10.0-0.5","aplzn2l594","many_one","0","indirect_first","0","er07es16","1","22","1","1","3","1","","0","1","0","null","","","<div style=""font-size:60px;"">+</div>","null","","","","","","","","","",""
"","html-keyboard-response","208","1665881","0.0-10.0-1.5","aplzn2l594","many_one","0","indirect_first","0","er07es16","1","22","1","1","3","1","","0","1","0","null","","","<img src = 'category2/men.png' width = '100%;'>","null","","","","","","","","","",""
"","html-keyboard-response","209","1666161","0.0-10.0-2.5","aplzn2l594","many_one","0","indirect_first","0","er07es16","1","22","1","1","3","1","","0","1","0","null","","","<img src = 'targets/10.png' width = '100%;'>","null","","","","","","","","","",""
"","html-keyboard-response","210","1667967","0.0-10.0-3.5","aplzn2l594","many_one","0","indirect_first","0","er07es16","1","22","1","1","3","1","","0","1","0","1805","","","<img src = 'targets/mask.png' width = '100%;'>","68","pos","GS","abstract","2","category2/men.png","targets/10.png","0","indirect","29",""
"","html-keyboard-response","211","1669491","0.0-10.0-0.6","aplzn2l594","many_one","0","indirect_first","0","er07es16","1","22","1","1","3","1","","0","1","0","null","","","<div style=""font-size:60px;"">+</div>","null","","","","","","","","","",""
"","html-keyboard-response","212","1669591","0.0-10.0-1.6","aplzn2l594","many_one","0","indirect_first","0","er07es16","1","22","1","1","3","1","","0","1","0","null","","","<img src = 'category2/CS1.png' width = '100%;'>","null","","","","","","","","","",""
"","html-keyboard-response","213","1669872","0.0-10.0-2.6","aplzn2l594","many_one","0","indirect_first","0","er07es16","1","22","1","1","3","1","","0","1","0","null","","","<img src = 'targets/32.png' width = '100%;'>","null","","","","","","","","","",""
"","html-keyboard-response","214","1670296","0.0-10.0-3.6","aplzn2l594","many_one","0","indirect_first","0","er07es16","1","22","1","1","3","1","","0","1","0","421","","","<img src = 'targets/mask.png' width = '100%;'>","75","pos","GS","GSold","2","category2/CS1.png","targets/32.png","1","indirect","30",""
"","html-keyboard-response","215","1671831","0.0-10.0-0.7","aplzn2l594","many_one","0","indirect_first","0","er07es16","1","22","1","1","3","1","","0","1","0","null","","","<div style=""font-size:60px;"">+</div>","null","","","","","","","","","",""
"","html-keyboard-response","216","1671931","0.0-10.0-1.7","aplzn2l594","many_one","0","indirect_first","0","er07es16","1","22","1","1","3","1","","0","1","0","null","","","<img src = 'category4/GS2.png' width = '100%;'>","null","","","","","","","","","",""
"","html-keyboard-response","217","1672211","0.0-10.0-2.7","aplzn2l594","many_one","0","indirect_first","0","er07es16","1","22","1","1","3","1","","0","1","0","null","","","<img src = 'targets/26.png' width = '100%;'>","null","","","","","","","","","",""
"","html-keyboard-response","218","1672760","0.0-10.0-3.7","aplzn2l594","many_one","0","indirect_first","0","er07es16","1","22","1","1","3","1","","0","1","0","546","","","<img src = 'targets/mask.png' width = '100%;'>","75","neg","GS","GSnew","4","category4/GS2.png","targets/26.png","1","indirect","31",""
"","html-keyboard-response","219","1674281","0.0-10.0-0.8","aplzn2l594","many_one","0","indirect_first","0","er07es16","1","22","1","1","3","1","","0","1","0","null","","","<div style=""font-size:60px;"">+</div>","null","","","","","","","","","",""
"","html-keyboard-response","220","1674381","0.0-10.0-1.8","aplzn2l594","many_one","0","indirect_first","0","er07es16","1","22","1","1","3","1","","0","1","0","null","","","<img src = 'category3/wang.png' width = '100%;'>","null","","","","","","","","","",""
"","html-keyboard-response","221","1674662","0.0-10.0-2.8","aplzn2l594","many_one","0","indirect_first","0","er07es16","1","22","1","1","3","1","","0","1","0","null","","","<img src = 'targets/5.png' width = '100%;'>","null","","","","","","","","","",""
"","html-keyboard-response","222","1676135","0.0-10.0-3.8","aplzn2l594","many_one","0","indirect_first","0","er07es16","1","22","1","1","3","1","","0","1","0","1472","","","<img src = 'targets/mask.png' width = '100%;'>","75","pos","GS","abstract","3","category3/wang.png","targets/5.png","1","indirect","32",""
"","html-keyboard-response","223","1677661","0.0-10.0-0.9","aplzn2l594","many_one","0","indirect_first","0","er07es16","1","22","1","1","3","1","","0","1","0","null","","","<div style=""font-size:60px;"">+</div>","null","","","","","","","","","",""
"","html-keyboard-response","224","1677761","0.0-10.0-1.9","aplzn2l594","many_one","0","indirect_first","0","er07es16","1","22","1","1","3","1","","0","1","0","null","","","<img src = 'category3/GS3.png' width = '100%;'>","null","","","","","","","","","",""
"","html-keyboard-response","225","1678041","0.0-10.0-2.9","aplzn2l594","many_one","0","indirect_first","0","er07es16","1","22","1","1","3","1","","0","1","0","null","","","<img src = 'targets/9.png' width = '100%;'>","null","","","","","","","","","",""
"","html-keyboard-response","226","1678695","0.0-10.0-3.9","aplzn2l594","many_one","0","indirect_first","0","er07es16","1","22","1","1","3","1","","0","1","0","653","","","<img src = 'targets/mask.png' width = '100%;'>","68","pos","GS","GSnew","3","category3/GS3.png","targets/9.png","0","indirect","33",""
"","html-keyboard-response","227","1680211","0.0-10.0-0.10","aplzn2l594","many_one","0","indirect_first","0","er07es16","1","22","1","1","3","1","","0","1","0","null","","","<div style=""font-size:60px;"">+</div>","null","","","","","","","","","",""
"","html-keyboard-response","228","1680311","0.0-10.0-1.10","aplzn2l594","many_one","0","indirect_first","0","er07es16","1","22","1","1","3","1","","0","1","0","null","","","<img src = 'category3/CS3.png' width = '100%;'>","null","","","","","","","","","",""
"","html-keyboard-response","229","1680591","0.0-10.0-2.10","aplzn2l594","many_one","0","indirect_first","0","er07es16","1","22","1","1","3","1","","0","1","0","null","","","<img src = 'targets/44.png' width = '100%;'>","null","","","","","","","","","",""
"","html-keyboard-response","230","1680687","0.0-10.0-3.10","aplzn2l594","many_one","0","indirect_first","0","er07es16","1","22","1","1","3","1","","0","1","0","94","","","<img src = 'targets/mask.png' width = '100%;'>","75","pos","GS","GSold","3","category3/CS3.png","targets/44.png","1","indirect","34",""
"","html-keyboard-response","231","1682201","0.0-10.0-0.11","aplzn2l594","many_one","0","indirect_first","0","er07es16","1","22","1","1","3","1","","0","1","0","null","","","<div style=""font-size:60px;"">+</div>","null","","","","","","","","","",""
"","html-keyboard-response","232","1682301","0.0-10.0-1.11","aplzn2l594","many_one","0","indirect_first","0","er07es16","1","22","1","1","3","1","","0","1","0","null","","","<img src = 'category4/GS1.png' width = '100%;'>","null","","","","","","","","","",""
"","html-keyboard-response","233","1682581","0.0-10.0-2.11","aplzn2l594","many_one","0","indirect_first","0","er07es16","1","22","1","1","3","1","","0","1","0","null","","","<img src = 'targets/36.png' width = '100%;'>","null","","","","","","","","","",""
"","html-keyboard-response","234","1682848","0.0-10.0-3.11","aplzn2l594","many_one","0","indirect_first","0","er07es16","1","22","1","1","3","1","","0","1","0","265","","","<img src = 'targets/mask.png' width = '100%;'>","68","neg","GS","GSnew","4","category4/GS1.png","targets/36.png","0","indirect","35",""
"","html-keyboard-response","235","1684380","0.0-10.0-0.12","aplzn2l594","many_one","0","indirect_first","0","er07es16","1","22","1","1","3","1","","0","1","0","null","","","<div style=""font-size:60px;"">+</div>","null","","","","","","","","","",""
"","html-keyboard-response","236","1684482","0.0-10.0-1.12","aplzn2l594","many_one","0","indirect_first","0","er07es16","1","22","1","1","3","1","","0","1","0","null","","","<img src = 'category2/GS2.png' width = '100%;'>","null","","","","","","","","","",""
"","html-keyboard-response","237","1684761","0.0-10.0-2.12","aplzn2l594","many_one","0","indirect_first","0","er07es16","1","22","1","1","3","1","","0","1","0","null","","","<img src = 'targets/29.png' width = '100%;'>","null","","","","","","","","","",""
"","html-keyboard-response","238","1685751","0.0-10.0-3.12","aplzn2l594","many_one","0","indirect_first","0","er07es16","1","22","1","1","3","1","","0","1","0","989","","","<img src = 'targets/mask.png' width = '100%;'>","75","pos","GS","GSnew","2","category2/GS2.png","targets/29.png","1","indirect","36",""
"","html-keyboard-response","239","1687280","0.0-10.0-0.13","aplzn2l594","many_one","0","indirect_first","0","er07es16","1","22","1","1","3","1","","0","1","0","null","","","<div style=""font-size:60px;"">+</div>","null","","","","","","","","","",""
"","html-keyboard-response","240","1687381","0.0-10.0-1.13","aplzn2l594","many_one","0","indirect_first","0","er07es16","1","22","1","1","3","1","","0","1","0","null","","","<img src = 'category1/GS2.png' width = '100%;'>","null","","","","","","","","","",""
"","html-keyboard-response","241","1687661","0.0-10.0-2.13","aplzn2l594","many_one","0","indirect_first","0","er07es16","1","22","1","1","3","1","","0","1","0","null","","","<img src = 'targets/30.png' width = '100%;'>","null","","","","","","","","","",""
"","html-keyboard-response","242","1688175","0.0-10.0-3.13","aplzn2l594","many_one","0","indirect_first","0","er07es16","1","22","1","1","3","1","","0","1","0","512","","","<img src = 'targets/mask.png' width = '100%;'>","68","neg","GS","GSnew","1","category1/GS2.png","targets/30.png","0","indirect","37",""
"","html-keyboard-response","243","1689701","0.0-10.0-0.14","aplzn2l594","many_one","0","indirect_first","0","er07es16","1","22","1","1","3","1","","0","1","0","null","","","<div style=""font-size:60px;"">+</div>","null","","","","","","","","","",""
"","html-keyboard-response","244","1689801","0.0-10.0-1.14","aplzn2l594","many_one","0","indirect_first","0","er07es16","1","22","1","1","3","1","","0","1","0","null","","","<img src = 'category2/CS4.png' width = '100%;'>","null","","","","","","","","","",""
"","html-keyboard-response","245","1690081","0.0-10.0-2.14","aplzn2l594","many_one","0","indirect_first","0","er07es16","1","22","1","1","3","1","","0","1","0","null","","","<img src = 'targets/6.png' width = '100%;'>","null","","","","","","","","","",""
"","html-keyboard-response","246","1690311","0.0-10.0-3.14","aplzn2l594","many_one","0","indirect_first","0","er07es16","1","22","1","1","3","1","","0","1","0","229","","","<img src = 'targets/mask.png' width = '100%;'>","75","pos","GS","GSold","2","category2/CS4.png","targets/6.png","1","indirect","38",""
"","html-keyboard-response","247","1691841","0.0-10.0-0.15","aplzn2l594","many_one","0","indirect_first","0","er07es16","1","22","1","1","3","1","","0","1","0","null","","","<div style=""font-size:60px;"">+</div>","null","","","","","","","","","",""
"","html-keyboard-response","248","1691940","0.0-10.0-1.15","aplzn2l594","many_one","0","indirect_first","0","er07es16","1","22","1","1","3","1","","0","1","0","null","","","<img src = 'category3/CS5.png' width = '100%;'>","null","","","","","","","","","",""
"","html-keyboard-response","249","1692210","0.0-10.0-2.15","aplzn2l594","many_one","0","indirect_first","0","er07es16","1","22","1","1","3","1","","0","1","0","null","","","<img src = 'targets/17.png' width = '100%;'>","null","","","","","","","","","",""
"","html-keyboard-response","250","1692463","0.0-10.0-3.15","aplzn2l594","many_one","0","indirect_first","0","er07es16","1","22","1","1","3","1","","0","1","0","251","","","<img src = 'targets/mask.png' width = '100%;'>","75","pos","GS","GSold","3","category3/CS5.png","targets/17.png","1","indirect","39",""
"","html-keyboard-response","251","1693999","0.0-10.0-0.16","aplzn2l594","many_one","0","indirect_first","0","er07es16","1","22","1","1","3","1","","0","1","0","null","","","<div style=""font-size:60px;"">+</div>","null","","","","","","","","","",""
"","html-keyboard-response","252","1694100","0.0-10.0-1.16","aplzn2l594","many_one","0","indirect_first","0","er07es16","1","22","1","1","3","1","","0","1","0","null","","","<img src = 'category1/GS3.png' width = '100%;'>","null","","","","","","","","","",""
"","html-keyboard-response","253","1694381","0.0-10.0-2.16","aplzn2l594","many_one","0","indirect_first","0","er07es16","1","22","1","1","3","1","","0","1","0","null","","","<img src = 'targets/2.png' width = '100%;'>","null","","","","","","","","","",""
"","html-keyboard-response","254","1694799","0.0-10.0-3.16","aplzn2l594","many_one","0","indirect_first","0","er07es16","1","22","1","1","3","1","","0","1","0","416","","","<img src = 'targets/mask.png' width = '100%;'>","68","neg","GS","GSnew","1","category1/GS3.png","targets/2.png","0","indirect","40",""
"","html-keyboard-response","255","1696320","0.0-10.0-0.17","aplzn2l594","many_one","0","indirect_first","0","er07es16","1","22","1","1","3","1","","0","1","0","null","","","<div style=""font-size:60px;"">+</div>","null","","","","","","","","","",""
"","html-keyboard-response","256","1696421","0.0-10.0-1.17","aplzn2l594","many_one","0","indirect_first","0","er07es16","1","22","1","1","3","1","","0","1","0","null","","","<img src = 'category2/GS3.png' width = '100%;'>","null","","","","","","","","","",""
"","html-keyboard-response","257","1696701","0.0-10.0-2.17","aplzn2l594","many_one","0","indirect_first","0","er07es16","1","22","1","1","3","1","","0","1","0","null","","","<img src = 'targets/45.png' width = '100%;'>","null","","","","","","","","","",""
"","html-keyboard-response","258","1696983","0.0-10.0-3.17","aplzn2l594","many_one","0","indirect_first","0","er07es16","1","22","1","1","3","1","","0","1","0","281","","","<img src = 'targets/mask.png' width = '100%;'>","75","pos","GS","GSnew","2","category2/GS3.png","targets/45.png","1","indirect","41",""
"","html-keyboard-response","259","1698521","0.0-10.0-0.18","aplzn2l594","many_one","0","indirect_first","0","er07es16","1","22","1","1","3","1","","0","1","0","null","","","<div style=""font-size:60px;"">+</div>","null","","","","","","","","","",""
"","html-keyboard-response","260","1698620","0.0-10.0-1.18","aplzn2l594","many_one","0","indirect_first","0","er07es16","1","22","1","1","3","1","","0","1","0","null","","","<img src = 'category4/GS3.png' width = '100%;'>","null","","","","","","","","","",""
"","html-keyboard-response","261","1698900","0.0-10.0-2.18","aplzn2l594","many_one","0","indirect_first","0","er07es16","1","22","1","1","3","1","","0","1","0","null","","","<img src = 'targets/35.png' width = '100%;'>","null","","","","","","","","","",""
"","html-keyboard-response","262","1699215","0.0-10.0-3.18","aplzn2l594","many_one","0","indirect_first","0","er07es16","1","22","1","1","3","1","","0","1","0","312","","","<img src = 'targets/mask.png' width = '100%;'>","68","neg","GS","GSnew","4","category4/GS3.png","targets/35.png","0","indirect","42",""
"","html-keyboard-response","263","1700741","0.0-10.0-0.19","aplzn2l594","many_one","0","indirect_first","0","er07es16","1","22","1","1","3","1","","0","1","0","null","","","<div style=""font-size:60px;"">+</div>","null","","","","","","","","","",""
"","html-keyboard-response","264","1700842","0.0-10.0-1.19","aplzn2l594","many_one","0","indirect_first","0","er07es16","1","22","1","1","3","1","","0","1","0","null","","","<img src = 'category3/GS2.png' width = '100%;'>","null","","","","","","","","","",""
"","html-keyboard-response","265","1701120","0.0-10.0-2.19","aplzn2l594","many_one","0","indirect_first","0","er07es16","1","22","1","1","3","1","","0","1","0","null","","","<img src = 'targets/33.png' width = '100%;'>","null","","","","","","","","","",""
"","html-keyboard-response","266","1701735","0.0-10.0-3.19","aplzn2l594","many_one","0","indirect_first","0","er07es16","1","22","1","1","3","1","","0","1","0","612","","","<img src = 'targets/mask.png' width = '100%;'>","68","pos","GS","GSnew","3","category3/GS2.png","targets/33.png","0","indirect","43",""
"","html-keyboard-response","267","1703261","0.0-10.0-0.20","aplzn2l594","many_one","0","indirect_first","0","er07es16","1","22","1","1","3","1","","0","1","0","null","","","<div style=""font-size:60px;"">+</div>","null","","","","","","","","","",""
"","html-keyboard-response","268","1703361","0.0-10.0-1.20","aplzn2l594","many_one","0","indirect_first","0","er07es16","1","22","1","1","3","1","","0","1","0","null","","","<img src = 'category3/GS1.png' width = '100%;'>","null","","","","","","","","","",""
"","html-keyboard-response","269","1703641","0.0-10.0-2.20","aplzn2l594","many_one","0","indirect_first","0","er07es16","1","22","1","1","3","1","","0","1","0","null","","","<img src = 'targets/27.png' width = '100%;'>","null","","","","","","","","","",""
"","html-keyboard-response","270","1703832","0.0-10.0-3.20","aplzn2l594","many_one","0","indirect_first","0","er07es16","1","22","1","1","3","1","","0","1","0","189","","","<img src = 'targets/mask.png' width = '100%;'>","75","pos","GS","GSnew","3","category3/GS1.png","targets/27.png","1","indirect","44",""
"","html-keyboard-response","271","1705360","0.0-10.0-0.21","aplzn2l594","many_one","0","indirect_first","0","er07es16","1","22","1","1","3","1","","0","1","0","null","","","<div style=""font-size:60px;"">+</div>","null","","","","","","","","","",""
"","html-keyboard-response","272","1705460","0.0-10.0-1.21","aplzn2l594","many_one","0","indirect_first","0","er07es16","1","22","1","1","3","1","","0","1","0","null","","","<img src = 'category1/GS1.png' width = '100%;'>","null","","","","","","","","","",""
"","html-keyboard-response","273","1705740","0.0-10.0-2.21","aplzn2l594","many_one","0","indirect_first","0","er07es16","1","22","1","1","3","1","","0","1","0","null","","","<img src = 'targets/14.png' width = '100%;'>","null","","","","","","","","","",""
"","html-keyboard-response","274","1706374","0.0-10.0-3.21","aplzn2l594","many_one","0","indirect_first","0","er07es16","1","22","1","1","3","1","","0","1","0","632","","","<img src = 'targets/mask.png' width = '100%;'>","68","neg","GS","GSnew","1","category1/GS1.png","targets/14.png","0","indirect","45",""
"","html-keyboard-response","275","1707900","0.0-10.0-0.22","aplzn2l594","many_one","0","indirect_first","0","er07es16","1","22","1","1","3","1","","0","1","0","null","","","<div style=""font-size:60px;"">+</div>","null","","","","","","","","","",""
"","html-keyboard-response","276","1708001","0.0-10.0-1.22","aplzn2l594","many_one","0","indirect_first","0","er07es16","1","22","1","1","3","1","","0","1","0","null","","","<img src = 'category1/ma.png' width = '100%;'>","null","","","","","","","","","",""
"","html-keyboard-response","277","1708280","0.0-10.0-2.22","aplzn2l594","many_one","0","indirect_first","0","er07es16","1","22","1","1","3","1","","0","1","0","null","","","<img src = 'targets/23.png' width = '100%;'>","null","","","","","","","","","",""
"","html-keyboard-response","278","1708935","0.0-10.0-3.22","aplzn2l594","many_one","0","indirect_first","0","er07es16","1","22","1","1","3","1","","0","1","0","652","","","<img src = 'targets/mask.png' width = '100%;'>","68","neg","GS","abstract","1","category1/ma.png","targets/23.png","0","indirect","46",""
"","html-keyboard-response","279","1710460","0.0-10.0-0.23","aplzn2l594","many_one","0","indirect_first","0","er07es16","1","22","1","1","3","1","","0","1","0","null","","","<div style=""font-size:60px;"">+</div>","null","","","","","","","","","",""
"","html-keyboard-response","280","1710556","0.0-10.0-1.23","aplzn2l594","many_one","0","indirect_first","0","er07es16","1","22","1","1","3","1","","0","1","0","null","","","<img src = 'category1/CS9.png' width = '100%;'>","null","","","","","","","","","",""
"","html-keyboard-response","281","1710841","0.0-10.0-2.23","aplzn2l594","many_one","0","indirect_first","0","er07es16","1","22","1","1","3","1","","0","1","0","null","","","<img src = 'targets/7.png' width = '100%;'>","null","","","","","","","","","",""
"","html-keyboard-response","282","1711231","0.0-10.0-3.23","aplzn2l594","many_one","0","indirect_first","0","er07es16","1","22","1","1","3","1","","0","1","0","387","","","<img src = 'targets/mask.png' width = '100%;'>","68","neg","GS","GSold","1","category1/CS9.png","targets/7.png","0","indirect","47",""
"","survey-html-form","283","1728395","0.0-11.0","aplzn2l594","many_one","0","indirect_first","0","er07es16","1","22","1","1","3","1","","0","1","0","16653","","{}","","","","","","","","","","","",""
"","image-slider-response","284","1740147","0.0-12.0-0.0","aplzn2l594","many_one","0","indirect_first","0","er07es16","1","22","1","1","3","1","","0","1","0","9724","","","","","neg","CS","CS","4","category4/CS10.png","targets/15.png","","direct","","61"
"","image-slider-response","285","1747723","0.0-12.0-0.1","aplzn2l594","many_one","0","indirect_first","0","er07es16","1","22","1","1","3","1","","0","1","0","7571","","","","","neg","GS","GSnew","1","category1/GS1.png","targets/14.png","","direct","","-17"
"","image-slider-response","286","1753323","0.0-12.0-0.2","aplzn2l594","many_one","0","indirect_first","0","er07es16","1","22","1","1","3","1","","0","1","0","5598","","","","","neg","CS","CS","4","category4/CS4.png","targets/28.png","","direct","","-72"
"","image-slider-response","287","1757395","0.0-12.0-0.3","aplzn2l594","many_one","0","indirect_first","0","er07es16","1","22","1","1","3","1","","0","1","0","4069","","","","","pos","CS","CS","2","category2/CS10.png","targets/4.png","","direct","","-30"
"","image-slider-response","288","1763027","0.0-12.0-0.4","aplzn2l594","many_one","0","indirect_first","0","er07es16","1","22","1","1","3","1","","0","1","0","5629","","","","","pos","GS","GSold","2","category2/CS4.png","targets/6.png","","direct","","-8"
"","image-slider-response","289","1765683","0.0-12.0-0.5","aplzn2l594","many_one","0","indirect_first","0","er07es16","1","22","1","1","3","1","","0","1","0","2652","","","","","pos","CS","CS","2","category2/CS6.png","targets/25.png","","direct","","-15"
"","image-slider-response","290","1770092","0.0-12.0-0.6","aplzn2l594","many_one","0","indirect_first","0","er07es16","1","22","1","1","3","1","","0","1","0","4404","","","","","pos","CS","CS","2","category2/CS2.png","targets/21.png","","direct","","25"
"","image-slider-response","291","1773323","0.0-12.0-0.7","aplzn2l594","many_one","0","indirect_first","0","er07es16","1","22","1","1","3","1","","0","1","0","3228","","","","","neg","CS","CS","1","category1/CS6.png","targets/41.png","","direct","","-69"
"","image-slider-response","292","1777651","0.0-12.0-0.8","aplzn2l594","many_one","0","indirect_first","0","er07es16","1","22","1","1","3","1","","0","1","0","4324","","","","","neg","CS","CS","4","category4/CS9.png","targets/18.png","","direct","","-63"
"","image-slider-response","293","1781482","0.0-12.0-0.9","aplzn2l594","many_one","0","indirect_first","0","er07es16","1","22","1","1","3","1","","0","1","0","3828","","","","","neg","CS","CS","4","category4/CS6.png","targets/39.png","","direct","","-55"
"","image-slider-response","294","1784139","0.0-12.0-0.10","aplzn2l594","many_one","0","indirect_first","0","er07es16","1","22","1","1","3","1","","0","1","0","2653","","","","","neg","GS","GSnew","4","category4/GS2.png","targets/26.png","","direct","","-95"
"","image-slider-response","295","1787131","0.0-12.0-0.11","aplzn2l594","many_one","0","indirect_first","0","er07es16","1","22","1","1","3","1","","0","1","0","2988","","","","","pos","GS","GSold","2","category2/CS8.png","targets/42.png","","direct","","-73"
"","image-slider-response","296","1797210","0.0-12.0-0.12","aplzn2l594","many_one","0","indirect_first","0","er07es16","1","22","1","1","3","1","","0","1","0","10078","","","","","pos","CS","CS","3","category3/CS6.png","targets/38.png","","direct","","5"
"","image-slider-response","297","1800795","0.0-12.0-0.13","aplzn2l594","many_one","0","indirect_first","0","er07es16","1","22","1","1","3","1","","0","1","0","3580","","","","","neg","GS","GSold","4","category4/CS7.png","targets/47.png","","direct","","-53"
"","image-slider-response","298","1803714","0.0-12.0-0.14","aplzn2l594","many_one","0","indirect_first","0","er07es16","1","22","1","1","3","1","","0","1","0","2917","","","","","pos","CS","CS","2","category2/CS3.png","targets/8.png","","direct","","15"
"","image-slider-response","299","1807202","0.0-12.0-0.15","aplzn2l594","many_one","0","indirect_first","0","er07es16","1","22","1","1","3","1","","0","1","0","3484","","","","","neg","GS","GSold","4","category4/CS1.png","targets/37.png","","direct","","-53"
"","image-slider-response","300","1811778","0.0-12.0-0.16","aplzn2l594","many_one","0","indirect_first","0","er07es16","1","22","1","1","3","1","","0","1","0","4572","","","","","pos","CS","CS","2","category2/CS7.png","targets/11.png","","direct","","45"
"","image-slider-response","301","1815210","0.0-12.0-0.17","aplzn2l594","many_one","0","indirect_first","0","er07es16","1","22","1","1","3","1","","0","1","0","3427","","","","","pos","GS","GSold","3","category3/CS5.png","targets/17.png","","direct","","61"
"","image-slider-response","302","1818618","0.0-12.0-0.18","aplzn2l594","many_one","0","indirect_first","0","er07es16","1","22","1","1","3","1","","0","1","0","3405","","","","","neg","GS","GSnew","4","category4/GS3.png","targets/35.png","","direct","","-85"
"","image-slider-response","303","1823210","0.0-12.0-0.19","aplzn2l594","many_one","0","indirect_first","0","er07es16","1","22","1","1","3","1","","0","1","0","4588","","","","","neg","GS","GSnew","1","category1/GS2.png","targets/30.png","","direct","","-66"
"","image-slider-response","304","1826402","0.0-12.0-0.20","aplzn2l594","many_one","0","indirect_first","0","er07es16","1","22","1","1","3","1","","0","1","0","3189","","","","","pos","CS","CS","3","category3/CS10.png","targets/34.png","","direct","","-23"
"","image-slider-response","305","1830562","0.0-12.0-0.21","aplzn2l594","many_one","0","indirect_first","0","er07es16","1","22","1","1","3","1","","0","1","0","4158","","","","","pos","GS","GSnew","2","category2/GS1.png","targets/22.png","","direct","","-47"
"","image-slider-response","306","1836802","0.0-12.0-0.22","aplzn2l594","many_one","0","indirect_first","0","er07es16","1","22","1","1","3","1","","0","1","0","6235","","","","","neg","GS","abstract","4","category4/lin.png","targets/13.png","","direct","","-66"
"","image-slider-response","307","1841506","0.0-12.0-0.23","aplzn2l594","many_one","0","indirect_first","0","er07es16","1","22","1","1","3","1","","0","1","0","4701","","","","","pos","GS","GSold","2","category2/CS1.png","targets/32.png","","direct","","21"
"","image-slider-response","308","1845090","0.0-12.0-0.24","aplzn2l594","many_one","0","indirect_first","0","er07es16","1","22","1","1","3","1","","0","1","0","3580","","","","","pos","CS","CS","3","category3/CS7.png","targets/16.png","","direct","","92"
"","image-slider-response","309","1847731","0.0-12.0-0.25","aplzn2l594","many_one","0","indirect_first","0","er07es16","1","22","1","1","3","1","","0","1","0","2637","","","","","neg","GS","GSold","1","category1/CS1.png","targets/40.png","","direct","","-54"
"","image-slider-response","310","1851554","0.0-12.0-0.26","aplzn2l594","many_one","0","indirect_first","0","er07es16","1","22","1","1","3","1","","0","1","0","3818","","","","","pos","GS","GSold","3","category3/CS8.png","targets/24.png","","direct","","-29"
"","image-slider-response","311","1854922","0.0-12.0-0.27","aplzn2l594","many_one","0","indirect_first","0","er07es16","1","22","1","1","3","1","","0","1","0","3365","","","","","pos","GS","GSnew","2","category2/GS2.png","targets/29.png","","direct","","-42"
"","image-slider-response","312","1858507","0.0-12.0-0.28","aplzn2l594","many_one","0","indirect_first","0","er07es16","1","22","1","1","3","1","","0","1","0","3582","","","","","neg","GS","GSold","4","category4/CS2.png","targets/48.png","","direct","","-51"
"","image-slider-response","313","1861081","0.0-12.0-0.29","aplzn2l594","many_one","0","indirect_first","0","er07es16","1","22","1","1","3","1","","0","1","0","2571","","","","","neg","CS","CS","1","category1/CS5.png","targets/12.png","","direct","","-46"
"","image-slider-response","314","1864650","0.0-12.0-0.30","aplzn2l594","many_one","0","indirect_first","0","er07es16","1","22","1","1","3","1","","0","1","0","3566","","","","","neg","CS","CS","1","category1/CS2.png","targets/31.png","","direct","","-28"
"","image-slider-response","315","1867490","0.0-12.0-0.31","aplzn2l594","many_one","0","indirect_first","0","er07es16","1","22","1","1","3","1","","0","1","0","2837","","","","","neg","GS","GSnew","1","category1/GS3.png","targets/2.png","","direct","","-53"
"","image-slider-response","316","1873073","0.0-12.0-0.32","aplzn2l594","many_one","0","indirect_first","0","er07es16","1","22","1","1","3","1","","0","1","0","5580","","","","","pos","GS","abstract","2","category2/men.png","targets/10.png","","direct","","39"
"","image-slider-response","317","1876905","0.0-12.0-0.33","aplzn2l594","many_one","0","indirect_first","0","er07es16","1","22","1","1","3","1","","0","1","0","3829","","","","","pos","GS","abstract","3","category3/wang.png","targets/5.png","","direct","","72"
"","image-slider-response","318","1880850","0.0-12.0-0.34","aplzn2l594","many_one","0","indirect_first","0","er07es16","1","22","1","1","3","1","","0","1","0","3940","","","","","neg","GS","GSold","1","category1/CS4.png","targets/19.png","","direct","","-38"
"","image-slider-response","319","1885441","0.0-12.0-0.35","aplzn2l594","many_one","0","indirect_first","0","er07es16","1","22","1","1","3","1","","0","1","0","4589","","","","","pos","GS","GSnew","3","category3/GS1.png","targets/27.png","","direct","","-29"
"","image-slider-response","320","1889985","0.0-12.0-0.36","aplzn2l594","many_one","0","indirect_first","0","er07es16","1","22","1","1","3","1","","0","1","0","4540","","","","","pos","GS","GSnew","3","category3/GS3.png","targets/9.png","","direct","","10"
"","image-slider-response","321","1895026","0.0-12.0-0.37","aplzn2l594","many_one","0","indirect_first","0","er07es16","1","22","1","1","3","1","","0","1","0","5038","","","","","neg","CS","CS","4","category4/CS8.png","targets/43.png","","direct","","-47"
"","image-slider-response","322","1897835","0.0-12.0-0.38","aplzn2l594","many_one","0","indirect_first","0","er07es16","1","22","1","1","3","1","","0","1","0","2804","","","","","pos","CS","CS","3","category3/CS1.png","targets/1.png","","direct","","32"
"","image-slider-response","323","1900977","0.0-12.0-0.39","aplzn2l594","many_one","0","indirect_first","0","er07es16","1","22","1","1","3","1","","0","1","0","3138","","","","","pos","GS","GSnew","3","category3/GS2.png","targets/33.png","","direct","","36"
"","image-slider-response","324","1904752","0.0-12.0-0.40","aplzn2l594","many_one","0","indirect_first","0","er07es16","1","22","1","1","3","1","","0","1","0","3771","","","","","neg","GS","GSold","1","category1/CS9.png","targets/7.png","","direct","","9"
"","image-slider-response","325","1909473","0.0-12.0-0.41","aplzn2l594","many_one","0","indirect_first","0","er07es16","1","22","1","1","3","1","","0","1","0","4715","","","","","pos","GS","GSold","3","category3/CS3.png","targets/44.png","","direct","","-27"
"","image-slider-response","326","1914553","0.0-12.0-0.42","aplzn2l594","many_one","0","indirect_first","0","er07es16","1","22","1","1","3","1","","0","1","0","5077","","","","","neg","GS","abstract","1","category1/ma.png","targets/23.png","","direct","","-58"
"","image-slider-response","327","1919873","0.0-12.0-0.43","aplzn2l594","many_one","0","indirect_first","0","er07es16","1","22","1","1","3","1","","0","1","0","5317","","","","","neg","GS","GSnew","4","category4/GS1.png","targets/36.png","","direct","","-50"
"","image-slider-response","328","1922745","0.0-12.0-0.44","aplzn2l594","many_one","0","indirect_first","0","er07es16","1","22","1","1","3","1","","0","1","0","2869","","","","","neg","CS","CS","1","category1/CS10.png","targets/3.png","","direct","","-69"
