"success","trial_type","trial_index","time_elapsed","internal_node_id","subject","condition","condition_code","measure","measure_code","codeword","gender","age","education","chinese","fach","handedness","comment","hinschauen","ablenkung","gewissenhaft","rt","url","responses","stimulus","key_press","val","type","type_specific","category","cs_selected","target","indirect","task","nr_pres","response"
"true","fullscreen","0","47844","0.0-0.0","g4s7kxam7q","one_one","1","indirect_first","0","ng10ng22","0","19","1","1","3","1","","0","1","0","","","","","","","","","","","","","","",""
"","external-html","1","63684","0.0-1.0","g4s7kxam7q","one_one","1","indirect_first","0","ng10ng22","0","19","1","1","3","1","","0","1","0","15755","text/information.html","","","","","","","","","","","","",""
"","external-html","2","78636","0.0-2.0","g4s7kxam7q","one_one","1","indirect_first","0","ng10ng22","0","19","1","1","3","1","","0","1","0","14887","text/consent.html","","","","","","","","","","","","",""
"","survey-html-form","3","151064","0.0-3.0","g4s7kxam7q","one_one","1","indirect_first","0","ng10ng22","0","19","1","1","3","1","","0","1","0","72425","","{""codeword_enter"":""ng10ng22""}","","","","","","","","","","","",""
"","survey-html-form","4","171332","0.0-4.0","g4s7kxam7q","one_one","1","indirect_first","0","ng10ng22","0","19","1","1","3","1","","0","1","0","20266","","{""age"":""19"",""education"":""1"",""subject"":""3"",""gender"":""0"",""handedness"":""1"",""chinese"":""1""}","","","","","","","","","","","",""
"","survey-html-form","5","172730","0.0-5.0","g4s7kxam7q","one_one","1","indirect_first","0","ng10ng22","0","19","1","1","3","1","","0","1","0","1397","","{}","","","","","","","","","","","",""
"","html-keyboard-response","6","176756","0.0-6.0-0.0-0.0","g4s7kxam7q","one_one","1","indirect_first","0","ng10ng22","0","19","1","1","3","1","","0","1","0","null","","","<div class = 'row'><div class = 'column'><img src = 'category1/CS9.png' width = '70%;'></div><div class = 'column'><img src = 'usneg/9560.bmp' width = '100%;'></div></div>","null","neg","CS","CS","1","category1/CS9.png","","","","",""
"","html-keyboard-response","7","179284","0.0-6.0-0.0-0.1","g4s7kxam7q","one_one","1","indirect_first","0","ng10ng22","0","19","1","1","3","1","","0","1","0","null","","","<div class = 'row'><div class = 'column'><img src = 'uspos/8080.bmp' width = '100%;'></div><div class = 'column'><img src = 'category2/CS9.png' width = '70%;'></div></div>","null","pos","CS","CS","2","category2/CS9.png","","","","",""
"","html-keyboard-response","8","181823","0.0-6.0-0.0-0.2","g4s7kxam7q","one_one","1","indirect_first","0","ng10ng22","0","19","1","1","3","1","","0","1","0","null","","","<div class = 'row'><div class = 'column'><img src = 'category1/CS9.png' width = '70%;'></div><div class = 'column'><img src = 'usneg/9560.bmp' width = '100%;'></div></div>","null","neg","CS","CS","1","category1/CS9.png","","","","",""
"","html-keyboard-response","9","184353","0.0-6.0-0.0-0.3","g4s7kxam7q","one_one","1","indirect_first","0","ng10ng22","0","19","1","1","3","1","","0","1","0","null","","","<div class = 'row'><div class = 'column'><img src = 'uspos/1340.bmp' width = '100%;'></div><div class = 'column'><img src = 'category4/CS2.png' width = '70%;'></div></div>","null","pos","CS","CS","4","category4/CS2.png","","","","",""
"","html-keyboard-response","10","186884","0.0-6.0-0.0-0.4","g4s7kxam7q","one_one","1","indirect_first","0","ng10ng22","0","19","1","1","3","1","","0","1","0","null","","","<div class = 'row'><div class = 'column'><img src = 'category3/CS4.png' width = '70%;'></div><div class = 'column'><img src = 'usneg/3160.bmp' width = '100%;'></div></div>","null","neg","CS","CS","3","category3/CS4.png","","","","",""
"","html-keyboard-response","11","189423","0.0-6.0-0.0-0.5","g4s7kxam7q","one_one","1","indirect_first","0","ng10ng22","0","19","1","1","3","1","","0","1","0","null","","","<div class = 'row'><div class = 'column'><img src = 'category4/CS2.png' width = '70%;'></div><div class = 'column'><img src = 'uspos/1340.bmp' width = '100%;'></div></div>","null","pos","CS","CS","4","category4/CS2.png","","","","",""
"","html-keyboard-response","12","191964","0.0-6.0-0.0-0.6","g4s7kxam7q","one_one","1","indirect_first","0","ng10ng22","0","19","1","1","3","1","","0","1","0","null","","","<div class = 'row'><div class = 'column'><img src = 'usneg/3160.bmp' width = '100%;'></div><div class = 'column'><img src = 'category3/CS4.png' width = '70%;'></div></div>","null","neg","CS","CS","3","category3/CS4.png","","","","",""
"","html-keyboard-response","13","194503","0.0-6.0-0.0-0.7","g4s7kxam7q","one_one","1","indirect_first","0","ng10ng22","0","19","1","1","3","1","","0","1","0","null","","","<div class = 'row'><div class = 'column'><img src = 'uspos/1340.bmp' width = '100%;'></div><div class = 'column'><img src = 'category4/CS2.png' width = '70%;'></div></div>","null","pos","CS","CS","4","category4/CS2.png","","","","",""
"","html-keyboard-response","14","197043","0.0-6.0-0.0-0.8","g4s7kxam7q","one_one","1","indirect_first","0","ng10ng22","0","19","1","1","3","1","","0","1","0","null","","","<div class = 'row'><div class = 'column'><img src = 'uspos/8080.bmp' width = '100%;'></div><div class = 'column'><img src = 'category2/CS9.png' width = '70%;'></div></div>","null","pos","CS","CS","2","category2/CS9.png","","","","",""
"","html-keyboard-response","15","199582","0.0-6.0-0.0-0.9","g4s7kxam7q","one_one","1","indirect_first","0","ng10ng22","0","19","1","1","3","1","","0","1","0","null","","","<div class = 'row'><div class = 'column'><img src = 'category3/CS4.png' width = '70%;'></div><div class = 'column'><img src = 'usneg/3160.bmp' width = '100%;'></div></div>","null","neg","CS","CS","3","category3/CS4.png","","","","",""
"","html-keyboard-response","16","202123","0.0-6.0-0.0-0.10","g4s7kxam7q","one_one","1","indirect_first","0","ng10ng22","0","19","1","1","3","1","","0","1","0","null","","","<div class = 'row'><div class = 'column'><img src = 'usneg/9560.bmp' width = '100%;'></div><div class = 'column'><img src = 'category1/CS9.png' width = '70%;'></div></div>","null","neg","CS","CS","1","category1/CS9.png","","","","",""
"","html-keyboard-response","17","204663","0.0-6.0-0.0-0.11","g4s7kxam7q","one_one","1","indirect_first","0","ng10ng22","0","19","1","1","3","1","","0","1","0","null","","","<div class = 'row'><div class = 'column'><img src = 'category3/CS4.png' width = '70%;'></div><div class = 'column'><img src = 'usneg/3160.bmp' width = '100%;'></div></div>","null","neg","CS","CS","3","category3/CS4.png","","","","",""
"","html-keyboard-response","18","207203","0.0-6.0-0.0-0.12","g4s7kxam7q","one_one","1","indirect_first","0","ng10ng22","0","19","1","1","3","1","","0","1","0","null","","","<div class = 'row'><div class = 'column'><img src = 'usneg/9560.bmp' width = '100%;'></div><div class = 'column'><img src = 'category1/CS9.png' width = '70%;'></div></div>","null","neg","CS","CS","1","category1/CS9.png","","","","",""
"","html-keyboard-response","19","209738","0.0-6.0-0.0-0.13","g4s7kxam7q","one_one","1","indirect_first","0","ng10ng22","0","19","1","1","3","1","","0","1","0","null","","","<div class = 'row'><div class = 'column'><img src = 'uspos/8080.bmp' width = '100%;'></div><div class = 'column'><img src = 'category2/CS9.png' width = '70%;'></div></div>","null","pos","CS","CS","2","category2/CS9.png","","","","",""
"","html-keyboard-response","20","212253","0.0-6.0-0.0-0.14","g4s7kxam7q","one_one","1","indirect_first","0","ng10ng22","0","19","1","1","3","1","","0","1","0","null","","","<div class = 'row'><div class = 'column'><img src = 'uspos/1340.bmp' width = '100%;'></div><div class = 'column'><img src = 'category4/CS2.png' width = '70%;'></div></div>","null","pos","CS","CS","4","category4/CS2.png","","","","",""
"","html-keyboard-response","21","214793","0.0-6.0-0.0-0.15","g4s7kxam7q","one_one","1","indirect_first","0","ng10ng22","0","19","1","1","3","1","","0","1","0","null","","","<div class = 'row'><div class = 'column'><img src = 'uspos/8080.bmp' width = '100%;'></div><div class = 'column'><img src = 'category2/CS9.png' width = '70%;'></div></div>","null","pos","CS","CS","2","category2/CS9.png","","","","",""
"","html-keyboard-response","22","217323","0.0-6.0-0.0-0.16","g4s7kxam7q","one_one","1","indirect_first","0","ng10ng22","0","19","1","1","3","1","","0","1","0","null","","","<div class = 'row'><div class = 'column'><img src = 'category1/CS9.png' width = '70%;'></div><div class = 'column'><img src = 'usneg/9560.bmp' width = '100%;'></div></div>","null","neg","CS","CS","1","category1/CS9.png","","","","",""
"","html-keyboard-response","23","219863","0.0-6.0-0.0-0.17","g4s7kxam7q","one_one","1","indirect_first","0","ng10ng22","0","19","1","1","3","1","","0","1","0","null","","","<div class = 'row'><div class = 'column'><img src = 'usneg/3160.bmp' width = '100%;'></div><div class = 'column'><img src = 'category3/CS4.png' width = '70%;'></div></div>","null","neg","CS","CS","3","category3/CS4.png","","","","",""
"","html-keyboard-response","24","222394","0.0-6.0-0.0-0.18","g4s7kxam7q","one_one","1","indirect_first","0","ng10ng22","0","19","1","1","3","1","","0","1","0","null","","","<div class = 'row'><div class = 'column'><img src = 'category4/CS2.png' width = '70%;'></div><div class = 'column'><img src = 'uspos/1340.bmp' width = '100%;'></div></div>","null","pos","CS","CS","4","category4/CS2.png","","","","",""
"","html-keyboard-response","25","224933","0.0-6.0-0.0-0.19","g4s7kxam7q","one_one","1","indirect_first","0","ng10ng22","0","19","1","1","3","1","","0","1","0","null","","","<div class = 'row'><div class = 'column'><img src = 'category2/CS9.png' width = '70%;'></div><div class = 'column'><img src = 'uspos/8080.bmp' width = '100%;'></div></div>","null","pos","CS","CS","2","category2/CS9.png","","","","",""
"","survey-html-form","26","227838","0.0-6.0-1.0","g4s7kxam7q","one_one","1","indirect_first","0","ng10ng22","0","19","1","1","3","1","","0","1","0","2396","","{}","","","","","","","","","","","",""
"","html-keyboard-response","27","231864","0.0-6.0-2.0-0.0","g4s7kxam7q","one_one","1","indirect_first","0","ng10ng22","0","19","1","1","3","1","","0","1","0","null","","","<div class = 'row'><div class = 'column'><img src = 'category4/CS2.png' width = '70%;'></div><div class = 'column'><img src = 'uspos/1340.bmp' width = '100%;'></div></div>","null","pos","CS","CS","4","category4/CS2.png","","","","",""
"","html-keyboard-response","28","234402","0.0-6.0-2.0-0.1","g4s7kxam7q","one_one","1","indirect_first","0","ng10ng22","0","19","1","1","3","1","","0","1","0","null","","","<div class = 'row'><div class = 'column'><img src = 'usneg/9560.bmp' width = '100%;'></div><div class = 'column'><img src = 'category1/CS9.png' width = '70%;'></div></div>","null","neg","CS","CS","1","category1/CS9.png","","","","",""
"","html-keyboard-response","29","236943","0.0-6.0-2.0-0.2","g4s7kxam7q","one_one","1","indirect_first","0","ng10ng22","0","19","1","1","3","1","","0","1","0","null","","","<div class = 'row'><div class = 'column'><img src = 'category4/CS2.png' width = '70%;'></div><div class = 'column'><img src = 'uspos/1340.bmp' width = '100%;'></div></div>","null","pos","CS","CS","4","category4/CS2.png","","","","",""
"","html-keyboard-response","30","239463","0.0-6.0-2.0-0.3","g4s7kxam7q","one_one","1","indirect_first","0","ng10ng22","0","19","1","1","3","1","","0","1","0","null","","","<div class = 'row'><div class = 'column'><img src = 'usneg/3160.bmp' width = '100%;'></div><div class = 'column'><img src = 'category3/CS4.png' width = '70%;'></div></div>","null","neg","CS","CS","3","category3/CS4.png","","","","",""
"","html-keyboard-response","31","242003","0.0-6.0-2.0-0.4","g4s7kxam7q","one_one","1","indirect_first","0","ng10ng22","0","19","1","1","3","1","","0","1","0","null","","","<div class = 'row'><div class = 'column'><img src = 'uspos/8080.bmp' width = '100%;'></div><div class = 'column'><img src = 'category2/CS9.png' width = '70%;'></div></div>","null","pos","CS","CS","2","category2/CS9.png","","","","",""
"","html-keyboard-response","32","244543","0.0-6.0-2.0-0.5","g4s7kxam7q","one_one","1","indirect_first","0","ng10ng22","0","19","1","1","3","1","","0","1","0","null","","","<div class = 'row'><div class = 'column'><img src = 'category3/CS4.png' width = '70%;'></div><div class = 'column'><img src = 'usneg/3160.bmp' width = '100%;'></div></div>","null","neg","CS","CS","3","category3/CS4.png","","","","",""
"","html-keyboard-response","33","247083","0.0-6.0-2.0-0.6","g4s7kxam7q","one_one","1","indirect_first","0","ng10ng22","0","19","1","1","3","1","","0","1","0","null","","","<div class = 'row'><div class = 'column'><img src = 'uspos/8080.bmp' width = '100%;'></div><div class = 'column'><img src = 'category2/CS9.png' width = '70%;'></div></div>","null","pos","CS","CS","2","category2/CS9.png","","","","",""
"","html-keyboard-response","34","249614","0.0-6.0-2.0-0.7","g4s7kxam7q","one_one","1","indirect_first","0","ng10ng22","0","19","1","1","3","1","","0","1","0","null","","","<div class = 'row'><div class = 'column'><img src = 'usneg/3160.bmp' width = '100%;'></div><div class = 'column'><img src = 'category3/CS4.png' width = '70%;'></div></div>","null","neg","CS","CS","3","category3/CS4.png","","","","",""
"","html-keyboard-response","35","252151","0.0-6.0-2.0-0.8","g4s7kxam7q","one_one","1","indirect_first","0","ng10ng22","0","19","1","1","3","1","","0","1","0","null","","","<div class = 'row'><div class = 'column'><img src = 'category1/CS9.png' width = '70%;'></div><div class = 'column'><img src = 'usneg/9560.bmp' width = '100%;'></div></div>","null","neg","CS","CS","1","category1/CS9.png","","","","",""
"","html-keyboard-response","36","254653","0.0-6.0-2.0-0.9","g4s7kxam7q","one_one","1","indirect_first","0","ng10ng22","0","19","1","1","3","1","","0","1","0","null","","","<div class = 'row'><div class = 'column'><img src = 'uspos/1340.bmp' width = '100%;'></div><div class = 'column'><img src = 'category4/CS2.png' width = '70%;'></div></div>","null","pos","CS","CS","4","category4/CS2.png","","","","",""
"","html-keyboard-response","37","257193","0.0-6.0-2.0-0.10","g4s7kxam7q","one_one","1","indirect_first","0","ng10ng22","0","19","1","1","3","1","","0","1","0","null","","","<div class = 'row'><div class = 'column'><img src = 'uspos/8080.bmp' width = '100%;'></div><div class = 'column'><img src = 'category2/CS9.png' width = '70%;'></div></div>","null","pos","CS","CS","2","category2/CS9.png","","","","",""
"","html-keyboard-response","38","259733","0.0-6.0-2.0-0.11","g4s7kxam7q","one_one","1","indirect_first","0","ng10ng22","0","19","1","1","3","1","","0","1","0","null","","","<div class = 'row'><div class = 'column'><img src = 'uspos/1340.bmp' width = '100%;'></div><div class = 'column'><img src = 'category4/CS2.png' width = '70%;'></div></div>","null","pos","CS","CS","4","category4/CS2.png","","","","",""
"","html-keyboard-response","39","262273","0.0-6.0-2.0-0.12","g4s7kxam7q","one_one","1","indirect_first","0","ng10ng22","0","19","1","1","3","1","","0","1","0","null","","","<div class = 'row'><div class = 'column'><img src = 'usneg/9560.bmp' width = '100%;'></div><div class = 'column'><img src = 'category1/CS9.png' width = '70%;'></div></div>","null","neg","CS","CS","1","category1/CS9.png","","","","",""
"","html-keyboard-response","40","264813","0.0-6.0-2.0-0.13","g4s7kxam7q","one_one","1","indirect_first","0","ng10ng22","0","19","1","1","3","1","","0","1","0","null","","","<div class = 'row'><div class = 'column'><img src = 'uspos/1340.bmp' width = '100%;'></div><div class = 'column'><img src = 'category4/CS2.png' width = '70%;'></div></div>","null","pos","CS","CS","4","category4/CS2.png","","","","",""
"","html-keyboard-response","41","267353","0.0-6.0-2.0-0.14","g4s7kxam7q","one_one","1","indirect_first","0","ng10ng22","0","19","1","1","3","1","","0","1","0","null","","","<div class = 'row'><div class = 'column'><img src = 'category3/CS4.png' width = '70%;'></div><div class = 'column'><img src = 'usneg/3160.bmp' width = '100%;'></div></div>","null","neg","CS","CS","3","category3/CS4.png","","","","",""
"","html-keyboard-response","42","269893","0.0-6.0-2.0-0.15","g4s7kxam7q","one_one","1","indirect_first","0","ng10ng22","0","19","1","1","3","1","","0","1","0","null","","","<div class = 'row'><div class = 'column'><img src = 'category2/CS9.png' width = '70%;'></div><div class = 'column'><img src = 'uspos/8080.bmp' width = '100%;'></div></div>","null","pos","CS","CS","2","category2/CS9.png","","","","",""
"","html-keyboard-response","43","272433","0.0-6.0-2.0-0.16","g4s7kxam7q","one_one","1","indirect_first","0","ng10ng22","0","19","1","1","3","1","","0","1","0","null","","","<div class = 'row'><div class = 'column'><img src = 'usneg/9560.bmp' width = '100%;'></div><div class = 'column'><img src = 'category1/CS9.png' width = '70%;'></div></div>","null","neg","CS","CS","1","category1/CS9.png","","","","",""
"","html-keyboard-response","44","274973","0.0-6.0-2.0-0.17","g4s7kxam7q","one_one","1","indirect_first","0","ng10ng22","0","19","1","1","3","1","","0","1","0","null","","","<div class = 'row'><div class = 'column'><img src = 'uspos/8080.bmp' width = '100%;'></div><div class = 'column'><img src = 'category2/CS9.png' width = '70%;'></div></div>","null","pos","CS","CS","2","category2/CS9.png","","","","",""
"","html-keyboard-response","45","277513","0.0-6.0-2.0-0.18","g4s7kxam7q","one_one","1","indirect_first","0","ng10ng22","0","19","1","1","3","1","","0","1","0","null","","","<div class = 'row'><div class = 'column'><img src = 'category1/CS9.png' width = '70%;'></div><div class = 'column'><img src = 'usneg/9560.bmp' width = '100%;'></div></div>","null","neg","CS","CS","1","category1/CS9.png","","","","",""
"","html-keyboard-response","46","280043","0.0-6.0-2.0-0.19","g4s7kxam7q","one_one","1","indirect_first","0","ng10ng22","0","19","1","1","3","1","","0","1","0","null","","","<div class = 'row'><div class = 'column'><img src = 'category3/CS4.png' width = '70%;'></div><div class = 'column'><img src = 'usneg/3160.bmp' width = '100%;'></div></div>","null","neg","CS","CS","3","category3/CS4.png","","","","",""
"","survey-html-form","47","283732","0.0-6.0-3.0","g4s7kxam7q","one_one","1","indirect_first","0","ng10ng22","0","19","1","1","3","1","","0","1","0","3168","","{}","","","","","","","","","","","",""
"","html-keyboard-response","48","287764","0.0-6.0-4.0-0.0","g4s7kxam7q","one_one","1","indirect_first","0","ng10ng22","0","19","1","1","3","1","","0","1","0","null","","","<div class = 'row'><div class = 'column'><img src = 'category1/CS9.png' width = '70%;'></div><div class = 'column'><img src = 'usneg/9560.bmp' width = '100%;'></div></div>","null","neg","CS","CS","1","category1/CS9.png","","","","",""
"","html-keyboard-response","49","290293","0.0-6.0-4.0-0.1","g4s7kxam7q","one_one","1","indirect_first","0","ng10ng22","0","19","1","1","3","1","","0","1","0","null","","","<div class = 'row'><div class = 'column'><img src = 'category2/CS9.png' width = '70%;'></div><div class = 'column'><img src = 'uspos/8080.bmp' width = '100%;'></div></div>","null","pos","CS","CS","2","category2/CS9.png","","","","",""
"","html-keyboard-response","50","292823","0.0-6.0-4.0-0.2","g4s7kxam7q","one_one","1","indirect_first","0","ng10ng22","0","19","1","1","3","1","","0","1","0","null","","","<div class = 'row'><div class = 'column'><img src = 'uspos/1340.bmp' width = '100%;'></div><div class = 'column'><img src = 'category4/CS2.png' width = '70%;'></div></div>","null","pos","CS","CS","4","category4/CS2.png","","","","",""
"","html-keyboard-response","51","295352","0.0-6.0-4.0-0.3","g4s7kxam7q","one_one","1","indirect_first","0","ng10ng22","0","19","1","1","3","1","","0","1","0","null","","","<div class = 'row'><div class = 'column'><img src = 'category1/CS9.png' width = '70%;'></div><div class = 'column'><img src = 'usneg/9560.bmp' width = '100%;'></div></div>","null","neg","CS","CS","1","category1/CS9.png","","","","",""
"","html-keyboard-response","52","297883","0.0-6.0-4.0-0.4","g4s7kxam7q","one_one","1","indirect_first","0","ng10ng22","0","19","1","1","3","1","","0","1","0","null","","","<div class = 'row'><div class = 'column'><img src = 'usneg/3160.bmp' width = '100%;'></div><div class = 'column'><img src = 'category3/CS4.png' width = '70%;'></div></div>","null","neg","CS","CS","3","category3/CS4.png","","","","",""
"","html-keyboard-response","53","300413","0.0-6.0-4.0-0.5","g4s7kxam7q","one_one","1","indirect_first","0","ng10ng22","0","19","1","1","3","1","","0","1","0","null","","","<div class = 'row'><div class = 'column'><img src = 'category1/CS9.png' width = '70%;'></div><div class = 'column'><img src = 'usneg/9560.bmp' width = '100%;'></div></div>","null","neg","CS","CS","1","category1/CS9.png","","","","",""
"","html-keyboard-response","54","302953","0.0-6.0-4.0-0.6","g4s7kxam7q","one_one","1","indirect_first","0","ng10ng22","0","19","1","1","3","1","","0","1","0","null","","","<div class = 'row'><div class = 'column'><img src = 'category2/CS9.png' width = '70%;'></div><div class = 'column'><img src = 'uspos/8080.bmp' width = '100%;'></div></div>","null","pos","CS","CS","2","category2/CS9.png","","","","",""
"","html-keyboard-response","55","305493","0.0-6.0-4.0-0.7","g4s7kxam7q","one_one","1","indirect_first","0","ng10ng22","0","19","1","1","3","1","","0","1","0","null","","","<div class = 'row'><div class = 'column'><img src = 'category4/CS2.png' width = '70%;'></div><div class = 'column'><img src = 'uspos/1340.bmp' width = '100%;'></div></div>","null","pos","CS","CS","4","category4/CS2.png","","","","",""
"","html-keyboard-response","56","308033","0.0-6.0-4.0-0.8","g4s7kxam7q","one_one","1","indirect_first","0","ng10ng22","0","19","1","1","3","1","","0","1","0","null","","","<div class = 'row'><div class = 'column'><img src = 'category2/CS9.png' width = '70%;'></div><div class = 'column'><img src = 'uspos/8080.bmp' width = '100%;'></div></div>","null","pos","CS","CS","2","category2/CS9.png","","","","",""
"","html-keyboard-response","57","310573","0.0-6.0-4.0-0.9","g4s7kxam7q","one_one","1","indirect_first","0","ng10ng22","0","19","1","1","3","1","","0","1","0","null","","","<div class = 'row'><div class = 'column'><img src = 'category3/CS4.png' width = '70%;'></div><div class = 'column'><img src = 'usneg/3160.bmp' width = '100%;'></div></div>","null","neg","CS","CS","3","category3/CS4.png","","","","",""
"","html-keyboard-response","58","313113","0.0-6.0-4.0-0.10","g4s7kxam7q","one_one","1","indirect_first","0","ng10ng22","0","19","1","1","3","1","","0","1","0","null","","","<div class = 'row'><div class = 'column'><img src = 'category4/CS2.png' width = '70%;'></div><div class = 'column'><img src = 'uspos/1340.bmp' width = '100%;'></div></div>","null","pos","CS","CS","4","category4/CS2.png","","","","",""
"","html-keyboard-response","59","315643","0.0-6.0-4.0-0.11","g4s7kxam7q","one_one","1","indirect_first","0","ng10ng22","0","19","1","1","3","1","","0","1","0","null","","","<div class = 'row'><div class = 'column'><img src = 'usneg/3160.bmp' width = '100%;'></div><div class = 'column'><img src = 'category3/CS4.png' width = '70%;'></div></div>","null","neg","CS","CS","3","category3/CS4.png","","","","",""
"","html-keyboard-response","60","318183","0.0-6.0-4.0-0.12","g4s7kxam7q","one_one","1","indirect_first","0","ng10ng22","0","19","1","1","3","1","","0","1","0","null","","","<div class = 'row'><div class = 'column'><img src = 'uspos/1340.bmp' width = '100%;'></div><div class = 'column'><img src = 'category4/CS2.png' width = '70%;'></div></div>","null","pos","CS","CS","4","category4/CS2.png","","","","",""
"","html-keyboard-response","61","320723","0.0-6.0-4.0-0.13","g4s7kxam7q","one_one","1","indirect_first","0","ng10ng22","0","19","1","1","3","1","","0","1","0","null","","","<div class = 'row'><div class = 'column'><img src = 'uspos/8080.bmp' width = '100%;'></div><div class = 'column'><img src = 'category2/CS9.png' width = '70%;'></div></div>","null","pos","CS","CS","2","category2/CS9.png","","","","",""
"","html-keyboard-response","62","323242","0.0-6.0-4.0-0.14","g4s7kxam7q","one_one","1","indirect_first","0","ng10ng22","0","19","1","1","3","1","","0","1","0","null","","","<div class = 'row'><div class = 'column'><img src = 'usneg/9560.bmp' width = '100%;'></div><div class = 'column'><img src = 'category1/CS9.png' width = '70%;'></div></div>","null","neg","CS","CS","1","category1/CS9.png","","","","",""
"","html-keyboard-response","63","325783","0.0-6.0-4.0-0.15","g4s7kxam7q","one_one","1","indirect_first","0","ng10ng22","0","19","1","1","3","1","","0","1","0","null","","","<div class = 'row'><div class = 'column'><img src = 'category2/CS9.png' width = '70%;'></div><div class = 'column'><img src = 'uspos/8080.bmp' width = '100%;'></div></div>","null","pos","CS","CS","2","category2/CS9.png","","","","",""
"","html-keyboard-response","64","328324","0.0-6.0-4.0-0.16","g4s7kxam7q","one_one","1","indirect_first","0","ng10ng22","0","19","1","1","3","1","","0","1","0","null","","","<div class = 'row'><div class = 'column'><img src = 'usneg/3160.bmp' width = '100%;'></div><div class = 'column'><img src = 'category3/CS4.png' width = '70%;'></div></div>","null","neg","CS","CS","3","category3/CS4.png","","","","",""
"","html-keyboard-response","65","330853","0.0-6.0-4.0-0.17","g4s7kxam7q","one_one","1","indirect_first","0","ng10ng22","0","19","1","1","3","1","","0","1","0","null","","","<div class = 'row'><div class = 'column'><img src = 'category1/CS9.png' width = '70%;'></div><div class = 'column'><img src = 'usneg/9560.bmp' width = '100%;'></div></div>","null","neg","CS","CS","1","category1/CS9.png","","","","",""
"","html-keyboard-response","66","333392","0.0-6.0-4.0-0.18","g4s7kxam7q","one_one","1","indirect_first","0","ng10ng22","0","19","1","1","3","1","","0","1","0","null","","","<div class = 'row'><div class = 'column'><img src = 'category3/CS4.png' width = '70%;'></div><div class = 'column'><img src = 'usneg/3160.bmp' width = '100%;'></div></div>","null","neg","CS","CS","3","category3/CS4.png","","","","",""
"","html-keyboard-response","67","335922","0.0-6.0-4.0-0.19","g4s7kxam7q","one_one","1","indirect_first","0","ng10ng22","0","19","1","1","3","1","","0","1","0","null","","","<div class = 'row'><div class = 'column'><img src = 'category4/CS2.png' width = '70%;'></div><div class = 'column'><img src = 'uspos/1340.bmp' width = '100%;'></div></div>","null","pos","CS","CS","4","category4/CS2.png","","","","",""
"","survey-html-form","68","345937","0.0-6.0-5.0","g4s7kxam7q","one_one","1","indirect_first","0","ng10ng22","0","19","1","1","3","1","","0","1","0","9514","","{}","","","","","","","","","","","",""
"","html-keyboard-response","69","349963","0.0-6.0-6.0-0.0","g4s7kxam7q","one_one","1","indirect_first","0","ng10ng22","0","19","1","1","3","1","","0","1","0","null","","","<div class = 'row'><div class = 'column'><img src = 'uspos/8080.bmp' width = '100%;'></div><div class = 'column'><img src = 'category2/CS9.png' width = '70%;'></div></div>","null","pos","CS","CS","2","category2/CS9.png","","","","",""
"","html-keyboard-response","70","352502","0.0-6.0-6.0-0.1","g4s7kxam7q","one_one","1","indirect_first","0","ng10ng22","0","19","1","1","3","1","","0","1","0","null","","","<div class = 'row'><div class = 'column'><img src = 'category1/CS9.png' width = '70%;'></div><div class = 'column'><img src = 'usneg/9560.bmp' width = '100%;'></div></div>","null","neg","CS","CS","1","category1/CS9.png","","","","",""
"","html-keyboard-response","71","355043","0.0-6.0-6.0-0.2","g4s7kxam7q","one_one","1","indirect_first","0","ng10ng22","0","19","1","1","3","1","","0","1","0","null","","","<div class = 'row'><div class = 'column'><img src = 'usneg/3160.bmp' width = '100%;'></div><div class = 'column'><img src = 'category3/CS4.png' width = '70%;'></div></div>","null","neg","CS","CS","3","category3/CS4.png","","","","",""
"","html-keyboard-response","72","357583","0.0-6.0-6.0-0.3","g4s7kxam7q","one_one","1","indirect_first","0","ng10ng22","0","19","1","1","3","1","","0","1","0","null","","","<div class = 'row'><div class = 'column'><img src = 'uspos/1340.bmp' width = '100%;'></div><div class = 'column'><img src = 'category4/CS2.png' width = '70%;'></div></div>","null","pos","CS","CS","4","category4/CS2.png","","","","",""
"","html-keyboard-response","73","360112","0.0-6.0-6.0-0.4","g4s7kxam7q","one_one","1","indirect_first","0","ng10ng22","0","19","1","1","3","1","","0","1","0","null","","","<div class = 'row'><div class = 'column'><img src = 'category2/CS9.png' width = '70%;'></div><div class = 'column'><img src = 'uspos/8080.bmp' width = '100%;'></div></div>","null","pos","CS","CS","2","category2/CS9.png","","","","",""
"","html-keyboard-response","74","362643","0.0-6.0-6.0-0.5","g4s7kxam7q","one_one","1","indirect_first","0","ng10ng22","0","19","1","1","3","1","","0","1","0","null","","","<div class = 'row'><div class = 'column'><img src = 'usneg/9560.bmp' width = '100%;'></div><div class = 'column'><img src = 'category1/CS9.png' width = '70%;'></div></div>","null","neg","CS","CS","1","category1/CS9.png","","","","",""
"","html-keyboard-response","75","365182","0.0-6.0-6.0-0.6","g4s7kxam7q","one_one","1","indirect_first","0","ng10ng22","0","19","1","1","3","1","","0","1","0","null","","","<div class = 'row'><div class = 'column'><img src = 'category3/CS4.png' width = '70%;'></div><div class = 'column'><img src = 'usneg/3160.bmp' width = '100%;'></div></div>","null","neg","CS","CS","3","category3/CS4.png","","","","",""
"","html-keyboard-response","76","367723","0.0-6.0-6.0-0.7","g4s7kxam7q","one_one","1","indirect_first","0","ng10ng22","0","19","1","1","3","1","","0","1","0","null","","","<div class = 'row'><div class = 'column'><img src = 'category2/CS9.png' width = '70%;'></div><div class = 'column'><img src = 'uspos/8080.bmp' width = '100%;'></div></div>","null","pos","CS","CS","2","category2/CS9.png","","","","",""
"","html-keyboard-response","77","370252","0.0-6.0-6.0-0.8","g4s7kxam7q","one_one","1","indirect_first","0","ng10ng22","0","19","1","1","3","1","","0","1","0","null","","","<div class = 'row'><div class = 'column'><img src = 'uspos/1340.bmp' width = '100%;'></div><div class = 'column'><img src = 'category4/CS2.png' width = '70%;'></div></div>","null","pos","CS","CS","4","category4/CS2.png","","","","",""
"","html-keyboard-response","78","372769","0.0-6.0-6.0-0.9","g4s7kxam7q","one_one","1","indirect_first","0","ng10ng22","0","19","1","1","3","1","","0","1","0","null","","","<div class = 'row'><div class = 'column'><img src = 'category3/CS4.png' width = '70%;'></div><div class = 'column'><img src = 'usneg/3160.bmp' width = '100%;'></div></div>","null","neg","CS","CS","3","category3/CS4.png","","","","",""
"","html-keyboard-response","79","375273","0.0-6.0-6.0-0.10","g4s7kxam7q","one_one","1","indirect_first","0","ng10ng22","0","19","1","1","3","1","","0","1","0","null","","","<div class = 'row'><div class = 'column'><img src = 'usneg/9560.bmp' width = '100%;'></div><div class = 'column'><img src = 'category1/CS9.png' width = '70%;'></div></div>","null","neg","CS","CS","1","category1/CS9.png","","","","",""
"","html-keyboard-response","80","377812","0.0-6.0-6.0-0.11","g4s7kxam7q","one_one","1","indirect_first","0","ng10ng22","0","19","1","1","3","1","","0","1","0","null","","","<div class = 'row'><div class = 'column'><img src = 'category3/CS4.png' width = '70%;'></div><div class = 'column'><img src = 'usneg/3160.bmp' width = '100%;'></div></div>","null","neg","CS","CS","3","category3/CS4.png","","","","",""
"","html-keyboard-response","81","380353","0.0-6.0-6.0-0.12","g4s7kxam7q","one_one","1","indirect_first","0","ng10ng22","0","19","1","1","3","1","","0","1","0","null","","","<div class = 'row'><div class = 'column'><img src = 'category1/CS9.png' width = '70%;'></div><div class = 'column'><img src = 'usneg/9560.bmp' width = '100%;'></div></div>","null","neg","CS","CS","1","category1/CS9.png","","","","",""
"","html-keyboard-response","82","382883","0.0-6.0-6.0-0.13","g4s7kxam7q","one_one","1","indirect_first","0","ng10ng22","0","19","1","1","3","1","","0","1","0","null","","","<div class = 'row'><div class = 'column'><img src = 'uspos/8080.bmp' width = '100%;'></div><div class = 'column'><img src = 'category2/CS9.png' width = '70%;'></div></div>","null","pos","CS","CS","2","category2/CS9.png","","","","",""
"","html-keyboard-response","83","385423","0.0-6.0-6.0-0.14","g4s7kxam7q","one_one","1","indirect_first","0","ng10ng22","0","19","1","1","3","1","","0","1","0","null","","","<div class = 'row'><div class = 'column'><img src = 'uspos/1340.bmp' width = '100%;'></div><div class = 'column'><img src = 'category4/CS2.png' width = '70%;'></div></div>","null","pos","CS","CS","4","category4/CS2.png","","","","",""
"","html-keyboard-response","84","387963","0.0-6.0-6.0-0.15","g4s7kxam7q","one_one","1","indirect_first","0","ng10ng22","0","19","1","1","3","1","","0","1","0","null","","","<div class = 'row'><div class = 'column'><img src = 'category3/CS4.png' width = '70%;'></div><div class = 'column'><img src = 'usneg/3160.bmp' width = '100%;'></div></div>","null","neg","CS","CS","3","category3/CS4.png","","","","",""
"","html-keyboard-response","85","390502","0.0-6.0-6.0-0.16","g4s7kxam7q","one_one","1","indirect_first","0","ng10ng22","0","19","1","1","3","1","","0","1","0","null","","","<div class = 'row'><div class = 'column'><img src = 'uspos/1340.bmp' width = '100%;'></div><div class = 'column'><img src = 'category4/CS2.png' width = '70%;'></div></div>","null","pos","CS","CS","4","category4/CS2.png","","","","",""
"","html-keyboard-response","86","393043","0.0-6.0-6.0-0.17","g4s7kxam7q","one_one","1","indirect_first","0","ng10ng22","0","19","1","1","3","1","","0","1","0","null","","","<div class = 'row'><div class = 'column'><img src = 'uspos/8080.bmp' width = '100%;'></div><div class = 'column'><img src = 'category2/CS9.png' width = '70%;'></div></div>","null","pos","CS","CS","2","category2/CS9.png","","","","",""
"","html-keyboard-response","87","395583","0.0-6.0-6.0-0.18","g4s7kxam7q","one_one","1","indirect_first","0","ng10ng22","0","19","1","1","3","1","","0","1","0","null","","","<div class = 'row'><div class = 'column'><img src = 'uspos/1340.bmp' width = '100%;'></div><div class = 'column'><img src = 'category4/CS2.png' width = '70%;'></div></div>","null","pos","CS","CS","4","category4/CS2.png","","","","",""
"","html-keyboard-response","88","398123","0.0-6.0-6.0-0.19","g4s7kxam7q","one_one","1","indirect_first","0","ng10ng22","0","19","1","1","3","1","","0","1","0","null","","","<div class = 'row'><div class = 'column'><img src = 'usneg/9560.bmp' width = '100%;'></div><div class = 'column'><img src = 'category1/CS9.png' width = '70%;'></div></div>","null","neg","CS","CS","1","category1/CS9.png","","","","",""
"","html-keyboard-response","89","446586","0.0-7.0","g4s7kxam7q","one_one","1","indirect_first","0","ng10ng22","0","19","1","1","3","1","","0","1","0","47940","","","<p>Sie sehen nun die chinesischen Zeichen nur ganz kurz. Danach sehen Sie die jeweilige Aussprache der Zeichen als Silbe auf dem Bildschrim. Ihre Aufgabe ist es, für jede Silbe anzugeben, ob diese etwas angenehmes, oder unangenehmes bedeuten könnte. Verlassen Sie sich hier vor allem auf Ihre Intuition.<br><br>Die Zeichen werden nur zur Orientierung dargestellt, beachten Sie sie deshalb nicht. Konzentrieren Sie sich vor allem auf die Silben. <br>Reagieren Sie mit folgenden zwei Tasten: <br><br><b>'D' </b> wenn die Silbe etwas <b>unangenehmes</b> bedeuten könnte. <br><b>'K'</b> wenn die Silbe etwas <b>angenehmes</b> bedeuten könnte. <br><br>Bitte legen Sie nun den Zeigefinger der linken Hand auf die Taste 'D' und den Zeigefinger der rechten Hand auf die Taste 'K'. <br>Reagieren Sie auf jede Silbe so schnell wie möglich. Uns interessiert Ihre spontane Reaktion. <br> <br> <br>Drücken Sie 'D' oder 'K', um die nächste Aufgabe zu starten. </p>","68","","","","","","","","","",""
"","html-keyboard-response","90","449602","0.0-8.0-0.0","g4s7kxam7q","one_one","1","indirect_first","0","ng10ng22","0","19","1","1","3","1","","0","1","0","null","","","<div style=""font-size:60px;"">+</div>","null","","","","","","","","","",""
"","html-keyboard-response","91","449703","0.0-8.0-1.0","g4s7kxam7q","one_one","1","indirect_first","0","ng10ng22","0","19","1","1","3","1","","0","1","0","null","","","<img src = 'category2/CS8.png' width = '100%;'>","null","","","","","","","","","",""
"","html-keyboard-response","92","449983","0.0-8.0-2.0","g4s7kxam7q","one_one","1","indirect_first","0","ng10ng22","0","19","1","1","3","1","","0","1","0","null","","","<img src = 'targets/1.png' width = '100%;'>","null","","","","","","","","","",""
"","html-keyboard-response","93","454712","0.0-8.0-3.0","g4s7kxam7q","one_one","1","indirect_first","0","ng10ng22","0","19","1","1","3","1","","0","1","0","4725","","","<img src = 'targets/mask.png' width = '100%;'>","68","pos","GS","GSold","2","category2/CS8.png","targets/1.png","0","indirect","0",""
"","html-keyboard-response","94","456252","0.0-8.0-0.1","g4s7kxam7q","one_one","1","indirect_first","0","ng10ng22","0","19","1","1","3","1","","0","1","0","null","","","<div style=""font-size:60px;"">+</div>","null","","","","","","","","","",""
"","html-keyboard-response","95","456352","0.0-8.0-1.1","g4s7kxam7q","one_one","1","indirect_first","0","ng10ng22","0","19","1","1","3","1","","0","1","0","null","","","<img src = 'category3/CS1.png' width = '100%;'>","null","","","","","","","","","",""
"","html-keyboard-response","96","456622","0.0-8.0-2.1","g4s7kxam7q","one_one","1","indirect_first","0","ng10ng22","0","19","1","1","3","1","","0","1","0","null","","","<img src = 'targets/46.png' width = '100%;'>","null","","","","","","","","","",""
"","html-keyboard-response","97","458679","0.0-8.0-3.1","g4s7kxam7q","one_one","1","indirect_first","0","ng10ng22","0","19","1","1","3","1","","0","1","0","2055","","","<img src = 'targets/mask.png' width = '100%;'>","75","neg","GS","GSold","3","category3/CS1.png","targets/46.png","1","indirect","1",""
"","html-keyboard-response","98","460201","0.0-8.0-0.2","g4s7kxam7q","one_one","1","indirect_first","0","ng10ng22","0","19","1","1","3","1","","0","1","0","null","","","<div style=""font-size:60px;"">+</div>","null","","","","","","","","","",""
"","html-keyboard-response","99","460301","0.0-8.0-1.2","g4s7kxam7q","one_one","1","indirect_first","0","ng10ng22","0","19","1","1","3","1","","0","1","0","null","","","<img src = 'category1/CS1.png' width = '100%;'>","null","","","","","","","","","",""
"","html-keyboard-response","100","460583","0.0-8.0-2.2","g4s7kxam7q","one_one","1","indirect_first","0","ng10ng22","0","19","1","1","3","1","","0","1","0","null","","","<img src = 'targets/34.png' width = '100%;'>","null","","","","","","","","","",""
"","html-keyboard-response","101","461620","0.0-8.0-3.2","g4s7kxam7q","one_one","1","indirect_first","0","ng10ng22","0","19","1","1","3","1","","0","1","0","1037","","","<img src = 'targets/mask.png' width = '100%;'>","68","neg","GS","GSold","1","category1/CS1.png","targets/34.png","0","indirect","2",""
"","html-keyboard-response","102","463142","0.0-8.0-0.3","g4s7kxam7q","one_one","1","indirect_first","0","ng10ng22","0","19","1","1","3","1","","0","1","0","null","","","<div style=""font-size:60px;"">+</div>","null","","","","","","","","","",""
"","html-keyboard-response","103","463243","0.0-8.0-1.3","g4s7kxam7q","one_one","1","indirect_first","0","ng10ng22","0","19","1","1","3","1","","0","1","0","null","","","<img src = 'category4/CS5.png' width = '100%;'>","null","","","","","","","","","",""
"","html-keyboard-response","104","463523","0.0-8.0-2.3","g4s7kxam7q","one_one","1","indirect_first","0","ng10ng22","0","19","1","1","3","1","","0","1","0","null","","","<img src = 'targets/44.png' width = '100%;'>","null","","","","","","","","","",""
"","html-keyboard-response","105","464406","0.0-8.0-3.3","g4s7kxam7q","one_one","1","indirect_first","0","ng10ng22","0","19","1","1","3","1","","0","1","0","881","","","<img src = 'targets/mask.png' width = '100%;'>","75","pos","GS","GSold","4","category4/CS5.png","targets/44.png","1","indirect","3",""
"","html-keyboard-response","106","465943","0.0-8.0-0.4","g4s7kxam7q","one_one","1","indirect_first","0","ng10ng22","0","19","1","1","3","1","","0","1","0","null","","","<div style=""font-size:60px;"">+</div>","null","","","","","","","","","",""
"","html-keyboard-response","107","466043","0.0-8.0-1.4","g4s7kxam7q","one_one","1","indirect_first","0","ng10ng22","0","19","1","1","3","1","","0","1","0","null","","","<img src = 'category3/CS10.png' width = '100%;'>","null","","","","","","","","","",""
"","html-keyboard-response","108","466323","0.0-8.0-2.4","g4s7kxam7q","one_one","1","indirect_first","0","ng10ng22","0","19","1","1","3","1","","0","1","0","null","","","<img src = 'targets/2.png' width = '100%;'>","null","","","","","","","","","",""
"","html-keyboard-response","109","467316","0.0-8.0-3.4","g4s7kxam7q","one_one","1","indirect_first","0","ng10ng22","0","19","1","1","3","1","","0","1","0","991","","","<img src = 'targets/mask.png' width = '100%;'>","75","neg","GS","GSold","3","category3/CS10.png","targets/2.png","1","indirect","4",""
"","html-keyboard-response","110","468833","0.0-8.0-0.5","g4s7kxam7q","one_one","1","indirect_first","0","ng10ng22","0","19","1","1","3","1","","0","1","0","null","","","<div style=""font-size:60px;"">+</div>","null","","","","","","","","","",""
"","html-keyboard-response","111","468932","0.0-8.0-1.5","g4s7kxam7q","one_one","1","indirect_first","0","ng10ng22","0","19","1","1","3","1","","0","1","0","null","","","<img src = 'category4/CS2.png' width = '100%;'>","null","","","","","","","","","",""
"","html-keyboard-response","112","469212","0.0-8.0-2.5","g4s7kxam7q","one_one","1","indirect_first","0","ng10ng22","0","19","1","1","3","1","","0","1","0","null","","","<img src = 'targets/32.png' width = '100%;'>","null","","","","","","","","","",""
"","html-keyboard-response","113","470899","0.0-8.0-3.5","g4s7kxam7q","one_one","1","indirect_first","0","ng10ng22","0","19","1","1","3","1","","0","1","0","1685","","","<img src = 'targets/mask.png' width = '100%;'>","68","pos","CS","CS","4","category4/CS2.png","targets/32.png","0","indirect","5",""
"","html-keyboard-response","114","472429","0.0-8.0-0.6","g4s7kxam7q","one_one","1","indirect_first","0","ng10ng22","0","19","1","1","3","1","","0","1","0","null","","","<div style=""font-size:60px;"">+</div>","null","","","","","","","","","",""
"","html-keyboard-response","115","472530","0.0-8.0-1.6","g4s7kxam7q","one_one","1","indirect_first","0","ng10ng22","0","19","1","1","3","1","","0","1","0","null","","","<img src = 'category1/CS4.png' width = '100%;'>","null","","","","","","","","","",""
"","html-keyboard-response","116","472812","0.0-8.0-2.6","g4s7kxam7q","one_one","1","indirect_first","0","ng10ng22","0","19","1","1","3","1","","0","1","0","null","","","<img src = 'targets/36.png' width = '100%;'>","null","","","","","","","","","",""
"","html-keyboard-response","117","474447","0.0-8.0-3.6","g4s7kxam7q","one_one","1","indirect_first","0","ng10ng22","0","19","1","1","3","1","","0","1","0","1633","","","<img src = 'targets/mask.png' width = '100%;'>","68","neg","GS","GSold","1","category1/CS4.png","targets/36.png","0","indirect","6",""
"","html-keyboard-response","118","475972","0.0-8.0-0.7","g4s7kxam7q","one_one","1","indirect_first","0","ng10ng22","0","19","1","1","3","1","","0","1","0","null","","","<div style=""font-size:60px;"">+</div>","null","","","","","","","","","",""
"","html-keyboard-response","119","476072","0.0-8.0-1.7","g4s7kxam7q","one_one","1","indirect_first","0","ng10ng22","0","19","1","1","3","1","","0","1","0","null","","","<img src = 'category2/CS3.png' width = '100%;'>","null","","","","","","","","","",""
"","html-keyboard-response","120","476342","0.0-8.0-2.7","g4s7kxam7q","one_one","1","indirect_first","0","ng10ng22","0","19","1","1","3","1","","0","1","0","null","","","<img src = 'targets/18.png' width = '100%;'>","null","","","","","","","","","",""
"","html-keyboard-response","121","478044","0.0-8.0-3.7","g4s7kxam7q","one_one","1","indirect_first","0","ng10ng22","0","19","1","1","3","1","","0","1","0","1699","","","<img src = 'targets/mask.png' width = '100%;'>","68","pos","GS","GSold","2","category2/CS3.png","targets/18.png","0","indirect","7",""
"","html-keyboard-response","122","479582","0.0-8.0-0.8","g4s7kxam7q","one_one","1","indirect_first","0","ng10ng22","0","19","1","1","3","1","","0","1","0","null","","","<div style=""font-size:60px;"">+</div>","null","","","","","","","","","",""
"","html-keyboard-response","123","479683","0.0-8.0-1.8","g4s7kxam7q","one_one","1","indirect_first","0","ng10ng22","0","19","1","1","3","1","","0","1","0","null","","","<img src = 'category3/CS8.png' width = '100%;'>","null","","","","","","","","","",""
"","html-keyboard-response","124","479952","0.0-8.0-2.8","g4s7kxam7q","one_one","1","indirect_first","0","ng10ng22","0","19","1","1","3","1","","0","1","0","null","","","<img src = 'targets/6.png' width = '100%;'>","null","","","","","","","","","",""
"","html-keyboard-response","125","480633","0.0-8.0-3.8","g4s7kxam7q","one_one","1","indirect_first","0","ng10ng22","0","19","1","1","3","1","","0","1","0","680","","","<img src = 'targets/mask.png' width = '100%;'>","75","neg","GS","GSold","3","category3/CS8.png","targets/6.png","1","indirect","8",""
"","html-keyboard-response","126","482153","0.0-8.0-0.9","g4s7kxam7q","one_one","1","indirect_first","0","ng10ng22","0","19","1","1","3","1","","0","1","0","null","","","<div style=""font-size:60px;"">+</div>","null","","","","","","","","","",""
"","html-keyboard-response","127","482252","0.0-8.0-1.9","g4s7kxam7q","one_one","1","indirect_first","0","ng10ng22","0","19","1","1","3","1","","0","1","0","null","","","<img src = 'category2/CS4.png' width = '100%;'>","null","","","","","","","","","",""
"","html-keyboard-response","128","482533","0.0-8.0-2.9","g4s7kxam7q","one_one","1","indirect_first","0","ng10ng22","0","19","1","1","3","1","","0","1","0","null","","","<img src = 'targets/4.png' width = '100%;'>","null","","","","","","","","","",""
"","html-keyboard-response","129","483469","0.0-8.0-3.9","g4s7kxam7q","one_one","1","indirect_first","0","ng10ng22","0","19","1","1","3","1","","0","1","0","934","","","<img src = 'targets/mask.png' width = '100%;'>","75","pos","GS","GSold","2","category2/CS4.png","targets/4.png","1","indirect","9",""
"","html-keyboard-response","130","484983","0.0-8.0-0.10","g4s7kxam7q","one_one","1","indirect_first","0","ng10ng22","0","19","1","1","3","1","","0","1","0","null","","","<div style=""font-size:60px;"">+</div>","null","","","","","","","","","",""
"","html-keyboard-response","131","485082","0.0-8.0-1.10","g4s7kxam7q","one_one","1","indirect_first","0","ng10ng22","0","19","1","1","3","1","","0","1","0","null","","","<img src = 'category1/CS9.png' width = '100%;'>","null","","","","","","","","","",""
"","html-keyboard-response","132","485362","0.0-8.0-2.10","g4s7kxam7q","one_one","1","indirect_first","0","ng10ng22","0","19","1","1","3","1","","0","1","0","null","","","<img src = 'targets/10.png' width = '100%;'>","null","","","","","","","","","",""
"","html-keyboard-response","133","486061","0.0-8.0-3.10","g4s7kxam7q","one_one","1","indirect_first","0","ng10ng22","0","19","1","1","3","1","","0","1","0","698","","","<img src = 'targets/mask.png' width = '100%;'>","75","neg","CS","CS","1","category1/CS9.png","targets/10.png","1","indirect","10",""
"","html-keyboard-response","134","487579","0.0-8.0-0.11","g4s7kxam7q","one_one","1","indirect_first","0","ng10ng22","0","19","1","1","3","1","","0","1","0","null","","","<div style=""font-size:60px;"">+</div>","null","","","","","","","","","",""
"","html-keyboard-response","135","487679","0.0-8.0-1.11","g4s7kxam7q","one_one","1","indirect_first","0","ng10ng22","0","19","1","1","3","1","","0","1","0","null","","","<img src = 'category1/CS10.png' width = '100%;'>","null","","","","","","","","","",""
"","html-keyboard-response","136","487963","0.0-8.0-2.11","g4s7kxam7q","one_one","1","indirect_first","0","ng10ng22","0","19","1","1","3","1","","0","1","0","null","","","<img src = 'targets/16.png' width = '100%;'>","null","","","","","","","","","",""
"","html-keyboard-response","137","489282","0.0-8.0-3.11","g4s7kxam7q","one_one","1","indirect_first","0","ng10ng22","0","19","1","1","3","1","","0","1","0","1317","","","<img src = 'targets/mask.png' width = '100%;'>","75","neg","GS","GSold","1","category1/CS10.png","targets/16.png","1","indirect","11",""
"","html-keyboard-response","138","490822","0.0-8.0-0.12","g4s7kxam7q","one_one","1","indirect_first","0","ng10ng22","0","19","1","1","3","1","","0","1","0","null","","","<div style=""font-size:60px;"">+</div>","null","","","","","","","","","",""
"","html-keyboard-response","139","490922","0.0-8.0-1.12","g4s7kxam7q","one_one","1","indirect_first","0","ng10ng22","0","19","1","1","3","1","","0","1","0","null","","","<img src = 'category2/CS9.png' width = '100%;'>","null","","","","","","","","","",""
"","html-keyboard-response","140","491202","0.0-8.0-2.12","g4s7kxam7q","one_one","1","indirect_first","0","ng10ng22","0","19","1","1","3","1","","0","1","0","null","","","<img src = 'targets/33.png' width = '100%;'>","null","","","","","","","","","",""
"","html-keyboard-response","141","491998","0.0-8.0-3.12","g4s7kxam7q","one_one","1","indirect_first","0","ng10ng22","0","19","1","1","3","1","","0","1","0","793","","","<img src = 'targets/mask.png' width = '100%;'>","75","pos","CS","CS","2","category2/CS9.png","targets/33.png","1","indirect","12",""
"","html-keyboard-response","142","493523","0.0-8.0-0.13","g4s7kxam7q","one_one","1","indirect_first","0","ng10ng22","0","19","1","1","3","1","","0","1","0","null","","","<div style=""font-size:60px;"">+</div>","null","","","","","","","","","",""
"","html-keyboard-response","143","493622","0.0-8.0-1.13","g4s7kxam7q","one_one","1","indirect_first","0","ng10ng22","0","19","1","1","3","1","","0","1","0","null","","","<img src = 'category4/CS8.png' width = '100%;'>","null","","","","","","","","","",""
"","html-keyboard-response","144","493903","0.0-8.0-2.13","g4s7kxam7q","one_one","1","indirect_first","0","ng10ng22","0","19","1","1","3","1","","0","1","0","null","","","<img src = 'targets/13.png' width = '100%;'>","null","","","","","","","","","",""
"","html-keyboard-response","145","494484","0.0-8.0-3.13","g4s7kxam7q","one_one","1","indirect_first","0","ng10ng22","0","19","1","1","3","1","","0","1","0","581","","","<img src = 'targets/mask.png' width = '100%;'>","68","pos","GS","GSold","4","category4/CS8.png","targets/13.png","0","indirect","13",""
"","html-keyboard-response","146","496002","0.0-8.0-0.14","g4s7kxam7q","one_one","1","indirect_first","0","ng10ng22","0","19","1","1","3","1","","0","1","0","null","","","<div style=""font-size:60px;"">+</div>","null","","","","","","","","","",""
"","html-keyboard-response","147","496102","0.0-8.0-1.14","g4s7kxam7q","one_one","1","indirect_first","0","ng10ng22","0","19","1","1","3","1","","0","1","0","null","","","<img src = 'category4/CS6.png' width = '100%;'>","null","","","","","","","","","",""
"","html-keyboard-response","148","496382","0.0-8.0-2.14","g4s7kxam7q","one_one","1","indirect_first","0","ng10ng22","0","19","1","1","3","1","","0","1","0","null","","","<img src = 'targets/11.png' width = '100%;'>","null","","","","","","","","","",""
"","html-keyboard-response","149","497677","0.0-8.0-3.14","g4s7kxam7q","one_one","1","indirect_first","0","ng10ng22","0","19","1","1","3","1","","0","1","0","1292","","","<img src = 'targets/mask.png' width = '100%;'>","68","pos","GS","GSold","4","category4/CS6.png","targets/11.png","0","indirect","14",""
"","html-keyboard-response","150","499202","0.0-8.0-0.15","g4s7kxam7q","one_one","1","indirect_first","0","ng10ng22","0","19","1","1","3","1","","0","1","0","null","","","<div style=""font-size:60px;"">+</div>","null","","","","","","","","","",""
"","html-keyboard-response","151","499302","0.0-8.0-1.15","g4s7kxam7q","one_one","1","indirect_first","0","ng10ng22","0","19","1","1","3","1","","0","1","0","null","","","<img src = 'category3/CS4.png' width = '100%;'>","null","","","","","","","","","",""
"","html-keyboard-response","152","499582","0.0-8.0-2.15","g4s7kxam7q","one_one","1","indirect_first","0","ng10ng22","0","19","1","1","3","1","","0","1","0","null","","","<img src = 'targets/15.png' width = '100%;'>","null","","","","","","","","","",""
"","html-keyboard-response","153","500220","0.0-8.0-3.15","g4s7kxam7q","one_one","1","indirect_first","0","ng10ng22","0","19","1","1","3","1","","0","1","0","637","","","<img src = 'targets/mask.png' width = '100%;'>","68","neg","CS","CS","3","category3/CS4.png","targets/15.png","0","indirect","15",""
"","survey-html-form","154","506553","0.0-9.0","g4s7kxam7q","one_one","1","indirect_first","0","ng10ng22","0","19","1","1","3","1","","0","1","0","5830","","{}","","","","","","","","","","","",""
"","html-keyboard-response","155","509582","0.0-10.0-0.0","g4s7kxam7q","one_one","1","indirect_first","0","ng10ng22","0","19","1","1","3","1","","0","1","0","null","","","<div style=""font-size:60px;"">+</div>","null","","","","","","","","","",""
"","html-keyboard-response","156","509682","0.0-10.0-1.0","g4s7kxam7q","one_one","1","indirect_first","0","ng10ng22","0","19","1","1","3","1","","0","1","0","null","","","<img src = 'category4/GS2.png' width = '100%;'>","null","","","","","","","","","",""
"","html-keyboard-response","157","509963","0.0-10.0-2.0","g4s7kxam7q","one_one","1","indirect_first","0","ng10ng22","0","19","1","1","3","1","","0","1","0","null","","","<img src = 'targets/22.png' width = '100%;'>","null","","","","","","","","","",""
"","html-keyboard-response","158","511444","0.0-10.0-3.0","g4s7kxam7q","one_one","1","indirect_first","0","ng10ng22","0","19","1","1","3","1","","0","1","0","1480","","","<img src = 'targets/mask.png' width = '100%;'>","75","pos","GS","GSnew","4","category4/GS2.png","targets/22.png","1","indirect","16",""
"","html-keyboard-response","159","512972","0.0-10.0-0.1","g4s7kxam7q","one_one","1","indirect_first","0","ng10ng22","0","19","1","1","3","1","","0","1","0","null","","","<div style=""font-size:60px;"">+</div>","null","","","","","","","","","",""
"","html-keyboard-response","160","513072","0.0-10.0-1.1","g4s7kxam7q","one_one","1","indirect_first","0","ng10ng22","0","19","1","1","3","1","","0","1","0","null","","","<img src = 'category1/ma.png' width = '100%;'>","null","","","","","","","","","",""
"","html-keyboard-response","161","513353","0.0-10.0-2.1","g4s7kxam7q","one_one","1","indirect_first","0","ng10ng22","0","19","1","1","3","1","","0","1","0","null","","","<img src = 'targets/27.png' width = '100%;'>","null","","","","","","","","","",""
"","html-keyboard-response","162","514108","0.0-10.0-3.1","g4s7kxam7q","one_one","1","indirect_first","0","ng10ng22","0","19","1","1","3","1","","0","1","0","754","","","<img src = 'targets/mask.png' width = '100%;'>","75","neg","GS","abstract","1","category1/ma.png","targets/27.png","1","indirect","17",""
"","html-keyboard-response","163","515613","0.0-10.0-0.2","g4s7kxam7q","one_one","1","indirect_first","0","ng10ng22","0","19","1","1","3","1","","0","1","0","null","","","<div style=""font-size:60px;"">+</div>","null","","","","","","","","","",""
"","html-keyboard-response","164","515713","0.0-10.0-1.2","g4s7kxam7q","one_one","1","indirect_first","0","ng10ng22","0","19","1","1","3","1","","0","1","0","null","","","<img src = 'category1/GS2.png' width = '100%;'>","null","","","","","","","","","",""
"","html-keyboard-response","165","515982","0.0-10.0-2.2","g4s7kxam7q","one_one","1","indirect_first","0","ng10ng22","0","19","1","1","3","1","","0","1","0","null","","","<img src = 'targets/24.png' width = '100%;'>","null","","","","","","","","","",""
"","html-keyboard-response","166","516867","0.0-10.0-3.2","g4s7kxam7q","one_one","1","indirect_first","0","ng10ng22","0","19","1","1","3","1","","0","1","0","885","","","<img src = 'targets/mask.png' width = '100%;'>","75","neg","GS","GSnew","1","category1/GS2.png","targets/24.png","1","indirect","18",""
"","html-keyboard-response","167","518403","0.0-10.0-0.3","g4s7kxam7q","one_one","1","indirect_first","0","ng10ng22","0","19","1","1","3","1","","0","1","0","null","","","<div style=""font-size:60px;"">+</div>","null","","","","","","","","","",""
"","html-keyboard-response","168","518502","0.0-10.0-1.3","g4s7kxam7q","one_one","1","indirect_first","0","ng10ng22","0","19","1","1","3","1","","0","1","0","null","","","<img src = 'category4/GS3.png' width = '100%;'>","null","","","","","","","","","",""
"","html-keyboard-response","169","518782","0.0-10.0-2.3","g4s7kxam7q","one_one","1","indirect_first","0","ng10ng22","0","19","1","1","3","1","","0","1","0","null","","","<img src = 'targets/12.png' width = '100%;'>","null","","","","","","","","","",""
"","html-keyboard-response","170","519928","0.0-10.0-3.3","g4s7kxam7q","one_one","1","indirect_first","0","ng10ng22","0","19","1","1","3","1","","0","1","0","1143","","","<img src = 'targets/mask.png' width = '100%;'>","75","pos","GS","GSnew","4","category4/GS3.png","targets/12.png","1","indirect","19",""
"","html-keyboard-response","171","521462","0.0-10.0-0.4","g4s7kxam7q","one_one","1","indirect_first","0","ng10ng22","0","19","1","1","3","1","","0","1","0","null","","","<div style=""font-size:60px;"">+</div>","null","","","","","","","","","",""
"","html-keyboard-response","172","521563","0.0-10.0-1.4","g4s7kxam7q","one_one","1","indirect_first","0","ng10ng22","0","19","1","1","3","1","","0","1","0","null","","","<img src = 'category3/GS2.png' width = '100%;'>","null","","","","","","","","","",""
"","html-keyboard-response","173","521842","0.0-10.0-2.4","g4s7kxam7q","one_one","1","indirect_first","0","ng10ng22","0","19","1","1","3","1","","0","1","0","null","","","<img src = 'targets/17.png' width = '100%;'>","null","","","","","","","","","",""
"","html-keyboard-response","174","522664","0.0-10.0-3.4","g4s7kxam7q","one_one","1","indirect_first","0","ng10ng22","0","19","1","1","3","1","","0","1","0","821","","","<img src = 'targets/mask.png' width = '100%;'>","68","neg","GS","GSnew","3","category3/GS2.png","targets/17.png","0","indirect","20",""
"","html-keyboard-response","175","524183","0.0-10.0-0.5","g4s7kxam7q","one_one","1","indirect_first","0","ng10ng22","0","19","1","1","3","1","","0","1","0","null","","","<div style=""font-size:60px;"">+</div>","null","","","","","","","","","",""
"","html-keyboard-response","176","524283","0.0-10.0-1.5","g4s7kxam7q","one_one","1","indirect_first","0","ng10ng22","0","19","1","1","3","1","","0","1","0","null","","","<img src = 'category3/GS1.png' width = '100%;'>","null","","","","","","","","","",""
"","html-keyboard-response","177","524562","0.0-10.0-2.5","g4s7kxam7q","one_one","1","indirect_first","0","ng10ng22","0","19","1","1","3","1","","0","1","0","null","","","<img src = 'targets/25.png' width = '100%;'>","null","","","","","","","","","",""
"","html-keyboard-response","178","525333","0.0-10.0-3.5","g4s7kxam7q","one_one","1","indirect_first","0","ng10ng22","0","19","1","1","3","1","","0","1","0","769","","","<img src = 'targets/mask.png' width = '100%;'>","75","neg","GS","GSnew","3","category3/GS1.png","targets/25.png","1","indirect","21",""
"","html-keyboard-response","179","526853","0.0-10.0-0.6","g4s7kxam7q","one_one","1","indirect_first","0","ng10ng22","0","19","1","1","3","1","","0","1","0","null","","","<div style=""font-size:60px;"">+</div>","null","","","","","","","","","",""
"","html-keyboard-response","180","526952","0.0-10.0-1.6","g4s7kxam7q","one_one","1","indirect_first","0","ng10ng22","0","19","1","1","3","1","","0","1","0","null","","","<img src = 'category2/men.png' width = '100%;'>","null","","","","","","","","","",""
"","html-keyboard-response","181","527232","0.0-10.0-2.6","g4s7kxam7q","one_one","1","indirect_first","0","ng10ng22","0","19","1","1","3","1","","0","1","0","null","","","<img src = 'targets/43.png' width = '100%;'>","null","","","","","","","","","",""
"","html-keyboard-response","182","527829","0.0-10.0-3.6","g4s7kxam7q","one_one","1","indirect_first","0","ng10ng22","0","19","1","1","3","1","","0","1","0","595","","","<img src = 'targets/mask.png' width = '100%;'>","68","pos","GS","abstract","2","category2/men.png","targets/43.png","0","indirect","22",""
"","html-keyboard-response","183","529353","0.0-10.0-0.7","g4s7kxam7q","one_one","1","indirect_first","0","ng10ng22","0","19","1","1","3","1","","0","1","0","null","","","<div style=""font-size:60px;"">+</div>","null","","","","","","","","","",""
"","html-keyboard-response","184","529453","0.0-10.0-1.7","g4s7kxam7q","one_one","1","indirect_first","0","ng10ng22","0","19","1","1","3","1","","0","1","0","null","","","<img src = 'category2/GS2.png' width = '100%;'>","null","","","","","","","","","",""
"","html-keyboard-response","185","529732","0.0-10.0-2.7","g4s7kxam7q","one_one","1","indirect_first","0","ng10ng22","0","19","1","1","3","1","","0","1","0","null","","","<img src = 'targets/38.png' width = '100%;'>","null","","","","","","","","","",""
"","html-keyboard-response","186","530666","0.0-10.0-3.7","g4s7kxam7q","one_one","1","indirect_first","0","ng10ng22","0","19","1","1","3","1","","0","1","0","933","","","<img src = 'targets/mask.png' width = '100%;'>","75","pos","GS","GSnew","2","category2/GS2.png","targets/38.png","1","indirect","23",""
"","html-keyboard-response","187","532203","0.0-10.0-0.8","g4s7kxam7q","one_one","1","indirect_first","0","ng10ng22","0","19","1","1","3","1","","0","1","0","null","","","<div style=""font-size:60px;"">+</div>","null","","","","","","","","","",""
"","html-keyboard-response","188","532302","0.0-10.0-1.8","g4s7kxam7q","one_one","1","indirect_first","0","ng10ng22","0","19","1","1","3","1","","0","1","0","null","","","<img src = 'category3/wang.png' width = '100%;'>","null","","","","","","","","","",""
"","html-keyboard-response","189","532582","0.0-10.0-2.8","g4s7kxam7q","one_one","1","indirect_first","0","ng10ng22","0","19","1","1","3","1","","0","1","0","null","","","<img src = 'targets/7.png' width = '100%;'>","null","","","","","","","","","",""
"","html-keyboard-response","190","534270","0.0-10.0-3.8","g4s7kxam7q","one_one","1","indirect_first","0","ng10ng22","0","19","1","1","3","1","","0","1","0","1687","","","<img src = 'targets/mask.png' width = '100%;'>","75","neg","GS","abstract","3","category3/wang.png","targets/7.png","1","indirect","24",""
"","html-keyboard-response","191","535792","0.0-10.0-0.9","g4s7kxam7q","one_one","1","indirect_first","0","ng10ng22","0","19","1","1","3","1","","0","1","0","null","","","<div style=""font-size:60px;"">+</div>","null","","","","","","","","","",""
"","html-keyboard-response","192","535893","0.0-10.0-1.9","g4s7kxam7q","one_one","1","indirect_first","0","ng10ng22","0","19","1","1","3","1","","0","1","0","null","","","<img src = 'category2/GS3.png' width = '100%;'>","null","","","","","","","","","",""
"","html-keyboard-response","193","536173","0.0-10.0-2.9","g4s7kxam7q","one_one","1","indirect_first","0","ng10ng22","0","19","1","1","3","1","","0","1","0","null","","","<img src = 'targets/35.png' width = '100%;'>","null","","","","","","","","","",""
"","html-keyboard-response","194","537087","0.0-10.0-3.9","g4s7kxam7q","one_one","1","indirect_first","0","ng10ng22","0","19","1","1","3","1","","0","1","0","912","","","<img src = 'targets/mask.png' width = '100%;'>","68","pos","GS","GSnew","2","category2/GS3.png","targets/35.png","0","indirect","25",""
"","html-keyboard-response","195","538613","0.0-10.0-0.10","g4s7kxam7q","one_one","1","indirect_first","0","ng10ng22","0","19","1","1","3","1","","0","1","0","null","","","<div style=""font-size:60px;"">+</div>","null","","","","","","","","","",""
"","html-keyboard-response","196","538712","0.0-10.0-1.10","g4s7kxam7q","one_one","1","indirect_first","0","ng10ng22","0","19","1","1","3","1","","0","1","0","null","","","<img src = 'category4/lin.png' width = '100%;'>","null","","","","","","","","","",""
"","html-keyboard-response","197","538993","0.0-10.0-2.10","g4s7kxam7q","one_one","1","indirect_first","0","ng10ng22","0","19","1","1","3","1","","0","1","0","null","","","<img src = 'targets/14.png' width = '100%;'>","null","","","","","","","","","",""
"","html-keyboard-response","198","540617","0.0-10.0-3.10","g4s7kxam7q","one_one","1","indirect_first","0","ng10ng22","0","19","1","1","3","1","","0","1","0","1623","","","<img src = 'targets/mask.png' width = '100%;'>","75","pos","GS","abstract","4","category4/lin.png","targets/14.png","1","indirect","26",""
"","html-keyboard-response","199","542153","0.0-10.0-0.11","g4s7kxam7q","one_one","1","indirect_first","0","ng10ng22","0","19","1","1","3","1","","0","1","0","null","","","<div style=""font-size:60px;"">+</div>","null","","","","","","","","","",""
"","html-keyboard-response","200","542253","0.0-10.0-1.11","g4s7kxam7q","one_one","1","indirect_first","0","ng10ng22","0","19","1","1","3","1","","0","1","0","null","","","<img src = 'category1/GS1.png' width = '100%;'>","null","","","","","","","","","",""
"","html-keyboard-response","201","542532","0.0-10.0-2.11","g4s7kxam7q","one_one","1","indirect_first","0","ng10ng22","0","19","1","1","3","1","","0","1","0","null","","","<img src = 'targets/40.png' width = '100%;'>","null","","","","","","","","","",""
"","html-keyboard-response","202","543350","0.0-10.0-3.11","g4s7kxam7q","one_one","1","indirect_first","0","ng10ng22","0","19","1","1","3","1","","0","1","0","817","","","<img src = 'targets/mask.png' width = '100%;'>","68","neg","GS","GSnew","1","category1/GS1.png","targets/40.png","0","indirect","27",""
"","html-keyboard-response","203","544872","0.0-10.0-0.12","g4s7kxam7q","one_one","1","indirect_first","0","ng10ng22","0","19","1","1","3","1","","0","1","0","null","","","<div style=""font-size:60px;"">+</div>","null","","","","","","","","","",""
"","html-keyboard-response","204","544973","0.0-10.0-1.12","g4s7kxam7q","one_one","1","indirect_first","0","ng10ng22","0","19","1","1","3","1","","0","1","0","null","","","<img src = 'category1/GS3.png' width = '100%;'>","null","","","","","","","","","",""
"","html-keyboard-response","205","545253","0.0-10.0-2.12","g4s7kxam7q","one_one","1","indirect_first","0","ng10ng22","0","19","1","1","3","1","","0","1","0","null","","","<img src = 'targets/23.png' width = '100%;'>","null","","","","","","","","","",""
"","html-keyboard-response","206","545814","0.0-10.0-3.12","g4s7kxam7q","one_one","1","indirect_first","0","ng10ng22","0","19","1","1","3","1","","0","1","0","562","","","<img src = 'targets/mask.png' width = '100%;'>","75","neg","GS","GSnew","1","category1/GS3.png","targets/23.png","1","indirect","28",""
"","html-keyboard-response","207","547332","0.0-10.0-0.13","g4s7kxam7q","one_one","1","indirect_first","0","ng10ng22","0","19","1","1","3","1","","0","1","0","null","","","<div style=""font-size:60px;"">+</div>","null","","","","","","","","","",""
"","html-keyboard-response","208","547433","0.0-10.0-1.13","g4s7kxam7q","one_one","1","indirect_first","0","ng10ng22","0","19","1","1","3","1","","0","1","0","null","","","<img src = 'category2/GS1.png' width = '100%;'>","null","","","","","","","","","",""
"","html-keyboard-response","209","547712","0.0-10.0-2.13","g4s7kxam7q","one_one","1","indirect_first","0","ng10ng22","0","19","1","1","3","1","","0","1","0","null","","","<img src = 'targets/37.png' width = '100%;'>","null","","","","","","","","","",""
"","html-keyboard-response","210","547743","0.0-10.0-3.13","g4s7kxam7q","one_one","1","indirect_first","0","ng10ng22","0","19","1","1","3","1","","0","1","0","30","","","<img src = 'targets/mask.png' width = '100%;'>","75","pos","GS","GSnew","2","category2/GS1.png","targets/37.png","1","indirect","29",""
"","html-keyboard-response","211","549262","0.0-10.0-0.14","g4s7kxam7q","one_one","1","indirect_first","0","ng10ng22","0","19","1","1","3","1","","0","1","0","null","","","<div style=""font-size:60px;"">+</div>","null","","","","","","","","","",""
"","html-keyboard-response","212","549362","0.0-10.0-1.14","g4s7kxam7q","one_one","1","indirect_first","0","ng10ng22","0","19","1","1","3","1","","0","1","0","null","","","<img src = 'category4/GS1.png' width = '100%;'>","null","","","","","","","","","",""
"","html-keyboard-response","213","549642","0.0-10.0-2.14","g4s7kxam7q","one_one","1","indirect_first","0","ng10ng22","0","19","1","1","3","1","","0","1","0","null","","","<img src = 'targets/19.png' width = '100%;'>","null","","","","","","","","","",""
"","html-keyboard-response","214","550354","0.0-10.0-3.14","g4s7kxam7q","one_one","1","indirect_first","0","ng10ng22","0","19","1","1","3","1","","0","1","0","710","","","<img src = 'targets/mask.png' width = '100%;'>","75","pos","GS","GSnew","4","category4/GS1.png","targets/19.png","1","indirect","30",""
"","html-keyboard-response","215","551862","0.0-10.0-0.15","g4s7kxam7q","one_one","1","indirect_first","0","ng10ng22","0","19","1","1","3","1","","0","1","0","null","","","<div style=""font-size:60px;"">+</div>","null","","","","","","","","","",""
"","html-keyboard-response","216","551963","0.0-10.0-1.15","g4s7kxam7q","one_one","1","indirect_first","0","ng10ng22","0","19","1","1","3","1","","0","1","0","null","","","<img src = 'category3/GS3.png' width = '100%;'>","null","","","","","","","","","",""
"","html-keyboard-response","217","552242","0.0-10.0-2.15","g4s7kxam7q","one_one","1","indirect_first","0","ng10ng22","0","19","1","1","3","1","","0","1","0","null","","","<img src = 'targets/45.png' width = '100%;'>","null","","","","","","","","","",""
"","html-keyboard-response","218","552748","0.0-10.0-3.15","g4s7kxam7q","one_one","1","indirect_first","0","ng10ng22","0","19","1","1","3","1","","0","1","0","505","","","<img src = 'targets/mask.png' width = '100%;'>","68","neg","GS","GSnew","3","category3/GS3.png","targets/45.png","0","indirect","31",""
"","survey-html-form","219","567596","0.0-11.0","g4s7kxam7q","one_one","1","indirect_first","0","ng10ng22","0","19","1","1","3","1","","0","1","0","14342","","{}","","","","","","","","","","","",""
"","image-slider-response","220","581365","0.0-12.0-0.0","g4s7kxam7q","one_one","1","indirect_first","0","ng10ng22","0","19","1","1","3","1","","0","1","0","11745","","","","","pos","GS","GSold","2","category2/CS8.png","targets/1.png","","direct","","15"
"","image-slider-response","221","587261","0.0-12.0-0.1","g4s7kxam7q","one_one","1","indirect_first","0","ng10ng22","0","19","1","1","3","1","","0","1","0","5895","","","","","pos","GS","GSnew","2","category2/GS2.png","targets/38.png","","direct","","-21"
"","image-slider-response","222","590430","0.0-12.0-0.2","g4s7kxam7q","one_one","1","indirect_first","0","ng10ng22","0","19","1","1","3","1","","0","1","0","3167","","","","","neg","GS","GSnew","3","category3/GS1.png","targets/25.png","","direct","","-20"
"","image-slider-response","223","593773","0.0-12.0-0.3","g4s7kxam7q","one_one","1","indirect_first","0","ng10ng22","0","19","1","1","3","1","","0","1","0","3341","","","","","neg","GS","GSnew","3","category3/GS2.png","targets/17.png","","direct","","-66"
"","image-slider-response","224","596502","0.0-12.0-0.4","g4s7kxam7q","one_one","1","indirect_first","0","ng10ng22","0","19","1","1","3","1","","0","1","0","2727","","","","","pos","GS","GSold","2","category2/CS3.png","targets/18.png","","direct","","28"
"","image-slider-response","225","598838","0.0-12.0-0.5","g4s7kxam7q","one_one","1","indirect_first","0","ng10ng22","0","19","1","1","3","1","","0","1","0","2335","","","","","pos","GS","GSnew","4","category4/GS2.png","targets/22.png","","direct","","-61"
"","image-slider-response","226","602847","0.0-12.0-0.6","g4s7kxam7q","one_one","1","indirect_first","0","ng10ng22","0","19","1","1","3","1","","0","1","0","4006","","","","","pos","GS","GSnew","2","category2/GS1.png","targets/37.png","","direct","","30"
"","image-slider-response","227","606351","0.0-12.0-0.7","g4s7kxam7q","one_one","1","indirect_first","0","ng10ng22","0","19","1","1","3","1","","0","1","0","3503","","","","","neg","GS","GSold","1","category1/CS10.png","targets/16.png","","direct","","13"
"","image-slider-response","228","609006","0.0-12.0-0.8","g4s7kxam7q","one_one","1","indirect_first","0","ng10ng22","0","19","1","1","3","1","","0","1","0","2653","","","","","neg","GS","GSnew","1","category1/GS2.png","targets/24.png","","direct","","-45"
"","image-slider-response","229","612129","0.0-12.0-0.9","g4s7kxam7q","one_one","1","indirect_first","0","ng10ng22","0","19","1","1","3","1","","0","1","0","3120","","","","","pos","GS","GSold","4","category4/CS5.png","targets/44.png","","direct","","41"
"","image-slider-response","230","619056","0.0-12.0-0.10","g4s7kxam7q","one_one","1","indirect_first","0","ng10ng22","0","19","1","1","3","1","","0","1","0","6925","","","","","pos","GS","abstract","2","category2/men.png","targets/43.png","","direct","","39"
"","image-slider-response","231","624443","0.0-12.0-0.11","g4s7kxam7q","one_one","1","indirect_first","0","ng10ng22","0","19","1","1","3","1","","0","1","0","5386","","","","","pos","GS","GSold","2","category2/CS4.png","targets/4.png","","direct","","22"
"","image-slider-response","232","626664","0.0-12.0-0.12","g4s7kxam7q","one_one","1","indirect_first","0","ng10ng22","0","19","1","1","3","1","","0","1","0","2219","","","","","neg","GS","GSold","1","category1/CS4.png","targets/36.png","","direct","","-34"
"","image-slider-response","233","631618","0.0-12.0-0.13","g4s7kxam7q","one_one","1","indirect_first","0","ng10ng22","0","19","1","1","3","1","","0","1","0","4951","","","","","neg","CS","CS","1","category1/CS9.png","targets/10.png","","direct","","45"
"","image-slider-response","234","633914","0.0-12.0-0.14","g4s7kxam7q","one_one","1","indirect_first","0","ng10ng22","0","19","1","1","3","1","","0","1","0","2296","","","","","pos","GS","GSnew","2","category2/GS3.png","targets/35.png","","direct","","33"
"","image-slider-response","235","636465","0.0-12.0-0.15","g4s7kxam7q","one_one","1","indirect_first","0","ng10ng22","0","19","1","1","3","1","","0","1","0","2550","","","","","neg","GS","abstract","1","category1/ma.png","targets/27.png","","direct","","-48"
"","image-slider-response","236","638306","0.0-12.0-0.16","g4s7kxam7q","one_one","1","indirect_first","0","ng10ng22","0","19","1","1","3","1","","0","1","0","1839","","","","","pos","GS","GSold","4","category4/CS6.png","targets/11.png","","direct","","-55"
"","image-slider-response","237","640706","0.0-12.0-0.17","g4s7kxam7q","one_one","1","indirect_first","0","ng10ng22","0","19","1","1","3","1","","0","1","0","2399","","","","","neg","GS","GSnew","1","category1/GS1.png","targets/40.png","","direct","","-50"
"","image-slider-response","238","645955","0.0-12.0-0.18","g4s7kxam7q","one_one","1","indirect_first","0","ng10ng22","0","19","1","1","3","1","","0","1","0","5247","","","","","pos","CS","CS","4","category4/CS2.png","targets/32.png","","direct","","37"
"","image-slider-response","239","649427","0.0-12.0-0.19","g4s7kxam7q","one_one","1","indirect_first","0","ng10ng22","0","19","1","1","3","1","","0","1","0","3471","","","","","neg","CS","CS","3","category3/CS4.png","targets/15.png","","direct","","47"
"","image-slider-response","240","652132","0.0-12.0-0.20","g4s7kxam7q","one_one","1","indirect_first","0","ng10ng22","0","19","1","1","3","1","","0","1","0","2702","","","","","neg","GS","GSnew","1","category1/GS3.png","targets/23.png","","direct","","-37"
"","image-slider-response","241","655140","0.0-12.0-0.21","g4s7kxam7q","one_one","1","indirect_first","0","ng10ng22","0","19","1","1","3","1","","0","1","0","3006","","","","","neg","GS","GSold","3","category3/CS10.png","targets/2.png","","direct","","-57"
"","image-slider-response","242","658723","0.0-12.0-0.22","g4s7kxam7q","one_one","1","indirect_first","0","ng10ng22","0","19","1","1","3","1","","0","1","0","3583","","","","","neg","GS","GSnew","3","category3/GS3.png","targets/45.png","","direct","","52"
"","image-slider-response","243","661316","0.0-12.0-0.23","g4s7kxam7q","one_one","1","indirect_first","0","ng10ng22","0","19","1","1","3","1","","0","1","0","2591","","","","","neg","GS","GSold","1","category1/CS1.png","targets/34.png","","direct","","-70"
"","image-slider-response","244","665311","0.0-12.0-0.24","g4s7kxam7q","one_one","1","indirect_first","0","ng10ng22","0","19","1","1","3","1","","0","1","0","3993","","","","","neg","GS","GSold","3","category3/CS8.png","targets/6.png","","direct","","36"
"","image-slider-response","245","667822","0.0-12.0-0.25","g4s7kxam7q","one_one","1","indirect_first","0","ng10ng22","0","19","1","1","3","1","","0","1","0","2509","","","","","neg","GS","abstract","3","category3/wang.png","targets/7.png","","direct","","67"
"","image-slider-response","246","670278","0.0-12.0-0.26","g4s7kxam7q","one_one","1","indirect_first","0","ng10ng22","0","19","1","1","3","1","","0","1","0","2455","","","","","pos","GS","GSnew","4","category4/GS3.png","targets/12.png","","direct","","-92"
"","image-slider-response","247","673134","0.0-12.0-0.27","g4s7kxam7q","one_one","1","indirect_first","0","ng10ng22","0","19","1","1","3","1","","0","1","0","2854","","","","","pos","GS","GSnew","4","category4/GS1.png","targets/19.png","","direct","","-37"
"","image-slider-response","248","675398","0.0-12.0-0.28","g4s7kxam7q","one_one","1","indirect_first","0","ng10ng22","0","19","1","1","3","1","","0","1","0","2262","","","","","pos","GS","abstract","4","category4/lin.png","targets/14.png","","direct","","46"
"","image-slider-response","249","677494","0.0-12.0-0.29","g4s7kxam7q","one_one","1","indirect_first","0","ng10ng22","0","19","1","1","3","1","","0","1","0","2095","","","","","neg","GS","GSold","3","category3/CS1.png","targets/46.png","","direct","","-20"
"","image-slider-response","250","679967","0.0-12.0-0.30","g4s7kxam7q","one_one","1","indirect_first","0","ng10ng22","0","19","1","1","3","1","","0","1","0","2470","","","","","pos","GS","GSold","4","category4/CS8.png","targets/13.png","","direct","","-59"
"","image-slider-response","251","682927","0.0-12.0-0.31","g4s7kxam7q","one_one","1","indirect_first","0","ng10ng22","0","19","1","1","3","1","","0","1","0","2958","","","","","pos","CS","CS","2","category2/CS9.png","targets/33.png","","direct","","16"
"","survey-html-form","252","689073","0.0-13.0","g4s7kxam7q","one_one","1","indirect_first","0","ng10ng22","0","19","1","1","3","1","","0","1","0","6145","","{}","","","","","","","","","","","",""
"","image-slider-response","253","697233","0.0-14.0-0.0","g4s7kxam7q","one_one","1","indirect_first","0","ng10ng22","0","19","1","1","3","1","","0","1","0","7147","","","","","neg","All","all","3","category3/wang_all.png","","","all","","40"
"","image-slider-response","254","700201","0.0-14.0-0.1","g4s7kxam7q","one_one","1","indirect_first","0","ng10ng22","0","19","1","1","3","1","","0","1","0","2966","","","","","pos","All","all","4","category4/lin_all.png","","","all","","-41"
"","image-slider-response","255","703970","0.0-14.0-0.2","g4s7kxam7q","one_one","1","indirect_first","0","ng10ng22","0","19","1","1","3","1","","0","1","0","3767","","","","","neg","All","all","1","category1/ma_all.png","","","all","","-47"
"","image-slider-response","256","706603","0.0-14.0-0.3","g4s7kxam7q","one_one","1","indirect_first","0","ng10ng22","0","19","1","1","3","1","","0","1","0","2631","","","","","pos","All","all","2","category2/men_all.png","","","all","","24"
"","survey-text","257","712355","0.0-15.0","g4s7kxam7q","one_one","1","indirect_first","0","ng10ng22","0","19","1","1","3","1","","0","1","0","5745","","{""comment"":""""}","","","","","","","","","","","",""
"","survey-html-form","258","729174","0.0-16.0","g4s7kxam7q","one_one","1","indirect_first","0","ng10ng22","0","19","1","1","3","1","","0","1","0","16816","","{""hinschauen"":""0"",""ablenkung"":""1"",""gewissenhaft"":""0""}","","","","","","","","","","","",""
