"success","trial_type","trial_index","time_elapsed","internal_node_id","subject","condition","condition_code","measure","measure_code","codeword","gender","age","education","chinese","fach","handedness","comment","hinschauen","ablenkung","gewissenhaft","rt","url","responses","stimulus","key_press","val","type","type_specific","category","cs_selected","response","target","task","indirect","nr_pres"
"true","fullscreen","0","4444","0.0-0.0","gu08dsnmnj","many_one","0","direct_first","1","tz06en28","0","22","1","0","3","1","","0","0","0","","","","","","","","","","","","","","",""
"","external-html","1","49746","0.0-1.0","gu08dsnmnj","many_one","0","direct_first","1","tz06en28","0","22","1","0","3","1","","0","0","0","45130","text/information.html","","","","","","","","","","","","",""
"","external-html","2","67218","0.0-2.0","gu08dsnmnj","many_one","0","direct_first","1","tz06en28","0","22","1","0","3","1","","0","0","0","17255","text/consent.html","","","","","","","","","","","","",""
"","survey-html-form","3","113058","0.0-3.0","gu08dsnmnj","many_one","0","direct_first","1","tz06en28","0","22","1","0","3","1","","0","0","0","45838","","{""codeword_enter"":""tz06en28""}","","","","","","","","","","","",""
"","survey-html-form","4","128178","0.0-4.0","gu08dsnmnj","many_one","0","direct_first","1","tz06en28","0","22","1","0","3","1","","0","0","0","15118","","{""age"":""22"",""education"":""1"",""subject"":""3"",""gender"":""0"",""handedness"":""1"",""chinese"":""0""}","","","","","","","","","","","",""
"","survey-html-form","5","133801","0.0-5.0","gu08dsnmnj","many_one","0","direct_first","1","tz06en28","0","22","1","0","3","1","","0","0","0","5622","","{}","","","","","","","","","","","",""
"","html-keyboard-response","6","137824","0.0-6.0-0.0-0.0","gu08dsnmnj","many_one","0","direct_first","1","tz06en28","0","22","1","0","3","1","","0","0","0","null","","","<div class = 'row'><div class = 'column'><img src = 'uspos/1340.bmp' width = '100%;'></div><div class = 'column'><img src = 'category4/CS8.png' width = '70%;'></div></div>","null","pos","CS","CS","4","category4/CS8.png","","","","",""
"","html-keyboard-response","7","140364","0.0-6.0-0.0-0.1","gu08dsnmnj","many_one","0","direct_first","1","tz06en28","0","22","1","0","3","1","","0","0","0","null","","","<div class = 'row'><div class = 'column'><img src = 'category2/CS2.png' width = '70%;'></div><div class = 'column'><img src = 'usneg/9340.bmp' width = '100%;'></div></div>","null","neg","CS","CS","2","category2/CS2.png","","","","",""
"","html-keyboard-response","8","142904","0.0-6.0-0.0-0.2","gu08dsnmnj","many_one","0","direct_first","1","tz06en28","0","22","1","0","3","1","","0","0","0","null","","","<div class = 'row'><div class = 'column'><img src = 'category3/CS3.png' width = '70%;'></div><div class = 'column'><img src = 'usneg/9404.bmp' width = '100%;'></div></div>","null","neg","CS","CS","3","category3/CS3.png","","","","",""
"","html-keyboard-response","9","145423","0.0-6.0-0.0-0.3","gu08dsnmnj","many_one","0","direct_first","1","tz06en28","0","22","1","0","3","1","","0","0","0","null","","","<div class = 'row'><div class = 'column'><img src = 'category3/CS5.png' width = '70%;'></div><div class = 'column'><img src = 'usneg/9920.bmp' width = '100%;'></div></div>","null","neg","CS","CS","3","category3/CS5.png","","","","",""
"","html-keyboard-response","10","147943","0.0-6.0-0.0-0.4","gu08dsnmnj","many_one","0","direct_first","1","tz06en28","0","22","1","0","3","1","","0","0","0","null","","","<div class = 'row'><div class = 'column'><img src = 'usneg/9635.2.bmp' width = '100%;'></div><div class = 'column'><img src = 'category3/CS6.png' width = '70%;'></div></div>","null","neg","CS","CS","3","category3/CS6.png","","","","",""
"","html-keyboard-response","11","150464","0.0-6.0-0.0-0.5","gu08dsnmnj","many_one","0","direct_first","1","tz06en28","0","22","1","0","3","1","","0","0","0","null","","","<div class = 'row'><div class = 'column'><img src = 'uspos/8461.bmp' width = '100%;'></div><div class = 'column'><img src = 'category4/CS1.png' width = '70%;'></div></div>","null","pos","CS","CS","4","category4/CS1.png","","","","",""
"","html-keyboard-response","12","153002","0.0-6.0-0.0-0.6","gu08dsnmnj","many_one","0","direct_first","1","tz06en28","0","22","1","0","3","1","","0","0","0","null","","","<div class = 'row'><div class = 'column'><img src = 'category1/CS10.png' width = '70%;'></div><div class = 'column'><img src = 'uspos/8350.bmp' width = '100%;'></div></div>","null","pos","CS","CS","1","category1/CS10.png","","","","",""
"","html-keyboard-response","13","155543","0.0-6.0-0.0-0.7","gu08dsnmnj","many_one","0","direct_first","1","tz06en28","0","22","1","0","3","1","","0","0","0","null","","","<div class = 'row'><div class = 'column'><img src = 'usneg/9280.bmp' width = '100%;'></div><div class = 'column'><img src = 'category3/CS4.png' width = '70%;'></div></div>","null","neg","CS","CS","3","category3/CS4.png","","","","",""
"","html-keyboard-response","14","158053","0.0-6.0-0.0-0.8","gu08dsnmnj","many_one","0","direct_first","1","tz06en28","0","22","1","0","3","1","","0","0","0","null","","","<div class = 'row'><div class = 'column'><img src = 'category1/CS8.png' width = '70%;'></div><div class = 'column'><img src = 'uspos/2550.bmp' width = '100%;'></div></div>","null","pos","CS","CS","1","category1/CS8.png","","","","",""
"","html-keyboard-response","15","160563","0.0-6.0-0.0-0.9","gu08dsnmnj","many_one","0","direct_first","1","tz06en28","0","22","1","0","3","1","","0","0","0","null","","","<div class = 'row'><div class = 'column'><img src = 'category2/CS6.png' width = '70%;'></div><div class = 'column'><img src = 'usneg/9342.bmp' width = '100%;'></div></div>","null","neg","CS","CS","2","category2/CS6.png","","","","",""
"","html-keyboard-response","16","163093","0.0-6.0-0.0-0.10","gu08dsnmnj","many_one","0","direct_first","1","tz06en28","0","22","1","0","3","1","","0","0","0","null","","","<div class = 'row'><div class = 'column'><img src = 'category4/CS4.png' width = '70%;'></div><div class = 'column'><img src = 'uspos/2530.bmp' width = '100%;'></div></div>","null","pos","CS","CS","4","category4/CS4.png","","","","",""
"","html-keyboard-response","17","165623","0.0-6.0-0.0-0.11","gu08dsnmnj","many_one","0","direct_first","1","tz06en28","0","22","1","0","3","1","","0","0","0","null","","","<div class = 'row'><div class = 'column'><img src = 'uspos/5830.bmp' width = '100%;'></div><div class = 'column'><img src = 'category1/CS5.png' width = '70%;'></div></div>","null","pos","CS","CS","1","category1/CS5.png","","","","",""
"","html-keyboard-response","18","168161","0.0-6.0-0.0-0.12","gu08dsnmnj","many_one","0","direct_first","1","tz06en28","0","22","1","0","3","1","","0","0","0","null","","","<div class = 'row'><div class = 'column'><img src = 'uspos/5831.bmp' width = '100%;'></div><div class = 'column'><img src = 'category4/CS6.png' width = '70%;'></div></div>","null","pos","CS","CS","4","category4/CS6.png","","","","",""
"","html-keyboard-response","19","170703","0.0-6.0-0.0-0.13","gu08dsnmnj","many_one","0","direct_first","1","tz06en28","0","22","1","0","3","1","","0","0","0","null","","","<div class = 'row'><div class = 'column'><img src = 'uspos/8080.bmp' width = '100%;'></div><div class = 'column'><img src = 'category1/CS3.png' width = '70%;'></div></div>","null","pos","CS","CS","1","category1/CS3.png","","","","",""
"","html-keyboard-response","20","173243","0.0-6.0-0.0-0.14","gu08dsnmnj","many_one","0","direct_first","1","tz06en28","0","22","1","0","3","1","","0","0","0","null","","","<div class = 'row'><div class = 'column'><img src = 'usneg/9561.bmp' width = '100%;'></div><div class = 'column'><img src = 'category3/CS7.png' width = '70%;'></div></div>","null","neg","CS","CS","3","category3/CS7.png","","","","",""
"","html-keyboard-response","21","175773","0.0-6.0-0.0-0.15","gu08dsnmnj","many_one","0","direct_first","1","tz06en28","0","22","1","0","3","1","","0","0","0","null","","","<div class = 'row'><div class = 'column'><img src = 'category2/CS5.png' width = '70%;'></div><div class = 'column'><img src = 'usneg/9330.bmp' width = '100%;'></div></div>","null","neg","CS","CS","2","category2/CS5.png","","","","",""
"","html-keyboard-response","22","178304","0.0-6.0-0.0-0.16","gu08dsnmnj","many_one","0","direct_first","1","tz06en28","0","22","1","0","3","1","","0","0","0","null","","","<div class = 'row'><div class = 'column'><img src = 'uspos/2058.bmp' width = '100%;'></div><div class = 'column'><img src = 'category1/CS7.png' width = '70%;'></div></div>","null","pos","CS","CS","1","category1/CS7.png","","","","",""
"","html-keyboard-response","23","180843","0.0-6.0-0.0-0.17","gu08dsnmnj","many_one","0","direct_first","1","tz06en28","0","22","1","0","3","1","","0","0","0","null","","","<div class = 'row'><div class = 'column'><img src = 'usneg/9180.bmp' width = '100%;'></div><div class = 'column'><img src = 'category2/CS10.png' width = '70%;'></div></div>","null","neg","CS","CS","2","category2/CS10.png","","","","",""
"","html-keyboard-response","24","183383","0.0-6.0-0.0-0.18","gu08dsnmnj","many_one","0","direct_first","1","tz06en28","0","22","1","0","3","1","","0","0","0","null","","","<div class = 'row'><div class = 'column'><img src = 'usneg/2205.bmp' width = '100%;'></div><div class = 'column'><img src = 'category2/CS1.png' width = '70%;'></div></div>","null","neg","CS","CS","2","category2/CS1.png","","","","",""
"","html-keyboard-response","25","185923","0.0-6.0-0.0-0.19","gu08dsnmnj","many_one","0","direct_first","1","tz06en28","0","22","1","0","3","1","","0","0","0","null","","","<div class = 'row'><div class = 'column'><img src = 'uspos/5621.bmp' width = '100%;'></div><div class = 'column'><img src = 'category4/CS5.png' width = '70%;'></div></div>","null","pos","CS","CS","4","category4/CS5.png","","","","",""
"","survey-html-form","26","190544","0.0-6.0-1.0","gu08dsnmnj","many_one","0","direct_first","1","tz06en28","0","22","1","0","3","1","","0","0","0","4101","","{}","","","","","","","","","","","",""
"","html-keyboard-response","27","194563","0.0-6.0-2.0-0.0","gu08dsnmnj","many_one","0","direct_first","1","tz06en28","0","22","1","0","3","1","","0","0","0","null","","","<div class = 'row'><div class = 'column'><img src = 'uspos/2058.bmp' width = '100%;'></div><div class = 'column'><img src = 'category1/CS7.png' width = '70%;'></div></div>","null","pos","CS","CS","1","category1/CS7.png","","","","",""
"","html-keyboard-response","28","197082","0.0-6.0-2.0-0.1","gu08dsnmnj","many_one","0","direct_first","1","tz06en28","0","22","1","0","3","1","","0","0","0","null","","","<div class = 'row'><div class = 'column'><img src = 'category3/CS7.png' width = '70%;'></div><div class = 'column'><img src = 'usneg/9561.bmp' width = '100%;'></div></div>","null","neg","CS","CS","3","category3/CS7.png","","","","",""
"","html-keyboard-response","29","199622","0.0-6.0-2.0-0.2","gu08dsnmnj","many_one","0","direct_first","1","tz06en28","0","22","1","0","3","1","","0","0","0","null","","","<div class = 'row'><div class = 'column'><img src = 'category3/CS5.png' width = '70%;'></div><div class = 'column'><img src = 'usneg/9920.bmp' width = '100%;'></div></div>","null","neg","CS","CS","3","category3/CS5.png","","","","",""
"","html-keyboard-response","30","202142","0.0-6.0-2.0-0.3","gu08dsnmnj","many_one","0","direct_first","1","tz06en28","0","22","1","0","3","1","","0","0","0","null","","","<div class = 'row'><div class = 'column'><img src = 'usneg/9404.bmp' width = '100%;'></div><div class = 'column'><img src = 'category3/CS3.png' width = '70%;'></div></div>","null","neg","CS","CS","3","category3/CS3.png","","","","",""
"","html-keyboard-response","31","204682","0.0-6.0-2.0-0.4","gu08dsnmnj","many_one","0","direct_first","1","tz06en28","0","22","1","0","3","1","","0","0","0","null","","","<div class = 'row'><div class = 'column'><img src = 'uspos/8080.bmp' width = '100%;'></div><div class = 'column'><img src = 'category1/CS3.png' width = '70%;'></div></div>","null","pos","CS","CS","1","category1/CS3.png","","","","",""
"","html-keyboard-response","32","207222","0.0-6.0-2.0-0.5","gu08dsnmnj","many_one","0","direct_first","1","tz06en28","0","22","1","0","3","1","","0","0","0","null","","","<div class = 'row'><div class = 'column'><img src = 'category1/CS8.png' width = '70%;'></div><div class = 'column'><img src = 'uspos/2550.bmp' width = '100%;'></div></div>","null","pos","CS","CS","1","category1/CS8.png","","","","",""
"","html-keyboard-response","33","209752","0.0-6.0-2.0-0.6","gu08dsnmnj","many_one","0","direct_first","1","tz06en28","0","22","1","0","3","1","","0","0","0","null","","","<div class = 'row'><div class = 'column'><img src = 'category3/CS4.png' width = '70%;'></div><div class = 'column'><img src = 'usneg/9280.bmp' width = '100%;'></div></div>","null","neg","CS","CS","3","category3/CS4.png","","","","",""
"","html-keyboard-response","34","212292","0.0-6.0-2.0-0.7","gu08dsnmnj","many_one","0","direct_first","1","tz06en28","0","22","1","0","3","1","","0","0","0","null","","","<div class = 'row'><div class = 'column'><img src = 'usneg/2205.bmp' width = '100%;'></div><div class = 'column'><img src = 'category2/CS1.png' width = '70%;'></div></div>","null","neg","CS","CS","2","category2/CS1.png","","","","",""
"","html-keyboard-response","35","214832","0.0-6.0-2.0-0.8","gu08dsnmnj","many_one","0","direct_first","1","tz06en28","0","22","1","0","3","1","","0","0","0","null","","","<div class = 'row'><div class = 'column'><img src = 'usneg/9342.bmp' width = '100%;'></div><div class = 'column'><img src = 'category2/CS6.png' width = '70%;'></div></div>","null","neg","CS","CS","2","category2/CS6.png","","","","",""
"","html-keyboard-response","36","217372","0.0-6.0-2.0-0.9","gu08dsnmnj","many_one","0","direct_first","1","tz06en28","0","22","1","0","3","1","","0","0","0","null","","","<div class = 'row'><div class = 'column'><img src = 'usneg/9330.bmp' width = '100%;'></div><div class = 'column'><img src = 'category2/CS5.png' width = '70%;'></div></div>","null","neg","CS","CS","2","category2/CS5.png","","","","",""
"","html-keyboard-response","37","219892","0.0-6.0-2.0-0.10","gu08dsnmnj","many_one","0","direct_first","1","tz06en28","0","22","1","0","3","1","","0","0","0","null","","","<div class = 'row'><div class = 'column'><img src = 'category4/CS8.png' width = '70%;'></div><div class = 'column'><img src = 'uspos/1340.bmp' width = '100%;'></div></div>","null","pos","CS","CS","4","category4/CS8.png","","","","",""
"","html-keyboard-response","38","222432","0.0-6.0-2.0-0.11","gu08dsnmnj","many_one","0","direct_first","1","tz06en28","0","22","1","0","3","1","","0","0","0","null","","","<div class = 'row'><div class = 'column'><img src = 'usneg/9340.bmp' width = '100%;'></div><div class = 'column'><img src = 'category2/CS2.png' width = '70%;'></div></div>","null","neg","CS","CS","2","category2/CS2.png","","","","",""
"","html-keyboard-response","39","224971","0.0-6.0-2.0-0.12","gu08dsnmnj","many_one","0","direct_first","1","tz06en28","0","22","1","0","3","1","","0","0","0","null","","","<div class = 'row'><div class = 'column'><img src = 'category4/CS6.png' width = '70%;'></div><div class = 'column'><img src = 'uspos/5831.bmp' width = '100%;'></div></div>","null","pos","CS","CS","4","category4/CS6.png","","","","",""
"","html-keyboard-response","40","227500","0.0-6.0-2.0-0.13","gu08dsnmnj","many_one","0","direct_first","1","tz06en28","0","22","1","0","3","1","","0","0","0","null","","","<div class = 'row'><div class = 'column'><img src = 'uspos/5830.bmp' width = '100%;'></div><div class = 'column'><img src = 'category1/CS5.png' width = '70%;'></div></div>","null","pos","CS","CS","1","category1/CS5.png","","","","",""
"","html-keyboard-response","41","230007","0.0-6.0-2.0-0.14","gu08dsnmnj","many_one","0","direct_first","1","tz06en28","0","22","1","0","3","1","","0","0","0","null","","","<div class = 'row'><div class = 'column'><img src = 'category4/CS1.png' width = '70%;'></div><div class = 'column'><img src = 'uspos/8461.bmp' width = '100%;'></div></div>","null","pos","CS","CS","4","category4/CS1.png","","","","",""
"","html-keyboard-response","42","232532","0.0-6.0-2.0-0.15","gu08dsnmnj","many_one","0","direct_first","1","tz06en28","0","22","1","0","3","1","","0","0","0","null","","","<div class = 'row'><div class = 'column'><img src = 'uspos/8350.bmp' width = '100%;'></div><div class = 'column'><img src = 'category1/CS10.png' width = '70%;'></div></div>","null","pos","CS","CS","1","category1/CS10.png","","","","",""
"","html-keyboard-response","43","235061","0.0-6.0-2.0-0.16","gu08dsnmnj","many_one","0","direct_first","1","tz06en28","0","22","1","0","3","1","","0","0","0","null","","","<div class = 'row'><div class = 'column'><img src = 'category4/CS5.png' width = '70%;'></div><div class = 'column'><img src = 'uspos/5621.bmp' width = '100%;'></div></div>","null","pos","CS","CS","4","category4/CS5.png","","","","",""
"","html-keyboard-response","44","237582","0.0-6.0-2.0-0.17","gu08dsnmnj","many_one","0","direct_first","1","tz06en28","0","22","1","0","3","1","","0","0","0","null","","","<div class = 'row'><div class = 'column'><img src = 'category4/CS4.png' width = '70%;'></div><div class = 'column'><img src = 'uspos/2530.bmp' width = '100%;'></div></div>","null","pos","CS","CS","4","category4/CS4.png","","","","",""
"","html-keyboard-response","45","240102","0.0-6.0-2.0-0.18","gu08dsnmnj","many_one","0","direct_first","1","tz06en28","0","22","1","0","3","1","","0","0","0","null","","","<div class = 'row'><div class = 'column'><img src = 'category3/CS6.png' width = '70%;'></div><div class = 'column'><img src = 'usneg/9635.2.bmp' width = '100%;'></div></div>","null","neg","CS","CS","3","category3/CS6.png","","","","",""
"","html-keyboard-response","46","242641","0.0-6.0-2.0-0.19","gu08dsnmnj","many_one","0","direct_first","1","tz06en28","0","22","1","0","3","1","","0","0","0","null","","","<div class = 'row'><div class = 'column'><img src = 'usneg/9180.bmp' width = '100%;'></div><div class = 'column'><img src = 'category2/CS10.png' width = '70%;'></div></div>","null","neg","CS","CS","2","category2/CS10.png","","","","",""
"","survey-html-form","47","244343","0.0-6.0-3.0","gu08dsnmnj","many_one","0","direct_first","1","tz06en28","0","22","1","0","3","1","","0","0","0","1184","","{}","","","","","","","","","","","",""
"","html-keyboard-response","48","248382","0.0-6.0-4.0-0.0","gu08dsnmnj","many_one","0","direct_first","1","tz06en28","0","22","1","0","3","1","","0","0","0","null","","","<div class = 'row'><div class = 'column'><img src = 'category3/CS4.png' width = '70%;'></div><div class = 'column'><img src = 'usneg/9280.bmp' width = '100%;'></div></div>","null","neg","CS","CS","3","category3/CS4.png","","","","",""
"","html-keyboard-response","49","250921","0.0-6.0-4.0-0.1","gu08dsnmnj","many_one","0","direct_first","1","tz06en28","0","22","1","0","3","1","","0","0","0","null","","","<div class = 'row'><div class = 'column'><img src = 'category4/CS4.png' width = '70%;'></div><div class = 'column'><img src = 'uspos/2530.bmp' width = '100%;'></div></div>","null","pos","CS","CS","4","category4/CS4.png","","","","",""
"","html-keyboard-response","50","253451","0.0-6.0-4.0-0.2","gu08dsnmnj","many_one","0","direct_first","1","tz06en28","0","22","1","0","3","1","","0","0","0","null","","","<div class = 'row'><div class = 'column'><img src = 'usneg/9340.bmp' width = '100%;'></div><div class = 'column'><img src = 'category2/CS2.png' width = '70%;'></div></div>","null","neg","CS","CS","2","category2/CS2.png","","","","",""
"","html-keyboard-response","51","255981","0.0-6.0-4.0-0.3","gu08dsnmnj","many_one","0","direct_first","1","tz06en28","0","22","1","0","3","1","","0","0","0","null","","","<div class = 'row'><div class = 'column'><img src = 'usneg/9342.bmp' width = '100%;'></div><div class = 'column'><img src = 'category2/CS6.png' width = '70%;'></div></div>","null","neg","CS","CS","2","category2/CS6.png","","","","",""
"","html-keyboard-response","52","258501","0.0-6.0-4.0-0.4","gu08dsnmnj","many_one","0","direct_first","1","tz06en28","0","22","1","0","3","1","","0","0","0","null","","","<div class = 'row'><div class = 'column'><img src = 'category1/CS7.png' width = '70%;'></div><div class = 'column'><img src = 'uspos/2058.bmp' width = '100%;'></div></div>","null","pos","CS","CS","1","category1/CS7.png","","","","",""
"","html-keyboard-response","53","261039","0.0-6.0-4.0-0.5","gu08dsnmnj","many_one","0","direct_first","1","tz06en28","0","22","1","0","3","1","","0","0","0","null","","","<div class = 'row'><div class = 'column'><img src = 'category2/CS10.png' width = '70%;'></div><div class = 'column'><img src = 'usneg/9180.bmp' width = '100%;'></div></div>","null","neg","CS","CS","2","category2/CS10.png","","","","",""
"","html-keyboard-response","54","263571","0.0-6.0-4.0-0.6","gu08dsnmnj","many_one","0","direct_first","1","tz06en28","0","22","1","0","3","1","","0","0","0","null","","","<div class = 'row'><div class = 'column'><img src = 'category4/CS1.png' width = '70%;'></div><div class = 'column'><img src = 'uspos/8461.bmp' width = '100%;'></div></div>","null","pos","CS","CS","4","category4/CS1.png","","","","",""
"","html-keyboard-response","55","266091","0.0-6.0-4.0-0.7","gu08dsnmnj","many_one","0","direct_first","1","tz06en28","0","22","1","0","3","1","","0","0","0","null","","","<div class = 'row'><div class = 'column'><img src = 'uspos/8080.bmp' width = '100%;'></div><div class = 'column'><img src = 'category1/CS3.png' width = '70%;'></div></div>","null","pos","CS","CS","1","category1/CS3.png","","","","",""
"","html-keyboard-response","56","268630","0.0-6.0-4.0-0.8","gu08dsnmnj","many_one","0","direct_first","1","tz06en28","0","22","1","0","3","1","","0","0","0","null","","","<div class = 'row'><div class = 'column'><img src = 'usneg/9404.bmp' width = '100%;'></div><div class = 'column'><img src = 'category3/CS3.png' width = '70%;'></div></div>","null","neg","CS","CS","3","category3/CS3.png","","","","",""
"","html-keyboard-response","57","271171","0.0-6.0-4.0-0.9","gu08dsnmnj","many_one","0","direct_first","1","tz06en28","0","22","1","0","3","1","","0","0","0","null","","","<div class = 'row'><div class = 'column'><img src = 'usneg/9330.bmp' width = '100%;'></div><div class = 'column'><img src = 'category2/CS5.png' width = '70%;'></div></div>","null","neg","CS","CS","2","category2/CS5.png","","","","",""
"","html-keyboard-response","58","273710","0.0-6.0-4.0-0.10","gu08dsnmnj","many_one","0","direct_first","1","tz06en28","0","22","1","0","3","1","","0","0","0","null","","","<div class = 'row'><div class = 'column'><img src = 'category3/CS7.png' width = '70%;'></div><div class = 'column'><img src = 'usneg/9561.bmp' width = '100%;'></div></div>","null","neg","CS","CS","3","category3/CS7.png","","","","",""
"","html-keyboard-response","59","276221","0.0-6.0-4.0-0.11","gu08dsnmnj","many_one","0","direct_first","1","tz06en28","0","22","1","0","3","1","","0","0","0","null","","","<div class = 'row'><div class = 'column'><img src = 'category4/CS8.png' width = '70%;'></div><div class = 'column'><img src = 'uspos/1340.bmp' width = '100%;'></div></div>","null","pos","CS","CS","4","category4/CS8.png","","","","",""
"","html-keyboard-response","60","278751","0.0-6.0-4.0-0.12","gu08dsnmnj","many_one","0","direct_first","1","tz06en28","0","22","1","0","3","1","","0","0","0","null","","","<div class = 'row'><div class = 'column'><img src = 'usneg/9635.2.bmp' width = '100%;'></div><div class = 'column'><img src = 'category3/CS6.png' width = '70%;'></div></div>","null","neg","CS","CS","3","category3/CS6.png","","","","",""
"","html-keyboard-response","61","281281","0.0-6.0-4.0-0.13","gu08dsnmnj","many_one","0","direct_first","1","tz06en28","0","22","1","0","3","1","","0","0","0","null","","","<div class = 'row'><div class = 'column'><img src = 'uspos/5621.bmp' width = '100%;'></div><div class = 'column'><img src = 'category4/CS5.png' width = '70%;'></div></div>","null","pos","CS","CS","4","category4/CS5.png","","","","",""
"","html-keyboard-response","62","283820","0.0-6.0-4.0-0.14","gu08dsnmnj","many_one","0","direct_first","1","tz06en28","0","22","1","0","3","1","","0","0","0","null","","","<div class = 'row'><div class = 'column'><img src = 'uspos/5830.bmp' width = '100%;'></div><div class = 'column'><img src = 'category1/CS5.png' width = '70%;'></div></div>","null","pos","CS","CS","1","category1/CS5.png","","","","",""
"","html-keyboard-response","63","286361","0.0-6.0-4.0-0.15","gu08dsnmnj","many_one","0","direct_first","1","tz06en28","0","22","1","0","3","1","","0","0","0","null","","","<div class = 'row'><div class = 'column'><img src = 'uspos/5831.bmp' width = '100%;'></div><div class = 'column'><img src = 'category4/CS6.png' width = '70%;'></div></div>","null","pos","CS","CS","4","category4/CS6.png","","","","",""
"","html-keyboard-response","64","288891","0.0-6.0-4.0-0.16","gu08dsnmnj","many_one","0","direct_first","1","tz06en28","0","22","1","0","3","1","","0","0","0","null","","","<div class = 'row'><div class = 'column'><img src = 'category2/CS1.png' width = '70%;'></div><div class = 'column'><img src = 'usneg/2205.bmp' width = '100%;'></div></div>","null","neg","CS","CS","2","category2/CS1.png","","","","",""
"","html-keyboard-response","65","291431","0.0-6.0-4.0-0.17","gu08dsnmnj","many_one","0","direct_first","1","tz06en28","0","22","1","0","3","1","","0","0","0","null","","","<div class = 'row'><div class = 'column'><img src = 'category3/CS5.png' width = '70%;'></div><div class = 'column'><img src = 'usneg/9920.bmp' width = '100%;'></div></div>","null","neg","CS","CS","3","category3/CS5.png","","","","",""
"","html-keyboard-response","66","293969","0.0-6.0-4.0-0.18","gu08dsnmnj","many_one","0","direct_first","1","tz06en28","0","22","1","0","3","1","","0","0","0","null","","","<div class = 'row'><div class = 'column'><img src = 'uspos/8350.bmp' width = '100%;'></div><div class = 'column'><img src = 'category1/CS10.png' width = '70%;'></div></div>","null","pos","CS","CS","1","category1/CS10.png","","","","",""
"","html-keyboard-response","67","296510","0.0-6.0-4.0-0.19","gu08dsnmnj","many_one","0","direct_first","1","tz06en28","0","22","1","0","3","1","","0","0","0","null","","","<div class = 'row'><div class = 'column'><img src = 'uspos/2550.bmp' width = '100%;'></div><div class = 'column'><img src = 'category1/CS8.png' width = '70%;'></div></div>","null","pos","CS","CS","1","category1/CS8.png","","","","",""
"","survey-html-form","68","306709","0.0-6.0-5.0","gu08dsnmnj","many_one","0","direct_first","1","tz06en28","0","22","1","0","3","1","","0","0","0","9678","","{}","","","","","","","","","","","",""
"","html-keyboard-response","69","310750","0.0-6.0-6.0-0.0","gu08dsnmnj","many_one","0","direct_first","1","tz06en28","0","22","1","0","3","1","","0","0","0","null","","","<div class = 'row'><div class = 'column'><img src = 'category4/CS4.png' width = '70%;'></div><div class = 'column'><img src = 'uspos/2530.bmp' width = '100%;'></div></div>","null","pos","CS","CS","4","category4/CS4.png","","","","",""
"","html-keyboard-response","70","313289","0.0-6.0-6.0-0.1","gu08dsnmnj","many_one","0","direct_first","1","tz06en28","0","22","1","0","3","1","","0","0","0","null","","","<div class = 'row'><div class = 'column'><img src = 'uspos/2058.bmp' width = '100%;'></div><div class = 'column'><img src = 'category1/CS7.png' width = '70%;'></div></div>","null","pos","CS","CS","1","category1/CS7.png","","","","",""
"","html-keyboard-response","71","315829","0.0-6.0-6.0-0.2","gu08dsnmnj","many_one","0","direct_first","1","tz06en28","0","22","1","0","3","1","","0","0","0","null","","","<div class = 'row'><div class = 'column'><img src = 'usneg/2205.bmp' width = '100%;'></div><div class = 'column'><img src = 'category2/CS1.png' width = '70%;'></div></div>","null","neg","CS","CS","2","category2/CS1.png","","","","",""
"","html-keyboard-response","72","318370","0.0-6.0-6.0-0.3","gu08dsnmnj","many_one","0","direct_first","1","tz06en28","0","22","1","0","3","1","","0","0","0","null","","","<div class = 'row'><div class = 'column'><img src = 'category1/CS8.png' width = '70%;'></div><div class = 'column'><img src = 'uspos/2550.bmp' width = '100%;'></div></div>","null","pos","CS","CS","1","category1/CS8.png","","","","",""
"","html-keyboard-response","73","320900","0.0-6.0-6.0-0.4","gu08dsnmnj","many_one","0","direct_first","1","tz06en28","0","22","1","0","3","1","","0","0","0","null","","","<div class = 'row'><div class = 'column'><img src = 'category1/CS10.png' width = '70%;'></div><div class = 'column'><img src = 'uspos/8350.bmp' width = '100%;'></div></div>","null","pos","CS","CS","1","category1/CS10.png","","","","",""
"","html-keyboard-response","74","323439","0.0-6.0-6.0-0.5","gu08dsnmnj","many_one","0","direct_first","1","tz06en28","0","22","1","0","3","1","","0","0","0","null","","","<div class = 'row'><div class = 'column'><img src = 'uspos/1340.bmp' width = '100%;'></div><div class = 'column'><img src = 'category4/CS8.png' width = '70%;'></div></div>","null","pos","CS","CS","4","category4/CS8.png","","","","",""
"","html-keyboard-response","75","325950","0.0-6.0-6.0-0.6","gu08dsnmnj","many_one","0","direct_first","1","tz06en28","0","22","1","0","3","1","","0","0","0","null","","","<div class = 'row'><div class = 'column'><img src = 'category3/CS3.png' width = '70%;'></div><div class = 'column'><img src = 'usneg/9404.bmp' width = '100%;'></div></div>","null","neg","CS","CS","3","category3/CS3.png","","","","",""
"","html-keyboard-response","76","328487","0.0-6.0-6.0-0.7","gu08dsnmnj","many_one","0","direct_first","1","tz06en28","0","22","1","0","3","1","","0","0","0","null","","","<div class = 'row'><div class = 'column'><img src = 'usneg/9342.bmp' width = '100%;'></div><div class = 'column'><img src = 'category2/CS6.png' width = '70%;'></div></div>","null","neg","CS","CS","2","category2/CS6.png","","","","",""
"","html-keyboard-response","77","331009","0.0-6.0-6.0-0.8","gu08dsnmnj","many_one","0","direct_first","1","tz06en28","0","22","1","0","3","1","","0","0","0","null","","","<div class = 'row'><div class = 'column'><img src = 'category3/CS7.png' width = '70%;'></div><div class = 'column'><img src = 'usneg/9561.bmp' width = '100%;'></div></div>","null","neg","CS","CS","3","category3/CS7.png","","","","",""
"","html-keyboard-response","78","333549","0.0-6.0-6.0-0.9","gu08dsnmnj","many_one","0","direct_first","1","tz06en28","0","22","1","0","3","1","","0","0","0","null","","","<div class = 'row'><div class = 'column'><img src = 'usneg/9180.bmp' width = '100%;'></div><div class = 'column'><img src = 'category2/CS10.png' width = '70%;'></div></div>","null","neg","CS","CS","2","category2/CS10.png","","","","",""
"","html-keyboard-response","79","336089","0.0-6.0-6.0-0.10","gu08dsnmnj","many_one","0","direct_first","1","tz06en28","0","22","1","0","3","1","","0","0","0","null","","","<div class = 'row'><div class = 'column'><img src = 'category4/CS5.png' width = '70%;'></div><div class = 'column'><img src = 'uspos/5621.bmp' width = '100%;'></div></div>","null","pos","CS","CS","4","category4/CS5.png","","","","",""
"","html-keyboard-response","80","338619","0.0-6.0-6.0-0.11","gu08dsnmnj","many_one","0","direct_first","1","tz06en28","0","22","1","0","3","1","","0","0","0","null","","","<div class = 'row'><div class = 'column'><img src = 'category3/CS6.png' width = '70%;'></div><div class = 'column'><img src = 'usneg/9635.2.bmp' width = '100%;'></div></div>","null","neg","CS","CS","3","category3/CS6.png","","","","",""
"","html-keyboard-response","81","341148","0.0-6.0-6.0-0.12","gu08dsnmnj","many_one","0","direct_first","1","tz06en28","0","22","1","0","3","1","","0","0","0","null","","","<div class = 'row'><div class = 'column'><img src = 'category1/CS3.png' width = '70%;'></div><div class = 'column'><img src = 'uspos/8080.bmp' width = '100%;'></div></div>","null","pos","CS","CS","1","category1/CS3.png","","","","",""
"","html-keyboard-response","82","343688","0.0-6.0-6.0-0.13","gu08dsnmnj","many_one","0","direct_first","1","tz06en28","0","22","1","0","3","1","","0","0","0","null","","","<div class = 'row'><div class = 'column'><img src = 'usneg/9330.bmp' width = '100%;'></div><div class = 'column'><img src = 'category2/CS5.png' width = '70%;'></div></div>","null","neg","CS","CS","2","category2/CS5.png","","","","",""
"","html-keyboard-response","83","346228","0.0-6.0-6.0-0.14","gu08dsnmnj","many_one","0","direct_first","1","tz06en28","0","22","1","0","3","1","","0","0","0","null","","","<div class = 'row'><div class = 'column'><img src = 'category4/CS1.png' width = '70%;'></div><div class = 'column'><img src = 'uspos/8461.bmp' width = '100%;'></div></div>","null","pos","CS","CS","4","category4/CS1.png","","","","",""
"","html-keyboard-response","84","348769","0.0-6.0-6.0-0.15","gu08dsnmnj","many_one","0","direct_first","1","tz06en28","0","22","1","0","3","1","","0","0","0","null","","","<div class = 'row'><div class = 'column'><img src = 'category3/CS4.png' width = '70%;'></div><div class = 'column'><img src = 'usneg/9280.bmp' width = '100%;'></div></div>","null","neg","CS","CS","3","category3/CS4.png","","","","",""
"","html-keyboard-response","85","351289","0.0-6.0-6.0-0.16","gu08dsnmnj","many_one","0","direct_first","1","tz06en28","0","22","1","0","3","1","","0","0","0","null","","","<div class = 'row'><div class = 'column'><img src = 'usneg/9340.bmp' width = '100%;'></div><div class = 'column'><img src = 'category2/CS2.png' width = '70%;'></div></div>","null","neg","CS","CS","2","category2/CS2.png","","","","",""
"","html-keyboard-response","86","353829","0.0-6.0-6.0-0.17","gu08dsnmnj","many_one","0","direct_first","1","tz06en28","0","22","1","0","3","1","","0","0","0","null","","","<div class = 'row'><div class = 'column'><img src = 'category3/CS5.png' width = '70%;'></div><div class = 'column'><img src = 'usneg/9920.bmp' width = '100%;'></div></div>","null","neg","CS","CS","3","category3/CS5.png","","","","",""
"","html-keyboard-response","87","356358","0.0-6.0-6.0-0.18","gu08dsnmnj","many_one","0","direct_first","1","tz06en28","0","22","1","0","3","1","","0","0","0","null","","","<div class = 'row'><div class = 'column'><img src = 'category1/CS5.png' width = '70%;'></div><div class = 'column'><img src = 'uspos/5830.bmp' width = '100%;'></div></div>","null","pos","CS","CS","1","category1/CS5.png","","","","",""
"","html-keyboard-response","88","358888","0.0-6.0-6.0-0.19","gu08dsnmnj","many_one","0","direct_first","1","tz06en28","0","22","1","0","3","1","","0","0","0","null","","","<div class = 'row'><div class = 'column'><img src = 'category4/CS6.png' width = '70%;'></div><div class = 'column'><img src = 'uspos/5831.bmp' width = '100%;'></div></div>","null","pos","CS","CS","4","category4/CS6.png","","","","",""
"","survey-html-form","89","366491","0.0-7.0","gu08dsnmnj","many_one","0","direct_first","1","tz06en28","0","22","1","0","3","1","","0","0","0","7084","","{}","","","","","","","","","","","",""
"","image-slider-response","90","374140","0.0-8.0-0.0","gu08dsnmnj","many_one","0","direct_first","1","tz06en28","0","22","1","0","3","1","","0","0","0","5636","","","","","pos","CS","CS","4","category4/CS4.png","63","targets/40.png","direct","",""
"","image-slider-response","91","377555","0.0-8.0-0.1","gu08dsnmnj","many_one","0","direct_first","1","tz06en28","0","22","1","0","3","1","","0","0","0","3415","","","","","pos","GS","GSnew","1","category1/GS2.png","55","targets/11.png","direct","",""
"","image-slider-response","92","380067","0.0-8.0-0.2","gu08dsnmnj","many_one","0","direct_first","1","tz06en28","0","22","1","0","3","1","","0","0","0","2511","","","","","neg","CS","CS","2","category2/CS2.png","-71","targets/34.png","direct","",""
"","image-slider-response","93","384147","0.0-8.0-0.3","gu08dsnmnj","many_one","0","direct_first","1","tz06en28","0","22","1","0","3","1","","0","0","0","4080","","","","","pos","GS","abstract","4","category4/lin.png","39","targets/20.png","direct","",""
"","image-slider-response","94","386090","0.0-8.0-0.4","gu08dsnmnj","many_one","0","direct_first","1","tz06en28","0","22","1","0","3","1","","0","0","0","1943","","","","","pos","CS","CS","1","category1/CS5.png","-60","targets/18.png","direct","",""
"","image-slider-response","95","388458","0.0-8.0-0.5","gu08dsnmnj","many_one","0","direct_first","1","tz06en28","0","22","1","0","3","1","","0","0","0","2367","","","","","pos","GS","GSold","4","category4/CS9.png","-66","targets/1.png","direct","",""
"","image-slider-response","96","391283","0.0-8.0-0.6","gu08dsnmnj","many_one","0","direct_first","1","tz06en28","0","22","1","0","3","1","","0","0","0","2823","","","","","pos","CS","CS","4","category4/CS1.png","-53","targets/25.png","direct","",""
"","image-slider-response","97","394531","0.0-8.0-0.7","gu08dsnmnj","many_one","0","direct_first","1","tz06en28","0","22","1","0","3","1","","0","0","0","3247","","","","","neg","GS","GSnew","2","category2/GS3.png","-64","targets/15.png","direct","",""
"","image-slider-response","98","398035","0.0-8.0-0.8","gu08dsnmnj","many_one","0","direct_first","1","tz06en28","0","22","1","0","3","1","","0","0","0","3503","","","","","pos","GS","GSold","1","category1/CS1.png","-94","targets/30.png","direct","",""
"","image-slider-response","99","401690","0.0-8.0-0.9","gu08dsnmnj","many_one","0","direct_first","1","tz06en28","0","22","1","0","3","1","","0","0","0","3655","","","","","pos","GS","GSold","1","category1/CS9.png","-87","targets/28.png","direct","",""
"","image-slider-response","100","404755","0.0-8.0-0.10","gu08dsnmnj","many_one","0","direct_first","1","tz06en28","0","22","1","0","3","1","","0","0","0","3062","","","","","neg","GS","GSnew","3","category3/GS3.png","-45","targets/47.png","direct","",""
"","image-slider-response","101","407243","0.0-8.0-0.11","gu08dsnmnj","many_one","0","direct_first","1","tz06en28","0","22","1","0","3","1","","0","0","0","2486","","","","","neg","GS","GSnew","2","category2/GS2.png","-20","targets/7.png","direct","",""
"","image-slider-response","102","409242","0.0-8.0-0.12","gu08dsnmnj","many_one","0","direct_first","1","tz06en28","0","22","1","0","3","1","","0","0","0","1999","","","","","neg","GS","GSold","2","category2/CS8.png","-80","targets/45.png","direct","",""
"","image-slider-response","103","411043","0.0-8.0-0.13","gu08dsnmnj","many_one","0","direct_first","1","tz06en28","0","22","1","0","3","1","","0","0","0","1798","","","","","pos","GS","GSold","1","category1/CS4.png","-33","targets/35.png","direct","",""
"","image-slider-response","104","413458","0.0-8.0-0.14","gu08dsnmnj","many_one","0","direct_first","1","tz06en28","0","22","1","0","3","1","","0","0","0","2415","","","","","neg","GS","GSold","3","category3/CS10.png","-63","targets/5.png","direct","",""
"","image-slider-response","105","415379","0.0-8.0-0.15","gu08dsnmnj","many_one","0","direct_first","1","tz06en28","0","22","1","0","3","1","","0","0","0","1919","","","","","pos","GS","GSnew","1","category1/GS1.png","-19","targets/44.png","direct","",""
"","image-slider-response","106","417074","0.0-8.0-0.16","gu08dsnmnj","many_one","0","direct_first","1","tz06en28","0","22","1","0","3","1","","0","0","0","1694","","","","","pos","GS","GSnew","4","category4/GS2.png","26","targets/39.png","direct","",""
"","image-slider-response","107","419283","0.0-8.0-0.17","gu08dsnmnj","many_one","0","direct_first","1","tz06en28","0","22","1","0","3","1","","0","0","0","2207","","","","","neg","GS","GSold","2","category2/CS9.png","-74","targets/29.png","direct","",""
"","image-slider-response","108","421731","0.0-8.0-0.18","gu08dsnmnj","many_one","0","direct_first","1","tz06en28","0","22","1","0","3","1","","0","0","0","2448","","","","","neg","GS","GSold","2","category2/CS4.png","-69","targets/42.png","direct","",""
"","image-slider-response","109","423738","0.0-8.0-0.19","gu08dsnmnj","many_one","0","direct_first","1","tz06en28","0","22","1","0","3","1","","0","0","0","2007","","","","","neg","GS","abstract","3","category3/wang.png","-27","targets/24.png","direct","",""
"","image-slider-response","110","426139","0.0-8.0-0.20","gu08dsnmnj","many_one","0","direct_first","1","tz06en28","0","22","1","0","3","1","","0","0","0","2399","","","","","neg","GS","abstract","2","category2/men.png","-77","targets/46.png","direct","",""
"","image-slider-response","111","428586","0.0-8.0-0.21","gu08dsnmnj","many_one","0","direct_first","1","tz06en28","0","22","1","0","3","1","","0","0","0","2447","","","","","neg","CS","CS","2","category2/CS5.png","-51","targets/6.png","direct","",""
"","image-slider-response","112","430962","0.0-8.0-0.22","gu08dsnmnj","many_one","0","direct_first","1","tz06en28","0","22","1","0","3","1","","0","0","0","2375","","","","","neg","GS","GSnew","2","category2/GS1.png","30","targets/8.png","direct","",""
"","image-slider-response","113","433250","0.0-8.0-0.23","gu08dsnmnj","many_one","0","direct_first","1","tz06en28","0","22","1","0","3","1","","0","0","0","2286","","","","","neg","GS","GSnew","3","category3/GS1.png","-27","targets/12.png","direct","",""
"","image-slider-response","114","435730","0.0-8.0-0.24","gu08dsnmnj","many_one","0","direct_first","1","tz06en28","0","22","1","0","3","1","","0","0","0","2478","","","","","pos","CS","CS","4","category4/CS8.png","-28","targets/4.png","direct","",""
"","image-slider-response","115","438514","0.0-8.0-0.25","gu08dsnmnj","many_one","0","direct_first","1","tz06en28","0","22","1","0","3","1","","0","0","0","2783","","","","","neg","CS","CS","3","category3/CS4.png","-44","targets/13.png","direct","",""
"","image-slider-response","116","441250","0.0-8.0-0.26","gu08dsnmnj","many_one","0","direct_first","1","tz06en28","0","22","1","0","3","1","","0","0","0","2733","","","","","neg","GS","GSold","3","category3/CS9.png","-95","targets/21.png","direct","",""
"","image-slider-response","117","443642","0.0-8.0-0.27","gu08dsnmnj","many_one","0","direct_first","1","tz06en28","0","22","1","0","3","1","","0","0","0","2392","","","","","pos","GS","abstract","1","category1/ma.png","20","targets/23.png","direct","",""
"","image-slider-response","118","445746","0.0-8.0-0.28","gu08dsnmnj","many_one","0","direct_first","1","tz06en28","0","22","1","0","3","1","","0","0","0","2103","","","","","pos","GS","GSold","4","category4/CS3.png","25","targets/10.png","direct","",""
"","image-slider-response","119","447642","0.0-8.0-0.29","gu08dsnmnj","many_one","0","direct_first","1","tz06en28","0","22","1","0","3","1","","0","0","0","1895","","","","","pos","GS","GSnew","4","category4/GS3.png","-37","targets/32.png","direct","",""
"","image-slider-response","120","449883","0.0-8.0-0.30","gu08dsnmnj","many_one","0","direct_first","1","tz06en28","0","22","1","0","3","1","","0","0","0","2239","","","","","neg","CS","CS","3","category3/CS7.png","-51","targets/16.png","direct","",""
"","image-slider-response","121","452546","0.0-8.0-0.31","gu08dsnmnj","many_one","0","direct_first","1","tz06en28","0","22","1","0","3","1","","0","0","0","2663","","","","","pos","GS","GSnew","4","category4/GS1.png","20","targets/19.png","direct","",""
"","image-slider-response","122","456466","0.0-8.0-0.32","gu08dsnmnj","many_one","0","direct_first","1","tz06en28","0","22","1","0","3","1","","0","0","0","3920","","","","","pos","GS","GSnew","1","category1/GS3.png","22","targets/22.png","direct","",""
"","image-slider-response","123","459738","0.0-8.0-0.33","gu08dsnmnj","many_one","0","direct_first","1","tz06en28","0","22","1","0","3","1","","0","0","0","3271","","","","","pos","CS","CS","1","category1/CS10.png","18","targets/14.png","direct","",""
"","image-slider-response","124","461954","0.0-8.0-0.34","gu08dsnmnj","many_one","0","direct_first","1","tz06en28","0","22","1","0","3","1","","0","0","0","2215","","","","","neg","CS","CS","2","category2/CS10.png","-62","targets/38.png","direct","",""
"","image-slider-response","125","464442","0.0-8.0-0.35","gu08dsnmnj","many_one","0","direct_first","1","tz06en28","0","22","1","0","3","1","","0","0","0","2486","","","","","neg","GS","GSnew","3","category3/GS2.png","-100","targets/41.png","direct","",""
"","image-slider-response","126","466362","0.0-8.0-0.36","gu08dsnmnj","many_one","0","direct_first","1","tz06en28","0","22","1","0","3","1","","0","0","0","1919","","","","","pos","CS","CS","4","category4/CS6.png","22","targets/2.png","direct","",""
"","image-slider-response","127","468810","0.0-8.0-0.37","gu08dsnmnj","many_one","0","direct_first","1","tz06en28","0","22","1","0","3","1","","0","0","0","2447","","","","","pos","CS","CS","1","category1/CS7.png","-30","targets/43.png","direct","",""
"","image-slider-response","128","470730","0.0-8.0-0.38","gu08dsnmnj","many_one","0","direct_first","1","tz06en28","0","22","1","0","3","1","","0","0","0","1919","","","","","pos","CS","CS","1","category1/CS3.png","-61","targets/48.png","direct","",""
"","image-slider-response","129","472466","0.0-8.0-0.39","gu08dsnmnj","many_one","0","direct_first","1","tz06en28","0","22","1","0","3","1","","0","0","0","1735","","","","","pos","CS","CS","4","category4/CS5.png","-47","targets/3.png","direct","",""
"","image-slider-response","130","475210","0.0-8.0-0.40","gu08dsnmnj","many_one","0","direct_first","1","tz06en28","0","22","1","0","3","1","","0","0","0","2743","","","","","neg","GS","GSold","3","category3/CS2.png","-21","targets/17.png","direct","",""
"","image-slider-response","131","481642","0.0-8.0-0.41","gu08dsnmnj","many_one","0","direct_first","1","tz06en28","0","22","1","0","3","1","","0","0","0","6431","","","","","neg","CS","CS","3","category3/CS6.png","-9","targets/9.png","direct","",""
"","image-slider-response","132","484650","0.0-8.0-0.42","gu08dsnmnj","many_one","0","direct_first","1","tz06en28","0","22","1","0","3","1","","0","0","0","3006","","","","","neg","CS","CS","3","category3/CS5.png","-48","targets/27.png","direct","",""
"","image-slider-response","133","487266","0.0-8.0-0.43","gu08dsnmnj","many_one","0","direct_first","1","tz06en28","0","22","1","0","3","1","","0","0","0","2615","","","","","pos","GS","GSold","4","category4/CS7.png","48","targets/31.png","direct","",""
"","image-slider-response","134","489594","0.0-8.0-0.44","gu08dsnmnj","many_one","0","direct_first","1","tz06en28","0","22","1","0","3","1","","0","0","0","2327","","","","","neg","CS","CS","3","category3/CS3.png","-20","targets/26.png","direct","",""
"","image-slider-response","135","492514","0.0-8.0-0.45","gu08dsnmnj","many_one","0","direct_first","1","tz06en28","0","22","1","0","3","1","","0","0","0","2918","","","","","pos","CS","CS","1","category1/CS8.png","27","targets/33.png","direct","",""
"","image-slider-response","136","494258","0.0-8.0-0.46","gu08dsnmnj","many_one","0","direct_first","1","tz06en28","0","22","1","0","3","1","","0","0","0","1742","","","","","neg","CS","CS","2","category2/CS1.png","-73","targets/37.png","direct","",""
"","image-slider-response","137","496537","0.0-8.0-0.47","gu08dsnmnj","many_one","0","direct_first","1","tz06en28","0","22","1","0","3","1","","0","0","0","2279","","","","","neg","CS","CS","2","category2/CS6.png","-62","targets/36.png","direct","",""
"","html-keyboard-response","138","534714","0.0-9.0","gu08dsnmnj","many_one","0","direct_first","1","tz06en28","0","22","1","0","3","1","","0","0","0","38176","","","<p>Sie sehen nun die chinesischen Zeichen nur ganz kurz. Danach sehen Sie die jeweilige Aussprache der Zeichen als Silbe auf dem Bildschrim. Ihre Aufgabe ist es, für jede Silbe anzugeben, ob diese etwas angenehmes, oder unangenehmes bedeuten könnte. Verlassen Sie sich hier vor allem auf Ihre Intuition.<br><br>Die Zeichen werden nur zur Orientierung dargestellt, beachten Sie sie deshalb nicht. Konzentrieren Sie sich vor allem auf die Silben. <br>Reagieren Sie mit folgenden zwei Tasten: <br><br><b>'D' </b> wenn die Silbe etwas <b>unangenehmes</b> bedeuten könnte. <br><b>'K'</b> wenn die Silbe etwas <b>angenehmes</b> bedeuten könnte. <br><br>Bitte legen Sie nun den Zeigefinger der linken Hand auf die Taste 'D' und den Zeigefinger der rechten Hand auf die Taste 'K'. <br>Reagieren Sie auf jede Silbe so schnell wie möglich. Uns interessiert Ihre spontane Reaktion. <br> <br> <br>Drücken Sie 'D' oder 'K', um die nächste Aufgabe zu starten. </p>","75","","","","","","","","","",""
"","html-keyboard-response","139","537737","0.0-10.0-0.0","gu08dsnmnj","many_one","0","direct_first","1","tz06en28","0","22","1","0","3","1","","0","0","0","null","","","<div style=""font-size:60px;"">+</div>","null","","","","","","","","","",""
"","html-keyboard-response","140","537836","0.0-10.0-1.0","gu08dsnmnj","many_one","0","direct_first","1","tz06en28","0","22","1","0","3","1","","0","0","0","null","","","<img src = 'category3/CS2.png' width = '100%;'>","null","","","","","","","","","",""
"","html-keyboard-response","141","538116","0.0-10.0-2.0","gu08dsnmnj","many_one","0","direct_first","1","tz06en28","0","22","1","0","3","1","","0","0","0","null","","","<img src = 'targets/17.png' width = '100%;'>","null","","","","","","","","","",""
"","html-keyboard-response","142","541466","0.0-10.0-3.0","gu08dsnmnj","many_one","0","direct_first","1","tz06en28","0","22","1","0","3","1","","0","0","0","3348","","","<img src = 'targets/mask.png' width = '100%;'>","75","neg","GS","GSold","3","category3/CS2.png","","targets/17.png","indirect","1","0"
"","html-keyboard-response","143","542996","0.0-10.0-0.1","gu08dsnmnj","many_one","0","direct_first","1","tz06en28","0","22","1","0","3","1","","0","0","0","null","","","<div style=""font-size:60px;"">+</div>","null","","","","","","","","","",""
"","html-keyboard-response","144","543096","0.0-10.0-1.1","gu08dsnmnj","many_one","0","direct_first","1","tz06en28","0","22","1","0","3","1","","0","0","0","null","","","<img src = 'category3/CS6.png' width = '100%;'>","null","","","","","","","","","",""
"","html-keyboard-response","145","543376","0.0-10.0-2.1","gu08dsnmnj","many_one","0","direct_first","1","tz06en28","0","22","1","0","3","1","","0","0","0","null","","","<img src = 'targets/9.png' width = '100%;'>","null","","","","","","","","","",""
"","html-keyboard-response","146","544690","0.0-10.0-3.1","gu08dsnmnj","many_one","0","direct_first","1","tz06en28","0","22","1","0","3","1","","0","0","0","1312","","","<img src = 'targets/mask.png' width = '100%;'>","75","neg","CS","CS","3","category3/CS6.png","","targets/9.png","indirect","1","1"
"","html-keyboard-response","147","546206","0.0-10.0-0.2","gu08dsnmnj","many_one","0","direct_first","1","tz06en28","0","22","1","0","3","1","","0","0","0","null","","","<div style=""font-size:60px;"">+</div>","null","","","","","","","","","",""
"","html-keyboard-response","148","546306","0.0-10.0-1.2","gu08dsnmnj","many_one","0","direct_first","1","tz06en28","0","22","1","0","3","1","","0","0","0","null","","","<img src = 'category2/CS6.png' width = '100%;'>","null","","","","","","","","","",""
"","html-keyboard-response","149","546586","0.0-10.0-2.2","gu08dsnmnj","many_one","0","direct_first","1","tz06en28","0","22","1","0","3","1","","0","0","0","null","","","<img src = 'targets/36.png' width = '100%;'>","null","","","","","","","","","",""
"","html-keyboard-response","150","547146","0.0-10.0-3.2","gu08dsnmnj","many_one","0","direct_first","1","tz06en28","0","22","1","0","3","1","","0","0","0","558","","","<img src = 'targets/mask.png' width = '100%;'>","68","neg","CS","CS","2","category2/CS6.png","","targets/36.png","indirect","0","2"
"","html-keyboard-response","151","548667","0.0-10.0-0.3","gu08dsnmnj","many_one","0","direct_first","1","tz06en28","0","22","1","0","3","1","","0","0","0","null","","","<div style=""font-size:60px;"">+</div>","null","","","","","","","","","",""
"","html-keyboard-response","152","548766","0.0-10.0-1.3","gu08dsnmnj","many_one","0","direct_first","1","tz06en28","0","22","1","0","3","1","","0","0","0","null","","","<img src = 'category2/CS2.png' width = '100%;'>","null","","","","","","","","","",""
"","html-keyboard-response","153","549047","0.0-10.0-2.3","gu08dsnmnj","many_one","0","direct_first","1","tz06en28","0","22","1","0","3","1","","0","0","0","null","","","<img src = 'targets/34.png' width = '100%;'>","null","","","","","","","","","",""
"","html-keyboard-response","154","549786","0.0-10.0-3.3","gu08dsnmnj","many_one","0","direct_first","1","tz06en28","0","22","1","0","3","1","","0","0","0","739","","","<img src = 'targets/mask.png' width = '100%;'>","75","neg","CS","CS","2","category2/CS2.png","","targets/34.png","indirect","1","3"
"","html-keyboard-response","155","551326","0.0-10.0-0.4","gu08dsnmnj","many_one","0","direct_first","1","tz06en28","0","22","1","0","3","1","","0","0","0","null","","","<div style=""font-size:60px;"">+</div>","null","","","","","","","","","",""
"","html-keyboard-response","156","551426","0.0-10.0-1.4","gu08dsnmnj","many_one","0","direct_first","1","tz06en28","0","22","1","0","3","1","","0","0","0","null","","","<img src = 'category2/CS1.png' width = '100%;'>","null","","","","","","","","","",""
"","html-keyboard-response","157","551706","0.0-10.0-2.4","gu08dsnmnj","many_one","0","direct_first","1","tz06en28","0","22","1","0","3","1","","0","0","0","null","","","<img src = 'targets/37.png' width = '100%;'>","null","","","","","","","","","",""
"","html-keyboard-response","158","552562","0.0-10.0-3.4","gu08dsnmnj","many_one","0","direct_first","1","tz06en28","0","22","1","0","3","1","","0","0","0","855","","","<img src = 'targets/mask.png' width = '100%;'>","68","neg","CS","CS","2","category2/CS1.png","","targets/37.png","indirect","0","4"
"","html-keyboard-response","159","554076","0.0-10.0-0.5","gu08dsnmnj","many_one","0","direct_first","1","tz06en28","0","22","1","0","3","1","","0","0","0","null","","","<div style=""font-size:60px;"">+</div>","null","","","","","","","","","",""
"","html-keyboard-response","160","554175","0.0-10.0-1.5","gu08dsnmnj","many_one","0","direct_first","1","tz06en28","0","22","1","0","3","1","","0","0","0","null","","","<img src = 'category2/CS5.png' width = '100%;'>","null","","","","","","","","","",""
"","html-keyboard-response","161","554456","0.0-10.0-2.5","gu08dsnmnj","many_one","0","direct_first","1","tz06en28","0","22","1","0","3","1","","0","0","0","null","","","<img src = 'targets/6.png' width = '100%;'>","null","","","","","","","","","",""
"","html-keyboard-response","162","554962","0.0-10.0-3.5","gu08dsnmnj","many_one","0","direct_first","1","tz06en28","0","22","1","0","3","1","","0","0","0","505","","","<img src = 'targets/mask.png' width = '100%;'>","75","neg","CS","CS","2","category2/CS5.png","","targets/6.png","indirect","1","5"
"","html-keyboard-response","163","556497","0.0-10.0-0.6","gu08dsnmnj","many_one","0","direct_first","1","tz06en28","0","22","1","0","3","1","","0","0","0","null","","","<div style=""font-size:60px;"">+</div>","null","","","","","","","","","",""
"","html-keyboard-response","164","556596","0.0-10.0-1.6","gu08dsnmnj","many_one","0","direct_first","1","tz06en28","0","22","1","0","3","1","","0","0","0","null","","","<img src = 'category4/CS4.png' width = '100%;'>","null","","","","","","","","","",""
"","html-keyboard-response","165","556856","0.0-10.0-2.6","gu08dsnmnj","many_one","0","direct_first","1","tz06en28","0","22","1","0","3","1","","0","0","0","null","","","<img src = 'targets/40.png' width = '100%;'>","null","","","","","","","","","",""
"","html-keyboard-response","166","557650","0.0-10.0-3.6","gu08dsnmnj","many_one","0","direct_first","1","tz06en28","0","22","1","0","3","1","","0","0","0","793","","","<img src = 'targets/mask.png' width = '100%;'>","68","pos","CS","CS","4","category4/CS4.png","","targets/40.png","indirect","0","6"
"","html-keyboard-response","167","559156","0.0-10.0-0.7","gu08dsnmnj","many_one","0","direct_first","1","tz06en28","0","22","1","0","3","1","","0","0","0","null","","","<div style=""font-size:60px;"">+</div>","null","","","","","","","","","",""
"","html-keyboard-response","168","559256","0.0-10.0-1.7","gu08dsnmnj","many_one","0","direct_first","1","tz06en28","0","22","1","0","3","1","","0","0","0","null","","","<img src = 'category4/CS3.png' width = '100%;'>","null","","","","","","","","","",""
"","html-keyboard-response","169","559535","0.0-10.0-2.7","gu08dsnmnj","many_one","0","direct_first","1","tz06en28","0","22","1","0","3","1","","0","0","0","null","","","<img src = 'targets/10.png' width = '100%;'>","null","","","","","","","","","",""
"","html-keyboard-response","170","560562","0.0-10.0-3.7","gu08dsnmnj","many_one","0","direct_first","1","tz06en28","0","22","1","0","3","1","","0","0","0","1025","","","<img src = 'targets/mask.png' width = '100%;'>","68","pos","GS","GSold","4","category4/CS3.png","","targets/10.png","indirect","0","7"
"","html-keyboard-response","171","562086","0.0-10.0-0.8","gu08dsnmnj","many_one","0","direct_first","1","tz06en28","0","22","1","0","3","1","","0","0","0","null","","","<div style=""font-size:60px;"">+</div>","null","","","","","","","","","",""
"","html-keyboard-response","172","562186","0.0-10.0-1.8","gu08dsnmnj","many_one","0","direct_first","1","tz06en28","0","22","1","0","3","1","","0","0","0","null","","","<img src = 'category3/CS3.png' width = '100%;'>","null","","","","","","","","","",""
"","html-keyboard-response","173","562465","0.0-10.0-2.8","gu08dsnmnj","many_one","0","direct_first","1","tz06en28","0","22","1","0","3","1","","0","0","0","null","","","<img src = 'targets/26.png' width = '100%;'>","null","","","","","","","","","",""
"","html-keyboard-response","174","562929","0.0-10.0-3.8","gu08dsnmnj","many_one","0","direct_first","1","tz06en28","0","22","1","0","3","1","","0","0","0","464","","","<img src = 'targets/mask.png' width = '100%;'>","75","neg","CS","CS","3","category3/CS3.png","","targets/26.png","indirect","1","8"
"","html-keyboard-response","175","564466","0.0-10.0-0.9","gu08dsnmnj","many_one","0","direct_first","1","tz06en28","0","22","1","0","3","1","","0","0","0","null","","","<div style=""font-size:60px;"">+</div>","null","","","","","","","","","",""
"","html-keyboard-response","176","564566","0.0-10.0-1.9","gu08dsnmnj","many_one","0","direct_first","1","tz06en28","0","22","1","0","3","1","","0","0","0","null","","","<img src = 'category4/CS8.png' width = '100%;'>","null","","","","","","","","","",""
"","html-keyboard-response","177","564846","0.0-10.0-2.9","gu08dsnmnj","many_one","0","direct_first","1","tz06en28","0","22","1","0","3","1","","0","0","0","null","","","<img src = 'targets/4.png' width = '100%;'>","null","","","","","","","","","",""
"","html-keyboard-response","178","565458","0.0-10.0-3.9","gu08dsnmnj","many_one","0","direct_first","1","tz06en28","0","22","1","0","3","1","","0","0","0","610","","","<img src = 'targets/mask.png' width = '100%;'>","68","pos","CS","CS","4","category4/CS8.png","","targets/4.png","indirect","0","9"
"","html-keyboard-response","179","566966","0.0-10.0-0.10","gu08dsnmnj","many_one","0","direct_first","1","tz06en28","0","22","1","0","3","1","","0","0","0","null","","","<div style=""font-size:60px;"">+</div>","null","","","","","","","","","",""
"","html-keyboard-response","180","567066","0.0-10.0-1.10","gu08dsnmnj","many_one","0","direct_first","1","tz06en28","0","22","1","0","3","1","","0","0","0","null","","","<img src = 'category2/CS10.png' width = '100%;'>","null","","","","","","","","","",""
"","html-keyboard-response","181","567335","0.0-10.0-2.10","gu08dsnmnj","many_one","0","direct_first","1","tz06en28","0","22","1","0","3","1","","0","0","0","null","","","<img src = 'targets/38.png' width = '100%;'>","null","","","","","","","","","",""
"","html-keyboard-response","182","568369","0.0-10.0-3.10","gu08dsnmnj","many_one","0","direct_first","1","tz06en28","0","22","1","0","3","1","","0","0","0","1033","","","<img src = 'targets/mask.png' width = '100%;'>","68","neg","CS","CS","2","category2/CS10.png","","targets/38.png","indirect","0","10"
"","html-keyboard-response","183","569906","0.0-10.0-0.11","gu08dsnmnj","many_one","0","direct_first","1","tz06en28","0","22","1","0","3","1","","0","0","0","null","","","<div style=""font-size:60px;"">+</div>","null","","","","","","","","","",""
"","html-keyboard-response","184","570006","0.0-10.0-1.11","gu08dsnmnj","many_one","0","direct_first","1","tz06en28","0","22","1","0","3","1","","0","0","0","null","","","<img src = 'category3/CS9.png' width = '100%;'>","null","","","","","","","","","",""
"","html-keyboard-response","185","570281","0.0-10.0-2.11","gu08dsnmnj","many_one","0","direct_first","1","tz06en28","0","22","1","0","3","1","","0","0","0","null","","","<img src = 'targets/21.png' width = '100%;'>","null","","","","","","","","","",""
"","html-keyboard-response","186","570937","0.0-10.0-3.11","gu08dsnmnj","many_one","0","direct_first","1","tz06en28","0","22","1","0","3","1","","0","0","0","654","","","<img src = 'targets/mask.png' width = '100%;'>","68","neg","GS","GSold","3","category3/CS9.png","","targets/21.png","indirect","0","11"
"","html-keyboard-response","187","572466","0.0-10.0-0.12","gu08dsnmnj","many_one","0","direct_first","1","tz06en28","0","22","1","0","3","1","","0","0","0","null","","","<div style=""font-size:60px;"">+</div>","null","","","","","","","","","",""
"","html-keyboard-response","188","572565","0.0-10.0-1.12","gu08dsnmnj","many_one","0","direct_first","1","tz06en28","0","22","1","0","3","1","","0","0","0","null","","","<img src = 'category4/CS1.png' width = '100%;'>","null","","","","","","","","","",""
"","html-keyboard-response","189","572836","0.0-10.0-2.12","gu08dsnmnj","many_one","0","direct_first","1","tz06en28","0","22","1","0","3","1","","0","0","0","null","","","<img src = 'targets/25.png' width = '100%;'>","null","","","","","","","","","",""
"","html-keyboard-response","190","573329","0.0-10.0-3.12","gu08dsnmnj","many_one","0","direct_first","1","tz06en28","0","22","1","0","3","1","","0","0","0","492","","","<img src = 'targets/mask.png' width = '100%;'>","75","pos","CS","CS","4","category4/CS1.png","","targets/25.png","indirect","1","12"
"","html-keyboard-response","191","574866","0.0-10.0-0.13","gu08dsnmnj","many_one","0","direct_first","1","tz06en28","0","22","1","0","3","1","","0","0","0","null","","","<div style=""font-size:60px;"">+</div>","null","","","","","","","","","",""
"","html-keyboard-response","192","574966","0.0-10.0-1.13","gu08dsnmnj","many_one","0","direct_first","1","tz06en28","0","22","1","0","3","1","","0","0","0","null","","","<img src = 'category4/CS6.png' width = '100%;'>","null","","","","","","","","","",""
"","html-keyboard-response","193","575225","0.0-10.0-2.13","gu08dsnmnj","many_one","0","direct_first","1","tz06en28","0","22","1","0","3","1","","0","0","0","null","","","<img src = 'targets/2.png' width = '100%;'>","null","","","","","","","","","",""
"","html-keyboard-response","194","575617","0.0-10.0-3.13","gu08dsnmnj","many_one","0","direct_first","1","tz06en28","0","22","1","0","3","1","","0","0","0","391","","","<img src = 'targets/mask.png' width = '100%;'>","68","pos","CS","CS","4","category4/CS6.png","","targets/2.png","indirect","0","13"
"","html-keyboard-response","195","577156","0.0-10.0-0.14","gu08dsnmnj","many_one","0","direct_first","1","tz06en28","0","22","1","0","3","1","","0","0","0","null","","","<div style=""font-size:60px;"">+</div>","null","","","","","","","","","",""
"","html-keyboard-response","196","577256","0.0-10.0-1.14","gu08dsnmnj","many_one","0","direct_first","1","tz06en28","0","22","1","0","3","1","","0","0","0","null","","","<img src = 'category1/CS5.png' width = '100%;'>","null","","","","","","","","","",""
"","html-keyboard-response","197","577536","0.0-10.0-2.14","gu08dsnmnj","many_one","0","direct_first","1","tz06en28","0","22","1","0","3","1","","0","0","0","null","","","<img src = 'targets/18.png' width = '100%;'>","null","","","","","","","","","",""
"","html-keyboard-response","198","578201","0.0-10.0-3.14","gu08dsnmnj","many_one","0","direct_first","1","tz06en28","0","22","1","0","3","1","","0","0","0","665","","","<img src = 'targets/mask.png' width = '100%;'>","68","pos","CS","CS","1","category1/CS5.png","","targets/18.png","indirect","0","14"
"","html-keyboard-response","199","579716","0.0-10.0-0.15","gu08dsnmnj","many_one","0","direct_first","1","tz06en28","0","22","1","0","3","1","","0","0","0","null","","","<div style=""font-size:60px;"">+</div>","null","","","","","","","","","",""
"","html-keyboard-response","200","579815","0.0-10.0-1.15","gu08dsnmnj","many_one","0","direct_first","1","tz06en28","0","22","1","0","3","1","","0","0","0","null","","","<img src = 'category3/CS5.png' width = '100%;'>","null","","","","","","","","","",""
"","html-keyboard-response","201","580096","0.0-10.0-2.15","gu08dsnmnj","many_one","0","direct_first","1","tz06en28","0","22","1","0","3","1","","0","0","0","null","","","<img src = 'targets/27.png' width = '100%;'>","null","","","","","","","","","",""
"","html-keyboard-response","202","580602","0.0-10.0-3.15","gu08dsnmnj","many_one","0","direct_first","1","tz06en28","0","22","1","0","3","1","","0","0","0","505","","","<img src = 'targets/mask.png' width = '100%;'>","68","neg","CS","CS","3","category3/CS5.png","","targets/27.png","indirect","0","15"
"","html-keyboard-response","203","582116","0.0-10.0-0.16","gu08dsnmnj","many_one","0","direct_first","1","tz06en28","0","22","1","0","3","1","","0","0","0","null","","","<div style=""font-size:60px;"">+</div>","null","","","","","","","","","",""
"","html-keyboard-response","204","582215","0.0-10.0-1.16","gu08dsnmnj","many_one","0","direct_first","1","tz06en28","0","22","1","0","3","1","","0","0","0","null","","","<img src = 'category1/CS10.png' width = '100%;'>","null","","","","","","","","","",""
"","html-keyboard-response","205","582496","0.0-10.0-2.16","gu08dsnmnj","many_one","0","direct_first","1","tz06en28","0","22","1","0","3","1","","0","0","0","null","","","<img src = 'targets/14.png' width = '100%;'>","null","","","","","","","","","",""
"","html-keyboard-response","206","583425","0.0-10.0-3.16","gu08dsnmnj","many_one","0","direct_first","1","tz06en28","0","22","1","0","3","1","","0","0","0","929","","","<img src = 'targets/mask.png' width = '100%;'>","68","pos","CS","CS","1","category1/CS10.png","","targets/14.png","indirect","0","16"
"","html-keyboard-response","207","584936","0.0-10.0-0.17","gu08dsnmnj","many_one","0","direct_first","1","tz06en28","0","22","1","0","3","1","","0","0","0","null","","","<div style=""font-size:60px;"">+</div>","null","","","","","","","","","",""
"","html-keyboard-response","208","585035","0.0-10.0-1.17","gu08dsnmnj","many_one","0","direct_first","1","tz06en28","0","22","1","0","3","1","","0","0","0","null","","","<img src = 'category3/CS4.png' width = '100%;'>","null","","","","","","","","","",""
"","html-keyboard-response","209","585315","0.0-10.0-2.17","gu08dsnmnj","many_one","0","direct_first","1","tz06en28","0","22","1","0","3","1","","0","0","0","null","","","<img src = 'targets/13.png' width = '100%;'>","null","","","","","","","","","",""
"","html-keyboard-response","210","585809","0.0-10.0-3.17","gu08dsnmnj","many_one","0","direct_first","1","tz06en28","0","22","1","0","3","1","","0","0","0","493","","","<img src = 'targets/mask.png' width = '100%;'>","68","neg","CS","CS","3","category3/CS4.png","","targets/13.png","indirect","0","17"
"","html-keyboard-response","211","587326","0.0-10.0-0.18","gu08dsnmnj","many_one","0","direct_first","1","tz06en28","0","22","1","0","3","1","","0","0","0","null","","","<div style=""font-size:60px;"">+</div>","null","","","","","","","","","",""
"","html-keyboard-response","212","587426","0.0-10.0-1.18","gu08dsnmnj","many_one","0","direct_first","1","tz06en28","0","22","1","0","3","1","","0","0","0","null","","","<img src = 'category3/CS7.png' width = '100%;'>","null","","","","","","","","","",""
"","html-keyboard-response","213","587705","0.0-10.0-2.18","gu08dsnmnj","many_one","0","direct_first","1","tz06en28","0","22","1","0","3","1","","0","0","0","null","","","<img src = 'targets/16.png' width = '100%;'>","null","","","","","","","","","",""
"","html-keyboard-response","214","588369","0.0-10.0-3.18","gu08dsnmnj","many_one","0","direct_first","1","tz06en28","0","22","1","0","3","1","","0","0","0","663","","","<img src = 'targets/mask.png' width = '100%;'>","75","neg","CS","CS","3","category3/CS7.png","","targets/16.png","indirect","1","18"
"","html-keyboard-response","215","589896","0.0-10.0-0.19","gu08dsnmnj","many_one","0","direct_first","1","tz06en28","0","22","1","0","3","1","","0","0","0","null","","","<div style=""font-size:60px;"">+</div>","null","","","","","","","","","",""
"","html-keyboard-response","216","589996","0.0-10.0-1.19","gu08dsnmnj","many_one","0","direct_first","1","tz06en28","0","22","1","0","3","1","","0","0","0","null","","","<img src = 'category1/CS8.png' width = '100%;'>","null","","","","","","","","","",""
"","html-keyboard-response","217","590276","0.0-10.0-2.19","gu08dsnmnj","many_one","0","direct_first","1","tz06en28","0","22","1","0","3","1","","0","0","0","null","","","<img src = 'targets/33.png' width = '100%;'>","null","","","","","","","","","",""
"","html-keyboard-response","218","590770","0.0-10.0-3.19","gu08dsnmnj","many_one","0","direct_first","1","tz06en28","0","22","1","0","3","1","","0","0","0","492","","","<img src = 'targets/mask.png' width = '100%;'>","68","pos","CS","CS","1","category1/CS8.png","","targets/33.png","indirect","0","19"
"","html-keyboard-response","219","592295","0.0-10.0-0.20","gu08dsnmnj","many_one","0","direct_first","1","tz06en28","0","22","1","0","3","1","","0","0","0","null","","","<div style=""font-size:60px;"">+</div>","null","","","","","","","","","",""
"","html-keyboard-response","220","592396","0.0-10.0-1.20","gu08dsnmnj","many_one","0","direct_first","1","tz06en28","0","22","1","0","3","1","","0","0","0","null","","","<img src = 'category4/CS5.png' width = '100%;'>","null","","","","","","","","","",""
"","html-keyboard-response","221","592665","0.0-10.0-2.20","gu08dsnmnj","many_one","0","direct_first","1","tz06en28","0","22","1","0","3","1","","0","0","0","null","","","<img src = 'targets/3.png' width = '100%;'>","null","","","","","","","","","",""
"","html-keyboard-response","222","593321","0.0-10.0-3.20","gu08dsnmnj","many_one","0","direct_first","1","tz06en28","0","22","1","0","3","1","","0","0","0","655","","","<img src = 'targets/mask.png' width = '100%;'>","68","pos","CS","CS","4","category4/CS5.png","","targets/3.png","indirect","0","20"
"","html-keyboard-response","223","594846","0.0-10.0-0.21","gu08dsnmnj","many_one","0","direct_first","1","tz06en28","0","22","1","0","3","1","","0","0","0","null","","","<div style=""font-size:60px;"">+</div>","null","","","","","","","","","",""
"","html-keyboard-response","224","594946","0.0-10.0-1.21","gu08dsnmnj","many_one","0","direct_first","1","tz06en28","0","22","1","0","3","1","","0","0","0","null","","","<img src = 'category1/CS3.png' width = '100%;'>","null","","","","","","","","","",""
"","html-keyboard-response","225","595226","0.0-10.0-2.21","gu08dsnmnj","many_one","0","direct_first","1","tz06en28","0","22","1","0","3","1","","0","0","0","null","","","<img src = 'targets/48.png' width = '100%;'>","null","","","","","","","","","",""
"","html-keyboard-response","226","595961","0.0-10.0-3.21","gu08dsnmnj","many_one","0","direct_first","1","tz06en28","0","22","1","0","3","1","","0","0","0","735","","","<img src = 'targets/mask.png' width = '100%;'>","75","pos","CS","CS","1","category1/CS3.png","","targets/48.png","indirect","1","21"
"","html-keyboard-response","227","597484","0.0-10.0-0.22","gu08dsnmnj","many_one","0","direct_first","1","tz06en28","0","22","1","0","3","1","","0","0","0","null","","","<div style=""font-size:60px;"">+</div>","null","","","","","","","","","",""
"","html-keyboard-response","228","597585","0.0-10.0-1.22","gu08dsnmnj","many_one","0","direct_first","1","tz06en28","0","22","1","0","3","1","","0","0","0","null","","","<img src = 'category3/CS10.png' width = '100%;'>","null","","","","","","","","","",""
"","html-keyboard-response","229","597865","0.0-10.0-2.22","gu08dsnmnj","many_one","0","direct_first","1","tz06en28","0","22","1","0","3","1","","0","0","0","null","","","<img src = 'targets/5.png' width = '100%;'>","null","","","","","","","","","",""
"","html-keyboard-response","230","598681","0.0-10.0-3.22","gu08dsnmnj","many_one","0","direct_first","1","tz06en28","0","22","1","0","3","1","","0","0","0","815","","","<img src = 'targets/mask.png' width = '100%;'>","75","neg","GS","GSold","3","category3/CS10.png","","targets/5.png","indirect","1","22"
"","html-keyboard-response","231","600205","0.0-10.0-0.23","gu08dsnmnj","many_one","0","direct_first","1","tz06en28","0","22","1","0","3","1","","0","0","0","null","","","<div style=""font-size:60px;"">+</div>","null","","","","","","","","","",""
"","html-keyboard-response","232","600306","0.0-10.0-1.23","gu08dsnmnj","many_one","0","direct_first","1","tz06en28","0","22","1","0","3","1","","0","0","0","null","","","<img src = 'category1/CS7.png' width = '100%;'>","null","","","","","","","","","",""
"","html-keyboard-response","233","600576","0.0-10.0-2.23","gu08dsnmnj","many_one","0","direct_first","1","tz06en28","0","22","1","0","3","1","","0","0","0","null","","","<img src = 'targets/43.png' width = '100%;'>","null","","","","","","","","","",""
"","html-keyboard-response","234","601073","0.0-10.0-3.23","gu08dsnmnj","many_one","0","direct_first","1","tz06en28","0","22","1","0","3","1","","0","0","0","497","","","<img src = 'targets/mask.png' width = '100%;'>","68","pos","CS","CS","1","category1/CS7.png","","targets/43.png","indirect","0","23"
"","survey-html-form","235","610009","0.0-11.0","gu08dsnmnj","many_one","0","direct_first","1","tz06en28","0","22","1","0","3","1","","0","0","0","8423","","{}","","","","","","","","","","","",""
"","html-keyboard-response","236","613044","0.0-12.0-0.0","gu08dsnmnj","many_one","0","direct_first","1","tz06en28","0","22","1","0","3","1","","0","0","0","null","","","<div style=""font-size:60px;"">+</div>","null","","","","","","","","","",""
"","html-keyboard-response","237","613144","0.0-12.0-1.0","gu08dsnmnj","many_one","0","direct_first","1","tz06en28","0","22","1","0","3","1","","0","0","0","null","","","<img src = 'category3/wang.png' width = '100%;'>","null","","","","","","","","","",""
"","html-keyboard-response","238","613426","0.0-12.0-2.0","gu08dsnmnj","many_one","0","direct_first","1","tz06en28","0","22","1","0","3","1","","0","0","0","null","","","<img src = 'targets/24.png' width = '100%;'>","null","","","","","","","","","",""
"","html-keyboard-response","239","614905","0.0-12.0-3.0","gu08dsnmnj","many_one","0","direct_first","1","tz06en28","0","22","1","0","3","1","","0","0","0","1479","","","<img src = 'targets/mask.png' width = '100%;'>","75","neg","GS","abstract","3","category3/wang.png","","targets/24.png","indirect","1","24"
"","html-keyboard-response","240","616415","0.0-12.0-0.1","gu08dsnmnj","many_one","0","direct_first","1","tz06en28","0","22","1","0","3","1","","0","0","0","null","","","<div style=""font-size:60px;"">+</div>","null","","","","","","","","","",""
"","html-keyboard-response","241","616516","0.0-12.0-1.1","gu08dsnmnj","many_one","0","direct_first","1","tz06en28","0","22","1","0","3","1","","0","0","0","null","","","<img src = 'category4/GS1.png' width = '100%;'>","null","","","","","","","","","",""
"","html-keyboard-response","242","616796","0.0-12.0-2.1","gu08dsnmnj","many_one","0","direct_first","1","tz06en28","0","22","1","0","3","1","","0","0","0","null","","","<img src = 'targets/19.png' width = '100%;'>","null","","","","","","","","","",""
"","html-keyboard-response","243","617208","0.0-12.0-3.1","gu08dsnmnj","many_one","0","direct_first","1","tz06en28","0","22","1","0","3","1","","0","0","0","412","","","<img src = 'targets/mask.png' width = '100%;'>","68","pos","GS","GSnew","4","category4/GS1.png","","targets/19.png","indirect","0","25"
"","html-keyboard-response","244","618735","0.0-12.0-0.2","gu08dsnmnj","many_one","0","direct_first","1","tz06en28","0","22","1","0","3","1","","0","0","0","null","","","<div style=""font-size:60px;"">+</div>","null","","","","","","","","","",""
"","html-keyboard-response","245","618836","0.0-12.0-1.2","gu08dsnmnj","many_one","0","direct_first","1","tz06en28","0","22","1","0","3","1","","0","0","0","null","","","<img src = 'category4/GS3.png' width = '100%;'>","null","","","","","","","","","",""
"","html-keyboard-response","246","619115","0.0-12.0-2.2","gu08dsnmnj","many_one","0","direct_first","1","tz06en28","0","22","1","0","3","1","","0","0","0","null","","","<img src = 'targets/32.png' width = '100%;'>","null","","","","","","","","","",""
"","html-keyboard-response","247","619457","0.0-12.0-3.2","gu08dsnmnj","many_one","0","direct_first","1","tz06en28","0","22","1","0","3","1","","0","0","0","339","","","<img src = 'targets/mask.png' width = '100%;'>","75","pos","GS","GSnew","4","category4/GS3.png","","targets/32.png","indirect","1","26"
"","html-keyboard-response","248","620976","0.0-12.0-0.3","gu08dsnmnj","many_one","0","direct_first","1","tz06en28","0","22","1","0","3","1","","0","0","0","null","","","<div style=""font-size:60px;"">+</div>","null","","","","","","","","","",""
"","html-keyboard-response","249","621076","0.0-12.0-1.3","gu08dsnmnj","many_one","0","direct_first","1","tz06en28","0","22","1","0","3","1","","0","0","0","null","","","<img src = 'category3/GS3.png' width = '100%;'>","null","","","","","","","","","",""
"","html-keyboard-response","250","621356","0.0-12.0-2.3","gu08dsnmnj","many_one","0","direct_first","1","tz06en28","0","22","1","0","3","1","","0","0","0","null","","","<img src = 'targets/47.png' width = '100%;'>","null","","","","","","","","","",""
"","html-keyboard-response","251","622105","0.0-12.0-3.3","gu08dsnmnj","many_one","0","direct_first","1","tz06en28","0","22","1","0","3","1","","0","0","0","749","","","<img src = 'targets/mask.png' width = '100%;'>","75","neg","GS","GSnew","3","category3/GS3.png","","targets/47.png","indirect","1","27"
"","html-keyboard-response","252","623615","0.0-12.0-0.4","gu08dsnmnj","many_one","0","direct_first","1","tz06en28","0","22","1","0","3","1","","0","0","0","null","","","<div style=""font-size:60px;"">+</div>","null","","","","","","","","","",""
"","html-keyboard-response","253","623715","0.0-12.0-1.4","gu08dsnmnj","many_one","0","direct_first","1","tz06en28","0","22","1","0","3","1","","0","0","0","null","","","<img src = 'category2/GS3.png' width = '100%;'>","null","","","","","","","","","",""
"","html-keyboard-response","254","623995","0.0-12.0-2.4","gu08dsnmnj","many_one","0","direct_first","1","tz06en28","0","22","1","0","3","1","","0","0","0","null","","","<img src = 'targets/15.png' width = '100%;'>","null","","","","","","","","","",""
"","html-keyboard-response","255","624417","0.0-12.0-3.4","gu08dsnmnj","many_one","0","direct_first","1","tz06en28","0","22","1","0","3","1","","0","0","0","421","","","<img src = 'targets/mask.png' width = '100%;'>","68","neg","GS","GSnew","2","category2/GS3.png","","targets/15.png","indirect","0","28"
"","html-keyboard-response","256","625935","0.0-12.0-0.5","gu08dsnmnj","many_one","0","direct_first","1","tz06en28","0","22","1","0","3","1","","0","0","0","null","","","<div style=""font-size:60px;"">+</div>","null","","","","","","","","","",""
"","html-keyboard-response","257","626036","0.0-12.0-1.5","gu08dsnmnj","many_one","0","direct_first","1","tz06en28","0","22","1","0","3","1","","0","0","0","null","","","<img src = 'category4/CS9.png' width = '100%;'>","null","","","","","","","","","",""
"","html-keyboard-response","258","626315","0.0-12.0-2.5","gu08dsnmnj","many_one","0","direct_first","1","tz06en28","0","22","1","0","3","1","","0","0","0","null","","","<img src = 'targets/1.png' width = '100%;'>","null","","","","","","","","","",""
"","html-keyboard-response","259","627105","0.0-12.0-3.5","gu08dsnmnj","many_one","0","direct_first","1","tz06en28","0","22","1","0","3","1","","0","0","0","790","","","<img src = 'targets/mask.png' width = '100%;'>","75","pos","GS","GSold","4","category4/CS9.png","","targets/1.png","indirect","1","29"
"","html-keyboard-response","260","628616","0.0-12.0-0.6","gu08dsnmnj","many_one","0","direct_first","1","tz06en28","0","22","1","0","3","1","","0","0","0","null","","","<div style=""font-size:60px;"">+</div>","null","","","","","","","","","",""
"","html-keyboard-response","261","628715","0.0-12.0-1.6","gu08dsnmnj","many_one","0","direct_first","1","tz06en28","0","22","1","0","3","1","","0","0","0","null","","","<img src = 'category1/CS1.png' width = '100%;'>","null","","","","","","","","","",""
"","html-keyboard-response","262","628995","0.0-12.0-2.6","gu08dsnmnj","many_one","0","direct_first","1","tz06en28","0","22","1","0","3","1","","0","0","0","null","","","<img src = 'targets/30.png' width = '100%;'>","null","","","","","","","","","",""
"","html-keyboard-response","263","629385","0.0-12.0-3.6","gu08dsnmnj","many_one","0","direct_first","1","tz06en28","0","22","1","0","3","1","","0","0","0","389","","","<img src = 'targets/mask.png' width = '100%;'>","68","pos","GS","GSold","1","category1/CS1.png","","targets/30.png","indirect","0","30"
"","html-keyboard-response","264","630896","0.0-12.0-0.7","gu08dsnmnj","many_one","0","direct_first","1","tz06en28","0","22","1","0","3","1","","0","0","0","null","","","<div style=""font-size:60px;"">+</div>","null","","","","","","","","","",""
"","html-keyboard-response","265","630995","0.0-12.0-1.7","gu08dsnmnj","many_one","0","direct_first","1","tz06en28","0","22","1","0","3","1","","0","0","0","null","","","<img src = 'category2/CS9.png' width = '100%;'>","null","","","","","","","","","",""
"","html-keyboard-response","266","631275","0.0-12.0-2.7","gu08dsnmnj","many_one","0","direct_first","1","tz06en28","0","22","1","0","3","1","","0","0","0","null","","","<img src = 'targets/29.png' width = '100%;'>","null","","","","","","","","","",""
"","html-keyboard-response","267","631617","0.0-12.0-3.7","gu08dsnmnj","many_one","0","direct_first","1","tz06en28","0","22","1","0","3","1","","0","0","0","340","","","<img src = 'targets/mask.png' width = '100%;'>","68","neg","GS","GSold","2","category2/CS9.png","","targets/29.png","indirect","0","31"
"","html-keyboard-response","268","633135","0.0-12.0-0.8","gu08dsnmnj","many_one","0","direct_first","1","tz06en28","0","22","1","0","3","1","","0","0","0","null","","","<div style=""font-size:60px;"">+</div>","null","","","","","","","","","",""
"","html-keyboard-response","269","633235","0.0-12.0-1.8","gu08dsnmnj","many_one","0","direct_first","1","tz06en28","0","22","1","0","3","1","","0","0","0","null","","","<img src = 'category1/GS3.png' width = '100%;'>","null","","","","","","","","","",""
"","html-keyboard-response","270","633505","0.0-12.0-2.8","gu08dsnmnj","many_one","0","direct_first","1","tz06en28","0","22","1","0","3","1","","0","0","0","null","","","<img src = 'targets/22.png' width = '100%;'>","null","","","","","","","","","",""
"","html-keyboard-response","271","633985","0.0-12.0-3.8","gu08dsnmnj","many_one","0","direct_first","1","tz06en28","0","22","1","0","3","1","","0","0","0","479","","","<img src = 'targets/mask.png' width = '100%;'>","75","pos","GS","GSnew","1","category1/GS3.png","","targets/22.png","indirect","1","32"
"","html-keyboard-response","272","635496","0.0-12.0-0.9","gu08dsnmnj","many_one","0","direct_first","1","tz06en28","0","22","1","0","3","1","","0","0","0","null","","","<div style=""font-size:60px;"">+</div>","null","","","","","","","","","",""
"","html-keyboard-response","273","635595","0.0-12.0-1.9","gu08dsnmnj","many_one","0","direct_first","1","tz06en28","0","22","1","0","3","1","","0","0","0","null","","","<img src = 'category4/CS7.png' width = '100%;'>","null","","","","","","","","","",""
"","html-keyboard-response","274","635865","0.0-12.0-2.9","gu08dsnmnj","many_one","0","direct_first","1","tz06en28","0","22","1","0","3","1","","0","0","0","null","","","<img src = 'targets/31.png' width = '100%;'>","null","","","","","","","","","",""
"","html-keyboard-response","275","636288","0.0-12.0-3.9","gu08dsnmnj","many_one","0","direct_first","1","tz06en28","0","22","1","0","3","1","","0","0","0","422","","","<img src = 'targets/mask.png' width = '100%;'>","68","pos","GS","GSold","4","category4/CS7.png","","targets/31.png","indirect","0","33"
"","html-keyboard-response","276","637825","0.0-12.0-0.10","gu08dsnmnj","many_one","0","direct_first","1","tz06en28","0","22","1","0","3","1","","0","0","0","null","","","<div style=""font-size:60px;"">+</div>","null","","","","","","","","","",""
"","html-keyboard-response","277","637925","0.0-12.0-1.10","gu08dsnmnj","many_one","0","direct_first","1","tz06en28","0","22","1","0","3","1","","0","0","0","null","","","<img src = 'category2/GS1.png' width = '100%;'>","null","","","","","","","","","",""
"","html-keyboard-response","278","638205","0.0-12.0-2.10","gu08dsnmnj","many_one","0","direct_first","1","tz06en28","0","22","1","0","3","1","","0","0","0","null","","","<img src = 'targets/8.png' width = '100%;'>","null","","","","","","","","","",""
"","html-keyboard-response","279","638704","0.0-12.0-3.10","gu08dsnmnj","many_one","0","direct_first","1","tz06en28","0","22","1","0","3","1","","0","0","0","499","","","<img src = 'targets/mask.png' width = '100%;'>","68","neg","GS","GSnew","2","category2/GS1.png","","targets/8.png","indirect","0","34"
"","html-keyboard-response","280","640225","0.0-12.0-0.11","gu08dsnmnj","many_one","0","direct_first","1","tz06en28","0","22","1","0","3","1","","0","0","0","null","","","<div style=""font-size:60px;"">+</div>","null","","","","","","","","","",""
"","html-keyboard-response","281","640325","0.0-12.0-1.11","gu08dsnmnj","many_one","0","direct_first","1","tz06en28","0","22","1","0","3","1","","0","0","0","null","","","<img src = 'category4/lin.png' width = '100%;'>","null","","","","","","","","","",""
"","html-keyboard-response","282","640606","0.0-12.0-2.11","gu08dsnmnj","many_one","0","direct_first","1","tz06en28","0","22","1","0","3","1","","0","0","0","null","","","<img src = 'targets/20.png' width = '100%;'>","null","","","","","","","","","",""
"","html-keyboard-response","283","641192","0.0-12.0-3.11","gu08dsnmnj","many_one","0","direct_first","1","tz06en28","0","22","1","0","3","1","","0","0","0","587","","","<img src = 'targets/mask.png' width = '100%;'>","75","pos","GS","abstract","4","category4/lin.png","","targets/20.png","indirect","1","35"
"","html-keyboard-response","284","642706","0.0-12.0-0.12","gu08dsnmnj","many_one","0","direct_first","1","tz06en28","0","22","1","0","3","1","","0","0","0","null","","","<div style=""font-size:60px;"">+</div>","null","","","","","","","","","",""
"","html-keyboard-response","285","642806","0.0-12.0-1.12","gu08dsnmnj","many_one","0","direct_first","1","tz06en28","0","22","1","0","3","1","","0","0","0","null","","","<img src = 'category1/CS9.png' width = '100%;'>","null","","","","","","","","","",""
"","html-keyboard-response","286","643085","0.0-12.0-2.12","gu08dsnmnj","many_one","0","direct_first","1","tz06en28","0","22","1","0","3","1","","0","0","0","null","","","<img src = 'targets/28.png' width = '100%;'>","null","","","","","","","","","",""
"","html-keyboard-response","287","643880","0.0-12.0-3.12","gu08dsnmnj","many_one","0","direct_first","1","tz06en28","0","22","1","0","3","1","","0","0","0","795","","","<img src = 'targets/mask.png' width = '100%;'>","75","pos","GS","GSold","1","category1/CS9.png","","targets/28.png","indirect","1","36"
"","html-keyboard-response","288","645415","0.0-12.0-0.13","gu08dsnmnj","many_one","0","direct_first","1","tz06en28","0","22","1","0","3","1","","0","0","0","null","","","<div style=""font-size:60px;"">+</div>","null","","","","","","","","","",""
"","html-keyboard-response","289","645515","0.0-12.0-1.13","gu08dsnmnj","many_one","0","direct_first","1","tz06en28","0","22","1","0","3","1","","0","0","0","null","","","<img src = 'category1/GS1.png' width = '100%;'>","null","","","","","","","","","",""
"","html-keyboard-response","290","645795","0.0-12.0-2.13","gu08dsnmnj","many_one","0","direct_first","1","tz06en28","0","22","1","0","3","1","","0","0","0","null","","","<img src = 'targets/44.png' width = '100%;'>","null","","","","","","","","","",""
"","html-keyboard-response","291","646448","0.0-12.0-3.13","gu08dsnmnj","many_one","0","direct_first","1","tz06en28","0","22","1","0","3","1","","0","0","0","653","","","<img src = 'targets/mask.png' width = '100%;'>","68","pos","GS","GSnew","1","category1/GS1.png","","targets/44.png","indirect","0","37"
"","html-keyboard-response","292","647975","0.0-12.0-0.14","gu08dsnmnj","many_one","0","direct_first","1","tz06en28","0","22","1","0","3","1","","0","0","0","null","","","<div style=""font-size:60px;"">+</div>","null","","","","","","","","","",""
"","html-keyboard-response","293","648071","0.0-12.0-1.14","gu08dsnmnj","many_one","0","direct_first","1","tz06en28","0","22","1","0","3","1","","0","0","0","null","","","<img src = 'category2/GS2.png' width = '100%;'>","null","","","","","","","","","",""
"","html-keyboard-response","294","648345","0.0-12.0-2.14","gu08dsnmnj","many_one","0","direct_first","1","tz06en28","0","22","1","0","3","1","","0","0","0","null","","","<img src = 'targets/7.png' width = '100%;'>","null","","","","","","","","","",""
"","html-keyboard-response","295","648968","0.0-12.0-3.14","gu08dsnmnj","many_one","0","direct_first","1","tz06en28","0","22","1","0","3","1","","0","0","0","623","","","<img src = 'targets/mask.png' width = '100%;'>","68","neg","GS","GSnew","2","category2/GS2.png","","targets/7.png","indirect","0","38"
"","html-keyboard-response","296","650505","0.0-12.0-0.15","gu08dsnmnj","many_one","0","direct_first","1","tz06en28","0","22","1","0","3","1","","0","0","0","null","","","<div style=""font-size:60px;"">+</div>","null","","","","","","","","","",""
"","html-keyboard-response","297","650605","0.0-12.0-1.15","gu08dsnmnj","many_one","0","direct_first","1","tz06en28","0","22","1","0","3","1","","0","0","0","null","","","<img src = 'category3/GS2.png' width = '100%;'>","null","","","","","","","","","",""
"","html-keyboard-response","298","650884","0.0-12.0-2.15","gu08dsnmnj","many_one","0","direct_first","1","tz06en28","0","22","1","0","3","1","","0","0","0","null","","","<img src = 'targets/41.png' width = '100%;'>","null","","","","","","","","","",""
"","html-keyboard-response","299","651617","0.0-12.0-3.15","gu08dsnmnj","many_one","0","direct_first","1","tz06en28","0","22","1","0","3","1","","0","0","0","731","","","<img src = 'targets/mask.png' width = '100%;'>","68","neg","GS","GSnew","3","category3/GS2.png","","targets/41.png","indirect","0","39"
"","html-keyboard-response","300","653126","0.0-12.0-0.16","gu08dsnmnj","many_one","0","direct_first","1","tz06en28","0","22","1","0","3","1","","0","0","0","null","","","<div style=""font-size:60px;"">+</div>","null","","","","","","","","","",""
"","html-keyboard-response","301","653225","0.0-12.0-1.16","gu08dsnmnj","many_one","0","direct_first","1","tz06en28","0","22","1","0","3","1","","0","0","0","null","","","<img src = 'category1/CS4.png' width = '100%;'>","null","","","","","","","","","",""
"","html-keyboard-response","302","653506","0.0-12.0-2.16","gu08dsnmnj","many_one","0","direct_first","1","tz06en28","0","22","1","0","3","1","","0","0","0","null","","","<img src = 'targets/35.png' width = '100%;'>","null","","","","","","","","","",""
"","html-keyboard-response","303","653882","0.0-12.0-3.16","gu08dsnmnj","many_one","0","direct_first","1","tz06en28","0","22","1","0","3","1","","0","0","0","375","","","<img src = 'targets/mask.png' width = '100%;'>","75","pos","GS","GSold","1","category1/CS4.png","","targets/35.png","indirect","1","40"
"","html-keyboard-response","304","655404","0.0-12.0-0.17","gu08dsnmnj","many_one","0","direct_first","1","tz06en28","0","22","1","0","3","1","","0","0","0","null","","","<div style=""font-size:60px;"">+</div>","null","","","","","","","","","",""
"","html-keyboard-response","305","655504","0.0-12.0-1.17","gu08dsnmnj","many_one","0","direct_first","1","tz06en28","0","22","1","0","3","1","","0","0","0","null","","","<img src = 'category2/CS4.png' width = '100%;'>","null","","","","","","","","","",""
"","html-keyboard-response","306","655785","0.0-12.0-2.17","gu08dsnmnj","many_one","0","direct_first","1","tz06en28","0","22","1","0","3","1","","0","0","0","null","","","<img src = 'targets/42.png' width = '100%;'>","null","","","","","","","","","",""
"","html-keyboard-response","307","656193","0.0-12.0-3.17","gu08dsnmnj","many_one","0","direct_first","1","tz06en28","0","22","1","0","3","1","","0","0","0","407","","","<img src = 'targets/mask.png' width = '100%;'>","75","neg","GS","GSold","2","category2/CS4.png","","targets/42.png","indirect","1","41"
"","html-keyboard-response","308","657705","0.0-12.0-0.18","gu08dsnmnj","many_one","0","direct_first","1","tz06en28","0","22","1","0","3","1","","0","0","0","null","","","<div style=""font-size:60px;"">+</div>","null","","","","","","","","","",""
"","html-keyboard-response","309","657805","0.0-12.0-1.18","gu08dsnmnj","many_one","0","direct_first","1","tz06en28","0","22","1","0","3","1","","0","0","0","null","","","<img src = 'category2/men.png' width = '100%;'>","null","","","","","","","","","",""
"","html-keyboard-response","310","658085","0.0-12.0-2.18","gu08dsnmnj","many_one","0","direct_first","1","tz06en28","0","22","1","0","3","1","","0","0","0","null","","","<img src = 'targets/46.png' width = '100%;'>","null","","","","","","","","","",""
"","html-keyboard-response","311","658497","0.0-12.0-3.18","gu08dsnmnj","many_one","0","direct_first","1","tz06en28","0","22","1","0","3","1","","0","0","0","410","","","<img src = 'targets/mask.png' width = '100%;'>","68","neg","GS","abstract","2","category2/men.png","","targets/46.png","indirect","0","42"
"","html-keyboard-response","312","660005","0.0-12.0-0.19","gu08dsnmnj","many_one","0","direct_first","1","tz06en28","0","22","1","0","3","1","","0","0","0","null","","","<div style=""font-size:60px;"">+</div>","null","","","","","","","","","",""
"","html-keyboard-response","313","660105","0.0-12.0-1.19","gu08dsnmnj","many_one","0","direct_first","1","tz06en28","0","22","1","0","3","1","","0","0","0","null","","","<img src = 'category3/GS1.png' width = '100%;'>","null","","","","","","","","","",""
"","html-keyboard-response","314","660385","0.0-12.0-2.19","gu08dsnmnj","many_one","0","direct_first","1","tz06en28","0","22","1","0","3","1","","0","0","0","null","","","<img src = 'targets/12.png' width = '100%;'>","null","","","","","","","","","",""
"","html-keyboard-response","315","660745","0.0-12.0-3.19","gu08dsnmnj","many_one","0","direct_first","1","tz06en28","0","22","1","0","3","1","","0","0","0","359","","","<img src = 'targets/mask.png' width = '100%;'>","75","neg","GS","GSnew","3","category3/GS1.png","","targets/12.png","indirect","1","43"
"","html-keyboard-response","316","662265","0.0-12.0-0.20","gu08dsnmnj","many_one","0","direct_first","1","tz06en28","0","22","1","0","3","1","","0","0","0","null","","","<div style=""font-size:60px;"">+</div>","null","","","","","","","","","",""
"","html-keyboard-response","317","662365","0.0-12.0-1.20","gu08dsnmnj","many_one","0","direct_first","1","tz06en28","0","22","1","0","3","1","","0","0","0","null","","","<img src = 'category1/GS2.png' width = '100%;'>","null","","","","","","","","","",""
"","html-keyboard-response","318","662645","0.0-12.0-2.20","gu08dsnmnj","many_one","0","direct_first","1","tz06en28","0","22","1","0","3","1","","0","0","0","null","","","<img src = 'targets/11.png' width = '100%;'>","null","","","","","","","","","",""
"","html-keyboard-response","319","662920","0.0-12.0-3.20","gu08dsnmnj","many_one","0","direct_first","1","tz06en28","0","22","1","0","3","1","","0","0","0","274","","","<img src = 'targets/mask.png' width = '100%;'>","68","pos","GS","GSnew","1","category1/GS2.png","","targets/11.png","indirect","0","44"
"","html-keyboard-response","320","664425","0.0-12.0-0.21","gu08dsnmnj","many_one","0","direct_first","1","tz06en28","0","22","1","0","3","1","","0","0","0","null","","","<div style=""font-size:60px;"">+</div>","null","","","","","","","","","",""
"","html-keyboard-response","321","664525","0.0-12.0-1.21","gu08dsnmnj","many_one","0","direct_first","1","tz06en28","0","22","1","0","3","1","","0","0","0","null","","","<img src = 'category2/CS8.png' width = '100%;'>","null","","","","","","","","","",""
"","html-keyboard-response","322","664805","0.0-12.0-2.21","gu08dsnmnj","many_one","0","direct_first","1","tz06en28","0","22","1","0","3","1","","0","0","0","null","","","<img src = 'targets/45.png' width = '100%;'>","null","","","","","","","","","",""
"","html-keyboard-response","323","665201","0.0-12.0-3.21","gu08dsnmnj","many_one","0","direct_first","1","tz06en28","0","22","1","0","3","1","","0","0","0","395","","","<img src = 'targets/mask.png' width = '100%;'>","75","neg","GS","GSold","2","category2/CS8.png","","targets/45.png","indirect","1","45"
"","html-keyboard-response","324","666724","0.0-12.0-0.22","gu08dsnmnj","many_one","0","direct_first","1","tz06en28","0","22","1","0","3","1","","0","0","0","null","","","<div style=""font-size:60px;"">+</div>","null","","","","","","","","","",""
"","html-keyboard-response","325","666824","0.0-12.0-1.22","gu08dsnmnj","many_one","0","direct_first","1","tz06en28","0","22","1","0","3","1","","0","0","0","null","","","<img src = 'category1/ma.png' width = '100%;'>","null","","","","","","","","","",""
"","html-keyboard-response","326","667105","0.0-12.0-2.22","gu08dsnmnj","many_one","0","direct_first","1","tz06en28","0","22","1","0","3","1","","0","0","0","null","","","<img src = 'targets/23.png' width = '100%;'>","null","","","","","","","","","",""
"","html-keyboard-response","327","667672","0.0-12.0-3.22","gu08dsnmnj","many_one","0","direct_first","1","tz06en28","0","22","1","0","3","1","","0","0","0","567","","","<img src = 'targets/mask.png' width = '100%;'>","68","pos","GS","abstract","1","category1/ma.png","","targets/23.png","indirect","0","46"
"","html-keyboard-response","328","669205","0.0-12.0-0.23","gu08dsnmnj","many_one","0","direct_first","1","tz06en28","0","22","1","0","3","1","","0","0","0","null","","","<div style=""font-size:60px;"">+</div>","null","","","","","","","","","",""
"","html-keyboard-response","329","669305","0.0-12.0-1.23","gu08dsnmnj","many_one","0","direct_first","1","tz06en28","0","22","1","0","3","1","","0","0","0","null","","","<img src = 'category4/GS2.png' width = '100%;'>","null","","","","","","","","","",""
"","html-keyboard-response","330","669585","0.0-12.0-2.23","gu08dsnmnj","many_one","0","direct_first","1","tz06en28","0","22","1","0","3","1","","0","0","0","null","","","<img src = 'targets/39.png' width = '100%;'>","null","","","","","","","","","",""
"","html-keyboard-response","331","669680","0.0-12.0-3.23","gu08dsnmnj","many_one","0","direct_first","1","tz06en28","0","22","1","0","3","1","","0","0","0","95","","","<img src = 'targets/mask.png' width = '100%;'>","75","pos","GS","GSnew","4","category4/GS2.png","","targets/39.png","indirect","1","47"
"","survey-html-form","332","675640","0.0-13.0","gu08dsnmnj","many_one","0","direct_first","1","tz06en28","0","22","1","0","3","1","","0","0","0","5454","","{}","","","","","","","","","","","",""
