"success","trial_type","trial_index","time_elapsed","internal_node_id","subject","condition","condition_code","measure","measure_code","codeword","gender","age","education","chinese","fach","handedness","comment","hinschauen","ablenkung","gewissenhaft","rt","url","responses","stimulus","key_press","val","type","type_specific","category","cs_selected","target","indirect","task","nr_pres","response"
"true","fullscreen","0","16477","0.0-0.0","4jkz6xklgk","many_one","0","indirect_first","0","dt07ob15","1","23","1","1","3","2","","0","1","0","","","","","","","","","","","","","","",""
"","external-html","1","39469","0.0-1.0","4jkz6xklgk","many_one","0","indirect_first","0","dt07ob15","1","23","1","1","3","2","","0","1","0","22913","text/information.html","","","","","","","","","","","","",""
"","external-html","2","49018","0.0-2.0","4jkz6xklgk","many_one","0","indirect_first","0","dt07ob15","1","23","1","1","3","2","","0","1","0","9464","text/consent.html","","","","","","","","","","","","",""
"","survey-html-form","3","114576","0.0-3.0","4jkz6xklgk","many_one","0","indirect_first","0","dt07ob15","1","23","1","1","3","2","","0","1","0","65552","","{""codeword_enter"":""dt07ob15""}","","","","","","","","","","","",""
"","survey-html-form","4","141887","0.0-4.0","4jkz6xklgk","many_one","0","indirect_first","0","dt07ob15","1","23","1","1","3","2","","0","1","0","27305","","{""age"":""23"",""education"":""1"",""subject"":""3"",""gender"":""1"",""handedness"":""2"",""chinese"":""1""}","","","","","","","","","","","",""
"","survey-html-form","5","153269","0.0-5.0","4jkz6xklgk","many_one","0","indirect_first","0","dt07ob15","1","23","1","1","3","2","","0","1","0","11378","","{}","","","","","","","","","","","",""
"","html-keyboard-response","6","157287","0.0-6.0-0.0-0.0","4jkz6xklgk","many_one","0","indirect_first","0","dt07ob15","1","23","1","1","3","2","","0","1","0","null","","","<div class = 'row'><div class = 'column'><img src = 'uspos/8490.bmp' width = '100%;'></div><div class = 'column'><img src = 'category3/CS9.png' width = '70%;'></div></div>","null","pos","CS","CS","3","category3/CS9.png","","","","",""
"","html-keyboard-response","7","159815","0.0-6.0-0.0-0.1","4jkz6xklgk","many_one","0","indirect_first","0","dt07ob15","1","23","1","1","3","2","","0","1","0","null","","","<div class = 'row'><div class = 'column'><img src = 'usneg/9560.bmp' width = '100%;'></div><div class = 'column'><img src = 'category4/CS3.png' width = '70%;'></div></div>","null","neg","CS","CS","4","category4/CS3.png","","","","",""
"","html-keyboard-response","8","162346","0.0-6.0-0.0-0.2","4jkz6xklgk","many_one","0","indirect_first","0","dt07ob15","1","23","1","1","3","2","","0","1","0","null","","","<div class = 'row'><div class = 'column'><img src = 'usneg/9220.bmp' width = '100%;'></div><div class = 'column'><img src = 'category4/CS1.png' width = '70%;'></div></div>","null","neg","CS","CS","4","category4/CS1.png","","","","",""
"","html-keyboard-response","9","164886","0.0-6.0-0.0-0.3","4jkz6xklgk","many_one","0","indirect_first","0","dt07ob15","1","23","1","1","3","2","","0","1","0","null","","","<div class = 'row'><div class = 'column'><img src = 'category4/CS10.png' width = '70%;'></div><div class = 'column'><img src = 'usneg/9635.2.bmp' width = '100%;'></div></div>","null","neg","CS","CS","4","category4/CS10.png","","","","",""
"","html-keyboard-response","10","167426","0.0-6.0-0.0-0.4","4jkz6xklgk","many_one","0","indirect_first","0","dt07ob15","1","23","1","1","3","2","","0","1","0","null","","","<div class = 'row'><div class = 'column'><img src = 'category1/CS2.png' width = '70%;'></div><div class = 'column'><img src = 'usneg/6212.bmp' width = '100%;'></div></div>","null","neg","CS","CS","1","category1/CS2.png","","","","",""
"","html-keyboard-response","11","169966","0.0-6.0-0.0-0.5","4jkz6xklgk","many_one","0","indirect_first","0","dt07ob15","1","23","1","1","3","2","","0","1","0","null","","","<div class = 'row'><div class = 'column'><img src = 'usneg/2900.bmp' width = '100%;'></div><div class = 'column'><img src = 'category1/CS8.png' width = '70%;'></div></div>","null","neg","CS","CS","1","category1/CS8.png","","","","",""
"","html-keyboard-response","12","172487","0.0-6.0-0.0-0.6","4jkz6xklgk","many_one","0","indirect_first","0","dt07ob15","1","23","1","1","3","2","","0","1","0","null","","","<div class = 'row'><div class = 'column'><img src = 'category3/CS8.png' width = '70%;'></div><div class = 'column'><img src = 'uspos/8461.bmp' width = '100%;'></div></div>","null","pos","CS","CS","3","category3/CS8.png","","","","",""
"","html-keyboard-response","13","175005","0.0-6.0-0.0-0.7","4jkz6xklgk","many_one","0","indirect_first","0","dt07ob15","1","23","1","1","3","2","","0","1","0","null","","","<div class = 'row'><div class = 'column'><img src = 'category1/CS4.png' width = '70%;'></div><div class = 'column'><img src = 'usneg/2750.bmp' width = '100%;'></div></div>","null","neg","CS","CS","1","category1/CS4.png","","","","",""
"","html-keyboard-response","14","177526","0.0-6.0-0.0-0.8","4jkz6xklgk","many_one","0","indirect_first","0","dt07ob15","1","23","1","1","3","2","","0","1","0","null","","","<div class = 'row'><div class = 'column'><img src = 'uspos/2900.2.bmp' width = '100%;'></div><div class = 'column'><img src = 'category2/CS5.png' width = '70%;'></div></div>","null","pos","CS","CS","2","category2/CS5.png","","","","",""
"","html-keyboard-response","15","180045","0.0-6.0-0.0-0.9","4jkz6xklgk","many_one","0","indirect_first","0","dt07ob15","1","23","1","1","3","2","","0","1","0","null","","","<div class = 'row'><div class = 'column'><img src = 'usneg/9041.bmp' width = '100%;'></div><div class = 'column'><img src = 'category1/CS3.png' width = '70%;'></div></div>","null","neg","CS","CS","1","category1/CS3.png","","","","",""
"","html-keyboard-response","16","182577","0.0-6.0-0.0-0.10","4jkz6xklgk","many_one","0","indirect_first","0","dt07ob15","1","23","1","1","3","2","","0","1","0","null","","","<div class = 'row'><div class = 'column'><img src = 'category1/CS1.png' width = '70%;'></div><div class = 'column'><img src = 'usneg/9584.bmp' width = '100%;'></div></div>","null","neg","CS","CS","1","category1/CS1.png","","","","",""
"","html-keyboard-response","17","185106","0.0-6.0-0.0-0.11","4jkz6xklgk","many_one","0","indirect_first","0","dt07ob15","1","23","1","1","3","2","","0","1","0","null","","","<div class = 'row'><div class = 'column'><img src = 'uspos/5600.bmp' width = '100%;'></div><div class = 'column'><img src = 'category2/CS8.png' width = '70%;'></div></div>","null","pos","CS","CS","2","category2/CS8.png","","","","",""
"","html-keyboard-response","18","187635","0.0-6.0-0.0-0.12","4jkz6xklgk","many_one","0","indirect_first","0","dt07ob15","1","23","1","1","3","2","","0","1","0","null","","","<div class = 'row'><div class = 'column'><img src = 'category3/CS6.png' width = '70%;'></div><div class = 'column'><img src = 'uspos/2030.bmp' width = '100%;'></div></div>","null","pos","CS","CS","3","category3/CS6.png","","","","",""
"","html-keyboard-response","19","190166","0.0-6.0-0.0-0.13","4jkz6xklgk","many_one","0","indirect_first","0","dt07ob15","1","23","1","1","3","2","","0","1","0","null","","","<div class = 'row'><div class = 'column'><img src = 'category2/CS6.png' width = '70%;'></div><div class = 'column'><img src = 'uspos/2311.bmp' width = '100%;'></div></div>","null","pos","CS","CS","2","category2/CS6.png","","","","",""
"","html-keyboard-response","20","192706","0.0-6.0-0.0-0.14","4jkz6xklgk","many_one","0","indirect_first","0","dt07ob15","1","23","1","1","3","2","","0","1","0","null","","","<div class = 'row'><div class = 'column'><img src = 'uspos/5700.bmp' width = '100%;'></div><div class = 'column'><img src = 'category2/CS2.png' width = '70%;'></div></div>","null","pos","CS","CS","2","category2/CS2.png","","","","",""
"","html-keyboard-response","21","195247","0.0-6.0-0.0-0.15","4jkz6xklgk","many_one","0","indirect_first","0","dt07ob15","1","23","1","1","3","2","","0","1","0","null","","","<div class = 'row'><div class = 'column'><img src = 'category2/CS3.png' width = '70%;'></div><div class = 'column'><img src = 'uspos/7325.bmp' width = '100%;'></div></div>","null","pos","CS","CS","2","category2/CS3.png","","","","",""
"","html-keyboard-response","22","197776","0.0-6.0-0.0-0.16","4jkz6xklgk","many_one","0","indirect_first","0","dt07ob15","1","23","1","1","3","2","","0","1","0","null","","","<div class = 'row'><div class = 'column'><img src = 'uspos/8540.bmp' width = '100%;'></div><div class = 'column'><img src = 'category3/CS2.png' width = '70%;'></div></div>","null","pos","CS","CS","3","category3/CS2.png","","","","",""
"","html-keyboard-response","23","200316","0.0-6.0-0.0-0.17","4jkz6xklgk","many_one","0","indirect_first","0","dt07ob15","1","23","1","1","3","2","","0","1","0","null","","","<div class = 'row'><div class = 'column'><img src = 'category4/CS8.png' width = '70%;'></div><div class = 'column'><img src = 'usneg/6020.bmp' width = '100%;'></div></div>","null","neg","CS","CS","4","category4/CS8.png","","","","",""
"","html-keyboard-response","24","202845","0.0-6.0-0.0-0.18","4jkz6xklgk","many_one","0","indirect_first","0","dt07ob15","1","23","1","1","3","2","","0","1","0","null","","","<div class = 'row'><div class = 'column'><img src = 'category4/CS9.png' width = '70%;'></div><div class = 'column'><img src = 'usneg/9000.bmp' width = '100%;'></div></div>","null","neg","CS","CS","4","category4/CS9.png","","","","",""
"","html-keyboard-response","25","205366","0.0-6.0-0.0-0.19","4jkz6xklgk","many_one","0","indirect_first","0","dt07ob15","1","23","1","1","3","2","","0","1","0","null","","","<div class = 'row'><div class = 'column'><img src = 'uspos/2150.bmp' width = '100%;'></div><div class = 'column'><img src = 'category3/CS3.png' width = '70%;'></div></div>","null","pos","CS","CS","3","category3/CS3.png","","","","",""
"","survey-html-form","26","211580","0.0-6.0-1.0","4jkz6xklgk","many_one","0","indirect_first","0","dt07ob15","1","23","1","1","3","2","","0","1","0","5705","","{}","","","","","","","","","","","",""
"","html-keyboard-response","27","215606","0.0-6.0-2.0-0.0","4jkz6xklgk","many_one","0","indirect_first","0","dt07ob15","1","23","1","1","3","2","","0","1","0","null","","","<div class = 'row'><div class = 'column'><img src = 'category2/CS3.png' width = '70%;'></div><div class = 'column'><img src = 'uspos/7325.bmp' width = '100%;'></div></div>","null","pos","CS","CS","2","category2/CS3.png","","","","",""
"","html-keyboard-response","28","218146","0.0-6.0-2.0-0.1","4jkz6xklgk","many_one","0","indirect_first","0","dt07ob15","1","23","1","1","3","2","","0","1","0","null","","","<div class = 'row'><div class = 'column'><img src = 'category3/CS8.png' width = '70%;'></div><div class = 'column'><img src = 'uspos/8461.bmp' width = '100%;'></div></div>","null","pos","CS","CS","3","category3/CS8.png","","","","",""
"","html-keyboard-response","29","220676","0.0-6.0-2.0-0.2","4jkz6xklgk","many_one","0","indirect_first","0","dt07ob15","1","23","1","1","3","2","","0","1","0","null","","","<div class = 'row'><div class = 'column'><img src = 'category2/CS2.png' width = '70%;'></div><div class = 'column'><img src = 'uspos/5700.bmp' width = '100%;'></div></div>","null","pos","CS","CS","2","category2/CS2.png","","","","",""
"","html-keyboard-response","30","223196","0.0-6.0-2.0-0.3","4jkz6xklgk","many_one","0","indirect_first","0","dt07ob15","1","23","1","1","3","2","","0","1","0","null","","","<div class = 'row'><div class = 'column'><img src = 'usneg/6020.bmp' width = '100%;'></div><div class = 'column'><img src = 'category4/CS8.png' width = '70%;'></div></div>","null","neg","CS","CS","4","category4/CS8.png","","","","",""
"","html-keyboard-response","31","225725","0.0-6.0-2.0-0.4","4jkz6xklgk","many_one","0","indirect_first","0","dt07ob15","1","23","1","1","3","2","","0","1","0","null","","","<div class = 'row'><div class = 'column'><img src = 'category4/CS9.png' width = '70%;'></div><div class = 'column'><img src = 'usneg/9000.bmp' width = '100%;'></div></div>","null","neg","CS","CS","4","category4/CS9.png","","","","",""
"","html-keyboard-response","32","228267","0.0-6.0-2.0-0.5","4jkz6xklgk","many_one","0","indirect_first","0","dt07ob15","1","23","1","1","3","2","","0","1","0","null","","","<div class = 'row'><div class = 'column'><img src = 'uspos/2311.bmp' width = '100%;'></div><div class = 'column'><img src = 'category2/CS6.png' width = '70%;'></div></div>","null","pos","CS","CS","2","category2/CS6.png","","","","",""
"","html-keyboard-response","33","230805","0.0-6.0-2.0-0.6","4jkz6xklgk","many_one","0","indirect_first","0","dt07ob15","1","23","1","1","3","2","","0","1","0","null","","","<div class = 'row'><div class = 'column'><img src = 'usneg/9041.bmp' width = '100%;'></div><div class = 'column'><img src = 'category1/CS3.png' width = '70%;'></div></div>","null","neg","CS","CS","1","category1/CS3.png","","","","",""
"","html-keyboard-response","34","233336","0.0-6.0-2.0-0.7","4jkz6xklgk","many_one","0","indirect_first","0","dt07ob15","1","23","1","1","3","2","","0","1","0","null","","","<div class = 'row'><div class = 'column'><img src = 'uspos/5600.bmp' width = '100%;'></div><div class = 'column'><img src = 'category2/CS8.png' width = '70%;'></div></div>","null","pos","CS","CS","2","category2/CS8.png","","","","",""
"","html-keyboard-response","35","235876","0.0-6.0-2.0-0.8","4jkz6xklgk","many_one","0","indirect_first","0","dt07ob15","1","23","1","1","3","2","","0","1","0","null","","","<div class = 'row'><div class = 'column'><img src = 'usneg/2900.bmp' width = '100%;'></div><div class = 'column'><img src = 'category1/CS8.png' width = '70%;'></div></div>","null","neg","CS","CS","1","category1/CS8.png","","","","",""
"","html-keyboard-response","36","238406","0.0-6.0-2.0-0.9","4jkz6xklgk","many_one","0","indirect_first","0","dt07ob15","1","23","1","1","3","2","","0","1","0","null","","","<div class = 'row'><div class = 'column'><img src = 'category1/CS1.png' width = '70%;'></div><div class = 'column'><img src = 'usneg/9584.bmp' width = '100%;'></div></div>","null","neg","CS","CS","1","category1/CS1.png","","","","",""
"","html-keyboard-response","37","240936","0.0-6.0-2.0-0.10","4jkz6xklgk","many_one","0","indirect_first","0","dt07ob15","1","23","1","1","3","2","","0","1","0","null","","","<div class = 'row'><div class = 'column'><img src = 'uspos/8490.bmp' width = '100%;'></div><div class = 'column'><img src = 'category3/CS9.png' width = '70%;'></div></div>","null","pos","CS","CS","3","category3/CS9.png","","","","",""
"","html-keyboard-response","38","243466","0.0-6.0-2.0-0.11","4jkz6xklgk","many_one","0","indirect_first","0","dt07ob15","1","23","1","1","3","2","","0","1","0","null","","","<div class = 'row'><div class = 'column'><img src = 'category4/CS1.png' width = '70%;'></div><div class = 'column'><img src = 'usneg/9220.bmp' width = '100%;'></div></div>","null","neg","CS","CS","4","category4/CS1.png","","","","",""
"","html-keyboard-response","39","246006","0.0-6.0-2.0-0.12","4jkz6xklgk","many_one","0","indirect_first","0","dt07ob15","1","23","1","1","3","2","","0","1","0","null","","","<div class = 'row'><div class = 'column'><img src = 'category4/CS3.png' width = '70%;'></div><div class = 'column'><img src = 'usneg/9560.bmp' width = '100%;'></div></div>","null","neg","CS","CS","4","category4/CS3.png","","","","",""
"","html-keyboard-response","40","248545","0.0-6.0-2.0-0.13","4jkz6xklgk","many_one","0","indirect_first","0","dt07ob15","1","23","1","1","3","2","","0","1","0","null","","","<div class = 'row'><div class = 'column'><img src = 'usneg/9635.2.bmp' width = '100%;'></div><div class = 'column'><img src = 'category4/CS10.png' width = '70%;'></div></div>","null","neg","CS","CS","4","category4/CS10.png","","","","",""
"","html-keyboard-response","41","251065","0.0-6.0-2.0-0.14","4jkz6xklgk","many_one","0","indirect_first","0","dt07ob15","1","23","1","1","3","2","","0","1","0","null","","","<div class = 'row'><div class = 'column'><img src = 'uspos/2900.2.bmp' width = '100%;'></div><div class = 'column'><img src = 'category2/CS5.png' width = '70%;'></div></div>","null","pos","CS","CS","2","category2/CS5.png","","","","",""
"","html-keyboard-response","42","253606","0.0-6.0-2.0-0.15","4jkz6xklgk","many_one","0","indirect_first","0","dt07ob15","1","23","1","1","3","2","","0","1","0","null","","","<div class = 'row'><div class = 'column'><img src = 'uspos/2150.bmp' width = '100%;'></div><div class = 'column'><img src = 'category3/CS3.png' width = '70%;'></div></div>","null","pos","CS","CS","3","category3/CS3.png","","","","",""
"","html-keyboard-response","43","256145","0.0-6.0-2.0-0.16","4jkz6xklgk","many_one","0","indirect_first","0","dt07ob15","1","23","1","1","3","2","","0","1","0","null","","","<div class = 'row'><div class = 'column'><img src = 'usneg/2750.bmp' width = '100%;'></div><div class = 'column'><img src = 'category1/CS4.png' width = '70%;'></div></div>","null","neg","CS","CS","1","category1/CS4.png","","","","",""
"","html-keyboard-response","44","258675","0.0-6.0-2.0-0.17","4jkz6xklgk","many_one","0","indirect_first","0","dt07ob15","1","23","1","1","3","2","","0","1","0","null","","","<div class = 'row'><div class = 'column'><img src = 'category3/CS2.png' width = '70%;'></div><div class = 'column'><img src = 'uspos/8540.bmp' width = '100%;'></div></div>","null","pos","CS","CS","3","category3/CS2.png","","","","",""
"","html-keyboard-response","45","261206","0.0-6.0-2.0-0.18","4jkz6xklgk","many_one","0","indirect_first","0","dt07ob15","1","23","1","1","3","2","","0","1","0","null","","","<div class = 'row'><div class = 'column'><img src = 'category1/CS2.png' width = '70%;'></div><div class = 'column'><img src = 'usneg/6212.bmp' width = '100%;'></div></div>","null","neg","CS","CS","1","category1/CS2.png","","","","",""
"","html-keyboard-response","46","263735","0.0-6.0-2.0-0.19","4jkz6xklgk","many_one","0","indirect_first","0","dt07ob15","1","23","1","1","3","2","","0","1","0","null","","","<div class = 'row'><div class = 'column'><img src = 'category3/CS6.png' width = '70%;'></div><div class = 'column'><img src = 'uspos/2030.bmp' width = '100%;'></div></div>","null","pos","CS","CS","3","category3/CS6.png","","","","",""
"","survey-html-form","47","268100","0.0-6.0-3.0","4jkz6xklgk","many_one","0","indirect_first","0","dt07ob15","1","23","1","1","3","2","","0","1","0","3857","","{}","","","","","","","","","","","",""
"","html-keyboard-response","48","272127","0.0-6.0-4.0-0.0","4jkz6xklgk","many_one","0","indirect_first","0","dt07ob15","1","23","1","1","3","2","","0","1","0","null","","","<div class = 'row'><div class = 'column'><img src = 'uspos/2311.bmp' width = '100%;'></div><div class = 'column'><img src = 'category2/CS6.png' width = '70%;'></div></div>","null","pos","CS","CS","2","category2/CS6.png","","","","",""
"","html-keyboard-response","49","274661","0.0-6.0-4.0-0.1","4jkz6xklgk","many_one","0","indirect_first","0","dt07ob15","1","23","1","1","3","2","","0","1","0","null","","","<div class = 'row'><div class = 'column'><img src = 'category3/CS6.png' width = '70%;'></div><div class = 'column'><img src = 'uspos/2030.bmp' width = '100%;'></div></div>","null","pos","CS","CS","3","category3/CS6.png","","","","",""
"","html-keyboard-response","50","277186","0.0-6.0-4.0-0.2","4jkz6xklgk","many_one","0","indirect_first","0","dt07ob15","1","23","1","1","3","2","","0","1","0","null","","","<div class = 'row'><div class = 'column'><img src = 'category1/CS2.png' width = '70%;'></div><div class = 'column'><img src = 'usneg/6212.bmp' width = '100%;'></div></div>","null","neg","CS","CS","1","category1/CS2.png","","","","",""
"","html-keyboard-response","51","279725","0.0-6.0-4.0-0.3","4jkz6xklgk","many_one","0","indirect_first","0","dt07ob15","1","23","1","1","3","2","","0","1","0","null","","","<div class = 'row'><div class = 'column'><img src = 'category2/CS5.png' width = '70%;'></div><div class = 'column'><img src = 'uspos/2900.2.bmp' width = '100%;'></div></div>","null","pos","CS","CS","2","category2/CS5.png","","","","",""
"","html-keyboard-response","52","282265","0.0-6.0-4.0-0.4","4jkz6xklgk","many_one","0","indirect_first","0","dt07ob15","1","23","1","1","3","2","","0","1","0","null","","","<div class = 'row'><div class = 'column'><img src = 'category1/CS8.png' width = '70%;'></div><div class = 'column'><img src = 'usneg/2900.bmp' width = '100%;'></div></div>","null","neg","CS","CS","1","category1/CS8.png","","","","",""
"","html-keyboard-response","53","284804","0.0-6.0-4.0-0.5","4jkz6xklgk","many_one","0","indirect_first","0","dt07ob15","1","23","1","1","3","2","","0","1","0","null","","","<div class = 'row'><div class = 'column'><img src = 'category3/CS2.png' width = '70%;'></div><div class = 'column'><img src = 'uspos/8540.bmp' width = '100%;'></div></div>","null","pos","CS","CS","3","category3/CS2.png","","","","",""
"","html-keyboard-response","54","287329","0.0-6.0-4.0-0.6","4jkz6xklgk","many_one","0","indirect_first","0","dt07ob15","1","23","1","1","3","2","","0","1","0","null","","","<div class = 'row'><div class = 'column'><img src = 'category4/CS8.png' width = '70%;'></div><div class = 'column'><img src = 'usneg/6020.bmp' width = '100%;'></div></div>","null","neg","CS","CS","4","category4/CS8.png","","","","",""
"","html-keyboard-response","55","289855","0.0-6.0-4.0-0.7","4jkz6xklgk","many_one","0","indirect_first","0","dt07ob15","1","23","1","1","3","2","","0","1","0","null","","","<div class = 'row'><div class = 'column'><img src = 'usneg/9041.bmp' width = '100%;'></div><div class = 'column'><img src = 'category1/CS3.png' width = '70%;'></div></div>","null","neg","CS","CS","1","category1/CS3.png","","","","",""
"","html-keyboard-response","56","292385","0.0-6.0-4.0-0.8","4jkz6xklgk","many_one","0","indirect_first","0","dt07ob15","1","23","1","1","3","2","","0","1","0","null","","","<div class = 'row'><div class = 'column'><img src = 'category2/CS2.png' width = '70%;'></div><div class = 'column'><img src = 'uspos/5700.bmp' width = '100%;'></div></div>","null","pos","CS","CS","2","category2/CS2.png","","","","",""
"","html-keyboard-response","57","294926","0.0-6.0-4.0-0.9","4jkz6xklgk","many_one","0","indirect_first","0","dt07ob15","1","23","1","1","3","2","","0","1","0","null","","","<div class = 'row'><div class = 'column'><img src = 'category1/CS4.png' width = '70%;'></div><div class = 'column'><img src = 'usneg/2750.bmp' width = '100%;'></div></div>","null","neg","CS","CS","1","category1/CS4.png","","","","",""
"","html-keyboard-response","58","297465","0.0-6.0-4.0-0.10","4jkz6xklgk","many_one","0","indirect_first","0","dt07ob15","1","23","1","1","3","2","","0","1","0","null","","","<div class = 'row'><div class = 'column'><img src = 'usneg/9000.bmp' width = '100%;'></div><div class = 'column'><img src = 'category4/CS9.png' width = '70%;'></div></div>","null","neg","CS","CS","4","category4/CS9.png","","","","",""
"","html-keyboard-response","59","300006","0.0-6.0-4.0-0.11","4jkz6xklgk","many_one","0","indirect_first","0","dt07ob15","1","23","1","1","3","2","","0","1","0","null","","","<div class = 'row'><div class = 'column'><img src = 'usneg/9220.bmp' width = '100%;'></div><div class = 'column'><img src = 'category4/CS1.png' width = '70%;'></div></div>","null","neg","CS","CS","4","category4/CS1.png","","","","",""
"","html-keyboard-response","60","302530","0.0-6.0-4.0-0.12","4jkz6xklgk","many_one","0","indirect_first","0","dt07ob15","1","23","1","1","3","2","","0","1","0","null","","","<div class = 'row'><div class = 'column'><img src = 'usneg/9584.bmp' width = '100%;'></div><div class = 'column'><img src = 'category1/CS1.png' width = '70%;'></div></div>","null","neg","CS","CS","1","category1/CS1.png","","","","",""
"","html-keyboard-response","61","305056","0.0-6.0-4.0-0.13","4jkz6xklgk","many_one","0","indirect_first","0","dt07ob15","1","23","1","1","3","2","","0","1","0","null","","","<div class = 'row'><div class = 'column'><img src = 'uspos/5600.bmp' width = '100%;'></div><div class = 'column'><img src = 'category2/CS8.png' width = '70%;'></div></div>","null","pos","CS","CS","2","category2/CS8.png","","","","",""
"","html-keyboard-response","62","307586","0.0-6.0-4.0-0.14","4jkz6xklgk","many_one","0","indirect_first","0","dt07ob15","1","23","1","1","3","2","","0","1","0","null","","","<div class = 'row'><div class = 'column'><img src = 'category2/CS3.png' width = '70%;'></div><div class = 'column'><img src = 'uspos/7325.bmp' width = '100%;'></div></div>","null","pos","CS","CS","2","category2/CS3.png","","","","",""
"","html-keyboard-response","63","310127","0.0-6.0-4.0-0.15","4jkz6xklgk","many_one","0","indirect_first","0","dt07ob15","1","23","1","1","3","2","","0","1","0","null","","","<div class = 'row'><div class = 'column'><img src = 'usneg/9635.2.bmp' width = '100%;'></div><div class = 'column'><img src = 'category4/CS10.png' width = '70%;'></div></div>","null","neg","CS","CS","4","category4/CS10.png","","","","",""
"","html-keyboard-response","64","312667","0.0-6.0-4.0-0.16","4jkz6xklgk","many_one","0","indirect_first","0","dt07ob15","1","23","1","1","3","2","","0","1","0","null","","","<div class = 'row'><div class = 'column'><img src = 'category3/CS8.png' width = '70%;'></div><div class = 'column'><img src = 'uspos/8461.bmp' width = '100%;'></div></div>","null","pos","CS","CS","3","category3/CS8.png","","","","",""
"","html-keyboard-response","65","315186","0.0-6.0-4.0-0.17","4jkz6xklgk","many_one","0","indirect_first","0","dt07ob15","1","23","1","1","3","2","","0","1","0","null","","","<div class = 'row'><div class = 'column'><img src = 'usneg/9560.bmp' width = '100%;'></div><div class = 'column'><img src = 'category4/CS3.png' width = '70%;'></div></div>","null","neg","CS","CS","4","category4/CS3.png","","","","",""
"","html-keyboard-response","66","317716","0.0-6.0-4.0-0.18","4jkz6xklgk","many_one","0","indirect_first","0","dt07ob15","1","23","1","1","3","2","","0","1","0","null","","","<div class = 'row'><div class = 'column'><img src = 'uspos/8490.bmp' width = '100%;'></div><div class = 'column'><img src = 'category3/CS9.png' width = '70%;'></div></div>","null","pos","CS","CS","3","category3/CS9.png","","","","",""
"","html-keyboard-response","67","320245","0.0-6.0-4.0-0.19","4jkz6xklgk","many_one","0","indirect_first","0","dt07ob15","1","23","1","1","3","2","","0","1","0","null","","","<div class = 'row'><div class = 'column'><img src = 'uspos/2150.bmp' width = '100%;'></div><div class = 'column'><img src = 'category3/CS3.png' width = '70%;'></div></div>","null","pos","CS","CS","3","category3/CS3.png","","","","",""
"","survey-html-form","68","325903","0.0-6.0-5.0","4jkz6xklgk","many_one","0","indirect_first","0","dt07ob15","1","23","1","1","3","2","","0","1","0","5135","","{}","","","","","","","","","","","",""
"","html-keyboard-response","69","329916","0.0-6.0-6.0-0.0","4jkz6xklgk","many_one","0","indirect_first","0","dt07ob15","1","23","1","1","3","2","","0","1","0","null","","","<div class = 'row'><div class = 'column'><img src = 'usneg/6020.bmp' width = '100%;'></div><div class = 'column'><img src = 'category4/CS8.png' width = '70%;'></div></div>","null","neg","CS","CS","4","category4/CS8.png","","","","",""
"","html-keyboard-response","70","332428","0.0-6.0-6.0-0.1","4jkz6xklgk","many_one","0","indirect_first","0","dt07ob15","1","23","1","1","3","2","","0","1","0","null","","","<div class = 'row'><div class = 'column'><img src = 'usneg/9041.bmp' width = '100%;'></div><div class = 'column'><img src = 'category1/CS3.png' width = '70%;'></div></div>","null","neg","CS","CS","1","category1/CS3.png","","","","",""
"","html-keyboard-response","71","334965","0.0-6.0-6.0-0.2","4jkz6xklgk","many_one","0","indirect_first","0","dt07ob15","1","23","1","1","3","2","","0","1","0","null","","","<div class = 'row'><div class = 'column'><img src = 'usneg/9000.bmp' width = '100%;'></div><div class = 'column'><img src = 'category4/CS9.png' width = '70%;'></div></div>","null","neg","CS","CS","4","category4/CS9.png","","","","",""
"","html-keyboard-response","72","337486","0.0-6.0-6.0-0.3","4jkz6xklgk","many_one","0","indirect_first","0","dt07ob15","1","23","1","1","3","2","","0","1","0","null","","","<div class = 'row'><div class = 'column'><img src = 'category4/CS3.png' width = '70%;'></div><div class = 'column'><img src = 'usneg/9560.bmp' width = '100%;'></div></div>","null","neg","CS","CS","4","category4/CS3.png","","","","",""
"","html-keyboard-response","73","340015","0.0-6.0-6.0-0.4","4jkz6xklgk","many_one","0","indirect_first","0","dt07ob15","1","23","1","1","3","2","","0","1","0","null","","","<div class = 'row'><div class = 'column'><img src = 'category2/CS8.png' width = '70%;'></div><div class = 'column'><img src = 'uspos/5600.bmp' width = '100%;'></div></div>","null","pos","CS","CS","2","category2/CS8.png","","","","",""
"","html-keyboard-response","74","342545","0.0-6.0-6.0-0.5","4jkz6xklgk","many_one","0","indirect_first","0","dt07ob15","1","23","1","1","3","2","","0","1","0","null","","","<div class = 'row'><div class = 'column'><img src = 'uspos/2311.bmp' width = '100%;'></div><div class = 'column'><img src = 'category2/CS6.png' width = '70%;'></div></div>","null","pos","CS","CS","2","category2/CS6.png","","","","",""
"","html-keyboard-response","75","345075","0.0-6.0-6.0-0.6","4jkz6xklgk","many_one","0","indirect_first","0","dt07ob15","1","23","1","1","3","2","","0","1","0","null","","","<div class = 'row'><div class = 'column'><img src = 'category4/CS10.png' width = '70%;'></div><div class = 'column'><img src = 'usneg/9635.2.bmp' width = '100%;'></div></div>","null","neg","CS","CS","4","category4/CS10.png","","","","",""
"","html-keyboard-response","76","347616","0.0-6.0-6.0-0.7","4jkz6xklgk","many_one","0","indirect_first","0","dt07ob15","1","23","1","1","3","2","","0","1","0","null","","","<div class = 'row'><div class = 'column'><img src = 'uspos/2150.bmp' width = '100%;'></div><div class = 'column'><img src = 'category3/CS3.png' width = '70%;'></div></div>","null","pos","CS","CS","3","category3/CS3.png","","","","",""
"","html-keyboard-response","77","350158","0.0-6.0-6.0-0.8","4jkz6xklgk","many_one","0","indirect_first","0","dt07ob15","1","23","1","1","3","2","","0","1","0","null","","","<div class = 'row'><div class = 'column'><img src = 'uspos/5700.bmp' width = '100%;'></div><div class = 'column'><img src = 'category2/CS2.png' width = '70%;'></div></div>","null","pos","CS","CS","2","category2/CS2.png","","","","",""
"","html-keyboard-response","78","352694","0.0-6.0-6.0-0.9","4jkz6xklgk","many_one","0","indirect_first","0","dt07ob15","1","23","1","1","3","2","","0","1","0","null","","","<div class = 'row'><div class = 'column'><img src = 'uspos/7325.bmp' width = '100%;'></div><div class = 'column'><img src = 'category2/CS3.png' width = '70%;'></div></div>","null","pos","CS","CS","2","category2/CS3.png","","","","",""
"","html-keyboard-response","79","355235","0.0-6.0-6.0-0.10","4jkz6xklgk","many_one","0","indirect_first","0","dt07ob15","1","23","1","1","3","2","","0","1","0","null","","","<div class = 'row'><div class = 'column'><img src = 'category1/CS2.png' width = '70%;'></div><div class = 'column'><img src = 'usneg/6212.bmp' width = '100%;'></div></div>","null","neg","CS","CS","1","category1/CS2.png","","","","",""
"","html-keyboard-response","80","357766","0.0-6.0-6.0-0.11","4jkz6xklgk","many_one","0","indirect_first","0","dt07ob15","1","23","1","1","3","2","","0","1","0","null","","","<div class = 'row'><div class = 'column'><img src = 'category4/CS1.png' width = '70%;'></div><div class = 'column'><img src = 'usneg/9220.bmp' width = '100%;'></div></div>","null","neg","CS","CS","4","category4/CS1.png","","","","",""
"","html-keyboard-response","81","360306","0.0-6.0-6.0-0.12","4jkz6xklgk","many_one","0","indirect_first","0","dt07ob15","1","23","1","1","3","2","","0","1","0","null","","","<div class = 'row'><div class = 'column'><img src = 'usneg/2750.bmp' width = '100%;'></div><div class = 'column'><img src = 'category1/CS4.png' width = '70%;'></div></div>","null","neg","CS","CS","1","category1/CS4.png","","","","",""
"","html-keyboard-response","82","362841","0.0-6.0-6.0-0.13","4jkz6xklgk","many_one","0","indirect_first","0","dt07ob15","1","23","1","1","3","2","","0","1","0","null","","","<div class = 'row'><div class = 'column'><img src = 'category3/CS6.png' width = '70%;'></div><div class = 'column'><img src = 'uspos/2030.bmp' width = '100%;'></div></div>","null","pos","CS","CS","3","category3/CS6.png","","","","",""
"","html-keyboard-response","83","365366","0.0-6.0-6.0-0.14","4jkz6xklgk","many_one","0","indirect_first","0","dt07ob15","1","23","1","1","3","2","","0","1","0","null","","","<div class = 'row'><div class = 'column'><img src = 'category1/CS1.png' width = '70%;'></div><div class = 'column'><img src = 'usneg/9584.bmp' width = '100%;'></div></div>","null","neg","CS","CS","1","category1/CS1.png","","","","",""
"","html-keyboard-response","84","367896","0.0-6.0-6.0-0.15","4jkz6xklgk","many_one","0","indirect_first","0","dt07ob15","1","23","1","1","3","2","","0","1","0","null","","","<div class = 'row'><div class = 'column'><img src = 'category3/CS2.png' width = '70%;'></div><div class = 'column'><img src = 'uspos/8540.bmp' width = '100%;'></div></div>","null","pos","CS","CS","3","category3/CS2.png","","","","",""
"","html-keyboard-response","85","370406","0.0-6.0-6.0-0.16","4jkz6xklgk","many_one","0","indirect_first","0","dt07ob15","1","23","1","1","3","2","","0","1","0","null","","","<div class = 'row'><div class = 'column'><img src = 'uspos/2900.2.bmp' width = '100%;'></div><div class = 'column'><img src = 'category2/CS5.png' width = '70%;'></div></div>","null","pos","CS","CS","2","category2/CS5.png","","","","",""
"","html-keyboard-response","86","372946","0.0-6.0-6.0-0.17","4jkz6xklgk","many_one","0","indirect_first","0","dt07ob15","1","23","1","1","3","2","","0","1","0","null","","","<div class = 'row'><div class = 'column'><img src = 'usneg/2900.bmp' width = '100%;'></div><div class = 'column'><img src = 'category1/CS8.png' width = '70%;'></div></div>","null","neg","CS","CS","1","category1/CS8.png","","","","",""
"","html-keyboard-response","87","375486","0.0-6.0-6.0-0.18","4jkz6xklgk","many_one","0","indirect_first","0","dt07ob15","1","23","1","1","3","2","","0","1","0","null","","","<div class = 'row'><div class = 'column'><img src = 'category3/CS8.png' width = '70%;'></div><div class = 'column'><img src = 'uspos/8461.bmp' width = '100%;'></div></div>","null","pos","CS","CS","3","category3/CS8.png","","","","",""
"","html-keyboard-response","88","378016","0.0-6.0-6.0-0.19","4jkz6xklgk","many_one","0","indirect_first","0","dt07ob15","1","23","1","1","3","2","","0","1","0","null","","","<div class = 'row'><div class = 'column'><img src = 'uspos/8490.bmp' width = '100%;'></div><div class = 'column'><img src = 'category3/CS9.png' width = '70%;'></div></div>","null","pos","CS","CS","3","category3/CS9.png","","","","",""
"","html-keyboard-response","89","419600","0.0-7.0","4jkz6xklgk","many_one","0","indirect_first","0","dt07ob15","1","23","1","1","3","2","","0","1","0","41078","","","<p>Sie sehen nun die chinesischen Zeichen nur ganz kurz. Danach sehen Sie die jeweilige Aussprache der Zeichen als Silbe auf dem Bildschrim. Ihre Aufgabe ist es, für jede Silbe anzugeben, ob diese etwas angenehmes, oder unangenehmes bedeuten könnte. Verlassen Sie sich hier vor allem auf Ihre Intuition.<br><br>Die Zeichen werden nur zur Orientierung dargestellt, beachten Sie sie deshalb nicht. Konzentrieren Sie sich vor allem auf die Silben. <br>Reagieren Sie mit folgenden zwei Tasten: <br><br><b>'D' </b> wenn die Silbe etwas <b>unangenehmes</b> bedeuten könnte. <br><b>'K'</b> wenn die Silbe etwas <b>angenehmes</b> bedeuten könnte. <br><br>Bitte legen Sie nun den Zeigefinger der linken Hand auf die Taste 'D' und den Zeigefinger der rechten Hand auf die Taste 'K'. <br>Reagieren Sie auf jede Silbe so schnell wie möglich. Uns interessiert Ihre spontane Reaktion. <br> <br> <br>Drücken Sie 'D' oder 'K', um die nächste Aufgabe zu starten. </p>","68","","","","","","","","","",""
"","html-keyboard-response","90","422627","0.0-8.0-0.0","4jkz6xklgk","many_one","0","indirect_first","0","dt07ob15","1","23","1","1","3","2","","0","1","0","null","","","<div style=""font-size:60px;"">+</div>","null","","","","","","","","","",""
"","html-keyboard-response","91","422725","0.0-8.0-1.0","4jkz6xklgk","many_one","0","indirect_first","0","dt07ob15","1","23","1","1","3","2","","0","1","0","null","","","<img src = 'category1/CS10.png' width = '100%;'>","null","","","","","","","","","",""
"","html-keyboard-response","92","423006","0.0-8.0-2.0","4jkz6xklgk","many_one","0","indirect_first","0","dt07ob15","1","23","1","1","3","2","","0","1","0","null","","","<img src = 'targets/19.png' width = '100%;'>","null","","","","","","","","","",""
"","html-keyboard-response","93","432030","0.0-8.0-3.0","4jkz6xklgk","many_one","0","indirect_first","0","dt07ob15","1","23","1","1","3","2","","0","1","0","9020","","","<img src = 'targets/mask.png' width = '100%;'>","68","neg","GS","GSold","1","category1/CS10.png","targets/19.png","0","indirect","0",""
"","html-keyboard-response","94","433566","0.0-8.0-0.1","4jkz6xklgk","many_one","0","indirect_first","0","dt07ob15","1","23","1","1","3","2","","0","1","0","null","","","<div style=""font-size:60px;"">+</div>","null","","","","","","","","","",""
"","html-keyboard-response","95","433665","0.0-8.0-1.1","4jkz6xklgk","many_one","0","indirect_first","0","dt07ob15","1","23","1","1","3","2","","0","1","0","null","","","<img src = 'category2/CS6.png' width = '100%;'>","null","","","","","","","","","",""
"","html-keyboard-response","96","433945","0.0-8.0-2.1","4jkz6xklgk","many_one","0","indirect_first","0","dt07ob15","1","23","1","1","3","2","","0","1","0","null","","","<img src = 'targets/36.png' width = '100%;'>","null","","","","","","","","","",""
"","html-keyboard-response","97","437740","0.0-8.0-3.1","4jkz6xklgk","many_one","0","indirect_first","0","dt07ob15","1","23","1","1","3","2","","0","1","0","3793","","","<img src = 'targets/mask.png' width = '100%;'>","68","pos","CS","CS","2","category2/CS6.png","targets/36.png","0","indirect","1",""
"","html-keyboard-response","98","439266","0.0-8.0-0.2","4jkz6xklgk","many_one","0","indirect_first","0","dt07ob15","1","23","1","1","3","2","","0","1","0","null","","","<div style=""font-size:60px;"">+</div>","null","","","","","","","","","",""
"","html-keyboard-response","99","439366","0.0-8.0-1.2","4jkz6xklgk","many_one","0","indirect_first","0","dt07ob15","1","23","1","1","3","2","","0","1","0","null","","","<img src = 'category3/CS6.png' width = '100%;'>","null","","","","","","","","","",""
"","html-keyboard-response","100","439645","0.0-8.0-2.2","4jkz6xklgk","many_one","0","indirect_first","0","dt07ob15","1","23","1","1","3","2","","0","1","0","null","","","<img src = 'targets/48.png' width = '100%;'>","null","","","","","","","","","",""
"","html-keyboard-response","101","440854","0.0-8.0-3.2","4jkz6xklgk","many_one","0","indirect_first","0","dt07ob15","1","23","1","1","3","2","","0","1","0","1206","","","<img src = 'targets/mask.png' width = '100%;'>","75","pos","CS","CS","3","category3/CS6.png","targets/48.png","1","indirect","2",""
"","html-keyboard-response","102","442395","0.0-8.0-0.3","4jkz6xklgk","many_one","0","indirect_first","0","dt07ob15","1","23","1","1","3","2","","0","1","0","null","","","<div style=""font-size:60px;"">+</div>","null","","","","","","","","","",""
"","html-keyboard-response","103","442496","0.0-8.0-1.3","4jkz6xklgk","many_one","0","indirect_first","0","dt07ob15","1","23","1","1","3","2","","0","1","0","null","","","<img src = 'category3/CS7.png' width = '100%;'>","null","","","","","","","","","",""
"","html-keyboard-response","104","442776","0.0-8.0-2.3","4jkz6xklgk","many_one","0","indirect_first","0","dt07ob15","1","23","1","1","3","2","","0","1","0","null","","","<img src = 'targets/4.png' width = '100%;'>","null","","","","","","","","","",""
"","html-keyboard-response","105","443992","0.0-8.0-3.3","4jkz6xklgk","many_one","0","indirect_first","0","dt07ob15","1","23","1","1","3","2","","0","1","0","1214","","","<img src = 'targets/mask.png' width = '100%;'>","75","pos","GS","GSold","3","category3/CS7.png","targets/4.png","1","indirect","3",""
"","html-keyboard-response","106","445521","0.0-8.0-0.4","4jkz6xklgk","many_one","0","indirect_first","0","dt07ob15","1","23","1","1","3","2","","0","1","0","null","","","<div style=""font-size:60px;"">+</div>","null","","","","","","","","","",""
"","html-keyboard-response","107","445622","0.0-8.0-1.4","4jkz6xklgk","many_one","0","indirect_first","0","dt07ob15","1","23","1","1","3","2","","0","1","0","null","","","<img src = 'category2/CS2.png' width = '100%;'>","null","","","","","","","","","",""
"","html-keyboard-response","108","445906","0.0-8.0-2.4","4jkz6xklgk","many_one","0","indirect_first","0","dt07ob15","1","23","1","1","3","2","","0","1","0","null","","","<img src = 'targets/38.png' width = '100%;'>","null","","","","","","","","","",""
"","html-keyboard-response","109","447338","0.0-8.0-3.4","4jkz6xklgk","many_one","0","indirect_first","0","dt07ob15","1","23","1","1","3","2","","0","1","0","1428","","","<img src = 'targets/mask.png' width = '100%;'>","68","pos","CS","CS","2","category2/CS2.png","targets/38.png","0","indirect","4",""
"","html-keyboard-response","110","448860","0.0-8.0-0.5","4jkz6xklgk","many_one","0","indirect_first","0","dt07ob15","1","23","1","1","3","2","","0","1","0","null","","","<div style=""font-size:60px;"">+</div>","null","","","","","","","","","",""
"","html-keyboard-response","111","448955","0.0-8.0-1.5","4jkz6xklgk","many_one","0","indirect_first","0","dt07ob15","1","23","1","1","3","2","","0","1","0","null","","","<img src = 'category1/CS3.png' width = '100%;'>","null","","","","","","","","","",""
"","html-keyboard-response","112","449225","0.0-8.0-2.5","4jkz6xklgk","many_one","0","indirect_first","0","dt07ob15","1","23","1","1","3","2","","0","1","0","null","","","<img src = 'targets/13.png' width = '100%;'>","null","","","","","","","","","",""
"","html-keyboard-response","113","451559","0.0-8.0-3.5","4jkz6xklgk","many_one","0","indirect_first","0","dt07ob15","1","23","1","1","3","2","","0","1","0","2332","","","<img src = 'targets/mask.png' width = '100%;'>","75","neg","CS","CS","1","category1/CS3.png","targets/13.png","1","indirect","5",""
"","html-keyboard-response","114","453086","0.0-8.0-0.6","4jkz6xklgk","many_one","0","indirect_first","0","dt07ob15","1","23","1","1","3","2","","0","1","0","null","","","<div style=""font-size:60px;"">+</div>","null","","","","","","","","","",""
"","html-keyboard-response","115","453186","0.0-8.0-1.6","4jkz6xklgk","many_one","0","indirect_first","0","dt07ob15","1","23","1","1","3","2","","0","1","0","null","","","<img src = 'category3/CS2.png' width = '100%;'>","null","","","","","","","","","",""
"","html-keyboard-response","116","453465","0.0-8.0-2.6","4jkz6xklgk","many_one","0","indirect_first","0","dt07ob15","1","23","1","1","3","2","","0","1","0","null","","","<img src = 'targets/39.png' width = '100%;'>","null","","","","","","","","","",""
"","html-keyboard-response","117","456067","0.0-8.0-3.6","4jkz6xklgk","many_one","0","indirect_first","0","dt07ob15","1","23","1","1","3","2","","0","1","0","2600","","","<img src = 'targets/mask.png' width = '100%;'>","68","pos","CS","CS","3","category3/CS2.png","targets/39.png","0","indirect","6",""
"","html-keyboard-response","118","457596","0.0-8.0-0.7","4jkz6xklgk","many_one","0","indirect_first","0","dt07ob15","1","23","1","1","3","2","","0","1","0","null","","","<div style=""font-size:60px;"">+</div>","null","","","","","","","","","",""
"","html-keyboard-response","119","457696","0.0-8.0-1.7","4jkz6xklgk","many_one","0","indirect_first","0","dt07ob15","1","23","1","1","3","2","","0","1","0","null","","","<img src = 'category1/CS1.png' width = '100%;'>","null","","","","","","","","","",""
"","html-keyboard-response","120","457976","0.0-8.0-2.7","4jkz6xklgk","many_one","0","indirect_first","0","dt07ob15","1","23","1","1","3","2","","0","1","0","null","","","<img src = 'targets/12.png' width = '100%;'>","null","","","","","","","","","",""
"","html-keyboard-response","121","460176","0.0-8.0-3.7","4jkz6xklgk","many_one","0","indirect_first","0","dt07ob15","1","23","1","1","3","2","","0","1","0","2197","","","<img src = 'targets/mask.png' width = '100%;'>","75","neg","CS","CS","1","category1/CS1.png","targets/12.png","1","indirect","7",""
"","html-keyboard-response","122","461695","0.0-8.0-0.8","4jkz6xklgk","many_one","0","indirect_first","0","dt07ob15","1","23","1","1","3","2","","0","1","0","null","","","<div style=""font-size:60px;"">+</div>","null","","","","","","","","","",""
"","html-keyboard-response","123","461795","0.0-8.0-1.8","4jkz6xklgk","many_one","0","indirect_first","0","dt07ob15","1","23","1","1","3","2","","0","1","0","null","","","<img src = 'category1/CS9.png' width = '100%;'>","null","","","","","","","","","",""
"","html-keyboard-response","124","462077","0.0-8.0-2.8","4jkz6xklgk","many_one","0","indirect_first","0","dt07ob15","1","23","1","1","3","2","","0","1","0","null","","","<img src = 'targets/11.png' width = '100%;'>","null","","","","","","","","","",""
"","html-keyboard-response","125","463567","0.0-8.0-3.8","4jkz6xklgk","many_one","0","indirect_first","0","dt07ob15","1","23","1","1","3","2","","0","1","0","1488","","","<img src = 'targets/mask.png' width = '100%;'>","75","neg","GS","GSold","1","category1/CS9.png","targets/11.png","1","indirect","8",""
"","html-keyboard-response","126","465105","0.0-8.0-0.9","4jkz6xklgk","many_one","0","indirect_first","0","dt07ob15","1","23","1","1","3","2","","0","1","0","null","","","<div style=""font-size:60px;"">+</div>","null","","","","","","","","","",""
"","html-keyboard-response","127","465205","0.0-8.0-1.9","4jkz6xklgk","many_one","0","indirect_first","0","dt07ob15","1","23","1","1","3","2","","0","1","0","null","","","<img src = 'category4/CS1.png' width = '100%;'>","null","","","","","","","","","",""
"","html-keyboard-response","128","465486","0.0-8.0-2.9","4jkz6xklgk","many_one","0","indirect_first","0","dt07ob15","1","23","1","1","3","2","","0","1","0","null","","","<img src = 'targets/24.png' width = '100%;'>","null","","","","","","","","","",""
"","html-keyboard-response","129","468202","0.0-8.0-3.9","4jkz6xklgk","many_one","0","indirect_first","0","dt07ob15","1","23","1","1","3","2","","0","1","0","2711","","","<img src = 'targets/mask.png' width = '100%;'>","75","neg","CS","CS","4","category4/CS1.png","targets/24.png","1","indirect","9",""
"","html-keyboard-response","130","469725","0.0-8.0-0.10","4jkz6xklgk","many_one","0","indirect_first","0","dt07ob15","1","23","1","1","3","2","","0","1","0","null","","","<div style=""font-size:60px;"">+</div>","null","","","","","","","","","",""
"","html-keyboard-response","131","469836","0.0-8.0-1.10","4jkz6xklgk","many_one","0","indirect_first","0","dt07ob15","1","23","1","1","3","2","","0","1","0","null","","","<img src = 'category1/CS4.png' width = '100%;'>","null","","","","","","","","","",""
"","html-keyboard-response","132","470115","0.0-8.0-2.10","4jkz6xklgk","many_one","0","indirect_first","0","dt07ob15","1","23","1","1","3","2","","0","1","0","null","","","<img src = 'targets/25.png' width = '100%;'>","null","","","","","","","","","",""
"","html-keyboard-response","133","471493","0.0-8.0-3.10","4jkz6xklgk","many_one","0","indirect_first","0","dt07ob15","1","23","1","1","3","2","","0","1","0","1374","","","<img src = 'targets/mask.png' width = '100%;'>","68","neg","CS","CS","1","category1/CS4.png","targets/25.png","0","indirect","10",""
"","html-keyboard-response","134","473015","0.0-8.0-0.11","4jkz6xklgk","many_one","0","indirect_first","0","dt07ob15","1","23","1","1","3","2","","0","1","0","null","","","<div style=""font-size:60px;"">+</div>","null","","","","","","","","","",""
"","html-keyboard-response","135","473115","0.0-8.0-1.11","4jkz6xklgk","many_one","0","indirect_first","0","dt07ob15","1","23","1","1","3","2","","0","1","0","null","","","<img src = 'category4/CS10.png' width = '100%;'>","null","","","","","","","","","",""
"","html-keyboard-response","136","473397","0.0-8.0-2.11","4jkz6xklgk","many_one","0","indirect_first","0","dt07ob15","1","23","1","1","3","2","","0","1","0","null","","","<img src = 'targets/41.png' width = '100%;'>","null","","","","","","","","","",""
"","html-keyboard-response","137","474724","0.0-8.0-3.11","4jkz6xklgk","many_one","0","indirect_first","0","dt07ob15","1","23","1","1","3","2","","0","1","0","1322","","","<img src = 'targets/mask.png' width = '100%;'>","75","neg","CS","CS","4","category4/CS10.png","targets/41.png","1","indirect","11",""
"","html-keyboard-response","138","476235","0.0-8.0-0.12","4jkz6xklgk","many_one","0","indirect_first","0","dt07ob15","1","23","1","1","3","2","","0","1","0","null","","","<div style=""font-size:60px;"">+</div>","null","","","","","","","","","",""
"","html-keyboard-response","139","476345","0.0-8.0-1.12","4jkz6xklgk","many_one","0","indirect_first","0","dt07ob15","1","23","1","1","3","2","","0","1","0","null","","","<img src = 'category3/CS8.png' width = '100%;'>","null","","","","","","","","","",""
"","html-keyboard-response","140","476626","0.0-8.0-2.12","4jkz6xklgk","many_one","0","indirect_first","0","dt07ob15","1","23","1","1","3","2","","0","1","0","null","","","<img src = 'targets/6.png' width = '100%;'>","null","","","","","","","","","",""
"","html-keyboard-response","141","477899","0.0-8.0-3.12","4jkz6xklgk","many_one","0","indirect_first","0","dt07ob15","1","23","1","1","3","2","","0","1","0","1271","","","<img src = 'targets/mask.png' width = '100%;'>","75","pos","CS","CS","3","category3/CS8.png","targets/6.png","1","indirect","12",""
"","html-keyboard-response","142","479426","0.0-8.0-0.13","4jkz6xklgk","many_one","0","indirect_first","0","dt07ob15","1","23","1","1","3","2","","0","1","0","null","","","<div style=""font-size:60px;"">+</div>","null","","","","","","","","","",""
"","html-keyboard-response","143","479525","0.0-8.0-1.13","4jkz6xklgk","many_one","0","indirect_first","0","dt07ob15","1","23","1","1","3","2","","0","1","0","null","","","<img src = 'category2/CS5.png' width = '100%;'>","null","","","","","","","","","",""
"","html-keyboard-response","144","479805","0.0-8.0-2.13","4jkz6xklgk","many_one","0","indirect_first","0","dt07ob15","1","23","1","1","3","2","","0","1","0","null","","","<img src = 'targets/42.png' width = '100%;'>","null","","","","","","","","","",""
"","html-keyboard-response","145","480760","0.0-8.0-3.13","4jkz6xklgk","many_one","0","indirect_first","0","dt07ob15","1","23","1","1","3","2","","0","1","0","952","","","<img src = 'targets/mask.png' width = '100%;'>","68","pos","CS","CS","2","category2/CS5.png","targets/42.png","0","indirect","13",""
"","html-keyboard-response","146","482287","0.0-8.0-0.14","4jkz6xklgk","many_one","0","indirect_first","0","dt07ob15","1","23","1","1","3","2","","0","1","0","null","","","<div style=""font-size:60px;"">+</div>","null","","","","","","","","","",""
"","html-keyboard-response","147","482386","0.0-8.0-1.14","4jkz6xklgk","many_one","0","indirect_first","0","dt07ob15","1","23","1","1","3","2","","0","1","0","null","","","<img src = 'category4/CS8.png' width = '100%;'>","null","","","","","","","","","",""
"","html-keyboard-response","148","482665","0.0-8.0-2.14","4jkz6xklgk","many_one","0","indirect_first","0","dt07ob15","1","23","1","1","3","2","","0","1","0","null","","","<img src = 'targets/23.png' width = '100%;'>","null","","","","","","","","","",""
"","html-keyboard-response","149","486721","0.0-8.0-3.14","4jkz6xklgk","many_one","0","indirect_first","0","dt07ob15","1","23","1","1","3","2","","0","1","0","4054","","","<img src = 'targets/mask.png' width = '100%;'>","68","neg","CS","CS","4","category4/CS8.png","targets/23.png","0","indirect","14",""
"","html-keyboard-response","150","488246","0.0-8.0-0.15","4jkz6xklgk","many_one","0","indirect_first","0","dt07ob15","1","23","1","1","3","2","","0","1","0","null","","","<div style=""font-size:60px;"">+</div>","null","","","","","","","","","",""
"","html-keyboard-response","151","488346","0.0-8.0-1.15","4jkz6xklgk","many_one","0","indirect_first","0","dt07ob15","1","23","1","1","3","2","","0","1","0","null","","","<img src = 'category3/CS9.png' width = '100%;'>","null","","","","","","","","","",""
"","html-keyboard-response","152","488626","0.0-8.0-2.15","4jkz6xklgk","many_one","0","indirect_first","0","dt07ob15","1","23","1","1","3","2","","0","1","0","null","","","<img src = 'targets/14.png' width = '100%;'>","null","","","","","","","","","",""
"","html-keyboard-response","153","490938","0.0-8.0-3.15","4jkz6xklgk","many_one","0","indirect_first","0","dt07ob15","1","23","1","1","3","2","","0","1","0","2309","","","<img src = 'targets/mask.png' width = '100%;'>","75","pos","CS","CS","3","category3/CS9.png","targets/14.png","1","indirect","15",""
"","html-keyboard-response","154","492466","0.0-8.0-0.16","4jkz6xklgk","many_one","0","indirect_first","0","dt07ob15","1","23","1","1","3","2","","0","1","0","null","","","<div style=""font-size:60px;"">+</div>","null","","","","","","","","","",""
"","html-keyboard-response","155","492565","0.0-8.0-1.16","4jkz6xklgk","many_one","0","indirect_first","0","dt07ob15","1","23","1","1","3","2","","0","1","0","null","","","<img src = 'category4/CS3.png' width = '100%;'>","null","","","","","","","","","",""
"","html-keyboard-response","156","492845","0.0-8.0-2.16","4jkz6xklgk","many_one","0","indirect_first","0","dt07ob15","1","23","1","1","3","2","","0","1","0","null","","","<img src = 'targets/31.png' width = '100%;'>","null","","","","","","","","","",""
"","html-keyboard-response","157","493973","0.0-8.0-3.16","4jkz6xklgk","many_one","0","indirect_first","0","dt07ob15","1","23","1","1","3","2","","0","1","0","1125","","","<img src = 'targets/mask.png' width = '100%;'>","68","neg","CS","CS","4","category4/CS3.png","targets/31.png","0","indirect","16",""
"","html-keyboard-response","158","495505","0.0-8.0-0.17","4jkz6xklgk","many_one","0","indirect_first","0","dt07ob15","1","23","1","1","3","2","","0","1","0","null","","","<div style=""font-size:60px;"">+</div>","null","","","","","","","","","",""
"","html-keyboard-response","159","495605","0.0-8.0-1.17","4jkz6xklgk","many_one","0","indirect_first","0","dt07ob15","1","23","1","1","3","2","","0","1","0","null","","","<img src = 'category1/CS6.png' width = '100%;'>","null","","","","","","","","","",""
"","html-keyboard-response","160","495886","0.0-8.0-2.17","4jkz6xklgk","many_one","0","indirect_first","0","dt07ob15","1","23","1","1","3","2","","0","1","0","null","","","<img src = 'targets/3.png' width = '100%;'>","null","","","","","","","","","",""
"","html-keyboard-response","161","496942","0.0-8.0-3.17","4jkz6xklgk","many_one","0","indirect_first","0","dt07ob15","1","23","1","1","3","2","","0","1","0","1054","","","<img src = 'targets/mask.png' width = '100%;'>","68","neg","GS","GSold","1","category1/CS6.png","targets/3.png","0","indirect","17",""
"","html-keyboard-response","162","498468","0.0-8.0-0.18","4jkz6xklgk","many_one","0","indirect_first","0","dt07ob15","1","23","1","1","3","2","","0","1","0","null","","","<div style=""font-size:60px;"">+</div>","null","","","","","","","","","",""
"","html-keyboard-response","163","498565","0.0-8.0-1.18","4jkz6xklgk","many_one","0","indirect_first","0","dt07ob15","1","23","1","1","3","2","","0","1","0","null","","","<img src = 'category2/CS3.png' width = '100%;'>","null","","","","","","","","","",""
"","html-keyboard-response","164","498846","0.0-8.0-2.18","4jkz6xklgk","many_one","0","indirect_first","0","dt07ob15","1","23","1","1","3","2","","0","1","0","null","","","<img src = 'targets/1.png' width = '100%;'>","null","","","","","","","","","",""
"","html-keyboard-response","165","500192","0.0-8.0-3.18","4jkz6xklgk","many_one","0","indirect_first","0","dt07ob15","1","23","1","1","3","2","","0","1","0","1344","","","<img src = 'targets/mask.png' width = '100%;'>","75","pos","CS","CS","2","category2/CS3.png","targets/1.png","1","indirect","18",""
"","html-keyboard-response","166","501725","0.0-8.0-0.19","4jkz6xklgk","many_one","0","indirect_first","0","dt07ob15","1","23","1","1","3","2","","0","1","0","null","","","<div style=""font-size:60px;"">+</div>","null","","","","","","","","","",""
"","html-keyboard-response","167","501825","0.0-8.0-1.19","4jkz6xklgk","many_one","0","indirect_first","0","dt07ob15","1","23","1","1","3","2","","0","1","0","null","","","<img src = 'category2/CS8.png' width = '100%;'>","null","","","","","","","","","",""
"","html-keyboard-response","168","502105","0.0-8.0-2.19","4jkz6xklgk","many_one","0","indirect_first","0","dt07ob15","1","23","1","1","3","2","","0","1","0","null","","","<img src = 'targets/2.png' width = '100%;'>","null","","","","","","","","","",""
"","html-keyboard-response","169","502731","0.0-8.0-3.19","4jkz6xklgk","many_one","0","indirect_first","0","dt07ob15","1","23","1","1","3","2","","0","1","0","624","","","<img src = 'targets/mask.png' width = '100%;'>","68","pos","CS","CS","2","category2/CS8.png","targets/2.png","0","indirect","19",""
"","html-keyboard-response","170","504265","0.0-8.0-0.20","4jkz6xklgk","many_one","0","indirect_first","0","dt07ob15","1","23","1","1","3","2","","0","1","0","null","","","<div style=""font-size:60px;"">+</div>","null","","","","","","","","","",""
"","html-keyboard-response","171","504365","0.0-8.0-1.20","4jkz6xklgk","many_one","0","indirect_first","0","dt07ob15","1","23","1","1","3","2","","0","1","0","null","","","<img src = 'category3/CS3.png' width = '100%;'>","null","","","","","","","","","",""
"","html-keyboard-response","172","504645","0.0-8.0-2.20","4jkz6xklgk","many_one","0","indirect_first","0","dt07ob15","1","23","1","1","3","2","","0","1","0","null","","","<img src = 'targets/34.png' width = '100%;'>","null","","","","","","","","","",""
"","html-keyboard-response","173","505134","0.0-8.0-3.20","4jkz6xklgk","many_one","0","indirect_first","0","dt07ob15","1","23","1","1","3","2","","0","1","0","485","","","<img src = 'targets/mask.png' width = '100%;'>","75","pos","CS","CS","3","category3/CS3.png","targets/34.png","1","indirect","20",""
"","html-keyboard-response","174","506645","0.0-8.0-0.21","4jkz6xklgk","many_one","0","indirect_first","0","dt07ob15","1","23","1","1","3","2","","0","1","0","null","","","<div style=""font-size:60px;"">+</div>","null","","","","","","","","","",""
"","html-keyboard-response","175","506745","0.0-8.0-1.21","4jkz6xklgk","many_one","0","indirect_first","0","dt07ob15","1","23","1","1","3","2","","0","1","0","null","","","<img src = 'category4/CS9.png' width = '100%;'>","null","","","","","","","","","",""
"","html-keyboard-response","176","507016","0.0-8.0-2.21","4jkz6xklgk","many_one","0","indirect_first","0","dt07ob15","1","23","1","1","3","2","","0","1","0","null","","","<img src = 'targets/20.png' width = '100%;'>","null","","","","","","","","","",""
"","html-keyboard-response","177","507933","0.0-8.0-3.21","4jkz6xklgk","many_one","0","indirect_first","0","dt07ob15","1","23","1","1","3","2","","0","1","0","916","","","<img src = 'targets/mask.png' width = '100%;'>","68","neg","CS","CS","4","category4/CS9.png","targets/20.png","0","indirect","21",""
"","html-keyboard-response","178","509466","0.0-8.0-0.22","4jkz6xklgk","many_one","0","indirect_first","0","dt07ob15","1","23","1","1","3","2","","0","1","0","null","","","<div style=""font-size:60px;"">+</div>","null","","","","","","","","","",""
"","html-keyboard-response","179","509565","0.0-8.0-1.22","4jkz6xklgk","many_one","0","indirect_first","0","dt07ob15","1","23","1","1","3","2","","0","1","0","null","","","<img src = 'category1/CS8.png' width = '100%;'>","null","","","","","","","","","",""
"","html-keyboard-response","180","509835","0.0-8.0-2.22","4jkz6xklgk","many_one","0","indirect_first","0","dt07ob15","1","23","1","1","3","2","","0","1","0","null","","","<img src = 'targets/18.png' width = '100%;'>","null","","","","","","","","","",""
"","html-keyboard-response","181","510572","0.0-8.0-3.22","4jkz6xklgk","many_one","0","indirect_first","0","dt07ob15","1","23","1","1","3","2","","0","1","0","734","","","<img src = 'targets/mask.png' width = '100%;'>","75","neg","CS","CS","1","category1/CS8.png","targets/18.png","1","indirect","22",""
"","html-keyboard-response","182","512105","0.0-8.0-0.23","4jkz6xklgk","many_one","0","indirect_first","0","dt07ob15","1","23","1","1","3","2","","0","1","0","null","","","<div style=""font-size:60px;"">+</div>","null","","","","","","","","","",""
"","html-keyboard-response","183","512205","0.0-8.0-1.23","4jkz6xklgk","many_one","0","indirect_first","0","dt07ob15","1","23","1","1","3","2","","0","1","0","null","","","<img src = 'category1/CS2.png' width = '100%;'>","null","","","","","","","","","",""
"","html-keyboard-response","184","512474","0.0-8.0-2.23","4jkz6xklgk","many_one","0","indirect_first","0","dt07ob15","1","23","1","1","3","2","","0","1","0","null","","","<img src = 'targets/22.png' width = '100%;'>","null","","","","","","","","","",""
"","html-keyboard-response","185","513390","0.0-8.0-3.23","4jkz6xklgk","many_one","0","indirect_first","0","dt07ob15","1","23","1","1","3","2","","0","1","0","913","","","<img src = 'targets/mask.png' width = '100%;'>","75","neg","CS","CS","1","category1/CS2.png","targets/22.png","1","indirect","23",""
"","survey-html-form","186","517548","0.0-9.0","4jkz6xklgk","many_one","0","indirect_first","0","dt07ob15","1","23","1","1","3","2","","0","1","0","3640","","{}","","","","","","","","","","","",""
"","html-keyboard-response","187","520575","0.0-10.0-0.0","4jkz6xklgk","many_one","0","indirect_first","0","dt07ob15","1","23","1","1","3","2","","0","1","0","null","","","<div style=""font-size:60px;"">+</div>","null","","","","","","","","","",""
"","html-keyboard-response","188","520676","0.0-10.0-1.0","4jkz6xklgk","many_one","0","indirect_first","0","dt07ob15","1","23","1","1","3","2","","0","1","0","null","","","<img src = 'category4/CS4.png' width = '100%;'>","null","","","","","","","","","",""
"","html-keyboard-response","189","520955","0.0-10.0-2.0","4jkz6xklgk","many_one","0","indirect_first","0","dt07ob15","1","23","1","1","3","2","","0","1","0","null","","","<img src = 'targets/8.png' width = '100%;'>","null","","","","","","","","","",""
"","html-keyboard-response","190","524014","0.0-10.0-3.0","4jkz6xklgk","many_one","0","indirect_first","0","dt07ob15","1","23","1","1","3","2","","0","1","0","3056","","","<img src = 'targets/mask.png' width = '100%;'>","75","neg","GS","GSold","4","category4/CS4.png","targets/8.png","1","indirect","24",""
"","html-keyboard-response","191","525537","0.0-10.0-0.1","4jkz6xklgk","many_one","0","indirect_first","0","dt07ob15","1","23","1","1","3","2","","0","1","0","null","","","<div style=""font-size:60px;"">+</div>","null","","","","","","","","","",""
"","html-keyboard-response","192","525635","0.0-10.0-1.1","4jkz6xklgk","many_one","0","indirect_first","0","dt07ob15","1","23","1","1","3","2","","0","1","0","null","","","<img src = 'category2/GS1.png' width = '100%;'>","null","","","","","","","","","",""
"","html-keyboard-response","193","525915","0.0-10.0-2.1","4jkz6xklgk","many_one","0","indirect_first","0","dt07ob15","1","23","1","1","3","2","","0","1","0","null","","","<img src = 'targets/46.png' width = '100%;'>","null","","","","","","","","","",""
"","html-keyboard-response","194","528129","0.0-10.0-3.1","4jkz6xklgk","many_one","0","indirect_first","0","dt07ob15","1","23","1","1","3","2","","0","1","0","2210","","","<img src = 'targets/mask.png' width = '100%;'>","68","pos","GS","GSnew","2","category2/GS1.png","targets/46.png","0","indirect","25",""
"","html-keyboard-response","195","529665","0.0-10.0-0.2","4jkz6xklgk","many_one","0","indirect_first","0","dt07ob15","1","23","1","1","3","2","","0","1","0","null","","","<div style=""font-size:60px;"">+</div>","null","","","","","","","","","",""
"","html-keyboard-response","196","529765","0.0-10.0-1.2","4jkz6xklgk","many_one","0","indirect_first","0","dt07ob15","1","23","1","1","3","2","","0","1","0","null","","","<img src = 'category1/GS1.png' width = '100%;'>","null","","","","","","","","","",""
"","html-keyboard-response","197","530049","0.0-10.0-2.2","4jkz6xklgk","many_one","0","indirect_first","0","dt07ob15","1","23","1","1","3","2","","0","1","0","null","","","<img src = 'targets/30.png' width = '100%;'>","null","","","","","","","","","",""
"","html-keyboard-response","198","531205","0.0-10.0-3.2","4jkz6xklgk","many_one","0","indirect_first","0","dt07ob15","1","23","1","1","3","2","","0","1","0","1154","","","<img src = 'targets/mask.png' width = '100%;'>","75","neg","GS","GSnew","1","category1/GS1.png","targets/30.png","1","indirect","26",""
"","html-keyboard-response","199","532745","0.0-10.0-0.3","4jkz6xklgk","many_one","0","indirect_first","0","dt07ob15","1","23","1","1","3","2","","0","1","0","null","","","<div style=""font-size:60px;"">+</div>","null","","","","","","","","","",""
"","html-keyboard-response","200","532845","0.0-10.0-1.3","4jkz6xklgk","many_one","0","indirect_first","0","dt07ob15","1","23","1","1","3","2","","0","1","0","null","","","<img src = 'category2/CS4.png' width = '100%;'>","null","","","","","","","","","",""
"","html-keyboard-response","201","533125","0.0-10.0-2.3","4jkz6xklgk","many_one","0","indirect_first","0","dt07ob15","1","23","1","1","3","2","","0","1","0","null","","","<img src = 'targets/26.png' width = '100%;'>","null","","","","","","","","","",""
"","html-keyboard-response","202","533855","0.0-10.0-3.3","4jkz6xklgk","many_one","0","indirect_first","0","dt07ob15","1","23","1","1","3","2","","0","1","0","727","","","<img src = 'targets/mask.png' width = '100%;'>","68","pos","GS","GSold","2","category2/CS4.png","targets/26.png","0","indirect","27",""
"","html-keyboard-response","203","535395","0.0-10.0-0.4","4jkz6xklgk","many_one","0","indirect_first","0","dt07ob15","1","23","1","1","3","2","","0","1","0","null","","","<div style=""font-size:60px;"">+</div>","null","","","","","","","","","",""
"","html-keyboard-response","204","535495","0.0-10.0-1.4","4jkz6xklgk","many_one","0","indirect_first","0","dt07ob15","1","23","1","1","3","2","","0","1","0","null","","","<img src = 'category3/CS1.png' width = '100%;'>","null","","","","","","","","","",""
"","html-keyboard-response","205","535775","0.0-10.0-2.4","4jkz6xklgk","many_one","0","indirect_first","0","dt07ob15","1","23","1","1","3","2","","0","1","0","null","","","<img src = 'targets/40.png' width = '100%;'>","null","","","","","","","","","",""
"","html-keyboard-response","206","536178","0.0-10.0-3.4","4jkz6xklgk","many_one","0","indirect_first","0","dt07ob15","1","23","1","1","3","2","","0","1","0","401","","","<img src = 'targets/mask.png' width = '100%;'>","75","pos","GS","GSold","3","category3/CS1.png","targets/40.png","1","indirect","28",""
"","html-keyboard-response","207","537715","0.0-10.0-0.5","4jkz6xklgk","many_one","0","indirect_first","0","dt07ob15","1","23","1","1","3","2","","0","1","0","null","","","<div style=""font-size:60px;"">+</div>","null","","","","","","","","","",""
"","html-keyboard-response","208","537814","0.0-10.0-1.5","4jkz6xklgk","many_one","0","indirect_first","0","dt07ob15","1","23","1","1","3","2","","0","1","0","null","","","<img src = 'category2/CS1.png' width = '100%;'>","null","","","","","","","","","",""
"","html-keyboard-response","209","538095","0.0-10.0-2.5","4jkz6xklgk","many_one","0","indirect_first","0","dt07ob15","1","23","1","1","3","2","","0","1","0","null","","","<img src = 'targets/45.png' width = '100%;'>","null","","","","","","","","","",""
"","html-keyboard-response","210","538520","0.0-10.0-3.5","4jkz6xklgk","many_one","0","indirect_first","0","dt07ob15","1","23","1","1","3","2","","0","1","0","422","","","<img src = 'targets/mask.png' width = '100%;'>","75","pos","GS","GSold","2","category2/CS1.png","targets/45.png","1","indirect","29",""
"","html-keyboard-response","211","540055","0.0-10.0-0.6","4jkz6xklgk","many_one","0","indirect_first","0","dt07ob15","1","23","1","1","3","2","","0","1","0","null","","","<div style=""font-size:60px;"">+</div>","null","","","","","","","","","",""
"","html-keyboard-response","212","540155","0.0-10.0-1.6","4jkz6xklgk","many_one","0","indirect_first","0","dt07ob15","1","23","1","1","3","2","","0","1","0","null","","","<img src = 'category2/men.png' width = '100%;'>","null","","","","","","","","","",""
"","html-keyboard-response","213","540436","0.0-10.0-2.6","4jkz6xklgk","many_one","0","indirect_first","0","dt07ob15","1","23","1","1","3","2","","0","1","0","null","","","<img src = 'targets/35.png' width = '100%;'>","null","","","","","","","","","",""
"","html-keyboard-response","214","541306","0.0-10.0-3.6","4jkz6xklgk","many_one","0","indirect_first","0","dt07ob15","1","23","1","1","3","2","","0","1","0","867","","","<img src = 'targets/mask.png' width = '100%;'>","75","pos","GS","abstract","2","category2/men.png","targets/35.png","1","indirect","30",""
"","html-keyboard-response","215","542828","0.0-10.0-0.7","4jkz6xklgk","many_one","0","indirect_first","0","dt07ob15","1","23","1","1","3","2","","0","1","0","null","","","<div style=""font-size:60px;"">+</div>","null","","","","","","","","","",""
"","html-keyboard-response","216","542925","0.0-10.0-1.7","4jkz6xklgk","many_one","0","indirect_first","0","dt07ob15","1","23","1","1","3","2","","0","1","0","null","","","<img src = 'category3/GS3.png' width = '100%;'>","null","","","","","","","","","",""
"","html-keyboard-response","217","543195","0.0-10.0-2.7","4jkz6xklgk","many_one","0","indirect_first","0","dt07ob15","1","23","1","1","3","2","","0","1","0","null","","","<img src = 'targets/33.png' width = '100%;'>","null","","","","","","","","","",""
"","html-keyboard-response","218","543697","0.0-10.0-3.7","4jkz6xklgk","many_one","0","indirect_first","0","dt07ob15","1","23","1","1","3","2","","0","1","0","500","","","<img src = 'targets/mask.png' width = '100%;'>","75","pos","GS","GSnew","3","category3/GS3.png","targets/33.png","1","indirect","31",""
"","html-keyboard-response","219","545225","0.0-10.0-0.8","4jkz6xklgk","many_one","0","indirect_first","0","dt07ob15","1","23","1","1","3","2","","0","1","0","null","","","<div style=""font-size:60px;"">+</div>","null","","","","","","","","","",""
"","html-keyboard-response","220","545335","0.0-10.0-1.8","4jkz6xklgk","many_one","0","indirect_first","0","dt07ob15","1","23","1","1","3","2","","0","1","0","null","","","<img src = 'category4/GS2.png' width = '100%;'>","null","","","","","","","","","",""
"","html-keyboard-response","221","545605","0.0-10.0-2.8","4jkz6xklgk","many_one","0","indirect_first","0","dt07ob15","1","23","1","1","3","2","","0","1","0","null","","","<img src = 'targets/10.png' width = '100%;'>","null","","","","","","","","","",""
"","html-keyboard-response","222","546091","0.0-10.0-3.8","4jkz6xklgk","many_one","0","indirect_first","0","dt07ob15","1","23","1","1","3","2","","0","1","0","485","","","<img src = 'targets/mask.png' width = '100%;'>","68","neg","GS","GSnew","4","category4/GS2.png","targets/10.png","0","indirect","32",""
"","html-keyboard-response","223","547616","0.0-10.0-0.9","4jkz6xklgk","many_one","0","indirect_first","0","dt07ob15","1","23","1","1","3","2","","0","1","0","null","","","<div style=""font-size:60px;"">+</div>","null","","","","","","","","","",""
"","html-keyboard-response","224","547716","0.0-10.0-1.9","4jkz6xklgk","many_one","0","indirect_first","0","dt07ob15","1","23","1","1","3","2","","0","1","0","null","","","<img src = 'category2/GS3.png' width = '100%;'>","null","","","","","","","","","",""
"","html-keyboard-response","225","547995","0.0-10.0-2.9","4jkz6xklgk","many_one","0","indirect_first","0","dt07ob15","1","23","1","1","3","2","","0","1","0","null","","","<img src = 'targets/17.png' width = '100%;'>","null","","","","","","","","","",""
"","html-keyboard-response","226","548593","0.0-10.0-3.9","4jkz6xklgk","many_one","0","indirect_first","0","dt07ob15","1","23","1","1","3","2","","0","1","0","595","","","<img src = 'targets/mask.png' width = '100%;'>","68","pos","GS","GSnew","2","category2/GS3.png","targets/17.png","0","indirect","33",""
"","html-keyboard-response","227","550115","0.0-10.0-0.10","4jkz6xklgk","many_one","0","indirect_first","0","dt07ob15","1","23","1","1","3","2","","0","1","0","null","","","<div style=""font-size:60px;"">+</div>","null","","","","","","","","","",""
"","html-keyboard-response","228","550215","0.0-10.0-1.10","4jkz6xklgk","many_one","0","indirect_first","0","dt07ob15","1","23","1","1","3","2","","0","1","0","null","","","<img src = 'category4/GS1.png' width = '100%;'>","null","","","","","","","","","",""
"","html-keyboard-response","229","550495","0.0-10.0-2.10","4jkz6xklgk","many_one","0","indirect_first","0","dt07ob15","1","23","1","1","3","2","","0","1","0","null","","","<img src = 'targets/27.png' width = '100%;'>","null","","","","","","","","","",""
"","html-keyboard-response","230","551317","0.0-10.0-3.10","4jkz6xklgk","many_one","0","indirect_first","0","dt07ob15","1","23","1","1","3","2","","0","1","0","818","","","<img src = 'targets/mask.png' width = '100%;'>","68","neg","GS","GSnew","4","category4/GS1.png","targets/27.png","0","indirect","34",""
"","html-keyboard-response","231","552846","0.0-10.0-0.11","4jkz6xklgk","many_one","0","indirect_first","0","dt07ob15","1","23","1","1","3","2","","0","1","0","null","","","<div style=""font-size:60px;"">+</div>","null","","","","","","","","","",""
"","html-keyboard-response","232","552945","0.0-10.0-1.11","4jkz6xklgk","many_one","0","indirect_first","0","dt07ob15","1","23","1","1","3","2","","0","1","0","null","","","<img src = 'category3/GS2.png' width = '100%;'>","null","","","","","","","","","",""
"","html-keyboard-response","233","553225","0.0-10.0-2.11","4jkz6xklgk","many_one","0","indirect_first","0","dt07ob15","1","23","1","1","3","2","","0","1","0","null","","","<img src = 'targets/7.png' width = '100%;'>","null","","","","","","","","","",""
"","html-keyboard-response","234","555190","0.0-10.0-3.11","4jkz6xklgk","many_one","0","indirect_first","0","dt07ob15","1","23","1","1","3","2","","0","1","0","1962","","","<img src = 'targets/mask.png' width = '100%;'>","75","pos","GS","GSnew","3","category3/GS2.png","targets/7.png","1","indirect","35",""
"","html-keyboard-response","235","556725","0.0-10.0-0.12","4jkz6xklgk","many_one","0","indirect_first","0","dt07ob15","1","23","1","1","3","2","","0","1","0","null","","","<div style=""font-size:60px;"">+</div>","null","","","","","","","","","",""
"","html-keyboard-response","236","556826","0.0-10.0-1.12","4jkz6xklgk","many_one","0","indirect_first","0","dt07ob15","1","23","1","1","3","2","","0","1","0","null","","","<img src = 'category4/CS6.png' width = '100%;'>","null","","","","","","","","","",""
"","html-keyboard-response","237","557095","0.0-10.0-2.12","4jkz6xklgk","many_one","0","indirect_first","0","dt07ob15","1","23","1","1","3","2","","0","1","0","null","","","<img src = 'targets/16.png' width = '100%;'>","null","","","","","","","","","",""
"","html-keyboard-response","238","557551","0.0-10.0-3.12","4jkz6xklgk","many_one","0","indirect_first","0","dt07ob15","1","23","1","1","3","2","","0","1","0","453","","","<img src = 'targets/mask.png' width = '100%;'>","68","neg","GS","GSold","4","category4/CS6.png","targets/16.png","0","indirect","36",""
"","html-keyboard-response","239","559085","0.0-10.0-0.13","4jkz6xklgk","many_one","0","indirect_first","0","dt07ob15","1","23","1","1","3","2","","0","1","0","null","","","<div style=""font-size:60px;"">+</div>","null","","","","","","","","","",""
"","html-keyboard-response","240","559185","0.0-10.0-1.13","4jkz6xklgk","many_one","0","indirect_first","0","dt07ob15","1","23","1","1","3","2","","0","1","0","null","","","<img src = 'category1/ma.png' width = '100%;'>","null","","","","","","","","","",""
"","html-keyboard-response","241","559464","0.0-10.0-2.13","4jkz6xklgk","many_one","0","indirect_first","0","dt07ob15","1","23","1","1","3","2","","0","1","0","null","","","<img src = 'targets/21.png' width = '100%;'>","null","","","","","","","","","",""
"","html-keyboard-response","242","560313","0.0-10.0-3.13","4jkz6xklgk","many_one","0","indirect_first","0","dt07ob15","1","23","1","1","3","2","","0","1","0","847","","","<img src = 'targets/mask.png' width = '100%;'>","68","neg","GS","abstract","1","category1/ma.png","targets/21.png","0","indirect","37",""
"","html-keyboard-response","243","561846","0.0-10.0-0.14","4jkz6xklgk","many_one","0","indirect_first","0","dt07ob15","1","23","1","1","3","2","","0","1","0","null","","","<div style=""font-size:60px;"">+</div>","null","","","","","","","","","",""
"","html-keyboard-response","244","561944","0.0-10.0-1.14","4jkz6xklgk","many_one","0","indirect_first","0","dt07ob15","1","23","1","1","3","2","","0","1","0","null","","","<img src = 'category1/GS2.png' width = '100%;'>","null","","","","","","","","","",""
"","html-keyboard-response","245","562225","0.0-10.0-2.14","4jkz6xklgk","many_one","0","indirect_first","0","dt07ob15","1","23","1","1","3","2","","0","1","0","null","","","<img src = 'targets/28.png' width = '100%;'>","null","","","","","","","","","",""
"","html-keyboard-response","246","562680","0.0-10.0-3.14","4jkz6xklgk","many_one","0","indirect_first","0","dt07ob15","1","23","1","1","3","2","","0","1","0","453","","","<img src = 'targets/mask.png' width = '100%;'>","75","neg","GS","GSnew","1","category1/GS2.png","targets/28.png","1","indirect","38",""
"","html-keyboard-response","247","564205","0.0-10.0-0.15","4jkz6xklgk","many_one","0","indirect_first","0","dt07ob15","1","23","1","1","3","2","","0","1","0","null","","","<div style=""font-size:60px;"">+</div>","null","","","","","","","","","",""
"","html-keyboard-response","248","564306","0.0-10.0-1.15","4jkz6xklgk","many_one","0","indirect_first","0","dt07ob15","1","23","1","1","3","2","","0","1","0","null","","","<img src = 'category1/GS3.png' width = '100%;'>","null","","","","","","","","","",""
"","html-keyboard-response","249","564585","0.0-10.0-2.15","4jkz6xklgk","many_one","0","indirect_first","0","dt07ob15","1","23","1","1","3","2","","0","1","0","null","","","<img src = 'targets/29.png' width = '100%;'>","null","","","","","","","","","",""
"","html-keyboard-response","250","565244","0.0-10.0-3.15","4jkz6xklgk","many_one","0","indirect_first","0","dt07ob15","1","23","1","1","3","2","","0","1","0","658","","","<img src = 'targets/mask.png' width = '100%;'>","68","neg","GS","GSnew","1","category1/GS3.png","targets/29.png","0","indirect","39",""
"","html-keyboard-response","251","566786","0.0-10.0-0.16","4jkz6xklgk","many_one","0","indirect_first","0","dt07ob15","1","23","1","1","3","2","","0","1","0","null","","","<div style=""font-size:60px;"">+</div>","null","","","","","","","","","",""
"","html-keyboard-response","252","566885","0.0-10.0-1.16","4jkz6xklgk","many_one","0","indirect_first","0","dt07ob15","1","23","1","1","3","2","","0","1","0","null","","","<img src = 'category3/wang.png' width = '100%;'>","null","","","","","","","","","",""
"","html-keyboard-response","253","567167","0.0-10.0-2.16","4jkz6xklgk","many_one","0","indirect_first","0","dt07ob15","1","23","1","1","3","2","","0","1","0","null","","","<img src = 'targets/32.png' width = '100%;'>","null","","","","","","","","","",""
"","html-keyboard-response","254","567588","0.0-10.0-3.16","4jkz6xklgk","many_one","0","indirect_first","0","dt07ob15","1","23","1","1","3","2","","0","1","0","418","","","<img src = 'targets/mask.png' width = '100%;'>","75","pos","GS","abstract","3","category3/wang.png","targets/32.png","1","indirect","40",""
"","html-keyboard-response","255","569125","0.0-10.0-0.17","4jkz6xklgk","many_one","0","indirect_first","0","dt07ob15","1","23","1","1","3","2","","0","1","0","null","","","<div style=""font-size:60px;"">+</div>","null","","","","","","","","","",""
"","html-keyboard-response","256","569226","0.0-10.0-1.17","4jkz6xklgk","many_one","0","indirect_first","0","dt07ob15","1","23","1","1","3","2","","0","1","0","null","","","<img src = 'category2/GS2.png' width = '100%;'>","null","","","","","","","","","",""
"","html-keyboard-response","257","569500","0.0-10.0-2.17","4jkz6xklgk","many_one","0","indirect_first","0","dt07ob15","1","23","1","1","3","2","","0","1","0","null","","","<img src = 'targets/43.png' width = '100%;'>","null","","","","","","","","","",""
"","html-keyboard-response","258","570207","0.0-10.0-3.17","4jkz6xklgk","many_one","0","indirect_first","0","dt07ob15","1","23","1","1","3","2","","0","1","0","704","","","<img src = 'targets/mask.png' width = '100%;'>","68","pos","GS","GSnew","2","category2/GS2.png","targets/43.png","0","indirect","41",""
"","html-keyboard-response","259","571736","0.0-10.0-0.18","4jkz6xklgk","many_one","0","indirect_first","0","dt07ob15","1","23","1","1","3","2","","0","1","0","null","","","<div style=""font-size:60px;"">+</div>","null","","","","","","","","","",""
"","html-keyboard-response","260","571835","0.0-10.0-1.18","4jkz6xklgk","many_one","0","indirect_first","0","dt07ob15","1","23","1","1","3","2","","0","1","0","null","","","<img src = 'category2/CS7.png' width = '100%;'>","null","","","","","","","","","",""
"","html-keyboard-response","261","572115","0.0-10.0-2.18","4jkz6xklgk","many_one","0","indirect_first","0","dt07ob15","1","23","1","1","3","2","","0","1","0","null","","","<img src = 'targets/47.png' width = '100%;'>","null","","","","","","","","","",""
"","html-keyboard-response","262","572861","0.0-10.0-3.18","4jkz6xklgk","many_one","0","indirect_first","0","dt07ob15","1","23","1","1","3","2","","0","1","0","744","","","<img src = 'targets/mask.png' width = '100%;'>","75","pos","GS","GSold","2","category2/CS7.png","targets/47.png","1","indirect","42",""
"","html-keyboard-response","263","574381","0.0-10.0-0.19","4jkz6xklgk","many_one","0","indirect_first","0","dt07ob15","1","23","1","1","3","2","","0","1","0","null","","","<div style=""font-size:60px;"">+</div>","null","","","","","","","","","",""
"","html-keyboard-response","264","574485","0.0-10.0-1.19","4jkz6xklgk","many_one","0","indirect_first","0","dt07ob15","1","23","1","1","3","2","","0","1","0","null","","","<img src = 'category4/CS5.png' width = '100%;'>","null","","","","","","","","","",""
"","html-keyboard-response","265","574765","0.0-10.0-2.19","4jkz6xklgk","many_one","0","indirect_first","0","dt07ob15","1","23","1","1","3","2","","0","1","0","null","","","<img src = 'targets/15.png' width = '100%;'>","null","","","","","","","","","",""
"","html-keyboard-response","266","576123","0.0-10.0-3.19","4jkz6xklgk","many_one","0","indirect_first","0","dt07ob15","1","23","1","1","3","2","","0","1","0","1355","","","<img src = 'targets/mask.png' width = '100%;'>","68","neg","GS","GSold","4","category4/CS5.png","targets/15.png","0","indirect","43",""
"","html-keyboard-response","267","577656","0.0-10.0-0.20","4jkz6xklgk","many_one","0","indirect_first","0","dt07ob15","1","23","1","1","3","2","","0","1","0","null","","","<div style=""font-size:60px;"">+</div>","null","","","","","","","","","",""
"","html-keyboard-response","268","577755","0.0-10.0-1.20","4jkz6xklgk","many_one","0","indirect_first","0","dt07ob15","1","23","1","1","3","2","","0","1","0","null","","","<img src = 'category3/CS10.png' width = '100%;'>","null","","","","","","","","","",""
"","html-keyboard-response","269","578030","0.0-10.0-2.20","4jkz6xklgk","many_one","0","indirect_first","0","dt07ob15","1","23","1","1","3","2","","0","1","0","null","","","<img src = 'targets/44.png' width = '100%;'>","null","","","","","","","","","",""
"","html-keyboard-response","270","578372","0.0-10.0-3.20","4jkz6xklgk","many_one","0","indirect_first","0","dt07ob15","1","23","1","1","3","2","","0","1","0","341","","","<img src = 'targets/mask.png' width = '100%;'>","75","pos","GS","GSold","3","category3/CS10.png","targets/44.png","1","indirect","44",""
"","html-keyboard-response","271","579908","0.0-10.0-0.21","4jkz6xklgk","many_one","0","indirect_first","0","dt07ob15","1","23","1","1","3","2","","0","1","0","null","","","<div style=""font-size:60px;"">+</div>","null","","","","","","","","","",""
"","html-keyboard-response","272","580005","0.0-10.0-1.21","4jkz6xklgk","many_one","0","indirect_first","0","dt07ob15","1","23","1","1","3","2","","0","1","0","null","","","<img src = 'category4/GS3.png' width = '100%;'>","null","","","","","","","","","",""
"","html-keyboard-response","273","580285","0.0-10.0-2.21","4jkz6xklgk","many_one","0","indirect_first","0","dt07ob15","1","23","1","1","3","2","","0","1","0","null","","","<img src = 'targets/5.png' width = '100%;'>","null","","","","","","","","","",""
"","html-keyboard-response","274","580646","0.0-10.0-3.21","4jkz6xklgk","many_one","0","indirect_first","0","dt07ob15","1","23","1","1","3","2","","0","1","0","357","","","<img src = 'targets/mask.png' width = '100%;'>","68","neg","GS","GSnew","4","category4/GS3.png","targets/5.png","0","indirect","45",""
"","html-keyboard-response","275","582186","0.0-10.0-0.22","4jkz6xklgk","many_one","0","indirect_first","0","dt07ob15","1","23","1","1","3","2","","0","1","0","null","","","<div style=""font-size:60px;"">+</div>","null","","","","","","","","","",""
"","html-keyboard-response","276","582285","0.0-10.0-1.22","4jkz6xklgk","many_one","0","indirect_first","0","dt07ob15","1","23","1","1","3","2","","0","1","0","null","","","<img src = 'category3/GS1.png' width = '100%;'>","null","","","","","","","","","",""
"","html-keyboard-response","277","582565","0.0-10.0-2.22","4jkz6xklgk","many_one","0","indirect_first","0","dt07ob15","1","23","1","1","3","2","","0","1","0","null","","","<img src = 'targets/9.png' width = '100%;'>","null","","","","","","","","","",""
"","html-keyboard-response","278","582912","0.0-10.0-3.22","4jkz6xklgk","many_one","0","indirect_first","0","dt07ob15","1","23","1","1","3","2","","0","1","0","344","","","<img src = 'targets/mask.png' width = '100%;'>","75","pos","GS","GSnew","3","category3/GS1.png","targets/9.png","1","indirect","46",""
"","html-keyboard-response","279","584426","0.0-10.0-0.23","4jkz6xklgk","many_one","0","indirect_first","0","dt07ob15","1","23","1","1","3","2","","0","1","0","null","","","<div style=""font-size:60px;"">+</div>","null","","","","","","","","","",""
"","html-keyboard-response","280","584519","0.0-10.0-1.23","4jkz6xklgk","many_one","0","indirect_first","0","dt07ob15","1","23","1","1","3","2","","0","1","0","null","","","<img src = 'category4/lin.png' width = '100%;'>","null","","","","","","","","","",""
"","html-keyboard-response","281","584796","0.0-10.0-2.23","4jkz6xklgk","many_one","0","indirect_first","0","dt07ob15","1","23","1","1","3","2","","0","1","0","null","","","<img src = 'targets/37.png' width = '100%;'>","null","","","","","","","","","",""
"","html-keyboard-response","282","585606","0.0-10.0-3.23","4jkz6xklgk","many_one","0","indirect_first","0","dt07ob15","1","23","1","1","3","2","","0","1","0","805","","","<img src = 'targets/mask.png' width = '100%;'>","75","neg","GS","abstract","4","category4/lin.png","targets/37.png","1","indirect","47",""
"","survey-html-form","283","594024","0.0-11.0","4jkz6xklgk","many_one","0","indirect_first","0","dt07ob15","1","23","1","1","3","2","","0","1","0","7903","","{}","","","","","","","","","","","",""
"","image-slider-response","284","601702","0.0-12.0-0.0","4jkz6xklgk","many_one","0","indirect_first","0","dt07ob15","1","23","1","1","3","2","","0","1","0","5652","","","","","neg","CS","CS","4","category4/CS8.png","targets/23.png","","direct","","47"
"","image-slider-response","285","604328","0.0-12.0-0.1","4jkz6xklgk","many_one","0","indirect_first","0","dt07ob15","1","23","1","1","3","2","","0","1","0","2622","","","","","pos","CS","CS","2","category2/CS5.png","targets/42.png","","direct","","37"
"","image-slider-response","286","606886","0.0-12.0-0.2","4jkz6xklgk","many_one","0","indirect_first","0","dt07ob15","1","23","1","1","3","2","","0","1","0","2553","","","","","pos","CS","CS","3","category3/CS3.png","targets/34.png","","direct","","86"
"","image-slider-response","287","609469","0.0-12.0-0.3","4jkz6xklgk","many_one","0","indirect_first","0","dt07ob15","1","23","1","1","3","2","","0","1","0","2579","","","","","pos","GS","GSold","2","category2/CS1.png","targets/45.png","","direct","","72"
"","image-slider-response","288","611598","0.0-12.0-0.4","4jkz6xklgk","many_one","0","indirect_first","0","dt07ob15","1","23","1","1","3","2","","0","1","0","2123","","","","","neg","GS","GSold","4","category4/CS5.png","targets/15.png","","direct","","-63"
"","image-slider-response","289","614317","0.0-12.0-0.5","4jkz6xklgk","many_one","0","indirect_first","0","dt07ob15","1","23","1","1","3","2","","0","1","0","2717","","","","","neg","CS","CS","1","category1/CS2.png","targets/22.png","","direct","","-48"
"","image-slider-response","290","616333","0.0-12.0-0.6","4jkz6xklgk","many_one","0","indirect_first","0","dt07ob15","1","23","1","1","3","2","","0","1","0","2010","","","","","pos","GS","GSold","2","category2/CS7.png","targets/47.png","","direct","","-25"
"","image-slider-response","291","619044","0.0-12.0-0.7","4jkz6xklgk","many_one","0","indirect_first","0","dt07ob15","1","23","1","1","3","2","","0","1","0","2707","","","","","pos","GS","GSnew","3","category3/GS2.png","targets/7.png","","direct","","29"
"","image-slider-response","292","621564","0.0-12.0-0.8","4jkz6xklgk","many_one","0","indirect_first","0","dt07ob15","1","23","1","1","3","2","","0","1","0","2514","","","","","pos","CS","CS","3","category3/CS8.png","targets/6.png","","direct","","20"
"","image-slider-response","293","625219","0.0-12.0-0.9","4jkz6xklgk","many_one","0","indirect_first","0","dt07ob15","1","23","1","1","3","2","","0","1","0","3650","","","","","neg","GS","GSnew","1","category1/GS1.png","targets/30.png","","direct","","-34"
"","image-slider-response","294","629307","0.0-12.0-0.10","4jkz6xklgk","many_one","0","indirect_first","0","dt07ob15","1","23","1","1","3","2","","0","1","0","4083","","","","","pos","GS","GSnew","3","category3/GS3.png","targets/33.png","","direct","","87"
"","image-slider-response","295","631866","0.0-12.0-0.11","4jkz6xklgk","many_one","0","indirect_first","0","dt07ob15","1","23","1","1","3","2","","0","1","0","2556","","","","","pos","GS","GSold","3","category3/CS10.png","targets/44.png","","direct","","65"
"","image-slider-response","296","634146","0.0-12.0-0.12","4jkz6xklgk","many_one","0","indirect_first","0","dt07ob15","1","23","1","1","3","2","","0","1","0","2276","","","","","neg","CS","CS","1","category1/CS4.png","targets/25.png","","direct","","-66"
"","image-slider-response","297","636770","0.0-12.0-0.13","4jkz6xklgk","many_one","0","indirect_first","0","dt07ob15","1","23","1","1","3","2","","0","1","0","2620","","","","","neg","GS","GSnew","1","category1/GS3.png","targets/29.png","","direct","","-100"
"","image-slider-response","298","639626","0.0-12.0-0.14","4jkz6xklgk","many_one","0","indirect_first","0","dt07ob15","1","23","1","1","3","2","","0","1","0","2849","","","","","pos","CS","CS","3","category3/CS9.png","targets/14.png","","direct","","67"
"","image-slider-response","299","641873","0.0-12.0-0.15","4jkz6xklgk","many_one","0","indirect_first","0","dt07ob15","1","23","1","1","3","2","","0","1","0","2244","","","","","pos","GS","GSold","2","category2/CS4.png","targets/26.png","","direct","","-71"
"","image-slider-response","300","645120","0.0-12.0-0.16","4jkz6xklgk","many_one","0","indirect_first","0","dt07ob15","1","23","1","1","3","2","","0","1","0","3243","","","","","neg","CS","CS","1","category1/CS3.png","targets/13.png","","direct","","-71"
"","image-slider-response","301","649504","0.0-12.0-0.17","4jkz6xklgk","many_one","0","indirect_first","0","dt07ob15","1","23","1","1","3","2","","0","1","0","4380","","","","","neg","CS","CS","4","category4/CS1.png","targets/24.png","","direct","","22"
"","image-slider-response","302","652240","0.0-12.0-0.18","4jkz6xklgk","many_one","0","indirect_first","0","dt07ob15","1","23","1","1","3","2","","0","1","0","2730","","","","","pos","CS","CS","2","category2/CS8.png","targets/2.png","","direct","","-30"
"","image-slider-response","303","654399","0.0-12.0-0.19","4jkz6xklgk","many_one","0","indirect_first","0","dt07ob15","1","23","1","1","3","2","","0","1","0","2154","","","","","neg","CS","CS","1","category1/CS8.png","targets/18.png","","direct","","-23"
"","image-slider-response","304","657450","0.0-12.0-0.20","4jkz6xklgk","many_one","0","indirect_first","0","dt07ob15","1","23","1","1","3","2","","0","1","0","3046","","","","","neg","GS","abstract","1","category1/ma.png","targets/21.png","","direct","","-42"
"","image-slider-response","305","659975","0.0-12.0-0.21","4jkz6xklgk","many_one","0","indirect_first","0","dt07ob15","1","23","1","1","3","2","","0","1","0","2522","","","","","pos","GS","GSnew","2","category2/GS3.png","targets/17.png","","direct","","34"
"","image-slider-response","306","662840","0.0-12.0-0.22","4jkz6xklgk","many_one","0","indirect_first","0","dt07ob15","1","23","1","1","3","2","","0","1","0","2858","","","","","pos","GS","GSnew","3","category3/GS1.png","targets/9.png","","direct","","84"
"","image-slider-response","307","666599","0.0-12.0-0.23","4jkz6xklgk","many_one","0","indirect_first","0","dt07ob15","1","23","1","1","3","2","","0","1","0","3753","","","","","neg","CS","CS","1","category1/CS1.png","targets/12.png","","direct","","40"
"","image-slider-response","308","670701","0.0-12.0-0.24","4jkz6xklgk","many_one","0","indirect_first","0","dt07ob15","1","23","1","1","3","2","","0","1","0","4098","","","","","neg","GS","GSold","4","category4/CS4.png","targets/8.png","","direct","","25"
"","image-slider-response","309","673093","0.0-12.0-0.25","4jkz6xklgk","many_one","0","indirect_first","0","dt07ob15","1","23","1","1","3","2","","0","1","0","2388","","","","","pos","CS","CS","2","category2/CS3.png","targets/1.png","","direct","","33"
"","image-slider-response","310","675861","0.0-12.0-0.26","4jkz6xklgk","many_one","0","indirect_first","0","dt07ob15","1","23","1","1","3","2","","0","1","0","2763","","","","","pos","CS","CS","2","category2/CS6.png","targets/36.png","","direct","","36"
"","image-slider-response","311","678397","0.0-12.0-0.27","4jkz6xklgk","many_one","0","indirect_first","0","dt07ob15","1","23","1","1","3","2","","0","1","0","2532","","","","","pos","GS","GSold","3","category3/CS7.png","targets/4.png","","direct","","41"
"","image-slider-response","312","680516","0.0-12.0-0.28","4jkz6xklgk","many_one","0","indirect_first","0","dt07ob15","1","23","1","1","3","2","","0","1","0","2116","","","","","pos","CS","CS","3","category3/CS2.png","targets/39.png","","direct","","38"
"","image-slider-response","313","682707","0.0-12.0-0.29","4jkz6xklgk","many_one","0","indirect_first","0","dt07ob15","1","23","1","1","3","2","","0","1","0","2185","","","","","neg","CS","CS","4","category4/CS3.png","targets/31.png","","direct","","19"
"","image-slider-response","314","684747","0.0-12.0-0.30","4jkz6xklgk","many_one","0","indirect_first","0","dt07ob15","1","23","1","1","3","2","","0","1","0","2036","","","","","pos","GS","abstract","3","category3/wang.png","targets/32.png","","direct","","97"
"","image-slider-response","315","687675","0.0-12.0-0.31","4jkz6xklgk","many_one","0","indirect_first","0","dt07ob15","1","23","1","1","3","2","","0","1","0","2924","","","","","pos","GS","abstract","2","category2/men.png","targets/35.png","","direct","","77"
"","image-slider-response","316","690418","0.0-12.0-0.32","4jkz6xklgk","many_one","0","indirect_first","0","dt07ob15","1","23","1","1","3","2","","0","1","0","2739","","","","","pos","GS","GSnew","2","category2/GS2.png","targets/43.png","","direct","","29"
"","image-slider-response","317","693531","0.0-12.0-0.33","4jkz6xklgk","many_one","0","indirect_first","0","dt07ob15","1","23","1","1","3","2","","0","1","0","3109","","","","","neg","GS","GSnew","4","category4/GS2.png","targets/10.png","","direct","","-57"
"","image-slider-response","318","697027","0.0-12.0-0.34","4jkz6xklgk","many_one","0","indirect_first","0","dt07ob15","1","23","1","1","3","2","","0","1","0","3492","","","","","neg","CS","CS","4","category4/CS10.png","targets/41.png","","direct","","1"
"","image-slider-response","319","699841","0.0-12.0-0.35","4jkz6xklgk","many_one","0","indirect_first","0","dt07ob15","1","23","1","1","3","2","","0","1","0","2810","","","","","pos","CS","CS","3","category3/CS6.png","targets/48.png","","direct","","28"
"","image-slider-response","320","702449","0.0-12.0-0.36","4jkz6xklgk","many_one","0","indirect_first","0","dt07ob15","1","23","1","1","3","2","","0","1","0","2604","","","","","pos","GS","GSnew","2","category2/GS1.png","targets/46.png","","direct","","-10"
"","image-slider-response","321","704337","0.0-12.0-0.37","4jkz6xklgk","many_one","0","indirect_first","0","dt07ob15","1","23","1","1","3","2","","0","1","0","1884","","","","","pos","CS","CS","2","category2/CS2.png","targets/38.png","","direct","","-25"
"","image-slider-response","322","706152","0.0-12.0-0.38","4jkz6xklgk","many_one","0","indirect_first","0","dt07ob15","1","23","1","1","3","2","","0","1","0","1812","","","","","neg","GS","GSold","4","category4/CS6.png","targets/16.png","","direct","","-11"
"","image-slider-response","323","708999","0.0-12.0-0.39","4jkz6xklgk","many_one","0","indirect_first","0","dt07ob15","1","23","1","1","3","2","","0","1","0","2844","","","","","neg","GS","GSnew","4","category4/GS3.png","targets/5.png","","direct","","-63"
"","image-slider-response","324","711008","0.0-12.0-0.40","4jkz6xklgk","many_one","0","indirect_first","0","dt07ob15","1","23","1","1","3","2","","0","1","0","2004","","","","","pos","GS","GSold","3","category3/CS1.png","targets/40.png","","direct","","16"
"","image-slider-response","325","712977","0.0-12.0-0.41","4jkz6xklgk","many_one","0","indirect_first","0","dt07ob15","1","23","1","1","3","2","","0","1","0","1966","","","","","neg","GS","GSold","1","category1/CS9.png","targets/11.png","","direct","","-21"
"","image-slider-response","326","715255","0.0-12.0-0.42","4jkz6xklgk","many_one","0","indirect_first","0","dt07ob15","1","23","1","1","3","2","","0","1","0","2275","","","","","neg","GS","GSnew","4","category4/GS1.png","targets/27.png","","direct","","-33"
"","image-slider-response","327","717071","0.0-12.0-0.43","4jkz6xklgk","many_one","0","indirect_first","0","dt07ob15","1","23","1","1","3","2","","0","1","0","1811","","","","","neg","GS","GSnew","1","category1/GS2.png","targets/28.png","","direct","","-22"
"","image-slider-response","328","718712","0.0-12.0-0.44","4jkz6xklgk","many_one","0","indirect_first","0","dt07ob15","1","23","1","1","3","2","","0","1","0","1636","","","","","neg","GS","GSold","1","category1/CS6.png","targets/3.png","","direct","","-15"
"","image-slider-response","329","721023","0.0-12.0-0.45","4jkz6xklgk","many_one","0","indirect_first","0","dt07ob15","1","23","1","1","3","2","","0","1","0","2308","","","","","neg","GS","abstract","4","category4/lin.png","targets/37.png","","direct","","66"
"","image-slider-response","330","722567","0.0-12.0-0.46","4jkz6xklgk","many_one","0","indirect_first","0","dt07ob15","1","23","1","1","3","2","","0","1","0","1536","","","","","neg","GS","GSold","1","category1/CS10.png","targets/19.png","","direct","","27"
