"success","trial_type","trial_index","time_elapsed","internal_node_id","subject","condition","condition_code","measure","measure_code","codeword","gender","age","education","chinese","fach","handedness","comment","hinschauen","ablenkung","gewissenhaft","rt","url","responses","stimulus","key_press","val","type","type_specific","category","cs_selected","response","target","task","indirect","nr_pres"
"true","fullscreen","0","7691","0.0-0.0","udpe7l7gfz","many_one","0","direct_first","1","an05do20","0","25","1","0","3","1","Für jemanden, der Chinesisch sprechen und lesen kann, war diese Studie äußerst merkwürdig. Diese teilweise nicht existierenden Zeichen bzw. die inkorrekte Aussprache zu sehen, hat sehr irritiert und abgelenkt. ","0","1","0","","","","","","","","","","","","","","",""
"","external-html","1","49112","0.0-1.0","udpe7l7gfz","many_one","0","direct_first","1","an05do20","0","25","1","0","3","1","Für jemanden, der Chinesisch sprechen und lesen kann, war diese Studie äußerst merkwürdig. Diese teilweise nicht existierenden Zeichen bzw. die inkorrekte Aussprache zu sehen, hat sehr irritiert und abgelenkt. ","0","1","0","41376.58999999985","text/information.html","","","","","","","","","","","","",""
"","external-html","2","60568","0.0-2.0","udpe7l7gfz","many_one","0","direct_first","1","an05do20","0","25","1","0","3","1","Für jemanden, der Chinesisch sprechen und lesen kann, war diese Studie äußerst merkwürdig. Diese teilweise nicht existierenden Zeichen bzw. die inkorrekte Aussprache zu sehen, hat sehr irritiert und abgelenkt. ","0","1","0","11406.110000098124","text/consent.html","","","","","","","","","","","","",""
"","survey-html-form","3","136343","0.0-3.0","udpe7l7gfz","many_one","0","direct_first","1","an05do20","0","25","1","0","3","1","Für jemanden, der Chinesisch sprechen und lesen kann, war diese Studie äußerst merkwürdig. Diese teilweise nicht existierenden Zeichen bzw. die inkorrekte Aussprache zu sehen, hat sehr irritiert und abgelenkt. ","0","1","0","75769.68499994837","","{""codeword_enter"":""an05do20""}","","","","","","","","","","","",""
"","survey-html-form","4","155449","0.0-4.0","udpe7l7gfz","many_one","0","direct_first","1","an05do20","0","25","1","0","3","1","Für jemanden, der Chinesisch sprechen und lesen kann, war diese Studie äußerst merkwürdig. Diese teilweise nicht existierenden Zeichen bzw. die inkorrekte Aussprache zu sehen, hat sehr irritiert und abgelenkt. ","0","1","0","19099.264999851584","","{""age"":""25"",""education"":""1"",""subject"":""3"",""gender"":""0"",""handedness"":""1"",""chinese"":""0""}","","","","","","","","","","","",""
"","survey-html-form","5","162033","0.0-5.0","udpe7l7gfz","many_one","0","direct_first","1","an05do20","0","25","1","0","3","1","Für jemanden, der Chinesisch sprechen und lesen kann, war diese Studie äußerst merkwürdig. Diese teilweise nicht existierenden Zeichen bzw. die inkorrekte Aussprache zu sehen, hat sehr irritiert und abgelenkt. ","0","1","0","6580.184999853373","","{}","","","","","","","","","","","",""
"","html-keyboard-response","6","166041","0.0-6.0-0.0-0.0","udpe7l7gfz","many_one","0","direct_first","1","an05do20","0","25","1","0","3","1","Für jemanden, der Chinesisch sprechen und lesen kann, war diese Studie äußerst merkwürdig. Diese teilweise nicht existierenden Zeichen bzw. die inkorrekte Aussprache zu sehen, hat sehr irritiert und abgelenkt. ","0","1","0","null","","","<div class = 'row'><div class = 'column'><img src = 'category3/CS6.png' width = '70%;'></div><div class = 'column'><img src = 'uspos/8490.bmp' width = '100%;'></div></div>","null","pos","CS","CS","3","category3/CS6.png","","","","",""
"","html-keyboard-response","7","168546","0.0-6.0-0.0-0.1","udpe7l7gfz","many_one","0","direct_first","1","an05do20","0","25","1","0","3","1","Für jemanden, der Chinesisch sprechen und lesen kann, war diese Studie äußerst merkwürdig. Diese teilweise nicht existierenden Zeichen bzw. die inkorrekte Aussprache zu sehen, hat sehr irritiert und abgelenkt. ","0","1","0","null","","","<div class = 'row'><div class = 'column'><img src = 'category4/CS3.png' width = '70%;'></div><div class = 'column'><img src = 'usneg/9330.bmp' width = '100%;'></div></div>","null","neg","CS","CS","4","category4/CS3.png","","","","",""
"","html-keyboard-response","8","171051","0.0-6.0-0.0-0.2","udpe7l7gfz","many_one","0","direct_first","1","an05do20","0","25","1","0","3","1","Für jemanden, der Chinesisch sprechen und lesen kann, war diese Studie äußerst merkwürdig. Diese teilweise nicht existierenden Zeichen bzw. die inkorrekte Aussprache zu sehen, hat sehr irritiert und abgelenkt. ","0","1","0","null","","","<div class = 'row'><div class = 'column'><img src = 'uspos/1463.bmp' width = '100%;'></div><div class = 'column'><img src = 'category3/CS7.png' width = '70%;'></div></div>","null","pos","CS","CS","3","category3/CS7.png","","","","",""
"","html-keyboard-response","9","173556","0.0-6.0-0.0-0.3","udpe7l7gfz","many_one","0","direct_first","1","an05do20","0","25","1","0","3","1","Für jemanden, der Chinesisch sprechen und lesen kann, war diese Studie äußerst merkwürdig. Diese teilweise nicht existierenden Zeichen bzw. die inkorrekte Aussprache zu sehen, hat sehr irritiert und abgelenkt. ","0","1","0","null","","","<div class = 'row'><div class = 'column'><img src = 'uspos/8461.bmp' width = '100%;'></div><div class = 'column'><img src = 'category3/CS10.png' width = '70%;'></div></div>","null","pos","CS","CS","3","category3/CS10.png","","","","",""
"","html-keyboard-response","10","176062","0.0-6.0-0.0-0.4","udpe7l7gfz","many_one","0","direct_first","1","an05do20","0","25","1","0","3","1","Für jemanden, der Chinesisch sprechen und lesen kann, war diese Studie äußerst merkwürdig. Diese teilweise nicht existierenden Zeichen bzw. die inkorrekte Aussprache zu sehen, hat sehr irritiert und abgelenkt. ","0","1","0","null","","","<div class = 'row'><div class = 'column'><img src = 'category3/CS1.png' width = '70%;'></div><div class = 'column'><img src = 'uspos/2550.bmp' width = '100%;'></div></div>","null","pos","CS","CS","3","category3/CS1.png","","","","",""
"","html-keyboard-response","11","178566","0.0-6.0-0.0-0.5","udpe7l7gfz","many_one","0","direct_first","1","an05do20","0","25","1","0","3","1","Für jemanden, der Chinesisch sprechen und lesen kann, war diese Studie äußerst merkwürdig. Diese teilweise nicht existierenden Zeichen bzw. die inkorrekte Aussprache zu sehen, hat sehr irritiert und abgelenkt. ","0","1","0","null","","","<div class = 'row'><div class = 'column'><img src = 'uspos/2160.bmp' width = '100%;'></div><div class = 'column'><img src = 'category3/CS2.png' width = '70%;'></div></div>","null","pos","CS","CS","3","category3/CS2.png","","","","",""
"","html-keyboard-response","12","181071","0.0-6.0-0.0-0.6","udpe7l7gfz","many_one","0","direct_first","1","an05do20","0","25","1","0","3","1","Für jemanden, der Chinesisch sprechen und lesen kann, war diese Studie äußerst merkwürdig. Diese teilweise nicht existierenden Zeichen bzw. die inkorrekte Aussprache zu sehen, hat sehr irritiert und abgelenkt. ","0","1","0","null","","","<div class = 'row'><div class = 'column'><img src = 'category4/CS1.png' width = '70%;'></div><div class = 'column'><img src = 'usneg/9560.bmp' width = '100%;'></div></div>","null","neg","CS","CS","4","category4/CS1.png","","","","",""
"","html-keyboard-response","13","183576","0.0-6.0-0.0-0.7","udpe7l7gfz","many_one","0","direct_first","1","an05do20","0","25","1","0","3","1","Für jemanden, der Chinesisch sprechen und lesen kann, war diese Studie äußerst merkwürdig. Diese teilweise nicht existierenden Zeichen bzw. die inkorrekte Aussprache zu sehen, hat sehr irritiert und abgelenkt. ","0","1","0","null","","","<div class = 'row'><div class = 'column'><img src = 'category4/CS7.png' width = '70%;'></div><div class = 'column'><img src = 'usneg/9415.bmp' width = '100%;'></div></div>","null","neg","CS","CS","4","category4/CS7.png","","","","",""
"","html-keyboard-response","14","186081","0.0-6.0-0.0-0.8","udpe7l7gfz","many_one","0","direct_first","1","an05do20","0","25","1","0","3","1","Für jemanden, der Chinesisch sprechen und lesen kann, war diese Studie äußerst merkwürdig. Diese teilweise nicht existierenden Zeichen bzw. die inkorrekte Aussprache zu sehen, hat sehr irritiert und abgelenkt. ","0","1","0","null","","","<div class = 'row'><div class = 'column'><img src = 'uspos/7325.bmp' width = '100%;'></div><div class = 'column'><img src = 'category2/CS8.png' width = '70%;'></div></div>","null","pos","CS","CS","2","category2/CS8.png","","","","",""
"","html-keyboard-response","15","188586","0.0-6.0-0.0-0.9","udpe7l7gfz","many_one","0","direct_first","1","an05do20","0","25","1","0","3","1","Für jemanden, der Chinesisch sprechen und lesen kann, war diese Studie äußerst merkwürdig. Diese teilweise nicht existierenden Zeichen bzw. die inkorrekte Aussprache zu sehen, hat sehr irritiert und abgelenkt. ","0","1","0","null","","","<div class = 'row'><div class = 'column'><img src = 'category1/CS4.png' width = '70%;'></div><div class = 'column'><img src = 'usneg/3300.bmp' width = '100%;'></div></div>","null","neg","CS","CS","1","category1/CS4.png","","","","",""
"","html-keyboard-response","16","191090","0.0-6.0-0.0-0.10","udpe7l7gfz","many_one","0","direct_first","1","an05do20","0","25","1","0","3","1","Für jemanden, der Chinesisch sprechen und lesen kann, war diese Studie äußerst merkwürdig. Diese teilweise nicht existierenden Zeichen bzw. die inkorrekte Aussprache zu sehen, hat sehr irritiert und abgelenkt. ","0","1","0","null","","","<div class = 'row'><div class = 'column'><img src = 'usneg/9830.bmp' width = '100%;'></div><div class = 'column'><img src = 'category1/CS3.png' width = '70%;'></div></div>","null","neg","CS","CS","1","category1/CS3.png","","","","",""
"","html-keyboard-response","17","193596","0.0-6.0-0.0-0.11","udpe7l7gfz","many_one","0","direct_first","1","an05do20","0","25","1","0","3","1","Für jemanden, der Chinesisch sprechen und lesen kann, war diese Studie äußerst merkwürdig. Diese teilweise nicht existierenden Zeichen bzw. die inkorrekte Aussprache zu sehen, hat sehr irritiert und abgelenkt. ","0","1","0","null","","","<div class = 'row'><div class = 'column'><img src = 'usneg/3181.bmp' width = '100%;'></div><div class = 'column'><img src = 'category1/CS8.png' width = '70%;'></div></div>","null","neg","CS","CS","1","category1/CS8.png","","","","",""
"","html-keyboard-response","18","196102","0.0-6.0-0.0-0.12","udpe7l7gfz","many_one","0","direct_first","1","an05do20","0","25","1","0","3","1","Für jemanden, der Chinesisch sprechen und lesen kann, war diese Studie äußerst merkwürdig. Diese teilweise nicht existierenden Zeichen bzw. die inkorrekte Aussprache zu sehen, hat sehr irritiert und abgelenkt. ","0","1","0","null","","","<div class = 'row'><div class = 'column'><img src = 'uspos/2340.bmp' width = '100%;'></div><div class = 'column'><img src = 'category2/CS3.png' width = '70%;'></div></div>","null","pos","CS","CS","2","category2/CS3.png","","","","",""
"","html-keyboard-response","19","198607","0.0-6.0-0.0-0.13","udpe7l7gfz","many_one","0","direct_first","1","an05do20","0","25","1","0","3","1","Für jemanden, der Chinesisch sprechen und lesen kann, war diese Studie äußerst merkwürdig. Diese teilweise nicht existierenden Zeichen bzw. die inkorrekte Aussprache zu sehen, hat sehr irritiert und abgelenkt. ","0","1","0","null","","","<div class = 'row'><div class = 'column'><img src = 'category2/CS1.png' width = '70%;'></div><div class = 'column'><img src = 'uspos/1460.bmp' width = '100%;'></div></div>","null","pos","CS","CS","2","category2/CS1.png","","","","",""
"","html-keyboard-response","20","201110","0.0-6.0-0.0-0.14","udpe7l7gfz","many_one","0","direct_first","1","an05do20","0","25","1","0","3","1","Für jemanden, der Chinesisch sprechen und lesen kann, war diese Studie äußerst merkwürdig. Diese teilweise nicht existierenden Zeichen bzw. die inkorrekte Aussprache zu sehen, hat sehr irritiert und abgelenkt. ","0","1","0","null","","","<div class = 'row'><div class = 'column'><img src = 'usneg/6212.bmp' width = '100%;'></div><div class = 'column'><img src = 'category4/CS5.png' width = '70%;'></div></div>","null","neg","CS","CS","4","category4/CS5.png","","","","",""
"","html-keyboard-response","21","203616","0.0-6.0-0.0-0.15","udpe7l7gfz","many_one","0","direct_first","1","an05do20","0","25","1","0","3","1","Für jemanden, der Chinesisch sprechen und lesen kann, war diese Studie äußerst merkwürdig. Diese teilweise nicht existierenden Zeichen bzw. die inkorrekte Aussprache zu sehen, hat sehr irritiert und abgelenkt. ","0","1","0","null","","","<div class = 'row'><div class = 'column'><img src = 'category1/CS6.png' width = '70%;'></div><div class = 'column'><img src = 'usneg/6570.1.bmp' width = '100%;'></div></div>","null","neg","CS","CS","1","category1/CS6.png","","","","",""
"","html-keyboard-response","22","206121","0.0-6.0-0.0-0.16","udpe7l7gfz","many_one","0","direct_first","1","an05do20","0","25","1","0","3","1","Für jemanden, der Chinesisch sprechen und lesen kann, war diese Studie äußerst merkwürdig. Diese teilweise nicht existierenden Zeichen bzw. die inkorrekte Aussprache zu sehen, hat sehr irritiert und abgelenkt. ","0","1","0","null","","","<div class = 'row'><div class = 'column'><img src = 'uspos/2150.bmp' width = '100%;'></div><div class = 'column'><img src = 'category2/CS4.png' width = '70%;'></div></div>","null","pos","CS","CS","2","category2/CS4.png","","","","",""
"","html-keyboard-response","23","208626","0.0-6.0-0.0-0.17","udpe7l7gfz","many_one","0","direct_first","1","an05do20","0","25","1","0","3","1","Für jemanden, der Chinesisch sprechen und lesen kann, war diese Studie äußerst merkwürdig. Diese teilweise nicht existierenden Zeichen bzw. die inkorrekte Aussprache zu sehen, hat sehr irritiert und abgelenkt. ","0","1","0","null","","","<div class = 'row'><div class = 'column'><img src = 'category2/CS9.png' width = '70%;'></div><div class = 'column'><img src = 'uspos/8080.bmp' width = '100%;'></div></div>","null","pos","CS","CS","2","category2/CS9.png","","","","",""
"","html-keyboard-response","24","211131","0.0-6.0-0.0-0.18","udpe7l7gfz","many_one","0","direct_first","1","an05do20","0","25","1","0","3","1","Für jemanden, der Chinesisch sprechen und lesen kann, war diese Studie äußerst merkwürdig. Diese teilweise nicht existierenden Zeichen bzw. die inkorrekte Aussprache zu sehen, hat sehr irritiert und abgelenkt. ","0","1","0","null","","","<div class = 'row'><div class = 'column'><img src = 'category4/CS8.png' width = '70%;'></div><div class = 'column'><img src = 'usneg/9421.bmp' width = '100%;'></div></div>","null","neg","CS","CS","4","category4/CS8.png","","","","",""
"","html-keyboard-response","25","213635","0.0-6.0-0.0-0.19","udpe7l7gfz","many_one","0","direct_first","1","an05do20","0","25","1","0","3","1","Für jemanden, der Chinesisch sprechen und lesen kann, war diese Studie äußerst merkwürdig. Diese teilweise nicht existierenden Zeichen bzw. die inkorrekte Aussprache zu sehen, hat sehr irritiert und abgelenkt. ","0","1","0","null","","","<div class = 'row'><div class = 'column'><img src = 'category1/CS10.png' width = '70%;'></div><div class = 'column'><img src = 'usneg/6020.bmp' width = '100%;'></div></div>","null","neg","CS","CS","1","category1/CS10.png","","","","",""
"","survey-html-form","26","218121","0.0-6.0-1.0","udpe7l7gfz","many_one","0","direct_first","1","an05do20","0","25","1","0","3","1","Für jemanden, der Chinesisch sprechen und lesen kann, war diese Studie äußerst merkwürdig. Diese teilweise nicht existierenden Zeichen bzw. die inkorrekte Aussprache zu sehen, hat sehr irritiert und abgelenkt. ","0","1","0","3982.1450000163168","","{}","","","","","","","","","","","",""
"","html-keyboard-response","27","222128","0.0-6.0-2.0-0.0","udpe7l7gfz","many_one","0","direct_first","1","an05do20","0","25","1","0","3","1","Für jemanden, der Chinesisch sprechen und lesen kann, war diese Studie äußerst merkwürdig. Diese teilweise nicht existierenden Zeichen bzw. die inkorrekte Aussprache zu sehen, hat sehr irritiert und abgelenkt. ","0","1","0","null","","","<div class = 'row'><div class = 'column'><img src = 'category4/CS3.png' width = '70%;'></div><div class = 'column'><img src = 'usneg/9330.bmp' width = '100%;'></div></div>","null","neg","CS","CS","4","category4/CS3.png","","","","",""
"","html-keyboard-response","28","224634","0.0-6.0-2.0-0.1","udpe7l7gfz","many_one","0","direct_first","1","an05do20","0","25","1","0","3","1","Für jemanden, der Chinesisch sprechen und lesen kann, war diese Studie äußerst merkwürdig. Diese teilweise nicht existierenden Zeichen bzw. die inkorrekte Aussprache zu sehen, hat sehr irritiert und abgelenkt. ","0","1","0","null","","","<div class = 'row'><div class = 'column'><img src = 'category4/CS7.png' width = '70%;'></div><div class = 'column'><img src = 'usneg/9415.bmp' width = '100%;'></div></div>","null","neg","CS","CS","4","category4/CS7.png","","","","",""
"","html-keyboard-response","29","227138","0.0-6.0-2.0-0.2","udpe7l7gfz","many_one","0","direct_first","1","an05do20","0","25","1","0","3","1","Für jemanden, der Chinesisch sprechen und lesen kann, war diese Studie äußerst merkwürdig. Diese teilweise nicht existierenden Zeichen bzw. die inkorrekte Aussprache zu sehen, hat sehr irritiert und abgelenkt. ","0","1","0","null","","","<div class = 'row'><div class = 'column'><img src = 'category1/CS8.png' width = '70%;'></div><div class = 'column'><img src = 'usneg/3181.bmp' width = '100%;'></div></div>","null","neg","CS","CS","1","category1/CS8.png","","","","",""
"","html-keyboard-response","30","229641","0.0-6.0-2.0-0.3","udpe7l7gfz","many_one","0","direct_first","1","an05do20","0","25","1","0","3","1","Für jemanden, der Chinesisch sprechen und lesen kann, war diese Studie äußerst merkwürdig. Diese teilweise nicht existierenden Zeichen bzw. die inkorrekte Aussprache zu sehen, hat sehr irritiert und abgelenkt. ","0","1","0","null","","","<div class = 'row'><div class = 'column'><img src = 'uspos/2340.bmp' width = '100%;'></div><div class = 'column'><img src = 'category2/CS3.png' width = '70%;'></div></div>","null","pos","CS","CS","2","category2/CS3.png","","","","",""
"","html-keyboard-response","31","232146","0.0-6.0-2.0-0.4","udpe7l7gfz","many_one","0","direct_first","1","an05do20","0","25","1","0","3","1","Für jemanden, der Chinesisch sprechen und lesen kann, war diese Studie äußerst merkwürdig. Diese teilweise nicht existierenden Zeichen bzw. die inkorrekte Aussprache zu sehen, hat sehr irritiert und abgelenkt. ","0","1","0","null","","","<div class = 'row'><div class = 'column'><img src = 'category1/CS10.png' width = '70%;'></div><div class = 'column'><img src = 'usneg/6020.bmp' width = '100%;'></div></div>","null","neg","CS","CS","1","category1/CS10.png","","","","",""
"","html-keyboard-response","32","234649","0.0-6.0-2.0-0.5","udpe7l7gfz","many_one","0","direct_first","1","an05do20","0","25","1","0","3","1","Für jemanden, der Chinesisch sprechen und lesen kann, war diese Studie äußerst merkwürdig. Diese teilweise nicht existierenden Zeichen bzw. die inkorrekte Aussprache zu sehen, hat sehr irritiert und abgelenkt. ","0","1","0","null","","","<div class = 'row'><div class = 'column'><img src = 'uspos/1460.bmp' width = '100%;'></div><div class = 'column'><img src = 'category2/CS1.png' width = '70%;'></div></div>","null","pos","CS","CS","2","category2/CS1.png","","","","",""
"","html-keyboard-response","33","237155","0.0-6.0-2.0-0.6","udpe7l7gfz","many_one","0","direct_first","1","an05do20","0","25","1","0","3","1","Für jemanden, der Chinesisch sprechen und lesen kann, war diese Studie äußerst merkwürdig. Diese teilweise nicht existierenden Zeichen bzw. die inkorrekte Aussprache zu sehen, hat sehr irritiert und abgelenkt. ","0","1","0","null","","","<div class = 'row'><div class = 'column'><img src = 'usneg/9421.bmp' width = '100%;'></div><div class = 'column'><img src = 'category4/CS8.png' width = '70%;'></div></div>","null","neg","CS","CS","4","category4/CS8.png","","","","",""
"","html-keyboard-response","34","239659","0.0-6.0-2.0-0.7","udpe7l7gfz","many_one","0","direct_first","1","an05do20","0","25","1","0","3","1","Für jemanden, der Chinesisch sprechen und lesen kann, war diese Studie äußerst merkwürdig. Diese teilweise nicht existierenden Zeichen bzw. die inkorrekte Aussprache zu sehen, hat sehr irritiert und abgelenkt. ","0","1","0","null","","","<div class = 'row'><div class = 'column'><img src = 'category3/CS2.png' width = '70%;'></div><div class = 'column'><img src = 'uspos/2160.bmp' width = '100%;'></div></div>","null","pos","CS","CS","3","category3/CS2.png","","","","",""
"","html-keyboard-response","35","242165","0.0-6.0-2.0-0.8","udpe7l7gfz","many_one","0","direct_first","1","an05do20","0","25","1","0","3","1","Für jemanden, der Chinesisch sprechen und lesen kann, war diese Studie äußerst merkwürdig. Diese teilweise nicht existierenden Zeichen bzw. die inkorrekte Aussprache zu sehen, hat sehr irritiert und abgelenkt. ","0","1","0","null","","","<div class = 'row'><div class = 'column'><img src = 'category2/CS4.png' width = '70%;'></div><div class = 'column'><img src = 'uspos/2150.bmp' width = '100%;'></div></div>","null","pos","CS","CS","2","category2/CS4.png","","","","",""
"","html-keyboard-response","36","244670","0.0-6.0-2.0-0.9","udpe7l7gfz","many_one","0","direct_first","1","an05do20","0","25","1","0","3","1","Für jemanden, der Chinesisch sprechen und lesen kann, war diese Studie äußerst merkwürdig. Diese teilweise nicht existierenden Zeichen bzw. die inkorrekte Aussprache zu sehen, hat sehr irritiert und abgelenkt. ","0","1","0","null","","","<div class = 'row'><div class = 'column'><img src = 'category1/CS3.png' width = '70%;'></div><div class = 'column'><img src = 'usneg/9830.bmp' width = '100%;'></div></div>","null","neg","CS","CS","1","category1/CS3.png","","","","",""
"","html-keyboard-response","37","247175","0.0-6.0-2.0-0.10","udpe7l7gfz","many_one","0","direct_first","1","an05do20","0","25","1","0","3","1","Für jemanden, der Chinesisch sprechen und lesen kann, war diese Studie äußerst merkwürdig. Diese teilweise nicht existierenden Zeichen bzw. die inkorrekte Aussprache zu sehen, hat sehr irritiert und abgelenkt. ","0","1","0","null","","","<div class = 'row'><div class = 'column'><img src = 'uspos/8080.bmp' width = '100%;'></div><div class = 'column'><img src = 'category2/CS9.png' width = '70%;'></div></div>","null","pos","CS","CS","2","category2/CS9.png","","","","",""
"","html-keyboard-response","38","249679","0.0-6.0-2.0-0.11","udpe7l7gfz","many_one","0","direct_first","1","an05do20","0","25","1","0","3","1","Für jemanden, der Chinesisch sprechen und lesen kann, war diese Studie äußerst merkwürdig. Diese teilweise nicht existierenden Zeichen bzw. die inkorrekte Aussprache zu sehen, hat sehr irritiert und abgelenkt. ","0","1","0","null","","","<div class = 'row'><div class = 'column'><img src = 'category3/CS6.png' width = '70%;'></div><div class = 'column'><img src = 'uspos/8490.bmp' width = '100%;'></div></div>","null","pos","CS","CS","3","category3/CS6.png","","","","",""
"","html-keyboard-response","39","252185","0.0-6.0-2.0-0.12","udpe7l7gfz","many_one","0","direct_first","1","an05do20","0","25","1","0","3","1","Für jemanden, der Chinesisch sprechen und lesen kann, war diese Studie äußerst merkwürdig. Diese teilweise nicht existierenden Zeichen bzw. die inkorrekte Aussprache zu sehen, hat sehr irritiert und abgelenkt. ","0","1","0","null","","","<div class = 'row'><div class = 'column'><img src = 'category4/CS5.png' width = '70%;'></div><div class = 'column'><img src = 'usneg/6212.bmp' width = '100%;'></div></div>","null","neg","CS","CS","4","category4/CS5.png","","","","",""
"","html-keyboard-response","40","254690","0.0-6.0-2.0-0.13","udpe7l7gfz","many_one","0","direct_first","1","an05do20","0","25","1","0","3","1","Für jemanden, der Chinesisch sprechen und lesen kann, war diese Studie äußerst merkwürdig. Diese teilweise nicht existierenden Zeichen bzw. die inkorrekte Aussprache zu sehen, hat sehr irritiert und abgelenkt. ","0","1","0","null","","","<div class = 'row'><div class = 'column'><img src = 'category4/CS1.png' width = '70%;'></div><div class = 'column'><img src = 'usneg/9560.bmp' width = '100%;'></div></div>","null","neg","CS","CS","4","category4/CS1.png","","","","",""
"","html-keyboard-response","41","257198","0.0-6.0-2.0-0.14","udpe7l7gfz","many_one","0","direct_first","1","an05do20","0","25","1","0","3","1","Für jemanden, der Chinesisch sprechen und lesen kann, war diese Studie äußerst merkwürdig. Diese teilweise nicht existierenden Zeichen bzw. die inkorrekte Aussprache zu sehen, hat sehr irritiert und abgelenkt. ","0","1","0","null","","","<div class = 'row'><div class = 'column'><img src = 'uspos/1463.bmp' width = '100%;'></div><div class = 'column'><img src = 'category3/CS7.png' width = '70%;'></div></div>","null","pos","CS","CS","3","category3/CS7.png","","","","",""
"","html-keyboard-response","42","259703","0.0-6.0-2.0-0.15","udpe7l7gfz","many_one","0","direct_first","1","an05do20","0","25","1","0","3","1","Für jemanden, der Chinesisch sprechen und lesen kann, war diese Studie äußerst merkwürdig. Diese teilweise nicht existierenden Zeichen bzw. die inkorrekte Aussprache zu sehen, hat sehr irritiert und abgelenkt. ","0","1","0","null","","","<div class = 'row'><div class = 'column'><img src = 'category3/CS1.png' width = '70%;'></div><div class = 'column'><img src = 'uspos/2550.bmp' width = '100%;'></div></div>","null","pos","CS","CS","3","category3/CS1.png","","","","",""
"","html-keyboard-response","43","262207","0.0-6.0-2.0-0.16","udpe7l7gfz","many_one","0","direct_first","1","an05do20","0","25","1","0","3","1","Für jemanden, der Chinesisch sprechen und lesen kann, war diese Studie äußerst merkwürdig. Diese teilweise nicht existierenden Zeichen bzw. die inkorrekte Aussprache zu sehen, hat sehr irritiert und abgelenkt. ","0","1","0","null","","","<div class = 'row'><div class = 'column'><img src = 'category3/CS10.png' width = '70%;'></div><div class = 'column'><img src = 'uspos/8461.bmp' width = '100%;'></div></div>","null","pos","CS","CS","3","category3/CS10.png","","","","",""
"","html-keyboard-response","44","264713","0.0-6.0-2.0-0.17","udpe7l7gfz","many_one","0","direct_first","1","an05do20","0","25","1","0","3","1","Für jemanden, der Chinesisch sprechen und lesen kann, war diese Studie äußerst merkwürdig. Diese teilweise nicht existierenden Zeichen bzw. die inkorrekte Aussprache zu sehen, hat sehr irritiert und abgelenkt. ","0","1","0","null","","","<div class = 'row'><div class = 'column'><img src = 'category1/CS6.png' width = '70%;'></div><div class = 'column'><img src = 'usneg/6570.1.bmp' width = '100%;'></div></div>","null","neg","CS","CS","1","category1/CS6.png","","","","",""
"","html-keyboard-response","45","267217","0.0-6.0-2.0-0.18","udpe7l7gfz","many_one","0","direct_first","1","an05do20","0","25","1","0","3","1","Für jemanden, der Chinesisch sprechen und lesen kann, war diese Studie äußerst merkwürdig. Diese teilweise nicht existierenden Zeichen bzw. die inkorrekte Aussprache zu sehen, hat sehr irritiert und abgelenkt. ","0","1","0","null","","","<div class = 'row'><div class = 'column'><img src = 'uspos/7325.bmp' width = '100%;'></div><div class = 'column'><img src = 'category2/CS8.png' width = '70%;'></div></div>","null","pos","CS","CS","2","category2/CS8.png","","","","",""
"","html-keyboard-response","46","269722","0.0-6.0-2.0-0.19","udpe7l7gfz","many_one","0","direct_first","1","an05do20","0","25","1","0","3","1","Für jemanden, der Chinesisch sprechen und lesen kann, war diese Studie äußerst merkwürdig. Diese teilweise nicht existierenden Zeichen bzw. die inkorrekte Aussprache zu sehen, hat sehr irritiert und abgelenkt. ","0","1","0","null","","","<div class = 'row'><div class = 'column'><img src = 'usneg/3300.bmp' width = '100%;'></div><div class = 'column'><img src = 'category1/CS4.png' width = '70%;'></div></div>","null","neg","CS","CS","1","category1/CS4.png","","","","",""
"","survey-html-form","47","304595","0.0-6.0-3.0","udpe7l7gfz","many_one","0","direct_first","1","an05do20","0","25","1","0","3","1","Für jemanden, der Chinesisch sprechen und lesen kann, war diese Studie äußerst merkwürdig. Diese teilweise nicht existierenden Zeichen bzw. die inkorrekte Aussprache zu sehen, hat sehr irritiert und abgelenkt. ","0","1","0","34371.57000019215","","{}","","","","","","","","","","","",""
"","html-keyboard-response","48","308602","0.0-6.0-4.0-0.0","udpe7l7gfz","many_one","0","direct_first","1","an05do20","0","25","1","0","3","1","Für jemanden, der Chinesisch sprechen und lesen kann, war diese Studie äußerst merkwürdig. Diese teilweise nicht existierenden Zeichen bzw. die inkorrekte Aussprache zu sehen, hat sehr irritiert und abgelenkt. ","0","1","0","null","","","<div class = 'row'><div class = 'column'><img src = 'uspos/8490.bmp' width = '100%;'></div><div class = 'column'><img src = 'category3/CS6.png' width = '70%;'></div></div>","null","pos","CS","CS","3","category3/CS6.png","","","","",""
"","html-keyboard-response","49","311107","0.0-6.0-4.0-0.1","udpe7l7gfz","many_one","0","direct_first","1","an05do20","0","25","1","0","3","1","Für jemanden, der Chinesisch sprechen und lesen kann, war diese Studie äußerst merkwürdig. Diese teilweise nicht existierenden Zeichen bzw. die inkorrekte Aussprache zu sehen, hat sehr irritiert und abgelenkt. ","0","1","0","null","","","<div class = 'row'><div class = 'column'><img src = 'category1/CS8.png' width = '70%;'></div><div class = 'column'><img src = 'usneg/3181.bmp' width = '100%;'></div></div>","null","neg","CS","CS","1","category1/CS8.png","","","","",""
"","html-keyboard-response","50","313613","0.0-6.0-4.0-0.2","udpe7l7gfz","many_one","0","direct_first","1","an05do20","0","25","1","0","3","1","Für jemanden, der Chinesisch sprechen und lesen kann, war diese Studie äußerst merkwürdig. Diese teilweise nicht existierenden Zeichen bzw. die inkorrekte Aussprache zu sehen, hat sehr irritiert und abgelenkt. ","0","1","0","null","","","<div class = 'row'><div class = 'column'><img src = 'usneg/9415.bmp' width = '100%;'></div><div class = 'column'><img src = 'category4/CS7.png' width = '70%;'></div></div>","null","neg","CS","CS","4","category4/CS7.png","","","","",""
"","html-keyboard-response","51","316118","0.0-6.0-4.0-0.3","udpe7l7gfz","many_one","0","direct_first","1","an05do20","0","25","1","0","3","1","Für jemanden, der Chinesisch sprechen und lesen kann, war diese Studie äußerst merkwürdig. Diese teilweise nicht existierenden Zeichen bzw. die inkorrekte Aussprache zu sehen, hat sehr irritiert und abgelenkt. ","0","1","0","null","","","<div class = 'row'><div class = 'column'><img src = 'category1/CS10.png' width = '70%;'></div><div class = 'column'><img src = 'usneg/6020.bmp' width = '100%;'></div></div>","null","neg","CS","CS","1","category1/CS10.png","","","","",""
"","html-keyboard-response","52","318624","0.0-6.0-4.0-0.4","udpe7l7gfz","many_one","0","direct_first","1","an05do20","0","25","1","0","3","1","Für jemanden, der Chinesisch sprechen und lesen kann, war diese Studie äußerst merkwürdig. Diese teilweise nicht existierenden Zeichen bzw. die inkorrekte Aussprache zu sehen, hat sehr irritiert und abgelenkt. ","0","1","0","null","","","<div class = 'row'><div class = 'column'><img src = 'category3/CS7.png' width = '70%;'></div><div class = 'column'><img src = 'uspos/1463.bmp' width = '100%;'></div></div>","null","pos","CS","CS","3","category3/CS7.png","","","","",""
"","html-keyboard-response","53","321129","0.0-6.0-4.0-0.5","udpe7l7gfz","many_one","0","direct_first","1","an05do20","0","25","1","0","3","1","Für jemanden, der Chinesisch sprechen und lesen kann, war diese Studie äußerst merkwürdig. Diese teilweise nicht existierenden Zeichen bzw. die inkorrekte Aussprache zu sehen, hat sehr irritiert und abgelenkt. ","0","1","0","null","","","<div class = 'row'><div class = 'column'><img src = 'uspos/2340.bmp' width = '100%;'></div><div class = 'column'><img src = 'category2/CS3.png' width = '70%;'></div></div>","null","pos","CS","CS","2","category2/CS3.png","","","","",""
"","html-keyboard-response","54","323634","0.0-6.0-4.0-0.6","udpe7l7gfz","many_one","0","direct_first","1","an05do20","0","25","1","0","3","1","Für jemanden, der Chinesisch sprechen und lesen kann, war diese Studie äußerst merkwürdig. Diese teilweise nicht existierenden Zeichen bzw. die inkorrekte Aussprache zu sehen, hat sehr irritiert und abgelenkt. ","0","1","0","null","","","<div class = 'row'><div class = 'column'><img src = 'usneg/6212.bmp' width = '100%;'></div><div class = 'column'><img src = 'category4/CS5.png' width = '70%;'></div></div>","null","neg","CS","CS","4","category4/CS5.png","","","","",""
"","html-keyboard-response","55","326139","0.0-6.0-4.0-0.7","udpe7l7gfz","many_one","0","direct_first","1","an05do20","0","25","1","0","3","1","Für jemanden, der Chinesisch sprechen und lesen kann, war diese Studie äußerst merkwürdig. Diese teilweise nicht existierenden Zeichen bzw. die inkorrekte Aussprache zu sehen, hat sehr irritiert und abgelenkt. ","0","1","0","null","","","<div class = 'row'><div class = 'column'><img src = 'category4/CS8.png' width = '70%;'></div><div class = 'column'><img src = 'usneg/9421.bmp' width = '100%;'></div></div>","null","neg","CS","CS","4","category4/CS8.png","","","","",""
"","html-keyboard-response","56","328647","0.0-6.0-4.0-0.8","udpe7l7gfz","many_one","0","direct_first","1","an05do20","0","25","1","0","3","1","Für jemanden, der Chinesisch sprechen und lesen kann, war diese Studie äußerst merkwürdig. Diese teilweise nicht existierenden Zeichen bzw. die inkorrekte Aussprache zu sehen, hat sehr irritiert und abgelenkt. ","0","1","0","null","","","<div class = 'row'><div class = 'column'><img src = 'category4/CS3.png' width = '70%;'></div><div class = 'column'><img src = 'usneg/9330.bmp' width = '100%;'></div></div>","null","neg","CS","CS","4","category4/CS3.png","","","","",""
"","html-keyboard-response","57","331152","0.0-6.0-4.0-0.9","udpe7l7gfz","many_one","0","direct_first","1","an05do20","0","25","1","0","3","1","Für jemanden, der Chinesisch sprechen und lesen kann, war diese Studie äußerst merkwürdig. Diese teilweise nicht existierenden Zeichen bzw. die inkorrekte Aussprache zu sehen, hat sehr irritiert und abgelenkt. ","0","1","0","null","","","<div class = 'row'><div class = 'column'><img src = 'uspos/2160.bmp' width = '100%;'></div><div class = 'column'><img src = 'category3/CS2.png' width = '70%;'></div></div>","null","pos","CS","CS","3","category3/CS2.png","","","","",""
"","html-keyboard-response","58","333657","0.0-6.0-4.0-0.10","udpe7l7gfz","many_one","0","direct_first","1","an05do20","0","25","1","0","3","1","Für jemanden, der Chinesisch sprechen und lesen kann, war diese Studie äußerst merkwürdig. Diese teilweise nicht existierenden Zeichen bzw. die inkorrekte Aussprache zu sehen, hat sehr irritiert und abgelenkt. ","0","1","0","null","","","<div class = 'row'><div class = 'column'><img src = 'uspos/7325.bmp' width = '100%;'></div><div class = 'column'><img src = 'category2/CS8.png' width = '70%;'></div></div>","null","pos","CS","CS","2","category2/CS8.png","","","","",""
"","html-keyboard-response","59","336162","0.0-6.0-4.0-0.11","udpe7l7gfz","many_one","0","direct_first","1","an05do20","0","25","1","0","3","1","Für jemanden, der Chinesisch sprechen und lesen kann, war diese Studie äußerst merkwürdig. Diese teilweise nicht existierenden Zeichen bzw. die inkorrekte Aussprache zu sehen, hat sehr irritiert und abgelenkt. ","0","1","0","null","","","<div class = 'row'><div class = 'column'><img src = 'category3/CS10.png' width = '70%;'></div><div class = 'column'><img src = 'uspos/8461.bmp' width = '100%;'></div></div>","null","pos","CS","CS","3","category3/CS10.png","","","","",""
"","html-keyboard-response","60","338667","0.0-6.0-4.0-0.12","udpe7l7gfz","many_one","0","direct_first","1","an05do20","0","25","1","0","3","1","Für jemanden, der Chinesisch sprechen und lesen kann, war diese Studie äußerst merkwürdig. Diese teilweise nicht existierenden Zeichen bzw. die inkorrekte Aussprache zu sehen, hat sehr irritiert und abgelenkt. ","0","1","0","null","","","<div class = 'row'><div class = 'column'><img src = 'category2/CS4.png' width = '70%;'></div><div class = 'column'><img src = 'uspos/2150.bmp' width = '100%;'></div></div>","null","pos","CS","CS","2","category2/CS4.png","","","","",""
"","html-keyboard-response","61","341172","0.0-6.0-4.0-0.13","udpe7l7gfz","many_one","0","direct_first","1","an05do20","0","25","1","0","3","1","Für jemanden, der Chinesisch sprechen und lesen kann, war diese Studie äußerst merkwürdig. Diese teilweise nicht existierenden Zeichen bzw. die inkorrekte Aussprache zu sehen, hat sehr irritiert und abgelenkt. ","0","1","0","null","","","<div class = 'row'><div class = 'column'><img src = 'category1/CS3.png' width = '70%;'></div><div class = 'column'><img src = 'usneg/9830.bmp' width = '100%;'></div></div>","null","neg","CS","CS","1","category1/CS3.png","","","","",""
"","html-keyboard-response","62","343676","0.0-6.0-4.0-0.14","udpe7l7gfz","many_one","0","direct_first","1","an05do20","0","25","1","0","3","1","Für jemanden, der Chinesisch sprechen und lesen kann, war diese Studie äußerst merkwürdig. Diese teilweise nicht existierenden Zeichen bzw. die inkorrekte Aussprache zu sehen, hat sehr irritiert und abgelenkt. ","0","1","0","null","","","<div class = 'row'><div class = 'column'><img src = 'usneg/9560.bmp' width = '100%;'></div><div class = 'column'><img src = 'category4/CS1.png' width = '70%;'></div></div>","null","neg","CS","CS","4","category4/CS1.png","","","","",""
"","html-keyboard-response","63","346182","0.0-6.0-4.0-0.15","udpe7l7gfz","many_one","0","direct_first","1","an05do20","0","25","1","0","3","1","Für jemanden, der Chinesisch sprechen und lesen kann, war diese Studie äußerst merkwürdig. Diese teilweise nicht existierenden Zeichen bzw. die inkorrekte Aussprache zu sehen, hat sehr irritiert und abgelenkt. ","0","1","0","null","","","<div class = 'row'><div class = 'column'><img src = 'uspos/2550.bmp' width = '100%;'></div><div class = 'column'><img src = 'category3/CS1.png' width = '70%;'></div></div>","null","pos","CS","CS","3","category3/CS1.png","","","","",""
"","html-keyboard-response","64","348687","0.0-6.0-4.0-0.16","udpe7l7gfz","many_one","0","direct_first","1","an05do20","0","25","1","0","3","1","Für jemanden, der Chinesisch sprechen und lesen kann, war diese Studie äußerst merkwürdig. Diese teilweise nicht existierenden Zeichen bzw. die inkorrekte Aussprache zu sehen, hat sehr irritiert und abgelenkt. ","0","1","0","null","","","<div class = 'row'><div class = 'column'><img src = 'category2/CS9.png' width = '70%;'></div><div class = 'column'><img src = 'uspos/8080.bmp' width = '100%;'></div></div>","null","pos","CS","CS","2","category2/CS9.png","","","","",""
"","html-keyboard-response","65","351192","0.0-6.0-4.0-0.17","udpe7l7gfz","many_one","0","direct_first","1","an05do20","0","25","1","0","3","1","Für jemanden, der Chinesisch sprechen und lesen kann, war diese Studie äußerst merkwürdig. Diese teilweise nicht existierenden Zeichen bzw. die inkorrekte Aussprache zu sehen, hat sehr irritiert und abgelenkt. ","0","1","0","null","","","<div class = 'row'><div class = 'column'><img src = 'category1/CS4.png' width = '70%;'></div><div class = 'column'><img src = 'usneg/3300.bmp' width = '100%;'></div></div>","null","neg","CS","CS","1","category1/CS4.png","","","","",""
"","html-keyboard-response","66","353696","0.0-6.0-4.0-0.18","udpe7l7gfz","many_one","0","direct_first","1","an05do20","0","25","1","0","3","1","Für jemanden, der Chinesisch sprechen und lesen kann, war diese Studie äußerst merkwürdig. Diese teilweise nicht existierenden Zeichen bzw. die inkorrekte Aussprache zu sehen, hat sehr irritiert und abgelenkt. ","0","1","0","null","","","<div class = 'row'><div class = 'column'><img src = 'category1/CS6.png' width = '70%;'></div><div class = 'column'><img src = 'usneg/6570.1.bmp' width = '100%;'></div></div>","null","neg","CS","CS","1","category1/CS6.png","","","","",""
"","html-keyboard-response","67","356202","0.0-6.0-4.0-0.19","udpe7l7gfz","many_one","0","direct_first","1","an05do20","0","25","1","0","3","1","Für jemanden, der Chinesisch sprechen und lesen kann, war diese Studie äußerst merkwürdig. Diese teilweise nicht existierenden Zeichen bzw. die inkorrekte Aussprache zu sehen, hat sehr irritiert und abgelenkt. ","0","1","0","null","","","<div class = 'row'><div class = 'column'><img src = 'category2/CS1.png' width = '70%;'></div><div class = 'column'><img src = 'uspos/1460.bmp' width = '100%;'></div></div>","null","pos","CS","CS","2","category2/CS1.png","","","","",""
"","survey-html-form","68","360959","0.0-6.0-5.0","udpe7l7gfz","many_one","0","direct_first","1","an05do20","0","25","1","0","3","1","Für jemanden, der Chinesisch sprechen und lesen kann, war diese Studie äußerst merkwürdig. Diese teilweise nicht existierenden Zeichen bzw. die inkorrekte Aussprache zu sehen, hat sehr irritiert und abgelenkt. ","0","1","0","4254.584999987856","","{}","","","","","","","","","","","",""
"","html-keyboard-response","69","364968","0.0-6.0-6.0-0.0","udpe7l7gfz","many_one","0","direct_first","1","an05do20","0","25","1","0","3","1","Für jemanden, der Chinesisch sprechen und lesen kann, war diese Studie äußerst merkwürdig. Diese teilweise nicht existierenden Zeichen bzw. die inkorrekte Aussprache zu sehen, hat sehr irritiert und abgelenkt. ","0","1","0","null","","","<div class = 'row'><div class = 'column'><img src = 'usneg/9421.bmp' width = '100%;'></div><div class = 'column'><img src = 'category4/CS8.png' width = '70%;'></div></div>","null","neg","CS","CS","4","category4/CS8.png","","","","",""
"","html-keyboard-response","70","367473","0.0-6.0-6.0-0.1","udpe7l7gfz","many_one","0","direct_first","1","an05do20","0","25","1","0","3","1","Für jemanden, der Chinesisch sprechen und lesen kann, war diese Studie äußerst merkwürdig. Diese teilweise nicht existierenden Zeichen bzw. die inkorrekte Aussprache zu sehen, hat sehr irritiert und abgelenkt. ","0","1","0","null","","","<div class = 'row'><div class = 'column'><img src = 'uspos/2160.bmp' width = '100%;'></div><div class = 'column'><img src = 'category3/CS2.png' width = '70%;'></div></div>","null","pos","CS","CS","3","category3/CS2.png","","","","",""
"","html-keyboard-response","71","369978","0.0-6.0-6.0-0.2","udpe7l7gfz","many_one","0","direct_first","1","an05do20","0","25","1","0","3","1","Für jemanden, der Chinesisch sprechen und lesen kann, war diese Studie äußerst merkwürdig. Diese teilweise nicht existierenden Zeichen bzw. die inkorrekte Aussprache zu sehen, hat sehr irritiert und abgelenkt. ","0","1","0","null","","","<div class = 'row'><div class = 'column'><img src = 'category2/CS3.png' width = '70%;'></div><div class = 'column'><img src = 'uspos/2340.bmp' width = '100%;'></div></div>","null","pos","CS","CS","2","category2/CS3.png","","","","",""
"","html-keyboard-response","72","372483","0.0-6.0-6.0-0.3","udpe7l7gfz","many_one","0","direct_first","1","an05do20","0","25","1","0","3","1","Für jemanden, der Chinesisch sprechen und lesen kann, war diese Studie äußerst merkwürdig. Diese teilweise nicht existierenden Zeichen bzw. die inkorrekte Aussprache zu sehen, hat sehr irritiert und abgelenkt. ","0","1","0","null","","","<div class = 'row'><div class = 'column'><img src = 'usneg/9330.bmp' width = '100%;'></div><div class = 'column'><img src = 'category4/CS3.png' width = '70%;'></div></div>","null","neg","CS","CS","4","category4/CS3.png","","","","",""
"","html-keyboard-response","73","374988","0.0-6.0-6.0-0.4","udpe7l7gfz","many_one","0","direct_first","1","an05do20","0","25","1","0","3","1","Für jemanden, der Chinesisch sprechen und lesen kann, war diese Studie äußerst merkwürdig. Diese teilweise nicht existierenden Zeichen bzw. die inkorrekte Aussprache zu sehen, hat sehr irritiert und abgelenkt. ","0","1","0","null","","","<div class = 'row'><div class = 'column'><img src = 'category2/CS8.png' width = '70%;'></div><div class = 'column'><img src = 'uspos/7325.bmp' width = '100%;'></div></div>","null","pos","CS","CS","2","category2/CS8.png","","","","",""
"","html-keyboard-response","74","377492","0.0-6.0-6.0-0.5","udpe7l7gfz","many_one","0","direct_first","1","an05do20","0","25","1","0","3","1","Für jemanden, der Chinesisch sprechen und lesen kann, war diese Studie äußerst merkwürdig. Diese teilweise nicht existierenden Zeichen bzw. die inkorrekte Aussprache zu sehen, hat sehr irritiert und abgelenkt. ","0","1","0","null","","","<div class = 'row'><div class = 'column'><img src = 'uspos/8490.bmp' width = '100%;'></div><div class = 'column'><img src = 'category3/CS6.png' width = '70%;'></div></div>","null","pos","CS","CS","3","category3/CS6.png","","","","",""
"","html-keyboard-response","75","379996","0.0-6.0-6.0-0.6","udpe7l7gfz","many_one","0","direct_first","1","an05do20","0","25","1","0","3","1","Für jemanden, der Chinesisch sprechen und lesen kann, war diese Studie äußerst merkwürdig. Diese teilweise nicht existierenden Zeichen bzw. die inkorrekte Aussprache zu sehen, hat sehr irritiert und abgelenkt. ","0","1","0","null","","","<div class = 'row'><div class = 'column'><img src = 'category3/CS10.png' width = '70%;'></div><div class = 'column'><img src = 'uspos/8461.bmp' width = '100%;'></div></div>","null","pos","CS","CS","3","category3/CS10.png","","","","",""
"","html-keyboard-response","76","382501","0.0-6.0-6.0-0.7","udpe7l7gfz","many_one","0","direct_first","1","an05do20","0","25","1","0","3","1","Für jemanden, der Chinesisch sprechen und lesen kann, war diese Studie äußerst merkwürdig. Diese teilweise nicht existierenden Zeichen bzw. die inkorrekte Aussprache zu sehen, hat sehr irritiert und abgelenkt. ","0","1","0","null","","","<div class = 'row'><div class = 'column'><img src = 'uspos/1460.bmp' width = '100%;'></div><div class = 'column'><img src = 'category2/CS1.png' width = '70%;'></div></div>","null","pos","CS","CS","2","category2/CS1.png","","","","",""
"","html-keyboard-response","77","385006","0.0-6.0-6.0-0.8","udpe7l7gfz","many_one","0","direct_first","1","an05do20","0","25","1","0","3","1","Für jemanden, der Chinesisch sprechen und lesen kann, war diese Studie äußerst merkwürdig. Diese teilweise nicht existierenden Zeichen bzw. die inkorrekte Aussprache zu sehen, hat sehr irritiert und abgelenkt. ","0","1","0","null","","","<div class = 'row'><div class = 'column'><img src = 'usneg/9415.bmp' width = '100%;'></div><div class = 'column'><img src = 'category4/CS7.png' width = '70%;'></div></div>","null","neg","CS","CS","4","category4/CS7.png","","","","",""
"","html-keyboard-response","78","387511","0.0-6.0-6.0-0.9","udpe7l7gfz","many_one","0","direct_first","1","an05do20","0","25","1","0","3","1","Für jemanden, der Chinesisch sprechen und lesen kann, war diese Studie äußerst merkwürdig. Diese teilweise nicht existierenden Zeichen bzw. die inkorrekte Aussprache zu sehen, hat sehr irritiert und abgelenkt. ","0","1","0","null","","","<div class = 'row'><div class = 'column'><img src = 'category4/CS5.png' width = '70%;'></div><div class = 'column'><img src = 'usneg/6212.bmp' width = '100%;'></div></div>","null","neg","CS","CS","4","category4/CS5.png","","","","",""
"","html-keyboard-response","79","390015","0.0-6.0-6.0-0.10","udpe7l7gfz","many_one","0","direct_first","1","an05do20","0","25","1","0","3","1","Für jemanden, der Chinesisch sprechen und lesen kann, war diese Studie äußerst merkwürdig. Diese teilweise nicht existierenden Zeichen bzw. die inkorrekte Aussprache zu sehen, hat sehr irritiert und abgelenkt. ","0","1","0","null","","","<div class = 'row'><div class = 'column'><img src = 'category1/CS6.png' width = '70%;'></div><div class = 'column'><img src = 'usneg/6570.1.bmp' width = '100%;'></div></div>","null","neg","CS","CS","1","category1/CS6.png","","","","",""
"","html-keyboard-response","80","392520","0.0-6.0-6.0-0.11","udpe7l7gfz","many_one","0","direct_first","1","an05do20","0","25","1","0","3","1","Für jemanden, der Chinesisch sprechen und lesen kann, war diese Studie äußerst merkwürdig. Diese teilweise nicht existierenden Zeichen bzw. die inkorrekte Aussprache zu sehen, hat sehr irritiert und abgelenkt. ","0","1","0","null","","","<div class = 'row'><div class = 'column'><img src = 'category2/CS4.png' width = '70%;'></div><div class = 'column'><img src = 'uspos/2150.bmp' width = '100%;'></div></div>","null","pos","CS","CS","2","category2/CS4.png","","","","",""
"","html-keyboard-response","81","395023","0.0-6.0-6.0-0.12","udpe7l7gfz","many_one","0","direct_first","1","an05do20","0","25","1","0","3","1","Für jemanden, der Chinesisch sprechen und lesen kann, war diese Studie äußerst merkwürdig. Diese teilweise nicht existierenden Zeichen bzw. die inkorrekte Aussprache zu sehen, hat sehr irritiert und abgelenkt. ","0","1","0","null","","","<div class = 'row'><div class = 'column'><img src = 'category1/CS8.png' width = '70%;'></div><div class = 'column'><img src = 'usneg/3181.bmp' width = '100%;'></div></div>","null","neg","CS","CS","1","category1/CS8.png","","","","",""
"","html-keyboard-response","82","397528","0.0-6.0-6.0-0.13","udpe7l7gfz","many_one","0","direct_first","1","an05do20","0","25","1","0","3","1","Für jemanden, der Chinesisch sprechen und lesen kann, war diese Studie äußerst merkwürdig. Diese teilweise nicht existierenden Zeichen bzw. die inkorrekte Aussprache zu sehen, hat sehr irritiert und abgelenkt. ","0","1","0","null","","","<div class = 'row'><div class = 'column'><img src = 'category1/CS10.png' width = '70%;'></div><div class = 'column'><img src = 'usneg/6020.bmp' width = '100%;'></div></div>","null","neg","CS","CS","1","category1/CS10.png","","","","",""
"","html-keyboard-response","83","400032","0.0-6.0-6.0-0.14","udpe7l7gfz","many_one","0","direct_first","1","an05do20","0","25","1","0","3","1","Für jemanden, der Chinesisch sprechen und lesen kann, war diese Studie äußerst merkwürdig. Diese teilweise nicht existierenden Zeichen bzw. die inkorrekte Aussprache zu sehen, hat sehr irritiert und abgelenkt. ","0","1","0","null","","","<div class = 'row'><div class = 'column'><img src = 'usneg/9830.bmp' width = '100%;'></div><div class = 'column'><img src = 'category1/CS3.png' width = '70%;'></div></div>","null","neg","CS","CS","1","category1/CS3.png","","","","",""
"","html-keyboard-response","84","402538","0.0-6.0-6.0-0.15","udpe7l7gfz","many_one","0","direct_first","1","an05do20","0","25","1","0","3","1","Für jemanden, der Chinesisch sprechen und lesen kann, war diese Studie äußerst merkwürdig. Diese teilweise nicht existierenden Zeichen bzw. die inkorrekte Aussprache zu sehen, hat sehr irritiert und abgelenkt. ","0","1","0","null","","","<div class = 'row'><div class = 'column'><img src = 'category3/CS7.png' width = '70%;'></div><div class = 'column'><img src = 'uspos/1463.bmp' width = '100%;'></div></div>","null","pos","CS","CS","3","category3/CS7.png","","","","",""
"","html-keyboard-response","85","405042","0.0-6.0-6.0-0.16","udpe7l7gfz","many_one","0","direct_first","1","an05do20","0","25","1","0","3","1","Für jemanden, der Chinesisch sprechen und lesen kann, war diese Studie äußerst merkwürdig. Diese teilweise nicht existierenden Zeichen bzw. die inkorrekte Aussprache zu sehen, hat sehr irritiert und abgelenkt. ","0","1","0","null","","","<div class = 'row'><div class = 'column'><img src = 'usneg/9560.bmp' width = '100%;'></div><div class = 'column'><img src = 'category4/CS1.png' width = '70%;'></div></div>","null","neg","CS","CS","4","category4/CS1.png","","","","",""
"","html-keyboard-response","86","407548","0.0-6.0-6.0-0.17","udpe7l7gfz","many_one","0","direct_first","1","an05do20","0","25","1","0","3","1","Für jemanden, der Chinesisch sprechen und lesen kann, war diese Studie äußerst merkwürdig. Diese teilweise nicht existierenden Zeichen bzw. die inkorrekte Aussprache zu sehen, hat sehr irritiert und abgelenkt. ","0","1","0","null","","","<div class = 'row'><div class = 'column'><img src = 'category2/CS9.png' width = '70%;'></div><div class = 'column'><img src = 'uspos/8080.bmp' width = '100%;'></div></div>","null","pos","CS","CS","2","category2/CS9.png","","","","",""
"","html-keyboard-response","87","410053","0.0-6.0-6.0-0.18","udpe7l7gfz","many_one","0","direct_first","1","an05do20","0","25","1","0","3","1","Für jemanden, der Chinesisch sprechen und lesen kann, war diese Studie äußerst merkwürdig. Diese teilweise nicht existierenden Zeichen bzw. die inkorrekte Aussprache zu sehen, hat sehr irritiert und abgelenkt. ","0","1","0","null","","","<div class = 'row'><div class = 'column'><img src = 'category1/CS4.png' width = '70%;'></div><div class = 'column'><img src = 'usneg/3300.bmp' width = '100%;'></div></div>","null","neg","CS","CS","1","category1/CS4.png","","","","",""
"","html-keyboard-response","88","412558","0.0-6.0-6.0-0.19","udpe7l7gfz","many_one","0","direct_first","1","an05do20","0","25","1","0","3","1","Für jemanden, der Chinesisch sprechen und lesen kann, war diese Studie äußerst merkwürdig. Diese teilweise nicht existierenden Zeichen bzw. die inkorrekte Aussprache zu sehen, hat sehr irritiert und abgelenkt. ","0","1","0","null","","","<div class = 'row'><div class = 'column'><img src = 'category3/CS1.png' width = '70%;'></div><div class = 'column'><img src = 'uspos/2550.bmp' width = '100%;'></div></div>","null","pos","CS","CS","3","category3/CS1.png","","","","",""
"","survey-html-form","89","427772","0.0-7.0","udpe7l7gfz","many_one","0","direct_first","1","an05do20","0","25","1","0","3","1","Für jemanden, der Chinesisch sprechen und lesen kann, war diese Studie äußerst merkwürdig. Diese teilweise nicht existierenden Zeichen bzw. die inkorrekte Aussprache zu sehen, hat sehr irritiert und abgelenkt. ","0","1","0","14710.995000088587","","{}","","","","","","","","","","","",""
"","image-slider-response","90","453551","0.0-8.0-0.0","udpe7l7gfz","many_one","0","direct_first","1","an05do20","0","25","1","0","3","1","Für jemanden, der Chinesisch sprechen und lesen kann, war diese Studie äußerst merkwürdig. Diese teilweise nicht existierenden Zeichen bzw. die inkorrekte Aussprache zu sehen, hat sehr irritiert und abgelenkt. ","0","1","0","23772.859999909997","","","","","pos","CS","CS","3","category3/CS1.png","56","targets/42.png","direct","",""
"","image-slider-response","91","457390","0.0-8.0-0.1","udpe7l7gfz","many_one","0","direct_first","1","an05do20","0","25","1","0","3","1","Für jemanden, der Chinesisch sprechen und lesen kann, war diese Studie äußerst merkwürdig. Diese teilweise nicht existierenden Zeichen bzw. die inkorrekte Aussprache zu sehen, hat sehr irritiert und abgelenkt. ","0","1","0","3835.5650000739843","","","","","neg","CS","CS","4","category4/CS5.png","-78","targets/41.png","direct","",""
"","image-slider-response","92","461461","0.0-8.0-0.2","udpe7l7gfz","many_one","0","direct_first","1","an05do20","0","25","1","0","3","1","Für jemanden, der Chinesisch sprechen und lesen kann, war diese Studie äußerst merkwürdig. Diese teilweise nicht existierenden Zeichen bzw. die inkorrekte Aussprache zu sehen, hat sehr irritiert und abgelenkt. ","0","1","0","4068.2650001253933","","","","","pos","CS","CS","2","category2/CS1.png","46","targets/2.png","direct","",""
"","image-slider-response","93","464929","0.0-8.0-0.3","udpe7l7gfz","many_one","0","direct_first","1","an05do20","0","25","1","0","3","1","Für jemanden, der Chinesisch sprechen und lesen kann, war diese Studie äußerst merkwürdig. Diese teilweise nicht existierenden Zeichen bzw. die inkorrekte Aussprache zu sehen, hat sehr irritiert und abgelenkt. ","0","1","0","3464.2299998085946","","","","","pos","GS","GSold","3","category3/CS8.png","-100","targets/30.png","direct","",""
"","image-slider-response","94","468550","0.0-8.0-0.4","udpe7l7gfz","many_one","0","direct_first","1","an05do20","0","25","1","0","3","1","Für jemanden, der Chinesisch sprechen und lesen kann, war diese Studie äußerst merkwürdig. Diese teilweise nicht existierenden Zeichen bzw. die inkorrekte Aussprache zu sehen, hat sehr irritiert und abgelenkt. ","0","1","0","3617.9299999494106","","","","","neg","CS","CS","4","category4/CS1.png","-72","targets/39.png","direct","",""
"","image-slider-response","95","471442","0.0-8.0-0.5","udpe7l7gfz","many_one","0","direct_first","1","an05do20","0","25","1","0","3","1","Für jemanden, der Chinesisch sprechen und lesen kann, war diese Studie äußerst merkwürdig. Diese teilweise nicht existierenden Zeichen bzw. die inkorrekte Aussprache zu sehen, hat sehr irritiert und abgelenkt. ","0","1","0","2887.2950000222772","","","","","neg","CS","CS","1","category1/CS10.png","-58","targets/29.png","direct","",""
"","image-slider-response","96","490755","0.0-8.0-0.6","udpe7l7gfz","many_one","0","direct_first","1","an05do20","0","25","1","0","3","1","Für jemanden, der Chinesisch sprechen und lesen kann, war diese Studie äußerst merkwürdig. Diese teilweise nicht existierenden Zeichen bzw. die inkorrekte Aussprache zu sehen, hat sehr irritiert und abgelenkt. ","0","1","0","19310.419999994338","","","","","pos","GS","GSnew","3","category3/GS3.png","26","targets/16.png","direct","",""
"","image-slider-response","97","497866","0.0-8.0-0.7","udpe7l7gfz","many_one","0","direct_first","1","an05do20","0","25","1","0","3","1","Für jemanden, der Chinesisch sprechen und lesen kann, war diese Studie äußerst merkwürdig. Diese teilweise nicht existierenden Zeichen bzw. die inkorrekte Aussprache zu sehen, hat sehr irritiert und abgelenkt. ","0","1","0","7106.985000194982","","","","","neg","GS","abstract","1","category1/ma.png","66","targets/8.png","direct","",""
"","image-slider-response","98","506886","0.0-8.0-0.8","udpe7l7gfz","many_one","0","direct_first","1","an05do20","0","25","1","0","3","1","Für jemanden, der Chinesisch sprechen und lesen kann, war diese Studie äußerst merkwürdig. Diese teilweise nicht existierenden Zeichen bzw. die inkorrekte Aussprache zu sehen, hat sehr irritiert und abgelenkt. ","0","1","0","9016.774999909103","","","","","neg","CS","CS","1","category1/CS3.png","4","targets/3.png","direct","",""
"","image-slider-response","99","510031","0.0-8.0-0.9","udpe7l7gfz","many_one","0","direct_first","1","an05do20","0","25","1","0","3","1","Für jemanden, der Chinesisch sprechen und lesen kann, war diese Studie äußerst merkwürdig. Diese teilweise nicht existierenden Zeichen bzw. die inkorrekte Aussprache zu sehen, hat sehr irritiert und abgelenkt. ","0","1","0","3140.6950000673532","","","","","pos","CS","CS","2","category2/CS8.png","32","targets/13.png","direct","",""
"","image-slider-response","100","515100","0.0-8.0-0.10","udpe7l7gfz","many_one","0","direct_first","1","an05do20","0","25","1","0","3","1","Für jemanden, der Chinesisch sprechen und lesen kann, war diese Studie äußerst merkwürdig. Diese teilweise nicht existierenden Zeichen bzw. die inkorrekte Aussprache zu sehen, hat sehr irritiert und abgelenkt. ","0","1","0","5066.285000182688","","","","","neg","GS","GSnew","1","category1/GS3.png","69","targets/1.png","direct","",""
"","image-slider-response","101","536159","0.0-8.0-0.11","udpe7l7gfz","many_one","0","direct_first","1","an05do20","0","25","1","0","3","1","Für jemanden, der Chinesisch sprechen und lesen kann, war diese Studie äußerst merkwürdig. Diese teilweise nicht existierenden Zeichen bzw. die inkorrekte Aussprache zu sehen, hat sehr irritiert und abgelenkt. ","0","1","0","21055.485000135377","","","","","pos","GS","GSnew","2","category2/GS1.png","-6","targets/32.png","direct","",""
"","image-slider-response","102","551491","0.0-8.0-0.12","udpe7l7gfz","many_one","0","direct_first","1","an05do20","0","25","1","0","3","1","Für jemanden, der Chinesisch sprechen und lesen kann, war diese Studie äußerst merkwürdig. Diese teilweise nicht existierenden Zeichen bzw. die inkorrekte Aussprache zu sehen, hat sehr irritiert und abgelenkt. ","0","1","0","15328.23000010103","","","","","pos","GS","GSnew","2","category2/GS2.png","-11","targets/44.png","direct","",""
"","image-slider-response","103","596818","0.0-8.0-0.13","udpe7l7gfz","many_one","0","direct_first","1","an05do20","0","25","1","0","3","1","Für jemanden, der Chinesisch sprechen und lesen kann, war diese Studie äußerst merkwürdig. Diese teilweise nicht existierenden Zeichen bzw. die inkorrekte Aussprache zu sehen, hat sehr irritiert und abgelenkt. ","0","1","0","45322.799999965355","","","","","pos","GS","GSnew","3","category3/GS1.png","23","targets/7.png","direct","",""
"","image-slider-response","104","632895","0.0-8.0-0.14","udpe7l7gfz","many_one","0","direct_first","1","an05do20","0","25","1","0","3","1","Für jemanden, der Chinesisch sprechen und lesen kann, war diese Studie äußerst merkwürdig. Diese teilweise nicht existierenden Zeichen bzw. die inkorrekte Aussprache zu sehen, hat sehr irritiert und abgelenkt. ","0","1","0","36073.62999999896","","","","","pos","CS","CS","3","category3/CS6.png","-37","targets/12.png","direct","",""
"","image-slider-response","105","635975","0.0-8.0-0.15","udpe7l7gfz","many_one","0","direct_first","1","an05do20","0","25","1","0","3","1","Für jemanden, der Chinesisch sprechen und lesen kann, war diese Studie äußerst merkwürdig. Diese teilweise nicht existierenden Zeichen bzw. die inkorrekte Aussprache zu sehen, hat sehr irritiert und abgelenkt. ","0","1","0","3075.1849999651313","","","","","neg","CS","CS","4","category4/CS3.png","-37","targets/37.png","direct","",""
"","image-slider-response","106","639171","0.0-8.0-0.16","udpe7l7gfz","many_one","0","direct_first","1","an05do20","0","25","1","0","3","1","Für jemanden, der Chinesisch sprechen und lesen kann, war diese Studie äußerst merkwürdig. Diese teilweise nicht existierenden Zeichen bzw. die inkorrekte Aussprache zu sehen, hat sehr irritiert und abgelenkt. ","0","1","0","3193.324999883771","","","","","pos","CS","CS","3","category3/CS7.png","28","targets/15.png","direct","",""
"","image-slider-response","107","643249","0.0-8.0-0.17","udpe7l7gfz","many_one","0","direct_first","1","an05do20","0","25","1","0","3","1","Für jemanden, der Chinesisch sprechen und lesen kann, war diese Studie äußerst merkwürdig. Diese teilweise nicht existierenden Zeichen bzw. die inkorrekte Aussprache zu sehen, hat sehr irritiert und abgelenkt. ","0","1","0","4074.5200000237674","","","","","neg","GS","GSnew","4","category4/GS3.png","34","targets/25.png","direct","",""
"","image-slider-response","108","648737","0.0-8.0-0.18","udpe7l7gfz","many_one","0","direct_first","1","an05do20","0","25","1","0","3","1","Für jemanden, der Chinesisch sprechen und lesen kann, war diese Studie äußerst merkwürdig. Diese teilweise nicht existierenden Zeichen bzw. die inkorrekte Aussprache zu sehen, hat sehr irritiert und abgelenkt. ","0","1","0","5485.480000032112","","","","","pos","CS","CS","2","category2/CS4.png","36","targets/22.png","direct","",""
"","image-slider-response","109","652907","0.0-8.0-0.19","udpe7l7gfz","many_one","0","direct_first","1","an05do20","0","25","1","0","3","1","Für jemanden, der Chinesisch sprechen und lesen kann, war diese Studie äußerst merkwürdig. Diese teilweise nicht existierenden Zeichen bzw. die inkorrekte Aussprache zu sehen, hat sehr irritiert und abgelenkt. ","0","1","0","4168.824999826029","","","","","pos","GS","GSold","3","category3/CS9.png","-57","targets/9.png","direct","",""
"","image-slider-response","110","657856","0.0-8.0-0.20","udpe7l7gfz","many_one","0","direct_first","1","an05do20","0","25","1","0","3","1","Für jemanden, der Chinesisch sprechen und lesen kann, war diese Studie äußerst merkwürdig. Diese teilweise nicht existierenden Zeichen bzw. die inkorrekte Aussprache zu sehen, hat sehr irritiert und abgelenkt. ","0","1","0","4947.139999829233","","","","","neg","GS","GSnew","1","category1/GS1.png","-6","targets/14.png","direct","",""
"","image-slider-response","111","661978","0.0-8.0-0.21","udpe7l7gfz","many_one","0","direct_first","1","an05do20","0","25","1","0","3","1","Für jemanden, der Chinesisch sprechen und lesen kann, war diese Studie äußerst merkwürdig. Diese teilweise nicht existierenden Zeichen bzw. die inkorrekte Aussprache zu sehen, hat sehr irritiert und abgelenkt. ","0","1","0","4117.94999986887","","","","","neg","CS","CS","1","category1/CS6.png","-43","targets/20.png","direct","",""
"","image-slider-response","112","666085","0.0-8.0-0.22","udpe7l7gfz","many_one","0","direct_first","1","an05do20","0","25","1","0","3","1","Für jemanden, der Chinesisch sprechen und lesen kann, war diese Studie äußerst merkwürdig. Diese teilweise nicht existierenden Zeichen bzw. die inkorrekte Aussprache zu sehen, hat sehr irritiert und abgelenkt. ","0","1","0","4103.734999895096","","","","","neg","GS","GSnew","1","category1/GS2.png","28","targets/6.png","direct","",""
"","image-slider-response","113","671370","0.0-8.0-0.23","udpe7l7gfz","many_one","0","direct_first","1","an05do20","0","25","1","0","3","1","Für jemanden, der Chinesisch sprechen und lesen kann, war diese Studie äußerst merkwürdig. Diese teilweise nicht existierenden Zeichen bzw. die inkorrekte Aussprache zu sehen, hat sehr irritiert und abgelenkt. ","0","1","0","5281.915000174195","","","","","pos","GS","GSold","2","category2/CS5.png","-9","targets/43.png","direct","",""
"","image-slider-response","114","674584","0.0-8.0-0.24","udpe7l7gfz","many_one","0","direct_first","1","an05do20","0","25","1","0","3","1","Für jemanden, der Chinesisch sprechen und lesen kann, war diese Studie äußerst merkwürdig. Diese teilweise nicht existierenden Zeichen bzw. die inkorrekte Aussprache zu sehen, hat sehr irritiert und abgelenkt. ","0","1","0","3210.9950000885874","","","","","pos","CS","CS","2","category2/CS9.png","-31","targets/34.png","direct","",""
"","image-slider-response","115","696446","0.0-8.0-0.25","udpe7l7gfz","many_one","0","direct_first","1","an05do20","0","25","1","0","3","1","Für jemanden, der Chinesisch sprechen und lesen kann, war diese Studie äußerst merkwürdig. Diese teilweise nicht existierenden Zeichen bzw. die inkorrekte Aussprache zu sehen, hat sehr irritiert und abgelenkt. ","0","1","0","21859.14499987848","","","","","pos","GS","GSold","2","category2/CS7.png","28","targets/45.png","direct","",""
"","image-slider-response","116","700196","0.0-8.0-0.26","udpe7l7gfz","many_one","0","direct_first","1","an05do20","0","25","1","0","3","1","Für jemanden, der Chinesisch sprechen und lesen kann, war diese Studie äußerst merkwürdig. Diese teilweise nicht existierenden Zeichen bzw. die inkorrekte Aussprache zu sehen, hat sehr irritiert und abgelenkt. ","0","1","0","3746.9549998641014","","","","","pos","GS","abstract","2","category2/men.png","6","targets/46.png","direct","",""
"","image-slider-response","117","713795","0.0-8.0-0.27","udpe7l7gfz","many_one","0","direct_first","1","an05do20","0","25","1","0","3","1","Für jemanden, der Chinesisch sprechen und lesen kann, war diese Studie äußerst merkwürdig. Diese teilweise nicht existierenden Zeichen bzw. die inkorrekte Aussprache zu sehen, hat sehr irritiert und abgelenkt. ","0","1","0","13595.4849999398","","","","","neg","CS","CS","1","category1/CS4.png","-4","targets/4.png","direct","",""
"","image-slider-response","118","717311","0.0-8.0-0.28","udpe7l7gfz","many_one","0","direct_first","1","an05do20","0","25","1","0","3","1","Für jemanden, der Chinesisch sprechen und lesen kann, war diese Studie äußerst merkwürdig. Diese teilweise nicht existierenden Zeichen bzw. die inkorrekte Aussprache zu sehen, hat sehr irritiert und abgelenkt. ","0","1","0","3513.069999869913","","","","","neg","CS","CS","4","category4/CS8.png","24","targets/17.png","direct","",""
"","image-slider-response","119","721244","0.0-8.0-0.29","udpe7l7gfz","many_one","0","direct_first","1","an05do20","0","25","1","0","3","1","Für jemanden, der Chinesisch sprechen und lesen kann, war diese Studie äußerst merkwürdig. Diese teilweise nicht existierenden Zeichen bzw. die inkorrekte Aussprache zu sehen, hat sehr irritiert und abgelenkt. ","0","1","0","3930.7649999391288","","","","","neg","GS","GSnew","4","category4/GS2.png","6","targets/31.png","direct","",""
"","image-slider-response","120","723981","0.0-8.0-0.30","udpe7l7gfz","many_one","0","direct_first","1","an05do20","0","25","1","0","3","1","Für jemanden, der Chinesisch sprechen und lesen kann, war diese Studie äußerst merkwürdig. Diese teilweise nicht existierenden Zeichen bzw. die inkorrekte Aussprache zu sehen, hat sehr irritiert und abgelenkt. ","0","1","0","2732.4300000909716","","","","","neg","CS","CS","1","category1/CS8.png","-19","targets/27.png","direct","",""
"","image-slider-response","121","728072","0.0-8.0-0.31","udpe7l7gfz","many_one","0","direct_first","1","an05do20","0","25","1","0","3","1","Für jemanden, der Chinesisch sprechen und lesen kann, war diese Studie äußerst merkwürdig. Diese teilweise nicht existierenden Zeichen bzw. die inkorrekte Aussprache zu sehen, hat sehr irritiert und abgelenkt. ","0","1","0","4087.529999902472","","","","","neg","GS","GSold","4","category4/CS6.png","7","targets/23.png","direct","",""
"","image-slider-response","122","739913","0.0-8.0-0.32","udpe7l7gfz","many_one","0","direct_first","1","an05do20","0","25","1","0","3","1","Für jemanden, der Chinesisch sprechen und lesen kann, war diese Studie äußerst merkwürdig. Diese teilweise nicht existierenden Zeichen bzw. die inkorrekte Aussprache zu sehen, hat sehr irritiert und abgelenkt. ","0","1","0","11837.895000120625","","","","","neg","GS","GSnew","4","category4/GS1.png","5","targets/40.png","direct","",""
"","image-slider-response","123","748028","0.0-8.0-0.33","udpe7l7gfz","many_one","0","direct_first","1","an05do20","0","25","1","0","3","1","Für jemanden, der Chinesisch sprechen und lesen kann, war diese Studie äußerst merkwürdig. Diese teilweise nicht existierenden Zeichen bzw. die inkorrekte Aussprache zu sehen, hat sehr irritiert und abgelenkt. ","0","1","0","8110.589999938384","","","","","neg","GS","abstract","4","category4/lin.png","27","targets/47.png","direct","",""
"","image-slider-response","124","773545","0.0-8.0-0.34","udpe7l7gfz","many_one","0","direct_first","1","an05do20","0","25","1","0","3","1","Für jemanden, der Chinesisch sprechen und lesen kann, war diese Studie äußerst merkwürdig. Diese teilweise nicht existierenden Zeichen bzw. die inkorrekte Aussprache zu sehen, hat sehr irritiert und abgelenkt. ","0","1","0","25513.155000051484","","","","","pos","GS","abstract","3","category3/wang.png","10","targets/38.png","direct","",""
"","image-slider-response","125","777027","0.0-8.0-0.35","udpe7l7gfz","many_one","0","direct_first","1","an05do20","0","25","1","0","3","1","Für jemanden, der Chinesisch sprechen und lesen kann, war diese Studie äußerst merkwürdig. Diese teilweise nicht existierenden Zeichen bzw. die inkorrekte Aussprache zu sehen, hat sehr irritiert und abgelenkt. ","0","1","0","3478.880000067875","","","","","pos","GS","GSold","3","category3/CS5.png","5","targets/28.png","direct","",""
"","image-slider-response","126","786884","0.0-8.0-0.36","udpe7l7gfz","many_one","0","direct_first","1","an05do20","0","25","1","0","3","1","Für jemanden, der Chinesisch sprechen und lesen kann, war diese Studie äußerst merkwürdig. Diese teilweise nicht existierenden Zeichen bzw. die inkorrekte Aussprache zu sehen, hat sehr irritiert und abgelenkt. ","0","1","0","9854.76000001654","","","","","pos","GS","GSnew","2","category2/GS3.png","23","targets/24.png","direct","",""
"","image-slider-response","127","831912","0.0-8.0-0.37","udpe7l7gfz","many_one","0","direct_first","1","an05do20","0","25","1","0","3","1","Für jemanden, der Chinesisch sprechen und lesen kann, war diese Studie äußerst merkwürdig. Diese teilweise nicht existierenden Zeichen bzw. die inkorrekte Aussprache zu sehen, hat sehr irritiert und abgelenkt. ","0","1","0","45024.609999964014","","","","","pos","CS","CS","2","category2/CS3.png","27","targets/10.png","direct","",""
"","image-slider-response","128","835586","0.0-8.0-0.38","udpe7l7gfz","many_one","0","direct_first","1","an05do20","0","25","1","0","3","1","Für jemanden, der Chinesisch sprechen und lesen kann, war diese Studie äußerst merkwürdig. Diese teilweise nicht existierenden Zeichen bzw. die inkorrekte Aussprache zu sehen, hat sehr irritiert und abgelenkt. ","0","1","0","3668.945000041276","","","","","pos","GS","GSold","2","category2/CS2.png","9","targets/11.png","direct","",""
"","image-slider-response","129","839587","0.0-8.0-0.39","udpe7l7gfz","many_one","0","direct_first","1","an05do20","0","25","1","0","3","1","Für jemanden, der Chinesisch sprechen und lesen kann, war diese Studie äußerst merkwürdig. Diese teilweise nicht existierenden Zeichen bzw. die inkorrekte Aussprache zu sehen, hat sehr irritiert und abgelenkt. ","0","1","0","3998.905000044033","","","","","neg","GS","GSold","1","category1/CS7.png","-19","targets/35.png","direct","",""
"","image-slider-response","130","847770","0.0-8.0-0.40","udpe7l7gfz","many_one","0","direct_first","1","an05do20","0","25","1","0","3","1","Für jemanden, der Chinesisch sprechen und lesen kann, war diese Studie äußerst merkwürdig. Diese teilweise nicht existierenden Zeichen bzw. die inkorrekte Aussprache zu sehen, hat sehr irritiert und abgelenkt. ","0","1","0","8178.09999990277","","","","","pos","CS","CS","3","category3/CS2.png","30","targets/18.png","direct","",""
"","image-slider-response","131","861952","0.0-8.0-0.41","udpe7l7gfz","many_one","0","direct_first","1","an05do20","0","25","1","0","3","1","Für jemanden, der Chinesisch sprechen und lesen kann, war diese Studie äußerst merkwürdig. Diese teilweise nicht existierenden Zeichen bzw. die inkorrekte Aussprache zu sehen, hat sehr irritiert und abgelenkt. ","0","1","0","14178.114999784157","","","","","pos","GS","GSnew","3","category3/GS2.png","12","targets/26.png","direct","",""
"","image-slider-response","132","864916","0.0-8.0-0.42","udpe7l7gfz","many_one","0","direct_first","1","an05do20","0","25","1","0","3","1","Für jemanden, der Chinesisch sprechen und lesen kann, war diese Studie äußerst merkwürdig. Diese teilweise nicht existierenden Zeichen bzw. die inkorrekte Aussprache zu sehen, hat sehr irritiert und abgelenkt. ","0","1","0","2959.4250000081956","","","","","neg","GS","GSold","4","category4/CS10.png","20","targets/5.png","direct","",""
"","image-slider-response","133","868784","0.0-8.0-0.43","udpe7l7gfz","many_one","0","direct_first","1","an05do20","0","25","1","0","3","1","Für jemanden, der Chinesisch sprechen und lesen kann, war diese Studie äußerst merkwürdig. Diese teilweise nicht existierenden Zeichen bzw. die inkorrekte Aussprache zu sehen, hat sehr irritiert und abgelenkt. ","0","1","0","3865.209999959916","","","","","neg","GS","GSold","1","category1/CS5.png","-25","targets/19.png","direct","",""
"","image-slider-response","134","871795","0.0-8.0-0.44","udpe7l7gfz","many_one","0","direct_first","1","an05do20","0","25","1","0","3","1","Für jemanden, der Chinesisch sprechen und lesen kann, war diese Studie äußerst merkwürdig. Diese teilweise nicht existierenden Zeichen bzw. die inkorrekte Aussprache zu sehen, hat sehr irritiert und abgelenkt. ","0","1","0","3007.8399998601526","","","","","neg","GS","GSold","4","category4/CS9.png","14","targets/33.png","direct","",""
"","image-slider-response","135","898811","0.0-8.0-0.45","udpe7l7gfz","many_one","0","direct_first","1","an05do20","0","25","1","0","3","1","Für jemanden, der Chinesisch sprechen und lesen kann, war diese Studie äußerst merkwürdig. Diese teilweise nicht existierenden Zeichen bzw. die inkorrekte Aussprache zu sehen, hat sehr irritiert und abgelenkt. ","0","1","0","27012.164999963716","","","","","neg","CS","CS","4","category4/CS7.png","-19","targets/48.png","direct","",""
"","image-slider-response","136","902235","0.0-8.0-0.46","udpe7l7gfz","many_one","0","direct_first","1","an05do20","0","25","1","0","3","1","Für jemanden, der Chinesisch sprechen und lesen kann, war diese Studie äußerst merkwürdig. Diese teilweise nicht existierenden Zeichen bzw. die inkorrekte Aussprache zu sehen, hat sehr irritiert und abgelenkt. ","0","1","0","3420.2050000894815","","","","","neg","GS","GSold","1","category1/CS1.png","-18","targets/36.png","direct","",""
"","image-slider-response","137","905098","0.0-8.0-0.47","udpe7l7gfz","many_one","0","direct_first","1","an05do20","0","25","1","0","3","1","Für jemanden, der Chinesisch sprechen und lesen kann, war diese Studie äußerst merkwürdig. Diese teilweise nicht existierenden Zeichen bzw. die inkorrekte Aussprache zu sehen, hat sehr irritiert und abgelenkt. ","0","1","0","2861.070000100881","","","","","pos","CS","CS","3","category3/CS10.png","21","targets/21.png","direct","",""
"","html-keyboard-response","138","929018","0.0-9.0","udpe7l7gfz","many_one","0","direct_first","1","an05do20","0","25","1","0","3","1","Für jemanden, der Chinesisch sprechen und lesen kann, war diese Studie äußerst merkwürdig. Diese teilweise nicht existierenden Zeichen bzw. die inkorrekte Aussprache zu sehen, hat sehr irritiert und abgelenkt. ","0","1","0","23916.384999873117","","","<p>Sie sehen nun die chinesischen Zeichen nur ganz kurz. Danach sehen Sie die jeweilige Aussprache der Zeichen als Silbe auf dem Bildschrim. Ihre Aufgabe ist es, für jede Silbe anzugeben, ob diese etwas angenehmes, oder unangenehmes bedeuten könnte. Verlassen Sie sich hier vor allem auf Ihre Intuition.<br><br>Die Zeichen werden nur zur Orientierung dargestellt, beachten Sie sie deshalb nicht. Konzentrieren Sie sich vor allem auf die Silben. <br>Reagieren Sie mit folgenden zwei Tasten: <br><br><b>'D' </b> wenn die Silbe etwas <b>unangenehmes</b> bedeuten könnte. <br><b>'K'</b> wenn die Silbe etwas <b>angenehmes</b> bedeuten könnte. <br><br>Bitte legen Sie nun den Zeigefinger der linken Hand auf die Taste 'D' und den Zeigefinger der rechten Hand auf die Taste 'K'. <br>Reagieren Sie auf jede Silbe so schnell wie möglich. Uns interessiert Ihre spontane Reaktion. <br> <br> <br>Drücken Sie 'D' oder 'K', um die nächste Aufgabe zu starten. </p>","68","","","","","","","","","",""
"","html-keyboard-response","139","932022","0.0-10.0-0.0","udpe7l7gfz","many_one","0","direct_first","1","an05do20","0","25","1","0","3","1","Für jemanden, der Chinesisch sprechen und lesen kann, war diese Studie äußerst merkwürdig. Diese teilweise nicht existierenden Zeichen bzw. die inkorrekte Aussprache zu sehen, hat sehr irritiert und abgelenkt. ","0","1","0","null","","","<div style=""font-size:60px;"">+</div>","null","","","","","","","","","",""
"","html-keyboard-response","140","932115","0.0-10.0-1.0","udpe7l7gfz","many_one","0","direct_first","1","an05do20","0","25","1","0","3","1","Für jemanden, der Chinesisch sprechen und lesen kann, war diese Studie äußerst merkwürdig. Diese teilweise nicht existierenden Zeichen bzw. die inkorrekte Aussprache zu sehen, hat sehr irritiert und abgelenkt. ","0","1","0","null","","","<img src = 'category1/CS7.png' width = '100%;'>","null","","","","","","","","","",""
"","html-keyboard-response","141","932369","0.0-10.0-2.0","udpe7l7gfz","many_one","0","direct_first","1","an05do20","0","25","1","0","3","1","Für jemanden, der Chinesisch sprechen und lesen kann, war diese Studie äußerst merkwürdig. Diese teilweise nicht existierenden Zeichen bzw. die inkorrekte Aussprache zu sehen, hat sehr irritiert und abgelenkt. ","0","1","0","null","","","<img src = 'targets/35.png' width = '100%;'>","null","","","","","","","","","",""
"","html-keyboard-response","142","935069","0.0-10.0-3.0","udpe7l7gfz","many_one","0","direct_first","1","an05do20","0","25","1","0","3","1","Für jemanden, der Chinesisch sprechen und lesen kann, war diese Studie äußerst merkwürdig. Diese teilweise nicht existierenden Zeichen bzw. die inkorrekte Aussprache zu sehen, hat sehr irritiert und abgelenkt. ","0","1","0","2697.8349999990314","","","<img src = 'targets/mask.png' width = '100%;'>","68","neg","GS","GSold","1","category1/CS7.png","","targets/35.png","indirect","0","0"
"","html-keyboard-response","143","936573","0.0-10.0-0.1","udpe7l7gfz","many_one","0","direct_first","1","an05do20","0","25","1","0","3","1","Für jemanden, der Chinesisch sprechen und lesen kann, war diese Studie äußerst merkwürdig. Diese teilweise nicht existierenden Zeichen bzw. die inkorrekte Aussprache zu sehen, hat sehr irritiert und abgelenkt. ","0","1","0","null","","","<div style=""font-size:60px;"">+</div>","null","","","","","","","","","",""
"","html-keyboard-response","144","936665","0.0-10.0-1.1","udpe7l7gfz","many_one","0","direct_first","1","an05do20","0","25","1","0","3","1","Für jemanden, der Chinesisch sprechen und lesen kann, war diese Studie äußerst merkwürdig. Diese teilweise nicht existierenden Zeichen bzw. die inkorrekte Aussprache zu sehen, hat sehr irritiert und abgelenkt. ","0","1","0","null","","","<img src = 'category3/CS2.png' width = '100%;'>","null","","","","","","","","","",""
"","html-keyboard-response","145","936919","0.0-10.0-2.1","udpe7l7gfz","many_one","0","direct_first","1","an05do20","0","25","1","0","3","1","Für jemanden, der Chinesisch sprechen und lesen kann, war diese Studie äußerst merkwürdig. Diese teilweise nicht existierenden Zeichen bzw. die inkorrekte Aussprache zu sehen, hat sehr irritiert und abgelenkt. ","0","1","0","null","","","<img src = 'targets/18.png' width = '100%;'>","null","","","","","","","","","",""
"","html-keyboard-response","146","939435","0.0-10.0-3.1","udpe7l7gfz","many_one","0","direct_first","1","an05do20","0","25","1","0","3","1","Für jemanden, der Chinesisch sprechen und lesen kann, war diese Studie äußerst merkwürdig. Diese teilweise nicht existierenden Zeichen bzw. die inkorrekte Aussprache zu sehen, hat sehr irritiert und abgelenkt. ","0","1","0","2513.7350000441074","","","<img src = 'targets/mask.png' width = '100%;'>","75","pos","CS","CS","3","category3/CS2.png","","targets/18.png","indirect","1","1"
"","html-keyboard-response","147","940938","0.0-10.0-0.2","udpe7l7gfz","many_one","0","direct_first","1","an05do20","0","25","1","0","3","1","Für jemanden, der Chinesisch sprechen und lesen kann, war diese Studie äußerst merkwürdig. Diese teilweise nicht existierenden Zeichen bzw. die inkorrekte Aussprache zu sehen, hat sehr irritiert und abgelenkt. ","0","1","0","null","","","<div style=""font-size:60px;"">+</div>","null","","","","","","","","","",""
"","html-keyboard-response","148","941031","0.0-10.0-1.2","udpe7l7gfz","many_one","0","direct_first","1","an05do20","0","25","1","0","3","1","Für jemanden, der Chinesisch sprechen und lesen kann, war diese Studie äußerst merkwürdig. Diese teilweise nicht existierenden Zeichen bzw. die inkorrekte Aussprache zu sehen, hat sehr irritiert und abgelenkt. ","0","1","0","null","","","<img src = 'category3/CS5.png' width = '100%;'>","null","","","","","","","","","",""
"","html-keyboard-response","149","941284","0.0-10.0-2.2","udpe7l7gfz","many_one","0","direct_first","1","an05do20","0","25","1","0","3","1","Für jemanden, der Chinesisch sprechen und lesen kann, war diese Studie äußerst merkwürdig. Diese teilweise nicht existierenden Zeichen bzw. die inkorrekte Aussprache zu sehen, hat sehr irritiert und abgelenkt. ","0","1","0","null","","","<img src = 'targets/28.png' width = '100%;'>","null","","","","","","","","","",""
"","html-keyboard-response","150","942732","0.0-10.0-3.2","udpe7l7gfz","many_one","0","direct_first","1","an05do20","0","25","1","0","3","1","Für jemanden, der Chinesisch sprechen und lesen kann, war diese Studie äußerst merkwürdig. Diese teilweise nicht existierenden Zeichen bzw. die inkorrekte Aussprache zu sehen, hat sehr irritiert und abgelenkt. ","0","1","0","1445.71499992162","","","<img src = 'targets/mask.png' width = '100%;'>","75","pos","GS","GSold","3","category3/CS5.png","","targets/28.png","indirect","1","2"
"","html-keyboard-response","151","944234","0.0-10.0-0.3","udpe7l7gfz","many_one","0","direct_first","1","an05do20","0","25","1","0","3","1","Für jemanden, der Chinesisch sprechen und lesen kann, war diese Studie äußerst merkwürdig. Diese teilweise nicht existierenden Zeichen bzw. die inkorrekte Aussprache zu sehen, hat sehr irritiert und abgelenkt. ","0","1","0","null","","","<div style=""font-size:60px;"">+</div>","null","","","","","","","","","",""
"","html-keyboard-response","152","944326","0.0-10.0-1.3","udpe7l7gfz","many_one","0","direct_first","1","an05do20","0","25","1","0","3","1","Für jemanden, der Chinesisch sprechen und lesen kann, war diese Studie äußerst merkwürdig. Diese teilweise nicht existierenden Zeichen bzw. die inkorrekte Aussprache zu sehen, hat sehr irritiert und abgelenkt. ","0","1","0","null","","","<img src = 'category1/CS4.png' width = '100%;'>","null","","","","","","","","","",""
"","html-keyboard-response","153","944579","0.0-10.0-2.3","udpe7l7gfz","many_one","0","direct_first","1","an05do20","0","25","1","0","3","1","Für jemanden, der Chinesisch sprechen und lesen kann, war diese Studie äußerst merkwürdig. Diese teilweise nicht existierenden Zeichen bzw. die inkorrekte Aussprache zu sehen, hat sehr irritiert und abgelenkt. ","0","1","0","null","","","<img src = 'targets/4.png' width = '100%;'>","null","","","","","","","","","",""
"","html-keyboard-response","154","947791","0.0-10.0-3.3","udpe7l7gfz","many_one","0","direct_first","1","an05do20","0","25","1","0","3","1","Für jemanden, der Chinesisch sprechen und lesen kann, war diese Studie äußerst merkwürdig. Diese teilweise nicht existierenden Zeichen bzw. die inkorrekte Aussprache zu sehen, hat sehr irritiert und abgelenkt. ","0","1","0","3210.0050000008196","","","<img src = 'targets/mask.png' width = '100%;'>","68","neg","CS","CS","1","category1/CS4.png","","targets/4.png","indirect","0","3"
"","html-keyboard-response","155","949293","0.0-10.0-0.4","udpe7l7gfz","many_one","0","direct_first","1","an05do20","0","25","1","0","3","1","Für jemanden, der Chinesisch sprechen und lesen kann, war diese Studie äußerst merkwürdig. Diese teilweise nicht existierenden Zeichen bzw. die inkorrekte Aussprache zu sehen, hat sehr irritiert und abgelenkt. ","0","1","0","null","","","<div style=""font-size:60px;"">+</div>","null","","","","","","","","","",""
"","html-keyboard-response","156","949386","0.0-10.0-1.4","udpe7l7gfz","many_one","0","direct_first","1","an05do20","0","25","1","0","3","1","Für jemanden, der Chinesisch sprechen und lesen kann, war diese Studie äußerst merkwürdig. Diese teilweise nicht existierenden Zeichen bzw. die inkorrekte Aussprache zu sehen, hat sehr irritiert und abgelenkt. ","0","1","0","null","","","<img src = 'category3/CS6.png' width = '100%;'>","null","","","","","","","","","",""
"","html-keyboard-response","157","949639","0.0-10.0-2.4","udpe7l7gfz","many_one","0","direct_first","1","an05do20","0","25","1","0","3","1","Für jemanden, der Chinesisch sprechen und lesen kann, war diese Studie äußerst merkwürdig. Diese teilweise nicht existierenden Zeichen bzw. die inkorrekte Aussprache zu sehen, hat sehr irritiert und abgelenkt. ","0","1","0","null","","","<img src = 'targets/12.png' width = '100%;'>","null","","","","","","","","","",""
"","html-keyboard-response","158","950235","0.0-10.0-3.4","udpe7l7gfz","many_one","0","direct_first","1","an05do20","0","25","1","0","3","1","Für jemanden, der Chinesisch sprechen und lesen kann, war diese Studie äußerst merkwürdig. Diese teilweise nicht existierenden Zeichen bzw. die inkorrekte Aussprache zu sehen, hat sehr irritiert und abgelenkt. ","0","1","0","593.7400001566857","","","<img src = 'targets/mask.png' width = '100%;'>","75","pos","CS","CS","3","category3/CS6.png","","targets/12.png","indirect","1","4"
"","html-keyboard-response","159","951738","0.0-10.0-0.5","udpe7l7gfz","many_one","0","direct_first","1","an05do20","0","25","1","0","3","1","Für jemanden, der Chinesisch sprechen und lesen kann, war diese Studie äußerst merkwürdig. Diese teilweise nicht existierenden Zeichen bzw. die inkorrekte Aussprache zu sehen, hat sehr irritiert und abgelenkt. ","0","1","0","null","","","<div style=""font-size:60px;"">+</div>","null","","","","","","","","","",""
"","html-keyboard-response","160","951829","0.0-10.0-1.5","udpe7l7gfz","many_one","0","direct_first","1","an05do20","0","25","1","0","3","1","Für jemanden, der Chinesisch sprechen und lesen kann, war diese Studie äußerst merkwürdig. Diese teilweise nicht existierenden Zeichen bzw. die inkorrekte Aussprache zu sehen, hat sehr irritiert und abgelenkt. ","0","1","0","null","","","<img src = 'category3/CS7.png' width = '100%;'>","null","","","","","","","","","",""
"","html-keyboard-response","161","952082","0.0-10.0-2.5","udpe7l7gfz","many_one","0","direct_first","1","an05do20","0","25","1","0","3","1","Für jemanden, der Chinesisch sprechen und lesen kann, war diese Studie äußerst merkwürdig. Diese teilweise nicht existierenden Zeichen bzw. die inkorrekte Aussprache zu sehen, hat sehr irritiert und abgelenkt. ","0","1","0","null","","","<img src = 'targets/15.png' width = '100%;'>","null","","","","","","","","","",""
"","html-keyboard-response","162","953776","0.0-10.0-3.5","udpe7l7gfz","many_one","0","direct_first","1","an05do20","0","25","1","0","3","1","Für jemanden, der Chinesisch sprechen und lesen kann, war diese Studie äußerst merkwürdig. Diese teilweise nicht existierenden Zeichen bzw. die inkorrekte Aussprache zu sehen, hat sehr irritiert und abgelenkt. ","0","1","0","1692.164999898523","","","<img src = 'targets/mask.png' width = '100%;'>","75","pos","CS","CS","3","category3/CS7.png","","targets/15.png","indirect","1","5"
"","html-keyboard-response","163","955279","0.0-10.0-0.6","udpe7l7gfz","many_one","0","direct_first","1","an05do20","0","25","1","0","3","1","Für jemanden, der Chinesisch sprechen und lesen kann, war diese Studie äußerst merkwürdig. Diese teilweise nicht existierenden Zeichen bzw. die inkorrekte Aussprache zu sehen, hat sehr irritiert und abgelenkt. ","0","1","0","null","","","<div style=""font-size:60px;"">+</div>","null","","","","","","","","","",""
"","html-keyboard-response","164","955372","0.0-10.0-1.6","udpe7l7gfz","many_one","0","direct_first","1","an05do20","0","25","1","0","3","1","Für jemanden, der Chinesisch sprechen und lesen kann, war diese Studie äußerst merkwürdig. Diese teilweise nicht existierenden Zeichen bzw. die inkorrekte Aussprache zu sehen, hat sehr irritiert und abgelenkt. ","0","1","0","null","","","<img src = 'category2/CS9.png' width = '100%;'>","null","","","","","","","","","",""
"","html-keyboard-response","165","955625","0.0-10.0-2.6","udpe7l7gfz","many_one","0","direct_first","1","an05do20","0","25","1","0","3","1","Für jemanden, der Chinesisch sprechen und lesen kann, war diese Studie äußerst merkwürdig. Diese teilweise nicht existierenden Zeichen bzw. die inkorrekte Aussprache zu sehen, hat sehr irritiert und abgelenkt. ","0","1","0","null","","","<img src = 'targets/34.png' width = '100%;'>","null","","","","","","","","","",""
"","html-keyboard-response","166","956515","0.0-10.0-3.6","udpe7l7gfz","many_one","0","direct_first","1","an05do20","0","25","1","0","3","1","Für jemanden, der Chinesisch sprechen und lesen kann, war diese Studie äußerst merkwürdig. Diese teilweise nicht existierenden Zeichen bzw. die inkorrekte Aussprache zu sehen, hat sehr irritiert und abgelenkt. ","0","1","0","887.2350000310689","","","<img src = 'targets/mask.png' width = '100%;'>","75","pos","CS","CS","2","category2/CS9.png","","targets/34.png","indirect","1","6"
"","html-keyboard-response","167","958017","0.0-10.0-0.7","udpe7l7gfz","many_one","0","direct_first","1","an05do20","0","25","1","0","3","1","Für jemanden, der Chinesisch sprechen und lesen kann, war diese Studie äußerst merkwürdig. Diese teilweise nicht existierenden Zeichen bzw. die inkorrekte Aussprache zu sehen, hat sehr irritiert und abgelenkt. ","0","1","0","null","","","<div style=""font-size:60px;"">+</div>","null","","","","","","","","","",""
"","html-keyboard-response","168","958109","0.0-10.0-1.7","udpe7l7gfz","many_one","0","direct_first","1","an05do20","0","25","1","0","3","1","Für jemanden, der Chinesisch sprechen und lesen kann, war diese Studie äußerst merkwürdig. Diese teilweise nicht existierenden Zeichen bzw. die inkorrekte Aussprache zu sehen, hat sehr irritiert und abgelenkt. ","0","1","0","null","","","<img src = 'category2/CS1.png' width = '100%;'>","null","","","","","","","","","",""
"","html-keyboard-response","169","958361","0.0-10.0-2.7","udpe7l7gfz","many_one","0","direct_first","1","an05do20","0","25","1","0","3","1","Für jemanden, der Chinesisch sprechen und lesen kann, war diese Studie äußerst merkwürdig. Diese teilweise nicht existierenden Zeichen bzw. die inkorrekte Aussprache zu sehen, hat sehr irritiert und abgelenkt. ","0","1","0","null","","","<img src = 'targets/2.png' width = '100%;'>","null","","","","","","","","","",""
"","html-keyboard-response","170","959360","0.0-10.0-3.7","udpe7l7gfz","many_one","0","direct_first","1","an05do20","0","25","1","0","3","1","Für jemanden, der Chinesisch sprechen und lesen kann, war diese Studie äußerst merkwürdig. Diese teilweise nicht existierenden Zeichen bzw. die inkorrekte Aussprache zu sehen, hat sehr irritiert und abgelenkt. ","0","1","0","996.6049999929965","","","<img src = 'targets/mask.png' width = '100%;'>","75","pos","CS","CS","2","category2/CS1.png","","targets/2.png","indirect","1","7"
"","html-keyboard-response","171","960863","0.0-10.0-0.8","udpe7l7gfz","many_one","0","direct_first","1","an05do20","0","25","1","0","3","1","Für jemanden, der Chinesisch sprechen und lesen kann, war diese Studie äußerst merkwürdig. Diese teilweise nicht existierenden Zeichen bzw. die inkorrekte Aussprache zu sehen, hat sehr irritiert und abgelenkt. ","0","1","0","null","","","<div style=""font-size:60px;"">+</div>","null","","","","","","","","","",""
"","html-keyboard-response","172","960955","0.0-10.0-1.8","udpe7l7gfz","many_one","0","direct_first","1","an05do20","0","25","1","0","3","1","Für jemanden, der Chinesisch sprechen und lesen kann, war diese Studie äußerst merkwürdig. Diese teilweise nicht existierenden Zeichen bzw. die inkorrekte Aussprache zu sehen, hat sehr irritiert und abgelenkt. ","0","1","0","null","","","<img src = 'category4/CS3.png' width = '100%;'>","null","","","","","","","","","",""
"","html-keyboard-response","173","961209","0.0-10.0-2.8","udpe7l7gfz","many_one","0","direct_first","1","an05do20","0","25","1","0","3","1","Für jemanden, der Chinesisch sprechen und lesen kann, war diese Studie äußerst merkwürdig. Diese teilweise nicht existierenden Zeichen bzw. die inkorrekte Aussprache zu sehen, hat sehr irritiert und abgelenkt. ","0","1","0","null","","","<img src = 'targets/37.png' width = '100%;'>","null","","","","","","","","","",""
"","html-keyboard-response","174","963736","0.0-10.0-3.8","udpe7l7gfz","many_one","0","direct_first","1","an05do20","0","25","1","0","3","1","Für jemanden, der Chinesisch sprechen und lesen kann, war diese Studie äußerst merkwürdig. Diese teilweise nicht existierenden Zeichen bzw. die inkorrekte Aussprache zu sehen, hat sehr irritiert und abgelenkt. ","0","1","0","2524.324999889359","","","<img src = 'targets/mask.png' width = '100%;'>","68","neg","CS","CS","4","category4/CS3.png","","targets/37.png","indirect","0","8"
"","html-keyboard-response","175","965238","0.0-10.0-0.9","udpe7l7gfz","many_one","0","direct_first","1","an05do20","0","25","1","0","3","1","Für jemanden, der Chinesisch sprechen und lesen kann, war diese Studie äußerst merkwürdig. Diese teilweise nicht existierenden Zeichen bzw. die inkorrekte Aussprache zu sehen, hat sehr irritiert und abgelenkt. ","0","1","0","null","","","<div style=""font-size:60px;"">+</div>","null","","","","","","","","","",""
"","html-keyboard-response","176","965330","0.0-10.0-1.9","udpe7l7gfz","many_one","0","direct_first","1","an05do20","0","25","1","0","3","1","Für jemanden, der Chinesisch sprechen und lesen kann, war diese Studie äußerst merkwürdig. Diese teilweise nicht existierenden Zeichen bzw. die inkorrekte Aussprache zu sehen, hat sehr irritiert und abgelenkt. ","0","1","0","null","","","<img src = 'category1/CS1.png' width = '100%;'>","null","","","","","","","","","",""
"","html-keyboard-response","177","965583","0.0-10.0-2.9","udpe7l7gfz","many_one","0","direct_first","1","an05do20","0","25","1","0","3","1","Für jemanden, der Chinesisch sprechen und lesen kann, war diese Studie äußerst merkwürdig. Diese teilweise nicht existierenden Zeichen bzw. die inkorrekte Aussprache zu sehen, hat sehr irritiert und abgelenkt. ","0","1","0","null","","","<img src = 'targets/36.png' width = '100%;'>","null","","","","","","","","","",""
"","html-keyboard-response","178","966739","0.0-10.0-3.9","udpe7l7gfz","many_one","0","direct_first","1","an05do20","0","25","1","0","3","1","Für jemanden, der Chinesisch sprechen und lesen kann, war diese Studie äußerst merkwürdig. Diese teilweise nicht existierenden Zeichen bzw. die inkorrekte Aussprache zu sehen, hat sehr irritiert und abgelenkt. ","0","1","0","1153.459999943152","","","<img src = 'targets/mask.png' width = '100%;'>","75","neg","GS","GSold","1","category1/CS1.png","","targets/36.png","indirect","1","9"
"","html-keyboard-response","179","968240","0.0-10.0-0.10","udpe7l7gfz","many_one","0","direct_first","1","an05do20","0","25","1","0","3","1","Für jemanden, der Chinesisch sprechen und lesen kann, war diese Studie äußerst merkwürdig. Diese teilweise nicht existierenden Zeichen bzw. die inkorrekte Aussprache zu sehen, hat sehr irritiert und abgelenkt. ","0","1","0","null","","","<div style=""font-size:60px;"">+</div>","null","","","","","","","","","",""
"","html-keyboard-response","180","968332","0.0-10.0-1.10","udpe7l7gfz","many_one","0","direct_first","1","an05do20","0","25","1","0","3","1","Für jemanden, der Chinesisch sprechen und lesen kann, war diese Studie äußerst merkwürdig. Diese teilweise nicht existierenden Zeichen bzw. die inkorrekte Aussprache zu sehen, hat sehr irritiert und abgelenkt. ","0","1","0","null","","","<img src = 'category2/CS4.png' width = '100%;'>","null","","","","","","","","","",""
"","html-keyboard-response","181","968585","0.0-10.0-2.10","udpe7l7gfz","many_one","0","direct_first","1","an05do20","0","25","1","0","3","1","Für jemanden, der Chinesisch sprechen und lesen kann, war diese Studie äußerst merkwürdig. Diese teilweise nicht existierenden Zeichen bzw. die inkorrekte Aussprache zu sehen, hat sehr irritiert und abgelenkt. ","0","1","0","null","","","<img src = 'targets/22.png' width = '100%;'>","null","","","","","","","","","",""
"","html-keyboard-response","182","969757","0.0-10.0-3.10","udpe7l7gfz","many_one","0","direct_first","1","an05do20","0","25","1","0","3","1","Für jemanden, der Chinesisch sprechen und lesen kann, war diese Studie äußerst merkwürdig. Diese teilweise nicht existierenden Zeichen bzw. die inkorrekte Aussprache zu sehen, hat sehr irritiert und abgelenkt. ","0","1","0","1170.3999999444932","","","<img src = 'targets/mask.png' width = '100%;'>","68","pos","CS","CS","2","category2/CS4.png","","targets/22.png","indirect","0","10"
"","html-keyboard-response","183","971259","0.0-10.0-0.11","udpe7l7gfz","many_one","0","direct_first","1","an05do20","0","25","1","0","3","1","Für jemanden, der Chinesisch sprechen und lesen kann, war diese Studie äußerst merkwürdig. Diese teilweise nicht existierenden Zeichen bzw. die inkorrekte Aussprache zu sehen, hat sehr irritiert und abgelenkt. ","0","1","0","null","","","<div style=""font-size:60px;"">+</div>","null","","","","","","","","","",""
