"success","trial_type","trial_index","time_elapsed","internal_node_id","subject","condition","condition_code","measure","measure_code","codeword","gender","age","education","chinese","fach","handedness","comment","hinschauen","ablenkung","gewissenhaft","rt","url","responses","stimulus","key_press","val","type","type_specific","category","cs_selected","target","indirect","task","nr_pres","response"
"true","fullscreen","0","9709","0.0-0.0","4ycy6vchka","one_one","1","indirect_first","0","dt07el02","0","22","1","1","3","1","","0","1","0","","","","","","","","","","","","","","",""
"","external-html","1","32507","0.0-1.0","4ycy6vchka","one_one","1","indirect_first","0","dt07el02","0","22","1","1","3","1","","0","1","0","22756.065000023227","text/information.html","","","","","","","","","","","","",""
"","external-html","2","49366","0.0-2.0","4ycy6vchka","one_one","1","indirect_first","0","dt07el02","0","22","1","1","3","1","","0","1","0","16802.79500002507","text/consent.html","","","","","","","","","","","","",""
"","survey-html-form","3","105040","0.0-3.0","4ycy6vchka","one_one","1","indirect_first","0","dt07el02","0","22","1","1","3","1","","0","1","0","55670.54000002099","","{""codeword_enter"":""dt07el02""}","","","","","","","","","","","",""
"","survey-html-form","4","124374","0.0-4.0","4ycy6vchka","one_one","1","indirect_first","0","dt07el02","0","22","1","1","3","1","","0","1","0","19330.4749999661","","{""age"":""22"",""education"":""1"",""subject"":""3"",""gender"":""0"",""handedness"":""1"",""chinese"":""1""}","","","","","","","","","","","",""
"","survey-html-form","5","132787","0.0-5.0","4ycy6vchka","one_one","1","indirect_first","0","dt07el02","0","22","1","1","3","1","","0","1","0","8410.335000022314","","{}","","","","","","","","","","","",""
"","html-keyboard-response","6","136795","0.0-6.0-0.0-0.0","4ycy6vchka","one_one","1","indirect_first","0","dt07el02","0","22","1","1","3","1","","0","1","0","null","","","<div class = 'row'><div class = 'column'><img src = 'usneg/2205.bmp' width = '100%;'></div><div class = 'column'><img src = 'category2/CS2.png' width = '70%;'></div></div>","null","neg","CS","CS","2","category2/CS2.png","","","","",""
"","html-keyboard-response","7","139300","0.0-6.0-0.0-0.1","4ycy6vchka","one_one","1","indirect_first","0","dt07el02","0","22","1","1","3","1","","0","1","0","null","","","<div class = 'row'><div class = 'column'><img src = 'usneg/9404.bmp' width = '100%;'></div><div class = 'column'><img src = 'category4/CS1.png' width = '70%;'></div></div>","null","neg","CS","CS","4","category4/CS1.png","","","","",""
"","html-keyboard-response","8","141806","0.0-6.0-0.0-0.2","4ycy6vchka","one_one","1","indirect_first","0","dt07el02","0","22","1","1","3","1","","0","1","0","null","","","<div class = 'row'><div class = 'column'><img src = 'uspos/8190.bmp' width = '100%;'></div><div class = 'column'><img src = 'category1/CS6.png' width = '70%;'></div></div>","null","pos","CS","CS","1","category1/CS6.png","","","","",""
"","html-keyboard-response","9","144311","0.0-6.0-0.0-0.3","4ycy6vchka","one_one","1","indirect_first","0","dt07el02","0","22","1","1","3","1","","0","1","0","null","","","<div class = 'row'><div class = 'column'><img src = 'usneg/2205.bmp' width = '100%;'></div><div class = 'column'><img src = 'category2/CS2.png' width = '70%;'></div></div>","null","neg","CS","CS","2","category2/CS2.png","","","","",""
"","html-keyboard-response","10","146816","0.0-6.0-0.0-0.4","4ycy6vchka","one_one","1","indirect_first","0","dt07el02","0","22","1","1","3","1","","0","1","0","null","","","<div class = 'row'><div class = 'column'><img src = 'uspos/8190.bmp' width = '100%;'></div><div class = 'column'><img src = 'category1/CS6.png' width = '70%;'></div></div>","null","pos","CS","CS","1","category1/CS6.png","","","","",""
"","html-keyboard-response","11","149322","0.0-6.0-0.0-0.5","4ycy6vchka","one_one","1","indirect_first","0","dt07el02","0","22","1","1","3","1","","0","1","0","null","","","<div class = 'row'><div class = 'column'><img src = 'category3/CS10.png' width = '70%;'></div><div class = 'column'><img src = 'uspos/5470.bmp' width = '100%;'></div></div>","null","pos","CS","CS","3","category3/CS10.png","","","","",""
"","html-keyboard-response","12","151827","0.0-6.0-0.0-0.6","4ycy6vchka","one_one","1","indirect_first","0","dt07el02","0","22","1","1","3","1","","0","1","0","null","","","<div class = 'row'><div class = 'column'><img src = 'category2/CS2.png' width = '70%;'></div><div class = 'column'><img src = 'usneg/2205.bmp' width = '100%;'></div></div>","null","neg","CS","CS","2","category2/CS2.png","","","","",""
"","html-keyboard-response","13","154332","0.0-6.0-0.0-0.7","4ycy6vchka","one_one","1","indirect_first","0","dt07el02","0","22","1","1","3","1","","0","1","0","null","","","<div class = 'row'><div class = 'column'><img src = 'usneg/9404.bmp' width = '100%;'></div><div class = 'column'><img src = 'category4/CS1.png' width = '70%;'></div></div>","null","neg","CS","CS","4","category4/CS1.png","","","","",""
"","html-keyboard-response","14","156835","0.0-6.0-0.0-0.8","4ycy6vchka","one_one","1","indirect_first","0","dt07el02","0","22","1","1","3","1","","0","1","0","null","","","<div class = 'row'><div class = 'column'><img src = 'category2/CS2.png' width = '70%;'></div><div class = 'column'><img src = 'usneg/2205.bmp' width = '100%;'></div></div>","null","neg","CS","CS","2","category2/CS2.png","","","","",""
"","html-keyboard-response","15","159341","0.0-6.0-0.0-0.9","4ycy6vchka","one_one","1","indirect_first","0","dt07el02","0","22","1","1","3","1","","0","1","0","null","","","<div class = 'row'><div class = 'column'><img src = 'category4/CS1.png' width = '70%;'></div><div class = 'column'><img src = 'usneg/9404.bmp' width = '100%;'></div></div>","null","neg","CS","CS","4","category4/CS1.png","","","","",""
"","html-keyboard-response","16","161846","0.0-6.0-0.0-0.10","4ycy6vchka","one_one","1","indirect_first","0","dt07el02","0","22","1","1","3","1","","0","1","0","null","","","<div class = 'row'><div class = 'column'><img src = 'category2/CS2.png' width = '70%;'></div><div class = 'column'><img src = 'usneg/2205.bmp' width = '100%;'></div></div>","null","neg","CS","CS","2","category2/CS2.png","","","","",""
"","html-keyboard-response","17","164351","0.0-6.0-0.0-0.11","4ycy6vchka","one_one","1","indirect_first","0","dt07el02","0","22","1","1","3","1","","0","1","0","null","","","<div class = 'row'><div class = 'column'><img src = 'category3/CS10.png' width = '70%;'></div><div class = 'column'><img src = 'uspos/5470.bmp' width = '100%;'></div></div>","null","pos","CS","CS","3","category3/CS10.png","","","","",""
"","html-keyboard-response","18","166856","0.0-6.0-0.0-0.12","4ycy6vchka","one_one","1","indirect_first","0","dt07el02","0","22","1","1","3","1","","0","1","0","null","","","<div class = 'row'><div class = 'column'><img src = 'uspos/8190.bmp' width = '100%;'></div><div class = 'column'><img src = 'category1/CS6.png' width = '70%;'></div></div>","null","pos","CS","CS","1","category1/CS6.png","","","","",""
"","html-keyboard-response","19","169361","0.0-6.0-0.0-0.13","4ycy6vchka","one_one","1","indirect_first","0","dt07el02","0","22","1","1","3","1","","0","1","0","null","","","<div class = 'row'><div class = 'column'><img src = 'category4/CS1.png' width = '70%;'></div><div class = 'column'><img src = 'usneg/9404.bmp' width = '100%;'></div></div>","null","neg","CS","CS","4","category4/CS1.png","","","","",""
"","html-keyboard-response","20","171865","0.0-6.0-0.0-0.14","4ycy6vchka","one_one","1","indirect_first","0","dt07el02","0","22","1","1","3","1","","0","1","0","null","","","<div class = 'row'><div class = 'column'><img src = 'category3/CS10.png' width = '70%;'></div><div class = 'column'><img src = 'uspos/5470.bmp' width = '100%;'></div></div>","null","pos","CS","CS","3","category3/CS10.png","","","","",""
"","html-keyboard-response","21","174371","0.0-6.0-0.0-0.15","4ycy6vchka","one_one","1","indirect_first","0","dt07el02","0","22","1","1","3","1","","0","1","0","null","","","<div class = 'row'><div class = 'column'><img src = 'category1/CS6.png' width = '70%;'></div><div class = 'column'><img src = 'uspos/8190.bmp' width = '100%;'></div></div>","null","pos","CS","CS","1","category1/CS6.png","","","","",""
"","html-keyboard-response","22","176876","0.0-6.0-0.0-0.16","4ycy6vchka","one_one","1","indirect_first","0","dt07el02","0","22","1","1","3","1","","0","1","0","null","","","<div class = 'row'><div class = 'column'><img src = 'uspos/5470.bmp' width = '100%;'></div><div class = 'column'><img src = 'category3/CS10.png' width = '70%;'></div></div>","null","pos","CS","CS","3","category3/CS10.png","","","","",""
"","html-keyboard-response","23","179381","0.0-6.0-0.0-0.17","4ycy6vchka","one_one","1","indirect_first","0","dt07el02","0","22","1","1","3","1","","0","1","0","null","","","<div class = 'row'><div class = 'column'><img src = 'category1/CS6.png' width = '70%;'></div><div class = 'column'><img src = 'uspos/8190.bmp' width = '100%;'></div></div>","null","pos","CS","CS","1","category1/CS6.png","","","","",""
"","html-keyboard-response","24","181887","0.0-6.0-0.0-0.18","4ycy6vchka","one_one","1","indirect_first","0","dt07el02","0","22","1","1","3","1","","0","1","0","null","","","<div class = 'row'><div class = 'column'><img src = 'uspos/5470.bmp' width = '100%;'></div><div class = 'column'><img src = 'category3/CS10.png' width = '70%;'></div></div>","null","pos","CS","CS","3","category3/CS10.png","","","","",""
"","html-keyboard-response","25","184392","0.0-6.0-0.0-0.19","4ycy6vchka","one_one","1","indirect_first","0","dt07el02","0","22","1","1","3","1","","0","1","0","null","","","<div class = 'row'><div class = 'column'><img src = 'usneg/9404.bmp' width = '100%;'></div><div class = 'column'><img src = 'category4/CS1.png' width = '70%;'></div></div>","null","neg","CS","CS","4","category4/CS1.png","","","","",""
"","survey-html-form","26","187281","0.0-6.0-1.0","4ycy6vchka","one_one","1","indirect_first","0","dt07el02","0","22","1","1","3","1","","0","1","0","2387.0400000014342","","{}","","","","","","","","","","","",""
"","html-keyboard-response","27","191284","0.0-6.0-2.0-0.0","4ycy6vchka","one_one","1","indirect_first","0","dt07el02","0","22","1","1","3","1","","0","1","0","null","","","<div class = 'row'><div class = 'column'><img src = 'uspos/8190.bmp' width = '100%;'></div><div class = 'column'><img src = 'category1/CS6.png' width = '70%;'></div></div>","null","pos","CS","CS","1","category1/CS6.png","","","","",""
"","html-keyboard-response","28","193789","0.0-6.0-2.0-0.1","4ycy6vchka","one_one","1","indirect_first","0","dt07el02","0","22","1","1","3","1","","0","1","0","null","","","<div class = 'row'><div class = 'column'><img src = 'category2/CS2.png' width = '70%;'></div><div class = 'column'><img src = 'usneg/2205.bmp' width = '100%;'></div></div>","null","neg","CS","CS","2","category2/CS2.png","","","","",""
"","html-keyboard-response","29","196295","0.0-6.0-2.0-0.2","4ycy6vchka","one_one","1","indirect_first","0","dt07el02","0","22","1","1","3","1","","0","1","0","null","","","<div class = 'row'><div class = 'column'><img src = 'uspos/8190.bmp' width = '100%;'></div><div class = 'column'><img src = 'category1/CS6.png' width = '70%;'></div></div>","null","pos","CS","CS","1","category1/CS6.png","","","","",""
"","html-keyboard-response","30","198800","0.0-6.0-2.0-0.3","4ycy6vchka","one_one","1","indirect_first","0","dt07el02","0","22","1","1","3","1","","0","1","0","null","","","<div class = 'row'><div class = 'column'><img src = 'uspos/5470.bmp' width = '100%;'></div><div class = 'column'><img src = 'category3/CS10.png' width = '70%;'></div></div>","null","pos","CS","CS","3","category3/CS10.png","","","","",""
"","html-keyboard-response","31","201306","0.0-6.0-2.0-0.4","4ycy6vchka","one_one","1","indirect_first","0","dt07el02","0","22","1","1","3","1","","0","1","0","null","","","<div class = 'row'><div class = 'column'><img src = 'category4/CS1.png' width = '70%;'></div><div class = 'column'><img src = 'usneg/9404.bmp' width = '100%;'></div></div>","null","neg","CS","CS","4","category4/CS1.png","","","","",""
"","html-keyboard-response","32","203810","0.0-6.0-2.0-0.5","4ycy6vchka","one_one","1","indirect_first","0","dt07el02","0","22","1","1","3","1","","0","1","0","null","","","<div class = 'row'><div class = 'column'><img src = 'category3/CS10.png' width = '70%;'></div><div class = 'column'><img src = 'uspos/5470.bmp' width = '100%;'></div></div>","null","pos","CS","CS","3","category3/CS10.png","","","","",""
"","html-keyboard-response","33","206315","0.0-6.0-2.0-0.6","4ycy6vchka","one_one","1","indirect_first","0","dt07el02","0","22","1","1","3","1","","0","1","0","null","","","<div class = 'row'><div class = 'column'><img src = 'usneg/9404.bmp' width = '100%;'></div><div class = 'column'><img src = 'category4/CS1.png' width = '70%;'></div></div>","null","neg","CS","CS","4","category4/CS1.png","","","","",""
"","html-keyboard-response","34","208820","0.0-6.0-2.0-0.7","4ycy6vchka","one_one","1","indirect_first","0","dt07el02","0","22","1","1","3","1","","0","1","0","null","","","<div class = 'row'><div class = 'column'><img src = 'category2/CS2.png' width = '70%;'></div><div class = 'column'><img src = 'usneg/2205.bmp' width = '100%;'></div></div>","null","neg","CS","CS","2","category2/CS2.png","","","","",""
"","html-keyboard-response","35","211324","0.0-6.0-2.0-0.8","4ycy6vchka","one_one","1","indirect_first","0","dt07el02","0","22","1","1","3","1","","0","1","0","null","","","<div class = 'row'><div class = 'column'><img src = 'usneg/9404.bmp' width = '100%;'></div><div class = 'column'><img src = 'category4/CS1.png' width = '70%;'></div></div>","null","neg","CS","CS","4","category4/CS1.png","","","","",""
"","html-keyboard-response","36","213828","0.0-6.0-2.0-0.9","4ycy6vchka","one_one","1","indirect_first","0","dt07el02","0","22","1","1","3","1","","0","1","0","null","","","<div class = 'row'><div class = 'column'><img src = 'uspos/5470.bmp' width = '100%;'></div><div class = 'column'><img src = 'category3/CS10.png' width = '70%;'></div></div>","null","pos","CS","CS","3","category3/CS10.png","","","","",""
"","html-keyboard-response","37","216333","0.0-6.0-2.0-0.10","4ycy6vchka","one_one","1","indirect_first","0","dt07el02","0","22","1","1","3","1","","0","1","0","null","","","<div class = 'row'><div class = 'column'><img src = 'category4/CS1.png' width = '70%;'></div><div class = 'column'><img src = 'usneg/9404.bmp' width = '100%;'></div></div>","null","neg","CS","CS","4","category4/CS1.png","","","","",""
"","html-keyboard-response","38","218838","0.0-6.0-2.0-0.11","4ycy6vchka","one_one","1","indirect_first","0","dt07el02","0","22","1","1","3","1","","0","1","0","null","","","<div class = 'row'><div class = 'column'><img src = 'category1/CS6.png' width = '70%;'></div><div class = 'column'><img src = 'uspos/8190.bmp' width = '100%;'></div></div>","null","pos","CS","CS","1","category1/CS6.png","","","","",""
"","html-keyboard-response","39","221343","0.0-6.0-2.0-0.12","4ycy6vchka","one_one","1","indirect_first","0","dt07el02","0","22","1","1","3","1","","0","1","0","null","","","<div class = 'row'><div class = 'column'><img src = 'usneg/9404.bmp' width = '100%;'></div><div class = 'column'><img src = 'category4/CS1.png' width = '70%;'></div></div>","null","neg","CS","CS","4","category4/CS1.png","","","","",""
"","html-keyboard-response","40","223847","0.0-6.0-2.0-0.13","4ycy6vchka","one_one","1","indirect_first","0","dt07el02","0","22","1","1","3","1","","0","1","0","null","","","<div class = 'row'><div class = 'column'><img src = 'usneg/2205.bmp' width = '100%;'></div><div class = 'column'><img src = 'category2/CS2.png' width = '70%;'></div></div>","null","neg","CS","CS","2","category2/CS2.png","","","","",""
"","html-keyboard-response","41","226353","0.0-6.0-2.0-0.14","4ycy6vchka","one_one","1","indirect_first","0","dt07el02","0","22","1","1","3","1","","0","1","0","null","","","<div class = 'row'><div class = 'column'><img src = 'category3/CS10.png' width = '70%;'></div><div class = 'column'><img src = 'uspos/5470.bmp' width = '100%;'></div></div>","null","pos","CS","CS","3","category3/CS10.png","","","","",""
"","html-keyboard-response","42","228858","0.0-6.0-2.0-0.15","4ycy6vchka","one_one","1","indirect_first","0","dt07el02","0","22","1","1","3","1","","0","1","0","null","","","<div class = 'row'><div class = 'column'><img src = 'category1/CS6.png' width = '70%;'></div><div class = 'column'><img src = 'uspos/8190.bmp' width = '100%;'></div></div>","null","pos","CS","CS","1","category1/CS6.png","","","","",""
"","html-keyboard-response","43","231363","0.0-6.0-2.0-0.16","4ycy6vchka","one_one","1","indirect_first","0","dt07el02","0","22","1","1","3","1","","0","1","0","null","","","<div class = 'row'><div class = 'column'><img src = 'usneg/2205.bmp' width = '100%;'></div><div class = 'column'><img src = 'category2/CS2.png' width = '70%;'></div></div>","null","neg","CS","CS","2","category2/CS2.png","","","","",""
"","html-keyboard-response","44","233868","0.0-6.0-2.0-0.17","4ycy6vchka","one_one","1","indirect_first","0","dt07el02","0","22","1","1","3","1","","0","1","0","null","","","<div class = 'row'><div class = 'column'><img src = 'uspos/5470.bmp' width = '100%;'></div><div class = 'column'><img src = 'category3/CS10.png' width = '70%;'></div></div>","null","pos","CS","CS","3","category3/CS10.png","","","","",""
"","html-keyboard-response","45","236371","0.0-6.0-2.0-0.18","4ycy6vchka","one_one","1","indirect_first","0","dt07el02","0","22","1","1","3","1","","0","1","0","null","","","<div class = 'row'><div class = 'column'><img src = 'category2/CS2.png' width = '70%;'></div><div class = 'column'><img src = 'usneg/2205.bmp' width = '100%;'></div></div>","null","neg","CS","CS","2","category2/CS2.png","","","","",""
"","html-keyboard-response","46","238875","0.0-6.0-2.0-0.19","4ycy6vchka","one_one","1","indirect_first","0","dt07el02","0","22","1","1","3","1","","0","1","0","null","","","<div class = 'row'><div class = 'column'><img src = 'uspos/8190.bmp' width = '100%;'></div><div class = 'column'><img src = 'category1/CS6.png' width = '70%;'></div></div>","null","pos","CS","CS","1","category1/CS6.png","","","","",""
"","survey-html-form","47","240745","0.0-6.0-3.0","4ycy6vchka","one_one","1","indirect_first","0","dt07el02","0","22","1","1","3","1","","0","1","0","1368.9850000082515","","{}","","","","","","","","","","","",""
"","html-keyboard-response","48","244751","0.0-6.0-4.0-0.0","4ycy6vchka","one_one","1","indirect_first","0","dt07el02","0","22","1","1","3","1","","0","1","0","null","","","<div class = 'row'><div class = 'column'><img src = 'usneg/2205.bmp' width = '100%;'></div><div class = 'column'><img src = 'category2/CS2.png' width = '70%;'></div></div>","null","neg","CS","CS","2","category2/CS2.png","","","","",""
"","html-keyboard-response","49","247254","0.0-6.0-4.0-0.1","4ycy6vchka","one_one","1","indirect_first","0","dt07el02","0","22","1","1","3","1","","0","1","0","null","","","<div class = 'row'><div class = 'column'><img src = 'category1/CS6.png' width = '70%;'></div><div class = 'column'><img src = 'uspos/8190.bmp' width = '100%;'></div></div>","null","pos","CS","CS","1","category1/CS6.png","","","","",""
"","html-keyboard-response","50","249760","0.0-6.0-4.0-0.2","4ycy6vchka","one_one","1","indirect_first","0","dt07el02","0","22","1","1","3","1","","0","1","0","null","","","<div class = 'row'><div class = 'column'><img src = 'uspos/5470.bmp' width = '100%;'></div><div class = 'column'><img src = 'category3/CS10.png' width = '70%;'></div></div>","null","pos","CS","CS","3","category3/CS10.png","","","","",""
"","html-keyboard-response","51","252265","0.0-6.0-4.0-0.3","4ycy6vchka","one_one","1","indirect_first","0","dt07el02","0","22","1","1","3","1","","0","1","0","null","","","<div class = 'row'><div class = 'column'><img src = 'usneg/2205.bmp' width = '100%;'></div><div class = 'column'><img src = 'category2/CS2.png' width = '70%;'></div></div>","null","neg","CS","CS","2","category2/CS2.png","","","","",""
"","html-keyboard-response","52","254770","0.0-6.0-4.0-0.4","4ycy6vchka","one_one","1","indirect_first","0","dt07el02","0","22","1","1","3","1","","0","1","0","null","","","<div class = 'row'><div class = 'column'><img src = 'category4/CS1.png' width = '70%;'></div><div class = 'column'><img src = 'usneg/9404.bmp' width = '100%;'></div></div>","null","neg","CS","CS","4","category4/CS1.png","","","","",""
"","html-keyboard-response","53","257274","0.0-6.0-4.0-0.5","4ycy6vchka","one_one","1","indirect_first","0","dt07el02","0","22","1","1","3","1","","0","1","0","null","","","<div class = 'row'><div class = 'column'><img src = 'category1/CS6.png' width = '70%;'></div><div class = 'column'><img src = 'uspos/8190.bmp' width = '100%;'></div></div>","null","pos","CS","CS","1","category1/CS6.png","","","","",""
"","html-keyboard-response","54","259779","0.0-6.0-4.0-0.6","4ycy6vchka","one_one","1","indirect_first","0","dt07el02","0","22","1","1","3","1","","0","1","0","null","","","<div class = 'row'><div class = 'column'><img src = 'usneg/9404.bmp' width = '100%;'></div><div class = 'column'><img src = 'category4/CS1.png' width = '70%;'></div></div>","null","neg","CS","CS","4","category4/CS1.png","","","","",""
"","html-keyboard-response","55","262284","0.0-6.0-4.0-0.7","4ycy6vchka","one_one","1","indirect_first","0","dt07el02","0","22","1","1","3","1","","0","1","0","null","","","<div class = 'row'><div class = 'column'><img src = 'category3/CS10.png' width = '70%;'></div><div class = 'column'><img src = 'uspos/5470.bmp' width = '100%;'></div></div>","null","pos","CS","CS","3","category3/CS10.png","","","","",""
"","html-keyboard-response","56","264788","0.0-6.0-4.0-0.8","4ycy6vchka","one_one","1","indirect_first","0","dt07el02","0","22","1","1","3","1","","0","1","0","null","","","<div class = 'row'><div class = 'column'><img src = 'uspos/8190.bmp' width = '100%;'></div><div class = 'column'><img src = 'category1/CS6.png' width = '70%;'></div></div>","null","pos","CS","CS","1","category1/CS6.png","","","","",""
"","html-keyboard-response","57","267294","0.0-6.0-4.0-0.9","4ycy6vchka","one_one","1","indirect_first","0","dt07el02","0","22","1","1","3","1","","0","1","0","null","","","<div class = 'row'><div class = 'column'><img src = 'uspos/5470.bmp' width = '100%;'></div><div class = 'column'><img src = 'category3/CS10.png' width = '70%;'></div></div>","null","pos","CS","CS","3","category3/CS10.png","","","","",""
"","html-keyboard-response","58","269798","0.0-6.0-4.0-0.10","4ycy6vchka","one_one","1","indirect_first","0","dt07el02","0","22","1","1","3","1","","0","1","0","null","","","<div class = 'row'><div class = 'column'><img src = 'uspos/8190.bmp' width = '100%;'></div><div class = 'column'><img src = 'category1/CS6.png' width = '70%;'></div></div>","null","pos","CS","CS","1","category1/CS6.png","","","","",""
"","html-keyboard-response","59","272304","0.0-6.0-4.0-0.11","4ycy6vchka","one_one","1","indirect_first","0","dt07el02","0","22","1","1","3","1","","0","1","0","null","","","<div class = 'row'><div class = 'column'><img src = 'uspos/5470.bmp' width = '100%;'></div><div class = 'column'><img src = 'category3/CS10.png' width = '70%;'></div></div>","null","pos","CS","CS","3","category3/CS10.png","","","","",""
"","html-keyboard-response","60","274811","0.0-6.0-4.0-0.12","4ycy6vchka","one_one","1","indirect_first","0","dt07el02","0","22","1","1","3","1","","0","1","0","null","","","<div class = 'row'><div class = 'column'><img src = 'category4/CS1.png' width = '70%;'></div><div class = 'column'><img src = 'usneg/9404.bmp' width = '100%;'></div></div>","null","neg","CS","CS","4","category4/CS1.png","","","","",""
"","html-keyboard-response","61","277317","0.0-6.0-4.0-0.13","4ycy6vchka","one_one","1","indirect_first","0","dt07el02","0","22","1","1","3","1","","0","1","0","null","","","<div class = 'row'><div class = 'column'><img src = 'category2/CS2.png' width = '70%;'></div><div class = 'column'><img src = 'usneg/2205.bmp' width = '100%;'></div></div>","null","neg","CS","CS","2","category2/CS2.png","","","","",""
"","html-keyboard-response","62","279822","0.0-6.0-4.0-0.14","4ycy6vchka","one_one","1","indirect_first","0","dt07el02","0","22","1","1","3","1","","0","1","0","null","","","<div class = 'row'><div class = 'column'><img src = 'usneg/9404.bmp' width = '100%;'></div><div class = 'column'><img src = 'category4/CS1.png' width = '70%;'></div></div>","null","neg","CS","CS","4","category4/CS1.png","","","","",""
"","html-keyboard-response","63","282325","0.0-6.0-4.0-0.15","4ycy6vchka","one_one","1","indirect_first","0","dt07el02","0","22","1","1","3","1","","0","1","0","null","","","<div class = 'row'><div class = 'column'><img src = 'usneg/2205.bmp' width = '100%;'></div><div class = 'column'><img src = 'category2/CS2.png' width = '70%;'></div></div>","null","neg","CS","CS","2","category2/CS2.png","","","","",""
"","html-keyboard-response","64","284828","0.0-6.0-4.0-0.16","4ycy6vchka","one_one","1","indirect_first","0","dt07el02","0","22","1","1","3","1","","0","1","0","null","","","<div class = 'row'><div class = 'column'><img src = 'uspos/8190.bmp' width = '100%;'></div><div class = 'column'><img src = 'category1/CS6.png' width = '70%;'></div></div>","null","pos","CS","CS","1","category1/CS6.png","","","","",""
"","html-keyboard-response","65","287333","0.0-6.0-4.0-0.17","4ycy6vchka","one_one","1","indirect_first","0","dt07el02","0","22","1","1","3","1","","0","1","0","null","","","<div class = 'row'><div class = 'column'><img src = 'usneg/2205.bmp' width = '100%;'></div><div class = 'column'><img src = 'category2/CS2.png' width = '70%;'></div></div>","null","neg","CS","CS","2","category2/CS2.png","","","","",""
"","html-keyboard-response","66","289838","0.0-6.0-4.0-0.18","4ycy6vchka","one_one","1","indirect_first","0","dt07el02","0","22","1","1","3","1","","0","1","0","null","","","<div class = 'row'><div class = 'column'><img src = 'uspos/5470.bmp' width = '100%;'></div><div class = 'column'><img src = 'category3/CS10.png' width = '70%;'></div></div>","null","pos","CS","CS","3","category3/CS10.png","","","","",""
"","html-keyboard-response","67","292343","0.0-6.0-4.0-0.19","4ycy6vchka","one_one","1","indirect_first","0","dt07el02","0","22","1","1","3","1","","0","1","0","null","","","<div class = 'row'><div class = 'column'><img src = 'category4/CS1.png' width = '70%;'></div><div class = 'column'><img src = 'usneg/9404.bmp' width = '100%;'></div></div>","null","neg","CS","CS","4","category4/CS1.png","","","","",""
"","survey-html-form","68","294549","0.0-6.0-5.0","4ycy6vchka","one_one","1","indirect_first","0","dt07el02","0","22","1","1","3","1","","0","1","0","1703.525000018999","","{}","","","","","","","","","","","",""
"","html-keyboard-response","69","298556","0.0-6.0-6.0-0.0","4ycy6vchka","one_one","1","indirect_first","0","dt07el02","0","22","1","1","3","1","","0","1","0","null","","","<div class = 'row'><div class = 'column'><img src = 'uspos/8190.bmp' width = '100%;'></div><div class = 'column'><img src = 'category1/CS6.png' width = '70%;'></div></div>","null","pos","CS","CS","1","category1/CS6.png","","","","",""
"","html-keyboard-response","70","301060","0.0-6.0-6.0-0.1","4ycy6vchka","one_one","1","indirect_first","0","dt07el02","0","22","1","1","3","1","","0","1","0","null","","","<div class = 'row'><div class = 'column'><img src = 'usneg/9404.bmp' width = '100%;'></div><div class = 'column'><img src = 'category4/CS1.png' width = '70%;'></div></div>","null","neg","CS","CS","4","category4/CS1.png","","","","",""
"","html-keyboard-response","71","303564","0.0-6.0-6.0-0.2","4ycy6vchka","one_one","1","indirect_first","0","dt07el02","0","22","1","1","3","1","","0","1","0","null","","","<div class = 'row'><div class = 'column'><img src = 'uspos/5470.bmp' width = '100%;'></div><div class = 'column'><img src = 'category3/CS10.png' width = '70%;'></div></div>","null","pos","CS","CS","3","category3/CS10.png","","","","",""
"","html-keyboard-response","72","306070","0.0-6.0-6.0-0.3","4ycy6vchka","one_one","1","indirect_first","0","dt07el02","0","22","1","1","3","1","","0","1","0","null","","","<div class = 'row'><div class = 'column'><img src = 'category2/CS2.png' width = '70%;'></div><div class = 'column'><img src = 'usneg/2205.bmp' width = '100%;'></div></div>","null","neg","CS","CS","2","category2/CS2.png","","","","",""
"","html-keyboard-response","73","308575","0.0-6.0-6.0-0.4","4ycy6vchka","one_one","1","indirect_first","0","dt07el02","0","22","1","1","3","1","","0","1","0","null","","","<div class = 'row'><div class = 'column'><img src = 'uspos/5470.bmp' width = '100%;'></div><div class = 'column'><img src = 'category3/CS10.png' width = '70%;'></div></div>","null","pos","CS","CS","3","category3/CS10.png","","","","",""
"","html-keyboard-response","74","311080","0.0-6.0-6.0-0.5","4ycy6vchka","one_one","1","indirect_first","0","dt07el02","0","22","1","1","3","1","","0","1","0","null","","","<div class = 'row'><div class = 'column'><img src = 'category4/CS1.png' width = '70%;'></div><div class = 'column'><img src = 'usneg/9404.bmp' width = '100%;'></div></div>","null","neg","CS","CS","4","category4/CS1.png","","","","",""
"","html-keyboard-response","75","313585","0.0-6.0-6.0-0.6","4ycy6vchka","one_one","1","indirect_first","0","dt07el02","0","22","1","1","3","1","","0","1","0","null","","","<div class = 'row'><div class = 'column'><img src = 'uspos/8190.bmp' width = '100%;'></div><div class = 'column'><img src = 'category1/CS6.png' width = '70%;'></div></div>","null","pos","CS","CS","1","category1/CS6.png","","","","",""
"","html-keyboard-response","76","316091","0.0-6.0-6.0-0.7","4ycy6vchka","one_one","1","indirect_first","0","dt07el02","0","22","1","1","3","1","","0","1","0","null","","","<div class = 'row'><div class = 'column'><img src = 'category2/CS2.png' width = '70%;'></div><div class = 'column'><img src = 'usneg/2205.bmp' width = '100%;'></div></div>","null","neg","CS","CS","2","category2/CS2.png","","","","",""
"","html-keyboard-response","77","318596","0.0-6.0-6.0-0.8","4ycy6vchka","one_one","1","indirect_first","0","dt07el02","0","22","1","1","3","1","","0","1","0","null","","","<div class = 'row'><div class = 'column'><img src = 'uspos/5470.bmp' width = '100%;'></div><div class = 'column'><img src = 'category3/CS10.png' width = '70%;'></div></div>","null","pos","CS","CS","3","category3/CS10.png","","","","",""
"","html-keyboard-response","78","321102","0.0-6.0-6.0-0.9","4ycy6vchka","one_one","1","indirect_first","0","dt07el02","0","22","1","1","3","1","","0","1","0","null","","","<div class = 'row'><div class = 'column'><img src = 'usneg/2205.bmp' width = '100%;'></div><div class = 'column'><img src = 'category2/CS2.png' width = '70%;'></div></div>","null","neg","CS","CS","2","category2/CS2.png","","","","",""
"","html-keyboard-response","79","323606","0.0-6.0-6.0-0.10","4ycy6vchka","one_one","1","indirect_first","0","dt07el02","0","22","1","1","3","1","","0","1","0","null","","","<div class = 'row'><div class = 'column'><img src = 'category4/CS1.png' width = '70%;'></div><div class = 'column'><img src = 'usneg/9404.bmp' width = '100%;'></div></div>","null","neg","CS","CS","4","category4/CS1.png","","","","",""
"","html-keyboard-response","80","326111","0.0-6.0-6.0-0.11","4ycy6vchka","one_one","1","indirect_first","0","dt07el02","0","22","1","1","3","1","","0","1","0","null","","","<div class = 'row'><div class = 'column'><img src = 'uspos/8190.bmp' width = '100%;'></div><div class = 'column'><img src = 'category1/CS6.png' width = '70%;'></div></div>","null","pos","CS","CS","1","category1/CS6.png","","","","",""
"","html-keyboard-response","81","328618","0.0-6.0-6.0-0.12","4ycy6vchka","one_one","1","indirect_first","0","dt07el02","0","22","1","1","3","1","","0","1","0","null","","","<div class = 'row'><div class = 'column'><img src = 'usneg/2205.bmp' width = '100%;'></div><div class = 'column'><img src = 'category2/CS2.png' width = '70%;'></div></div>","null","neg","CS","CS","2","category2/CS2.png","","","","",""
"","html-keyboard-response","82","331123","0.0-6.0-6.0-0.13","4ycy6vchka","one_one","1","indirect_first","0","dt07el02","0","22","1","1","3","1","","0","1","0","null","","","<div class = 'row'><div class = 'column'><img src = 'uspos/8190.bmp' width = '100%;'></div><div class = 'column'><img src = 'category1/CS6.png' width = '70%;'></div></div>","null","pos","CS","CS","1","category1/CS6.png","","","","",""
"","html-keyboard-response","83","333628","0.0-6.0-6.0-0.14","4ycy6vchka","one_one","1","indirect_first","0","dt07el02","0","22","1","1","3","1","","0","1","0","null","","","<div class = 'row'><div class = 'column'><img src = 'category3/CS10.png' width = '70%;'></div><div class = 'column'><img src = 'uspos/5470.bmp' width = '100%;'></div></div>","null","pos","CS","CS","3","category3/CS10.png","","","","",""
"","html-keyboard-response","84","336133","0.0-6.0-6.0-0.15","4ycy6vchka","one_one","1","indirect_first","0","dt07el02","0","22","1","1","3","1","","0","1","0","null","","","<div class = 'row'><div class = 'column'><img src = 'usneg/9404.bmp' width = '100%;'></div><div class = 'column'><img src = 'category4/CS1.png' width = '70%;'></div></div>","null","neg","CS","CS","4","category4/CS1.png","","","","",""
"","html-keyboard-response","85","338639","0.0-6.0-6.0-0.16","4ycy6vchka","one_one","1","indirect_first","0","dt07el02","0","22","1","1","3","1","","0","1","0","null","","","<div class = 'row'><div class = 'column'><img src = 'category3/CS10.png' width = '70%;'></div><div class = 'column'><img src = 'uspos/5470.bmp' width = '100%;'></div></div>","null","pos","CS","CS","3","category3/CS10.png","","","","",""
"","html-keyboard-response","86","341142","0.0-6.0-6.0-0.17","4ycy6vchka","one_one","1","indirect_first","0","dt07el02","0","22","1","1","3","1","","0","1","0","null","","","<div class = 'row'><div class = 'column'><img src = 'usneg/2205.bmp' width = '100%;'></div><div class = 'column'><img src = 'category2/CS2.png' width = '70%;'></div></div>","null","neg","CS","CS","2","category2/CS2.png","","","","",""
"","html-keyboard-response","87","343647","0.0-6.0-6.0-0.18","4ycy6vchka","one_one","1","indirect_first","0","dt07el02","0","22","1","1","3","1","","0","1","0","null","","","<div class = 'row'><div class = 'column'><img src = 'category1/CS6.png' width = '70%;'></div><div class = 'column'><img src = 'uspos/8190.bmp' width = '100%;'></div></div>","null","pos","CS","CS","1","category1/CS6.png","","","","",""
"","html-keyboard-response","88","346152","0.0-6.0-6.0-0.19","4ycy6vchka","one_one","1","indirect_first","0","dt07el02","0","22","1","1","3","1","","0","1","0","null","","","<div class = 'row'><div class = 'column'><img src = 'category4/CS1.png' width = '70%;'></div><div class = 'column'><img src = 'usneg/9404.bmp' width = '100%;'></div></div>","null","neg","CS","CS","4","category4/CS1.png","","","","",""
"","html-keyboard-response","89","372108","0.0-7.0","4ycy6vchka","one_one","1","indirect_first","0","dt07el02","0","22","1","1","3","1","","0","1","0","25452.379999973346","","","<p>Sie sehen nun die chinesischen Zeichen nur ganz kurz. Danach sehen Sie die jeweilige Aussprache der Zeichen als Silbe auf dem Bildschrim. Ihre Aufgabe ist es, für jede Silbe anzugeben, ob diese etwas angenehmes, oder unangenehmes bedeuten könnte. Verlassen Sie sich hier vor allem auf Ihre Intuition.<br><br>Die Zeichen werden nur zur Orientierung dargestellt, beachten Sie sie deshalb nicht. Konzentrieren Sie sich vor allem auf die Silben. <br>Reagieren Sie mit folgenden zwei Tasten: <br><br><b>'D' </b> wenn die Silbe etwas <b>unangenehmes</b> bedeuten könnte. <br><b>'K'</b> wenn die Silbe etwas <b>angenehmes</b> bedeuten könnte. <br><br>Bitte legen Sie nun den Zeigefinger der linken Hand auf die Taste 'D' und den Zeigefinger der rechten Hand auf die Taste 'K'. <br>Reagieren Sie auf jede Silbe so schnell wie möglich. Uns interessiert Ihre spontane Reaktion. <br> <br> <br>Drücken Sie 'D' oder 'K', um die nächste Aufgabe zu starten. </p>","68","","","","","","","","","",""
"","html-keyboard-response","90","375111","0.0-8.0-0.0","4ycy6vchka","one_one","1","indirect_first","0","dt07el02","0","22","1","1","3","1","","0","1","0","null","","","<div style=""font-size:60px;"">+</div>","null","","","","","","","","","",""
"","html-keyboard-response","91","375204","0.0-8.0-1.0","4ycy6vchka","one_one","1","indirect_first","0","dt07el02","0","22","1","1","3","1","","0","1","0","null","","","<img src = 'category2/CS6.png' width = '100%;'>","null","","","","","","","","","",""
"","html-keyboard-response","92","375457","0.0-8.0-2.0","4ycy6vchka","one_one","1","indirect_first","0","dt07el02","0","22","1","1","3","1","","0","1","0","null","","","<img src = 'targets/5.png' width = '100%;'>","null","","","","","","","","","",""
"","html-keyboard-response","93","381161","0.0-8.0-3.0","4ycy6vchka","one_one","1","indirect_first","0","dt07el02","0","22","1","1","3","1","","0","1","0","5702.055000001565","","","<img src = 'targets/mask.png' width = '100%;'>","75","neg","GS","GSold","2","category2/CS6.png","targets/5.png","1","indirect","0",""
"","html-keyboard-response","94","382666","0.0-8.0-0.1","4ycy6vchka","one_one","1","indirect_first","0","dt07el02","0","22","1","1","3","1","","0","1","0","null","","","<div style=""font-size:60px;"">+</div>","null","","","","","","","","","",""
"","html-keyboard-response","95","382758","0.0-8.0-1.1","4ycy6vchka","one_one","1","indirect_first","0","dt07el02","0","22","1","1","3","1","","0","1","0","null","","","<img src = 'category3/CS9.png' width = '100%;'>","null","","","","","","","","","",""
"","html-keyboard-response","96","383010","0.0-8.0-2.1","4ycy6vchka","one_one","1","indirect_first","0","dt07el02","0","22","1","1","3","1","","0","1","0","null","","","<img src = 'targets/46.png' width = '100%;'>","null","","","","","","","","","",""
"","html-keyboard-response","97","384561","0.0-8.0-3.1","4ycy6vchka","one_one","1","indirect_first","0","dt07el02","0","22","1","1","3","1","","0","1","0","1549.6249999850988","","","<img src = 'targets/mask.png' width = '100%;'>","75","pos","GS","GSold","3","category3/CS9.png","targets/46.png","1","indirect","1",""
"","html-keyboard-response","98","386063","0.0-8.0-0.2","4ycy6vchka","one_one","1","indirect_first","0","dt07el02","0","22","1","1","3","1","","0","1","0","null","","","<div style=""font-size:60px;"">+</div>","null","","","","","","","","","",""
"","html-keyboard-response","99","386154","0.0-8.0-1.2","4ycy6vchka","one_one","1","indirect_first","0","dt07el02","0","22","1","1","3","1","","0","1","0","null","","","<img src = 'category2/CS2.png' width = '100%;'>","null","","","","","","","","","",""
"","html-keyboard-response","100","386407","0.0-8.0-2.2","4ycy6vchka","one_one","1","indirect_first","0","dt07el02","0","22","1","1","3","1","","0","1","0","null","","","<img src = 'targets/35.png' width = '100%;'>","null","","","","","","","","","",""
"","html-keyboard-response","101","387689","0.0-8.0-3.2","4ycy6vchka","one_one","1","indirect_first","0","dt07el02","0","22","1","1","3","1","","0","1","0","1279.5599999953993","","","<img src = 'targets/mask.png' width = '100%;'>","75","neg","CS","CS","2","category2/CS2.png","targets/35.png","1","indirect","2",""
"","html-keyboard-response","102","389193","0.0-8.0-0.3","4ycy6vchka","one_one","1","indirect_first","0","dt07el02","0","22","1","1","3","1","","0","1","0","null","","","<div style=""font-size:60px;"">+</div>","null","","","","","","","","","",""
"","html-keyboard-response","103","389284","0.0-8.0-1.3","4ycy6vchka","one_one","1","indirect_first","0","dt07el02","0","22","1","1","3","1","","0","1","0","null","","","<img src = 'category1/CS4.png' width = '100%;'>","null","","","","","","","","","",""
"","html-keyboard-response","104","389538","0.0-8.0-2.3","4ycy6vchka","one_one","1","indirect_first","0","dt07el02","0","22","1","1","3","1","","0","1","0","null","","","<img src = 'targets/23.png' width = '100%;'>","null","","","","","","","","","",""
"","html-keyboard-response","105","392631","0.0-8.0-3.3","4ycy6vchka","one_one","1","indirect_first","0","dt07el02","0","22","1","1","3","1","","0","1","0","3091.390000015963","","","<img src = 'targets/mask.png' width = '100%;'>","68","pos","GS","GSold","1","category1/CS4.png","targets/23.png","0","indirect","3",""
"","html-keyboard-response","106","394133","0.0-8.0-0.4","4ycy6vchka","one_one","1","indirect_first","0","dt07el02","0","22","1","1","3","1","","0","1","0","null","","","<div style=""font-size:60px;"">+</div>","null","","","","","","","","","",""
"","html-keyboard-response","107","394225","0.0-8.0-1.4","4ycy6vchka","one_one","1","indirect_first","0","dt07el02","0","22","1","1","3","1","","0","1","0","null","","","<img src = 'category2/CS7.png' width = '100%;'>","null","","","","","","","","","",""
"","html-keyboard-response","108","394478","0.0-8.0-2.4","4ycy6vchka","one_one","1","indirect_first","0","dt07el02","0","22","1","1","3","1","","0","1","0","null","","","<img src = 'targets/15.png' width = '100%;'>","null","","","","","","","","","",""
"","html-keyboard-response","109","394891","0.0-8.0-3.4","4ycy6vchka","one_one","1","indirect_first","0","dt07el02","0","22","1","1","3","1","","0","1","0","410.44999996665865","","","<img src = 'targets/mask.png' width = '100%;'>","75","neg","GS","GSold","2","category2/CS7.png","targets/15.png","1","indirect","4",""
"","html-keyboard-response","110","396393","0.0-8.0-0.5","4ycy6vchka","one_one","1","indirect_first","0","dt07el02","0","22","1","1","3","1","","0","1","0","null","","","<div style=""font-size:60px;"">+</div>","null","","","","","","","","","",""
"","html-keyboard-response","111","396485","0.0-8.0-1.5","4ycy6vchka","one_one","1","indirect_first","0","dt07el02","0","22","1","1","3","1","","0","1","0","null","","","<img src = 'category4/CS7.png' width = '100%;'>","null","","","","","","","","","",""
"","html-keyboard-response","112","396738","0.0-8.0-2.5","4ycy6vchka","one_one","1","indirect_first","0","dt07el02","0","22","1","1","3","1","","0","1","0","null","","","<img src = 'targets/2.png' width = '100%;'>","null","","","","","","","","","",""
"","html-keyboard-response","113","397331","0.0-8.0-3.5","4ycy6vchka","one_one","1","indirect_first","0","dt07el02","0","22","1","1","3","1","","0","1","0","591.0300000105053","","","<img src = 'targets/mask.png' width = '100%;'>","68","neg","GS","GSold","4","category4/CS7.png","targets/2.png","0","indirect","5",""
"","html-keyboard-response","114","398833","0.0-8.0-0.6","4ycy6vchka","one_one","1","indirect_first","0","dt07el02","0","22","1","1","3","1","","0","1","0","null","","","<div style=""font-size:60px;"">+</div>","null","","","","","","","","","",""
"","html-keyboard-response","115","398925","0.0-8.0-1.6","4ycy6vchka","one_one","1","indirect_first","0","dt07el02","0","22","1","1","3","1","","0","1","0","null","","","<img src = 'category1/CS5.png' width = '100%;'>","null","","","","","","","","","",""
"","html-keyboard-response","116","399178","0.0-8.0-2.6","4ycy6vchka","one_one","1","indirect_first","0","dt07el02","0","22","1","1","3","1","","0","1","0","null","","","<img src = 'targets/26.png' width = '100%;'>","null","","","","","","","","","",""
"","html-keyboard-response","117","400023","0.0-8.0-3.6","4ycy6vchka","one_one","1","indirect_first","0","dt07el02","0","22","1","1","3","1","","0","1","0","843.1800000253133","","","<img src = 'targets/mask.png' width = '100%;'>","75","pos","GS","GSold","1","category1/CS5.png","targets/26.png","1","indirect","6",""
"","html-keyboard-response","118","401525","0.0-8.0-0.7","4ycy6vchka","one_one","1","indirect_first","0","dt07el02","0","22","1","1","3","1","","0","1","0","null","","","<div style=""font-size:60px;"">+</div>","null","","","","","","","","","",""
"","html-keyboard-response","119","401617","0.0-8.0-1.7","4ycy6vchka","one_one","1","indirect_first","0","dt07el02","0","22","1","1","3","1","","0","1","0","null","","","<img src = 'category3/CS6.png' width = '100%;'>","null","","","","","","","","","",""
"","html-keyboard-response","120","401869","0.0-8.0-2.7","4ycy6vchka","one_one","1","indirect_first","0","dt07el02","0","22","1","1","3","1","","0","1","0","null","","","<img src = 'targets/1.png' width = '100%;'>","null","","","","","","","","","",""
"","html-keyboard-response","121","402744","0.0-8.0-3.7","4ycy6vchka","one_one","1","indirect_first","0","dt07el02","0","22","1","1","3","1","","0","1","0","873.4500000136904","","","<img src = 'targets/mask.png' width = '100%;'>","75","pos","GS","GSold","3","category3/CS6.png","targets/1.png","1","indirect","7",""
"","html-keyboard-response","122","404247","0.0-8.0-0.8","4ycy6vchka","one_one","1","indirect_first","0","dt07el02","0","22","1","1","3","1","","0","1","0","null","","","<div style=""font-size:60px;"">+</div>","null","","","","","","","","","",""
"","html-keyboard-response","123","404340","0.0-8.0-1.8","4ycy6vchka","one_one","1","indirect_first","0","dt07el02","0","22","1","1","3","1","","0","1","0","null","","","<img src = 'category4/CS2.png' width = '100%;'>","null","","","","","","","","","",""
"","html-keyboard-response","124","404593","0.0-8.0-2.8","4ycy6vchka","one_one","1","indirect_first","0","dt07el02","0","22","1","1","3","1","","0","1","0","null","","","<img src = 'targets/6.png' width = '100%;'>","null","","","","","","","","","",""
"","html-keyboard-response","125","405126","0.0-8.0-3.8","4ycy6vchka","one_one","1","indirect_first","0","dt07el02","0","22","1","1","3","1","","0","1","0","530.0900000147521","","","<img src = 'targets/mask.png' width = '100%;'>","68","neg","GS","GSold","4","category4/CS2.png","targets/6.png","0","indirect","8",""
"","html-keyboard-response","126","406629","0.0-8.0-0.9","4ycy6vchka","one_one","1","indirect_first","0","dt07el02","0","22","1","1","3","1","","0","1","0","null","","","<div style=""font-size:60px;"">+</div>","null","","","","","","","","","",""
"","html-keyboard-response","127","406721","0.0-8.0-1.9","4ycy6vchka","one_one","1","indirect_first","0","dt07el02","0","22","1","1","3","1","","0","1","0","null","","","<img src = 'category4/CS3.png' width = '100%;'>","null","","","","","","","","","",""
"","html-keyboard-response","128","406974","0.0-8.0-2.9","4ycy6vchka","one_one","1","indirect_first","0","dt07el02","0","22","1","1","3","1","","0","1","0","null","","","<img src = 'targets/32.png' width = '100%;'>","null","","","","","","","","","",""
"","html-keyboard-response","129","407516","0.0-8.0-3.9","4ycy6vchka","one_one","1","indirect_first","0","dt07el02","0","22","1","1","3","1","","0","1","0","540.3149999910966","","","<img src = 'targets/mask.png' width = '100%;'>","75","neg","GS","GSold","4","category4/CS3.png","targets/32.png","1","indirect","9",""
"","html-keyboard-response","130","409019","0.0-8.0-0.10","4ycy6vchka","one_one","1","indirect_first","0","dt07el02","0","22","1","1","3","1","","0","1","0","null","","","<div style=""font-size:60px;"">+</div>","null","","","","","","","","","",""
"","html-keyboard-response","131","409111","0.0-8.0-1.10","4ycy6vchka","one_one","1","indirect_first","0","dt07el02","0","22","1","1","3","1","","0","1","0","null","","","<img src = 'category1/CS6.png' width = '100%;'>","null","","","","","","","","","",""
"","html-keyboard-response","132","409363","0.0-8.0-2.10","4ycy6vchka","one_one","1","indirect_first","0","dt07el02","0","22","1","1","3","1","","0","1","0","null","","","<img src = 'targets/17.png' width = '100%;'>","null","","","","","","","","","",""
"","html-keyboard-response","133","409817","0.0-8.0-3.10","4ycy6vchka","one_one","1","indirect_first","0","dt07el02","0","22","1","1","3","1","","0","1","0","451.77499996498227","","","<img src = 'targets/mask.png' width = '100%;'>","75","pos","CS","CS","1","category1/CS6.png","targets/17.png","1","indirect","10",""
"","html-keyboard-response","134","411319","0.0-8.0-0.11","4ycy6vchka","one_one","1","indirect_first","0","dt07el02","0","22","1","1","3","1","","0","1","0","null","","","<div style=""font-size:60px;"">+</div>","null","","","","","","","","","",""
"","html-keyboard-response","135","411411","0.0-8.0-1.11","4ycy6vchka","one_one","1","indirect_first","0","dt07el02","0","22","1","1","3","1","","0","1","0","null","","","<img src = 'category3/CS1.png' width = '100%;'>","null","","","","","","","","","",""
"","html-keyboard-response","136","411663","0.0-8.0-2.11","4ycy6vchka","one_one","1","indirect_first","0","dt07el02","0","22","1","1","3","1","","0","1","0","null","","","<img src = 'targets/36.png' width = '100%;'>","null","","","","","","","","","",""
"","html-keyboard-response","137","412102","0.0-8.0-3.11","4ycy6vchka","one_one","1","indirect_first","0","dt07el02","0","22","1","1","3","1","","0","1","0","437.26999999489635","","","<img src = 'targets/mask.png' width = '100%;'>","75","pos","GS","GSold","3","category3/CS1.png","targets/36.png","1","indirect","11",""
"","html-keyboard-response","138","413605","0.0-8.0-0.12","4ycy6vchka","one_one","1","indirect_first","0","dt07el02","0","22","1","1","3","1","","0","1","0","null","","","<div style=""font-size:60px;"">+</div>","null","","","","","","","","","",""
"","html-keyboard-response","139","413698","0.0-8.0-1.12","4ycy6vchka","one_one","1","indirect_first","0","dt07el02","0","22","1","1","3","1","","0","1","0","null","","","<img src = 'category2/CS5.png' width = '100%;'>","null","","","","","","","","","",""
"","html-keyboard-response","140","413952","0.0-8.0-2.12","4ycy6vchka","one_one","1","indirect_first","0","dt07el02","0","22","1","1","3","1","","0","1","0","null","","","<img src = 'targets/3.png' width = '100%;'>","null","","","","","","","","","",""
"","html-keyboard-response","141","414739","0.0-8.0-3.12","4ycy6vchka","one_one","1","indirect_first","0","dt07el02","0","22","1","1","3","1","","0","1","0","785.6249999604188","","","<img src = 'targets/mask.png' width = '100%;'>","75","neg","GS","GSold","2","category2/CS5.png","targets/3.png","1","indirect","12",""
"","html-keyboard-response","142","416241","0.0-8.0-0.13","4ycy6vchka","one_one","1","indirect_first","0","dt07el02","0","22","1","1","3","1","","0","1","0","null","","","<div style=""font-size:60px;"">+</div>","null","","","","","","","","","",""
"","html-keyboard-response","143","416333","0.0-8.0-1.13","4ycy6vchka","one_one","1","indirect_first","0","dt07el02","0","22","1","1","3","1","","0","1","0","null","","","<img src = 'category4/CS1.png' width = '100%;'>","null","","","","","","","","","",""
"","html-keyboard-response","144","416586","0.0-8.0-2.13","4ycy6vchka","one_one","1","indirect_first","0","dt07el02","0","22","1","1","3","1","","0","1","0","null","","","<img src = 'targets/43.png' width = '100%;'>","null","","","","","","","","","",""
"","html-keyboard-response","145","417150","0.0-8.0-3.13","4ycy6vchka","one_one","1","indirect_first","0","dt07el02","0","22","1","1","3","1","","0","1","0","561.0650000162423","","","<img src = 'targets/mask.png' width = '100%;'>","68","neg","CS","CS","4","category4/CS1.png","targets/43.png","0","indirect","13",""
"","html-keyboard-response","146","418653","0.0-8.0-0.14","4ycy6vchka","one_one","1","indirect_first","0","dt07el02","0","22","1","1","3","1","","0","1","0","null","","","<div style=""font-size:60px;"">+</div>","null","","","","","","","","","",""
"","html-keyboard-response","147","418746","0.0-8.0-1.14","4ycy6vchka","one_one","1","indirect_first","0","dt07el02","0","22","1","1","3","1","","0","1","0","null","","","<img src = 'category1/CS8.png' width = '100%;'>","null","","","","","","","","","",""
"","html-keyboard-response","148","418999","0.0-8.0-2.14","4ycy6vchka","one_one","1","indirect_first","0","dt07el02","0","22","1","1","3","1","","0","1","0","null","","","<img src = 'targets/38.png' width = '100%;'>","null","","","","","","","","","",""
"","html-keyboard-response","149","419505","0.0-8.0-3.14","4ycy6vchka","one_one","1","indirect_first","0","dt07el02","0","22","1","1","3","1","","0","1","0","504.6100000035949","","","<img src = 'targets/mask.png' width = '100%;'>","75","pos","GS","GSold","1","category1/CS8.png","targets/38.png","1","indirect","14",""
"","html-keyboard-response","150","421007","0.0-8.0-0.15","4ycy6vchka","one_one","1","indirect_first","0","dt07el02","0","22","1","1","3","1","","0","1","0","null","","","<div style=""font-size:60px;"">+</div>","null","","","","","","","","","",""
"","html-keyboard-response","151","421100","0.0-8.0-1.15","4ycy6vchka","one_one","1","indirect_first","0","dt07el02","0","22","1","1","3","1","","0","1","0","null","","","<img src = 'category3/CS10.png' width = '100%;'>","null","","","","","","","","","",""
"","html-keyboard-response","152","421353","0.0-8.0-2.15","4ycy6vchka","one_one","1","indirect_first","0","dt07el02","0","22","1","1","3","1","","0","1","0","null","","","<img src = 'targets/47.png' width = '100%;'>","null","","","","","","","","","",""
"","html-keyboard-response","153","421785","0.0-8.0-3.15","4ycy6vchka","one_one","1","indirect_first","0","dt07el02","0","22","1","1","3","1","","0","1","0","430.8949999976903","","","<img src = 'targets/mask.png' width = '100%;'>","75","pos","CS","CS","3","category3/CS10.png","targets/47.png","1","indirect","15",""
"","survey-html-form","154","427559","0.0-9.0","4ycy6vchka","one_one","1","indirect_first","0","dt07el02","0","22","1","1","3","1","","0","1","0","5269.629999995232","","{}","","","","","","","","","","","",""
"","html-keyboard-response","155","430563","0.0-10.0-0.0","4ycy6vchka","one_one","1","indirect_first","0","dt07el02","0","22","1","1","3","1","","0","1","0","null","","","<div style=""font-size:60px;"">+</div>","null","","","","","","","","","",""
"","html-keyboard-response","156","430657","0.0-10.0-1.0","4ycy6vchka","one_one","1","indirect_first","0","dt07el02","0","22","1","1","3","1","","0","1","0","null","","","<img src = 'category4/GS1.png' width = '100%;'>","null","","","","","","","","","",""
"","html-keyboard-response","157","430910","0.0-10.0-2.0","4ycy6vchka","one_one","1","indirect_first","0","dt07el02","0","22","1","1","3","1","","0","1","0","null","","","<img src = 'targets/24.png' width = '100%;'>","null","","","","","","","","","",""
"","html-keyboard-response","158","431122","0.0-10.0-3.0","4ycy6vchka","one_one","1","indirect_first","0","dt07el02","0","22","1","1","3","1","","0","1","0","209.01500002946705","","","<img src = 'targets/mask.png' width = '100%;'>","75","neg","GS","GSnew","4","category4/GS1.png","targets/24.png","1","indirect","16",""
"","html-keyboard-response","159","432623","0.0-10.0-0.1","4ycy6vchka","one_one","1","indirect_first","0","dt07el02","0","22","1","1","3","1","","0","1","0","null","","","<div style=""font-size:60px;"">+</div>","null","","","","","","","","","",""
"","html-keyboard-response","160","432715","0.0-10.0-1.1","4ycy6vchka","one_one","1","indirect_first","0","dt07el02","0","22","1","1","3","1","","0","1","0","null","","","<img src = 'category3/GS1.png' width = '100%;'>","null","","","","","","","","","",""
"","html-keyboard-response","161","432968","0.0-10.0-2.1","4ycy6vchka","one_one","1","indirect_first","0","dt07el02","0","22","1","1","3","1","","0","1","0","null","","","<img src = 'targets/20.png' width = '100%;'>","null","","","","","","","","","",""
"","html-keyboard-response","162","433150","0.0-10.0-3.1","4ycy6vchka","one_one","1","indirect_first","0","dt07el02","0","22","1","1","3","1","","0","1","0","180.87500002002344","","","<img src = 'targets/mask.png' width = '100%;'>","68","pos","GS","GSnew","3","category3/GS1.png","targets/20.png","0","indirect","17",""
"","html-keyboard-response","163","434653","0.0-10.0-0.2","4ycy6vchka","one_one","1","indirect_first","0","dt07el02","0","22","1","1","3","1","","0","1","0","null","","","<div style=""font-size:60px;"">+</div>","null","","","","","","","","","",""
"","html-keyboard-response","164","434745","0.0-10.0-1.2","4ycy6vchka","one_one","1","indirect_first","0","dt07el02","0","22","1","1","3","1","","0","1","0","null","","","<img src = 'category3/GS2.png' width = '100%;'>","null","","","","","","","","","",""
"","html-keyboard-response","165","434998","0.0-10.0-2.2","4ycy6vchka","one_one","1","indirect_first","0","dt07el02","0","22","1","1","3","1","","0","1","0","null","","","<img src = 'targets/9.png' width = '100%;'>","null","","","","","","","","","",""
"","html-keyboard-response","166","435043","0.0-10.0-3.2","4ycy6vchka","one_one","1","indirect_first","0","dt07el02","0","22","1","1","3","1","","0","1","0","43.18999999668449","","","<img src = 'targets/mask.png' width = '100%;'>","75","pos","GS","GSnew","3","category3/GS2.png","targets/9.png","1","indirect","18",""
"","html-keyboard-response","167","436545","0.0-10.0-0.3","4ycy6vchka","one_one","1","indirect_first","0","dt07el02","0","22","1","1","3","1","","0","1","0","null","","","<div style=""font-size:60px;"">+</div>","null","","","","","","","","","",""
"","html-keyboard-response","168","436638","0.0-10.0-1.3","4ycy6vchka","one_one","1","indirect_first","0","dt07el02","0","22","1","1","3","1","","0","1","0","null","","","<img src = 'category3/GS3.png' width = '100%;'>","null","","","","","","","","","",""
"","html-keyboard-response","169","436892","0.0-10.0-2.3","4ycy6vchka","one_one","1","indirect_first","0","dt07el02","0","22","1","1","3","1","","0","1","0","null","","","<img src = 'targets/8.png' width = '100%;'>","null","","","","","","","","","",""
"","html-keyboard-response","170","437042","0.0-10.0-3.3","4ycy6vchka","one_one","1","indirect_first","0","dt07el02","0","22","1","1","3","1","","0","1","0","148.25500000733882","","","<img src = 'targets/mask.png' width = '100%;'>","75","pos","GS","GSnew","3","category3/GS3.png","targets/8.png","1","indirect","19",""
"","html-keyboard-response","171","438546","0.0-10.0-0.4","4ycy6vchka","one_one","1","indirect_first","0","dt07el02","0","22","1","1","3","1","","0","1","0","null","","","<div style=""font-size:60px;"">+</div>","null","","","","","","","","","",""
"","html-keyboard-response","172","438638","0.0-10.0-1.4","4ycy6vchka","one_one","1","indirect_first","0","dt07el02","0","22","1","1","3","1","","0","1","0","null","","","<img src = 'category4/lin.png' width = '100%;'>","null","","","","","","","","","",""
"","html-keyboard-response","173","438890","0.0-10.0-2.4","4ycy6vchka","one_one","1","indirect_first","0","dt07el02","0","22","1","1","3","1","","0","1","0","null","","","<img src = 'targets/41.png' width = '100%;'>","null","","","","","","","","","",""
"","html-keyboard-response","174","439170","0.0-10.0-3.4","4ycy6vchka","one_one","1","indirect_first","0","dt07el02","0","22","1","1","3","1","","0","1","0","278.49500003503636","","","<img src = 'targets/mask.png' width = '100%;'>","75","neg","GS","abstract","4","category4/lin.png","targets/41.png","1","indirect","20",""
"","html-keyboard-response","175","440672","0.0-10.0-0.5","4ycy6vchka","one_one","1","indirect_first","0","dt07el02","0","22","1","1","3","1","","0","1","0","null","","","<div style=""font-size:60px;"">+</div>","null","","","","","","","","","",""
"","html-keyboard-response","176","440765","0.0-10.0-1.5","4ycy6vchka","one_one","1","indirect_first","0","dt07el02","0","22","1","1","3","1","","0","1","0","null","","","<img src = 'category2/GS2.png' width = '100%;'>","null","","","","","","","","","",""
"","html-keyboard-response","177","441018","0.0-10.0-2.5","4ycy6vchka","one_one","1","indirect_first","0","dt07el02","0","22","1","1","3","1","","0","1","0","null","","","<img src = 'targets/44.png' width = '100%;'>","null","","","","","","","","","",""
"","html-keyboard-response","178","441263","0.0-10.0-3.5","4ycy6vchka","one_one","1","indirect_first","0","dt07el02","0","22","1","1","3","1","","0","1","0","242.97500000102445","","","<img src = 'targets/mask.png' width = '100%;'>","75","neg","GS","GSnew","2","category2/GS2.png","targets/44.png","1","indirect","21",""
"","html-keyboard-response","179","442765","0.0-10.0-0.6","4ycy6vchka","one_one","1","indirect_first","0","dt07el02","0","22","1","1","3","1","","0","1","0","null","","","<div style=""font-size:60px;"">+</div>","null","","","","","","","","","",""
"","html-keyboard-response","180","442857","0.0-10.0-1.6","4ycy6vchka","one_one","1","indirect_first","0","dt07el02","0","22","1","1","3","1","","0","1","0","null","","","<img src = 'category1/GS1.png' width = '100%;'>","null","","","","","","","","","",""
"","html-keyboard-response","181","443110","0.0-10.0-2.6","4ycy6vchka","one_one","1","indirect_first","0","dt07el02","0","22","1","1","3","1","","0","1","0","null","","","<img src = 'targets/28.png' width = '100%;'>","null","","","","","","","","","",""
"","html-keyboard-response","182","443457","0.0-10.0-3.6","4ycy6vchka","one_one","1","indirect_first","0","dt07el02","0","22","1","1","3","1","","0","1","0","346.2500000023283","","","<img src = 'targets/mask.png' width = '100%;'>","75","pos","GS","GSnew","1","category1/GS1.png","targets/28.png","1","indirect","22",""
"","html-keyboard-response","183","444960","0.0-10.0-0.7","4ycy6vchka","one_one","1","indirect_first","0","dt07el02","0","22","1","1","3","1","","0","1","0","null","","","<div style=""font-size:60px;"">+</div>","null","","","","","","","","","",""
"","html-keyboard-response","184","445052","0.0-10.0-1.7","4ycy6vchka","one_one","1","indirect_first","0","dt07el02","0","22","1","1","3","1","","0","1","0","null","","","<img src = 'category4/GS2.png' width = '100%;'>","null","","","","","","","","","",""
"","html-keyboard-response","185","445305","0.0-10.0-2.7","4ycy6vchka","one_one","1","indirect_first","0","dt07el02","0","22","1","1","3","1","","0","1","0","null","","","<img src = 'targets/37.png' width = '100%;'>","null","","","","","","","","","",""
"","html-keyboard-response","186","445655","0.0-10.0-3.7","4ycy6vchka","one_one","1","indirect_first","0","dt07el02","0","22","1","1","3","1","","0","1","0","348.2450000010431","","","<img src = 'targets/mask.png' width = '100%;'>","75","neg","GS","GSnew","4","category4/GS2.png","targets/37.png","1","indirect","23",""
"","html-keyboard-response","187","447158","0.0-10.0-0.8","4ycy6vchka","one_one","1","indirect_first","0","dt07el02","0","22","1","1","3","1","","0","1","0","null","","","<div style=""font-size:60px;"">+</div>","null","","","","","","","","","",""
"","html-keyboard-response","188","447251","0.0-10.0-1.8","4ycy6vchka","one_one","1","indirect_first","0","dt07el02","0","22","1","1","3","1","","0","1","0","null","","","<img src = 'category1/GS3.png' width = '100%;'>","null","","","","","","","","","",""
"","html-keyboard-response","189","447503","0.0-10.0-2.8","4ycy6vchka","one_one","1","indirect_first","0","dt07el02","0","22","1","1","3","1","","0","1","0","null","","","<img src = 'targets/19.png' width = '100%;'>","null","","","","","","","","","",""
"","html-keyboard-response","190","447931","0.0-10.0-3.8","4ycy6vchka","one_one","1","indirect_first","0","dt07el02","0","22","1","1","3","1","","0","1","0","425.8900000131689","","","<img src = 'targets/mask.png' width = '100%;'>","75","pos","GS","GSnew","1","category1/GS3.png","targets/19.png","1","indirect","24",""
"","html-keyboard-response","191","449434","0.0-10.0-0.9","4ycy6vchka","one_one","1","indirect_first","0","dt07el02","0","22","1","1","3","1","","0","1","0","null","","","<div style=""font-size:60px;"">+</div>","null","","","","","","","","","",""
"","html-keyboard-response","192","449526","0.0-10.0-1.9","4ycy6vchka","one_one","1","indirect_first","0","dt07el02","0","22","1","1","3","1","","0","1","0","null","","","<img src = 'category1/GS2.png' width = '100%;'>","null","","","","","","","","","",""
"","html-keyboard-response","193","449780","0.0-10.0-2.9","4ycy6vchka","one_one","1","indirect_first","0","dt07el02","0","22","1","1","3","1","","0","1","0","null","","","<img src = 'targets/29.png' width = '100%;'>","null","","","","","","","","","",""
"","html-keyboard-response","194","450402","0.0-10.0-3.9","4ycy6vchka","one_one","1","indirect_first","0","dt07el02","0","22","1","1","3","1","","0","1","0","620.5450000124983","","","<img src = 'targets/mask.png' width = '100%;'>","75","pos","GS","GSnew","1","category1/GS2.png","targets/29.png","1","indirect","25",""
"","html-keyboard-response","195","451903","0.0-10.0-0.10","4ycy6vchka","one_one","1","indirect_first","0","dt07el02","0","22","1","1","3","1","","0","1","0","null","","","<div style=""font-size:60px;"">+</div>","null","","","","","","","","","",""
"","html-keyboard-response","196","451995","0.0-10.0-1.10","4ycy6vchka","one_one","1","indirect_first","0","dt07el02","0","22","1","1","3","1","","0","1","0","null","","","<img src = 'category2/men.png' width = '100%;'>","null","","","","","","","","","",""
"","html-keyboard-response","197","452248","0.0-10.0-2.10","4ycy6vchka","one_one","1","indirect_first","0","dt07el02","0","22","1","1","3","1","","0","1","0","null","","","<img src = 'targets/12.png' width = '100%;'>","null","","","","","","","","","",""
"","html-keyboard-response","198","452494","0.0-10.0-3.10","4ycy6vchka","one_one","1","indirect_first","0","dt07el02","0","22","1","1","3","1","","0","1","0","244.49999997159466","","","<img src = 'targets/mask.png' width = '100%;'>","75","neg","GS","abstract","2","category2/men.png","targets/12.png","1","indirect","26",""
"","html-keyboard-response","199","453998","0.0-10.0-0.11","4ycy6vchka","one_one","1","indirect_first","0","dt07el02","0","22","1","1","3","1","","0","1","0","null","","","<div style=""font-size:60px;"">+</div>","null","","","","","","","","","",""
"","html-keyboard-response","200","454091","0.0-10.0-1.11","4ycy6vchka","one_one","1","indirect_first","0","dt07el02","0","22","1","1","3","1","","0","1","0","null","","","<img src = 'category2/GS3.png' width = '100%;'>","null","","","","","","","","","",""
"","html-keyboard-response","201","454344","0.0-10.0-2.11","4ycy6vchka","one_one","1","indirect_first","0","dt07el02","0","22","1","1","3","1","","0","1","0","null","","","<img src = 'targets/10.png' width = '100%;'>","null","","","","","","","","","",""
"","html-keyboard-response","202","454768","0.0-10.0-3.11","4ycy6vchka","one_one","1","indirect_first","0","dt07el02","0","22","1","1","3","1","","0","1","0","423.209999979008","","","<img src = 'targets/mask.png' width = '100%;'>","75","neg","GS","GSnew","2","category2/GS3.png","targets/10.png","1","indirect","27",""
"","html-keyboard-response","203","456271","0.0-10.0-0.12","4ycy6vchka","one_one","1","indirect_first","0","dt07el02","0","22","1","1","3","1","","0","1","0","null","","","<div style=""font-size:60px;"">+</div>","null","","","","","","","","","",""
"","html-keyboard-response","204","456363","0.0-10.0-1.12","4ycy6vchka","one_one","1","indirect_first","0","dt07el02","0","22","1","1","3","1","","0","1","0","null","","","<img src = 'category3/wang.png' width = '100%;'>","null","","","","","","","","","",""
"","html-keyboard-response","205","456615","0.0-10.0-2.12","4ycy6vchka","one_one","1","indirect_first","0","dt07el02","0","22","1","1","3","1","","0","1","0","null","","","<img src = 'targets/25.png' width = '100%;'>","null","","","","","","","","","",""
"","html-keyboard-response","206","457089","0.0-10.0-3.12","4ycy6vchka","one_one","1","indirect_first","0","dt07el02","0","22","1","1","3","1","","0","1","0","472.08999999566004","","","<img src = 'targets/mask.png' width = '100%;'>","75","pos","GS","abstract","3","category3/wang.png","targets/25.png","1","indirect","28",""
"","html-keyboard-response","207","458591","0.0-10.0-0.13","4ycy6vchka","one_one","1","indirect_first","0","dt07el02","0","22","1","1","3","1","","0","1","0","null","","","<div style=""font-size:60px;"">+</div>","null","","","","","","","","","",""
"","html-keyboard-response","208","458684","0.0-10.0-1.13","4ycy6vchka","one_one","1","indirect_first","0","dt07el02","0","22","1","1","3","1","","0","1","0","null","","","<img src = 'category2/GS1.png' width = '100%;'>","null","","","","","","","","","",""
"","html-keyboard-response","209","458937","0.0-10.0-2.13","4ycy6vchka","one_one","1","indirect_first","0","dt07el02","0","22","1","1","3","1","","0","1","0","null","","","<img src = 'targets/27.png' width = '100%;'>","null","","","","","","","","","",""
"","html-keyboard-response","210","459681","0.0-10.0-3.13","4ycy6vchka","one_one","1","indirect_first","0","dt07el02","0","22","1","1","3","1","","0","1","0","741.7600000044331","","","<img src = 'targets/mask.png' width = '100%;'>","75","neg","GS","GSnew","2","category2/GS1.png","targets/27.png","1","indirect","29",""
"","html-keyboard-response","211","461184","0.0-10.0-0.14","4ycy6vchka","one_one","1","indirect_first","0","dt07el02","0","22","1","1","3","1","","0","1","0","null","","","<div style=""font-size:60px;"">+</div>","null","","","","","","","","","",""
"","html-keyboard-response","212","461277","0.0-10.0-1.14","4ycy6vchka","one_one","1","indirect_first","0","dt07el02","0","22","1","1","3","1","","0","1","0","null","","","<img src = 'category4/GS3.png' width = '100%;'>","null","","","","","","","","","",""
"","html-keyboard-response","213","461530","0.0-10.0-2.14","4ycy6vchka","one_one","1","indirect_first","0","dt07el02","0","22","1","1","3","1","","0","1","0","null","","","<img src = 'targets/22.png' width = '100%;'>","null","","","","","","","","","",""
"","html-keyboard-response","214","461973","0.0-10.0-3.14","4ycy6vchka","one_one","1","indirect_first","0","dt07el02","0","22","1","1","3","1","","0","1","0","441.49499997729436","","","<img src = 'targets/mask.png' width = '100%;'>","75","neg","GS","GSnew","4","category4/GS3.png","targets/22.png","1","indirect","30",""
"","html-keyboard-response","215","463474","0.0-10.0-0.15","4ycy6vchka","one_one","1","indirect_first","0","dt07el02","0","22","1","1","3","1","","0","1","0","null","","","<div style=""font-size:60px;"">+</div>","null","","","","","","","","","",""
"","html-keyboard-response","216","463566","0.0-10.0-1.15","4ycy6vchka","one_one","1","indirect_first","0","dt07el02","0","22","1","1","3","1","","0","1","0","null","","","<img src = 'category1/ma.png' width = '100%;'>","null","","","","","","","","","",""
"","html-keyboard-response","217","463819","0.0-10.0-2.15","4ycy6vchka","one_one","1","indirect_first","0","dt07el02","0","22","1","1","3","1","","0","1","0","null","","","<img src = 'targets/31.png' width = '100%;'>","null","","","","","","","","","",""
"","html-keyboard-response","218","464458","0.0-10.0-3.15","4ycy6vchka","one_one","1","indirect_first","0","dt07el02","0","22","1","1","3","1","","0","1","0","636.8950000032783","","","<img src = 'targets/mask.png' width = '100%;'>","75","pos","GS","abstract","1","category1/ma.png","targets/31.png","1","indirect","31",""
"","survey-html-form","219","473535","0.0-11.0","4ycy6vchka","one_one","1","indirect_first","0","dt07el02","0","22","1","1","3","1","","0","1","0","8575.279999990016","","{}","","","","","","","","","","","",""
"","image-slider-response","220","481395","0.0-12.0-0.0","4ycy6vchka","one_one","1","indirect_first","0","dt07el02","0","22","1","1","3","1","","0","1","0","5854.539999971166","","","","","neg","GS","GSold","2","category2/CS6.png","targets/5.png","","direct","","-2"
"","image-slider-response","221","484184","0.0-12.0-0.1","4ycy6vchka","one_one","1","indirect_first","0","dt07el02","0","22","1","1","3","1","","0","1","0","2787.445000023581","","","","","neg","GS","GSnew","4","category4/GS2.png","targets/37.png","","direct","","41"
"","image-slider-response","222","486355","0.0-12.0-0.2","4ycy6vchka","one_one","1","indirect_first","0","dt07el02","0","22","1","1","3","1","","0","1","0","2168.9600000390783","","","","","pos","GS","abstract","3","category3/wang.png","targets/25.png","","direct","","24"
"","image-slider-response","223","488363","0.0-12.0-0.3","4ycy6vchka","one_one","1","indirect_first","0","dt07el02","0","22","1","1","3","1","","0","1","0","2005.8349999599159","","","","","pos","GS","GSnew","1","category1/GS1.png","targets/28.png","","direct","","66"
"","image-slider-response","224","490981","0.0-12.0-0.4","4ycy6vchka","one_one","1","indirect_first","0","dt07el02","0","22","1","1","3","1","","0","1","0","2617.194999998901","","","","","pos","GS","GSnew","3","category3/GS3.png","targets/8.png","","direct","","44"
"","image-slider-response","225","493610","0.0-12.0-0.5","4ycy6vchka","one_one","1","indirect_first","0","dt07el02","0","22","1","1","3","1","","0","1","0","2627.3049999726936","","","","","neg","GS","GSold","4","category4/CS3.png","targets/32.png","","direct","","44"
"","image-slider-response","226","495660","0.0-12.0-0.6","4ycy6vchka","one_one","1","indirect_first","0","dt07el02","0","22","1","1","3","1","","0","1","0","2048.010000027716","","","","","pos","GS","GSnew","1","category1/GS3.png","targets/19.png","","direct","","38"
"","image-slider-response","227","498686","0.0-12.0-0.7","4ycy6vchka","one_one","1","indirect_first","0","dt07el02","0","22","1","1","3","1","","0","1","0","3024.3400000035763","","","","","pos","CS","CS","1","category1/CS6.png","targets/17.png","","direct","","100"
"","image-slider-response","228","508914","0.0-12.0-0.8","4ycy6vchka","one_one","1","indirect_first","0","dt07el02","0","22","1","1","3","1","","0","1","0","10225.789999996778","","","","","pos","CS","CS","3","category3/CS10.png","targets/47.png","","direct","","100"
"","image-slider-response","229","511006","0.0-12.0-0.9","4ycy6vchka","one_one","1","indirect_first","0","dt07el02","0","22","1","1","3","1","","0","1","0","2090.4750000336207","","","","","neg","GS","GSold","4","category4/CS2.png","targets/6.png","","direct","","-100"
"","image-slider-response","230","512857","0.0-12.0-0.10","4ycy6vchka","one_one","1","indirect_first","0","dt07el02","0","22","1","1","3","1","","0","1","0","1849.950000003446","","","","","pos","GS","abstract","1","category1/ma.png","targets/31.png","","direct","","69"
"","image-slider-response","231","514828","0.0-12.0-0.11","4ycy6vchka","one_one","1","indirect_first","0","dt07el02","0","22","1","1","3","1","","0","1","0","1968.5049999970943","","","","","pos","GS","GSold","1","category1/CS8.png","targets/38.png","","direct","","100"
"","image-slider-response","232","520608","0.0-12.0-0.12","4ycy6vchka","one_one","1","indirect_first","0","dt07el02","0","22","1","1","3","1","","0","1","0","5778.715000022203","","","","","pos","GS","GSold","3","category3/CS9.png","targets/46.png","","direct","","1"
"","image-slider-response","233","523126","0.0-12.0-0.13","4ycy6vchka","one_one","1","indirect_first","0","dt07el02","0","22","1","1","3","1","","0","1","0","2516.094999969937","","","","","neg","GS","abstract","4","category4/lin.png","targets/41.png","","direct","","19"
"","image-slider-response","234","528044","0.0-12.0-0.14","4ycy6vchka","one_one","1","indirect_first","0","dt07el02","0","22","1","1","3","1","","0","1","0","4916.1500000045635","","","","","neg","GS","GSold","2","category2/CS5.png","targets/3.png","","direct","","2"
"","image-slider-response","235","529948","0.0-12.0-0.15","4ycy6vchka","one_one","1","indirect_first","0","dt07el02","0","22","1","1","3","1","","0","1","0","1902.3750000051223","","","","","neg","GS","GSnew","4","category4/GS3.png","targets/22.png","","direct","","-55"
"","image-slider-response","236","531713","0.0-12.0-0.16","4ycy6vchka","one_one","1","indirect_first","0","dt07el02","0","22","1","1","3","1","","0","1","0","1763.0300000309944","","","","","neg","GS","GSnew","2","category2/GS2.png","targets/44.png","","direct","","-13"
"","image-slider-response","237","535207","0.0-12.0-0.17","4ycy6vchka","one_one","1","indirect_first","0","dt07el02","0","22","1","1","3","1","","0","1","0","3492.0749999582767","","","","","pos","GS","GSold","3","category3/CS6.png","targets/1.png","","direct","","15"
"","image-slider-response","238","537005","0.0-12.0-0.18","4ycy6vchka","one_one","1","indirect_first","0","dt07el02","0","22","1","1","3","1","","0","1","0","1796.2749999715015","","","","","pos","GS","GSnew","1","category1/GS2.png","targets/29.png","","direct","","18"
"","image-slider-response","239","540363","0.0-12.0-0.19","4ycy6vchka","one_one","1","indirect_first","0","dt07el02","0","22","1","1","3","1","","0","1","0","3356.3450000365265","","","","","pos","GS","GSold","1","category1/CS4.png","targets/23.png","","direct","","58"
"","image-slider-response","240","543261","0.0-12.0-0.20","4ycy6vchka","one_one","1","indirect_first","0","dt07el02","0","22","1","1","3","1","","0","1","0","2896.3199999998324","","","","","pos","GS","GSnew","3","category3/GS2.png","targets/9.png","","direct","","80"
"","image-slider-response","241","547991","0.0-12.0-0.21","4ycy6vchka","one_one","1","indirect_first","0","dt07el02","0","22","1","1","3","1","","0","1","0","4728.179999976419","","","","","neg","GS","GSnew","2","category2/GS3.png","targets/10.png","","direct","","-30"
"","image-slider-response","242","550098","0.0-12.0-0.22","4ycy6vchka","one_one","1","indirect_first","0","dt07el02","0","22","1","1","3","1","","0","1","0","2104.6799999894574","","","","","neg","GS","GSnew","2","category2/GS1.png","targets/27.png","","direct","","-11"
"","image-slider-response","243","552587","0.0-12.0-0.23","4ycy6vchka","one_one","1","indirect_first","0","dt07el02","0","22","1","1","3","1","","0","1","0","2487.5800000154413","","","","","pos","GS","GSold","1","category1/CS5.png","targets/26.png","","direct","","75"
"","image-slider-response","244","555183","0.0-12.0-0.24","4ycy6vchka","one_one","1","indirect_first","0","dt07el02","0","22","1","1","3","1","","0","1","0","2594.9999999720603","","","","","neg","GS","GSold","4","category4/CS7.png","targets/2.png","","direct","","-10"
"","image-slider-response","245","556927","0.0-12.0-0.25","4ycy6vchka","one_one","1","indirect_first","0","dt07el02","0","22","1","1","3","1","","0","1","0","1741.6300000040792","","","","","pos","GS","GSnew","3","category3/GS1.png","targets/20.png","","direct","","64"
"","image-slider-response","246","559049","0.0-12.0-0.26","4ycy6vchka","one_one","1","indirect_first","0","dt07el02","0","22","1","1","3","1","","0","1","0","2120.679999992717","","","","","neg","CS","CS","2","category2/CS2.png","targets/35.png","","direct","","33"
"","image-slider-response","247","562738","0.0-12.0-0.27","4ycy6vchka","one_one","1","indirect_first","0","dt07el02","0","22","1","1","3","1","","0","1","0","3687.2549999970943","","","","","neg","GS","GSold","2","category2/CS7.png","targets/15.png","","direct","","87"
"","image-slider-response","248","565029","0.0-12.0-0.28","4ycy6vchka","one_one","1","indirect_first","0","dt07el02","0","22","1","1","3","1","","0","1","0","2288.895000005141","","","","","neg","CS","CS","4","category4/CS1.png","targets/43.png","","direct","","-16"
"","image-slider-response","249","567284","0.0-12.0-0.29","4ycy6vchka","one_one","1","indirect_first","0","dt07el02","0","22","1","1","3","1","","0","1","0","2253.2150000333786","","","","","neg","GS","GSnew","4","category4/GS1.png","targets/24.png","","direct","","31"
"","image-slider-response","250","569156","0.0-12.0-0.30","4ycy6vchka","one_one","1","indirect_first","0","dt07el02","0","22","1","1","3","1","","0","1","0","1870.3199999872595","","","","","pos","GS","GSold","3","category3/CS1.png","targets/36.png","","direct","","44"
"","image-slider-response","251","571752","0.0-12.0-0.31","4ycy6vchka","one_one","1","indirect_first","0","dt07el02","0","22","1","1","3","1","","0","1","0","2594.550000037998","","","","","neg","GS","abstract","2","category2/men.png","targets/12.png","","direct","","-11"
"","survey-html-form","252","576286","0.0-13.0","4ycy6vchka","one_one","1","indirect_first","0","dt07el02","0","22","1","1","3","1","","0","1","0","4532.745000033174","","{}","","","","","","","","","","","",""
"","image-slider-response","253","580325","0.0-14.0-0.0","4ycy6vchka","one_one","1","indirect_first","0","dt07el02","0","22","1","1","3","1","","0","1","0","3035.105000017211","","","","","neg","All","all","2","category2/men_all.png","","","all","","87"
"","image-slider-response","254","582143","0.0-14.0-0.1","4ycy6vchka","one_one","1","indirect_first","0","dt07el02","0","22","1","1","3","1","","0","1","0","1815.5550000374205","","","","","pos","All","all","3","category3/wang_all.png","","","all","","62"
"","image-slider-response","255","584469","0.0-14.0-0.2","4ycy6vchka","one_one","1","indirect_first","0","dt07el02","0","22","1","1","3","1","","0","1","0","2324.674999981653","","","","","pos","All","all","1","category1/ma_all.png","","","all","","100"
"","image-slider-response","256","588360","0.0-14.0-0.3","4ycy6vchka","one_one","1","indirect_first","0","dt07el02","0","22","1","1","3","1","","0","1","0","3889.514999988023","","","","","neg","All","all","4","category4/lin_all.png","","","all","","17"
"","survey-text","257","593711","0.0-15.0","4ycy6vchka","one_one","1","indirect_first","0","dt07el02","0","22","1","1","3","1","","0","1","0","5340.499999991152","","{""comment"":""""}","","","","","","","","","","","",""
"","survey-html-form","258","605400","0.0-16.0","4ycy6vchka","one_one","1","indirect_first","0","dt07el02","0","22","1","1","3","1","","0","1","0","11686.004999966826","","{""hinschauen"":""0"",""ablenkung"":""1"",""gewissenhaft"":""0""}","","","","","","","","","","","",""
