"success","trial_type","trial_index","time_elapsed","internal_node_id","subject","condition","condition_code","measure","measure_code","codeword","gender","age","education","chinese","fach","handedness","comment","hinschauen","ablenkung","gewissenhaft","rt","url","responses","stimulus","key_press","val","type","type_specific","category","cs_selected","response","target","task","indirect","nr_pres"
"true","fullscreen","0","4651","0.0-0.0","47b8s69lm4","many_one","0","direct_first","1","is06er20","1","26","1","1","3","1","Der Vollständigkeit halber muss ich anführen, dass mir spätestens in der zweiten Runde des ersten Durchgangs die Konstellation gewisser Zeichen mit positiven oder negativen Bildern klar war.","0","1","0","","","","","","","","","","","","","","",""
"","external-html","1","113098","0.0-1.0","47b8s69lm4","many_one","0","direct_first","1","is06er20","1","26","1","1","3","1","Der Vollständigkeit halber muss ich anführen, dass mir spätestens in der zweiten Runde des ersten Durchgangs die Konstellation gewisser Zeichen mit positiven oder negativen Bildern klar war.","0","1","0","108371.21499999193","text/information.html","","","","","","","","","","","","",""
"","external-html","2","158201","0.0-2.0","47b8s69lm4","many_one","0","direct_first","1","is06er20","1","26","1","1","3","1","Der Vollständigkeit halber muss ich anführen, dass mir spätestens in der zweiten Runde des ersten Durchgangs die Konstellation gewisser Zeichen mit positiven oder negativen Bildern klar war.","0","1","0","44952.64999999199","text/consent.html","","","","","","","","","","","","",""
"","survey-html-form","3","204508","0.0-3.0","47b8s69lm4","many_one","0","direct_first","1","is06er20","1","26","1","1","3","1","Der Vollständigkeit halber muss ich anführen, dass mir spätestens in der zweiten Runde des ersten Durchgangs die Konstellation gewisser Zeichen mit positiven oder negativen Bildern klar war.","0","1","0","46300.82000000402","","{""codeword_enter"":""is06er20""}","","","","","","","","","","","",""
"","survey-html-form","4","226070","0.0-4.0","47b8s69lm4","many_one","0","direct_first","1","is06er20","1","26","1","1","3","1","Der Vollständigkeit halber muss ich anführen, dass mir spätestens in der zweiten Runde des ersten Durchgangs die Konstellation gewisser Zeichen mit positiven oder negativen Bildern klar war.","0","1","0","21552.495000010822","","{""age"":""26"",""education"":""1"",""subject"":""3"",""gender"":""1"",""handedness"":""1"",""chinese"":""1""}","","","","","","","","","","","",""
"","survey-html-form","5","238512","0.0-5.0","47b8s69lm4","many_one","0","direct_first","1","is06er20","1","26","1","1","3","1","Der Vollständigkeit halber muss ich anführen, dass mir spätestens in der zweiten Runde des ersten Durchgangs die Konstellation gewisser Zeichen mit positiven oder negativen Bildern klar war.","0","1","0","12434.744999976829","","{}","","","","","","","","","","","",""
"","html-keyboard-response","6","242539","0.0-6.0-0.0-0.0","47b8s69lm4","many_one","0","direct_first","1","is06er20","1","26","1","1","3","1","Der Vollständigkeit halber muss ich anführen, dass mir spätestens in der zweiten Runde des ersten Durchgangs die Konstellation gewisser Zeichen mit positiven oder negativen Bildern klar war.","0","1","0","null","","","<div class = 'row'><div class = 'column'><img src = 'uspos/7580.bmp' width = '100%;'></div><div class = 'column'><img src = 'category2/CS6.png' width = '70%;'></div></div>","null","pos","CS","CS","2","category2/CS6.png","","","","",""
"","html-keyboard-response","7","245054","0.0-6.0-0.0-0.1","47b8s69lm4","many_one","0","direct_first","1","is06er20","1","26","1","1","3","1","Der Vollständigkeit halber muss ich anführen, dass mir spätestens in der zweiten Runde des ersten Durchgangs die Konstellation gewisser Zeichen mit positiven oder negativen Bildern klar war.","0","1","0","null","","","<div class = 'row'><div class = 'column'><img src = 'usneg/9920.bmp' width = '100%;'></div><div class = 'column'><img src = 'category3/CS3.png' width = '70%;'></div></div>","null","neg","CS","CS","3","category3/CS3.png","","","","",""
"","html-keyboard-response","8","247571","0.0-6.0-0.0-0.2","47b8s69lm4","many_one","0","direct_first","1","is06er20","1","26","1","1","3","1","Der Vollständigkeit halber muss ich anführen, dass mir spätestens in der zweiten Runde des ersten Durchgangs die Konstellation gewisser Zeichen mit positiven oder negativen Bildern klar war.","0","1","0","null","","","<div class = 'row'><div class = 'column'><img src = 'category1/CS9.png' width = '70%;'></div><div class = 'column'><img src = 'usneg/2900.bmp' width = '100%;'></div></div>","null","neg","CS","CS","1","category1/CS9.png","","","","",""
"","html-keyboard-response","9","250088","0.0-6.0-0.0-0.3","47b8s69lm4","many_one","0","direct_first","1","is06er20","1","26","1","1","3","1","Der Vollständigkeit halber muss ich anführen, dass mir spätestens in der zweiten Runde des ersten Durchgangs die Konstellation gewisser Zeichen mit positiven oder negativen Bildern klar war.","0","1","0","null","","","<div class = 'row'><div class = 'column'><img src = 'usneg/9180.bmp' width = '100%;'></div><div class = 'column'><img src = 'category3/CS7.png' width = '70%;'></div></div>","null","neg","CS","CS","3","category3/CS7.png","","","","",""
"","html-keyboard-response","10","252602","0.0-6.0-0.0-0.4","47b8s69lm4","many_one","0","direct_first","1","is06er20","1","26","1","1","3","1","Der Vollständigkeit halber muss ich anführen, dass mir spätestens in der zweiten Runde des ersten Durchgangs die Konstellation gewisser Zeichen mit positiven oder negativen Bildern klar war.","0","1","0","null","","","<div class = 'row'><div class = 'column'><img src = 'category2/CS9.png' width = '70%;'></div><div class = 'column'><img src = 'uspos/2165.bmp' width = '100%;'></div></div>","null","pos","CS","CS","2","category2/CS9.png","","","","",""
"","html-keyboard-response","11","255120","0.0-6.0-0.0-0.5","47b8s69lm4","many_one","0","direct_first","1","is06er20","1","26","1","1","3","1","Der Vollständigkeit halber muss ich anführen, dass mir spätestens in der zweiten Runde des ersten Durchgangs die Konstellation gewisser Zeichen mit positiven oder negativen Bildern klar war.","0","1","0","null","","","<div class = 'row'><div class = 'column'><img src = 'category1/CS6.png' width = '70%;'></div><div class = 'column'><img src = 'usneg/6212.bmp' width = '100%;'></div></div>","null","neg","CS","CS","1","category1/CS6.png","","","","",""
"","html-keyboard-response","12","257632","0.0-6.0-0.0-0.6","47b8s69lm4","many_one","0","direct_first","1","is06er20","1","26","1","1","3","1","Der Vollständigkeit halber muss ich anführen, dass mir spätestens in der zweiten Runde des ersten Durchgangs die Konstellation gewisser Zeichen mit positiven oder negativen Bildern klar war.","0","1","0","null","","","<div class = 'row'><div class = 'column'><img src = 'usneg/9280.bmp' width = '100%;'></div><div class = 'column'><img src = 'category3/CS1.png' width = '70%;'></div></div>","null","neg","CS","CS","3","category3/CS1.png","","","","",""
"","html-keyboard-response","13","260151","0.0-6.0-0.0-0.7","47b8s69lm4","many_one","0","direct_first","1","is06er20","1","26","1","1","3","1","Der Vollständigkeit halber muss ich anführen, dass mir spätestens in der zweiten Runde des ersten Durchgangs die Konstellation gewisser Zeichen mit positiven oder negativen Bildern klar war.","0","1","0","null","","","<div class = 'row'><div class = 'column'><img src = 'uspos/8350.bmp' width = '100%;'></div><div class = 'column'><img src = 'category2/CS4.png' width = '70%;'></div></div>","null","pos","CS","CS","2","category2/CS4.png","","","","",""
"","html-keyboard-response","14","262668","0.0-6.0-0.0-0.8","47b8s69lm4","many_one","0","direct_first","1","is06er20","1","26","1","1","3","1","Der Vollständigkeit halber muss ich anführen, dass mir spätestens in der zweiten Runde des ersten Durchgangs die Konstellation gewisser Zeichen mit positiven oder negativen Bildern klar war.","0","1","0","null","","","<div class = 'row'><div class = 'column'><img src = 'category4/CS7.png' width = '70%;'></div><div class = 'column'><img src = 'uspos/2341.bmp' width = '100%;'></div></div>","null","pos","CS","CS","4","category4/CS7.png","","","","",""
"","html-keyboard-response","15","265183","0.0-6.0-0.0-0.9","47b8s69lm4","many_one","0","direct_first","1","is06er20","1","26","1","1","3","1","Der Vollständigkeit halber muss ich anführen, dass mir spätestens in der zweiten Runde des ersten Durchgangs die Konstellation gewisser Zeichen mit positiven oder negativen Bildern klar war.","0","1","0","null","","","<div class = 'row'><div class = 'column'><img src = 'category4/CS2.png' width = '70%;'></div><div class = 'column'><img src = 'uspos/8540.bmp' width = '100%;'></div></div>","null","pos","CS","CS","4","category4/CS2.png","","","","",""
"","html-keyboard-response","16","267702","0.0-6.0-0.0-0.10","47b8s69lm4","many_one","0","direct_first","1","is06er20","1","26","1","1","3","1","Der Vollständigkeit halber muss ich anführen, dass mir spätestens in der zweiten Runde des ersten Durchgangs die Konstellation gewisser Zeichen mit positiven oder negativen Bildern klar war.","0","1","0","null","","","<div class = 'row'><div class = 'column'><img src = 'category4/CS4.png' width = '70%;'></div><div class = 'column'><img src = 'uspos/7325.bmp' width = '100%;'></div></div>","null","pos","CS","CS","4","category4/CS4.png","","","","",""
"","html-keyboard-response","17","270220","0.0-6.0-0.0-0.11","47b8s69lm4","many_one","0","direct_first","1","is06er20","1","26","1","1","3","1","Der Vollständigkeit halber muss ich anführen, dass mir spätestens in der zweiten Runde des ersten Durchgangs die Konstellation gewisser Zeichen mit positiven oder negativen Bildern klar war.","0","1","0","null","","","<div class = 'row'><div class = 'column'><img src = 'uspos/1340.bmp' width = '100%;'></div><div class = 'column'><img src = 'category2/CS8.png' width = '70%;'></div></div>","null","pos","CS","CS","2","category2/CS8.png","","","","",""
"","html-keyboard-response","18","272735","0.0-6.0-0.0-0.12","47b8s69lm4","many_one","0","direct_first","1","is06er20","1","26","1","1","3","1","Der Vollständigkeit halber muss ich anführen, dass mir spätestens in der zweiten Runde des ersten Durchgangs die Konstellation gewisser Zeichen mit positiven oder negativen Bildern klar war.","0","1","0","null","","","<div class = 'row'><div class = 'column'><img src = 'category1/CS3.png' width = '70%;'></div><div class = 'column'><img src = 'usneg/9290.bmp' width = '100%;'></div></div>","null","neg","CS","CS","1","category1/CS3.png","","","","",""
"","html-keyboard-response","19","275252","0.0-6.0-0.0-0.13","47b8s69lm4","many_one","0","direct_first","1","is06er20","1","26","1","1","3","1","Der Vollständigkeit halber muss ich anführen, dass mir spätestens in der zweiten Runde des ersten Durchgangs die Konstellation gewisser Zeichen mit positiven oder negativen Bildern klar war.","0","1","0","null","","","<div class = 'row'><div class = 'column'><img src = 'category1/CS8.png' width = '70%;'></div><div class = 'column'><img src = 'usneg/2750.bmp' width = '100%;'></div></div>","null","neg","CS","CS","1","category1/CS8.png","","","","",""
"","html-keyboard-response","20","277768","0.0-6.0-0.0-0.14","47b8s69lm4","many_one","0","direct_first","1","is06er20","1","26","1","1","3","1","Der Vollständigkeit halber muss ich anführen, dass mir spätestens in der zweiten Runde des ersten Durchgangs die Konstellation gewisser Zeichen mit positiven oder negativen Bildern klar war.","0","1","0","null","","","<div class = 'row'><div class = 'column'><img src = 'usneg/9584.bmp' width = '100%;'></div><div class = 'column'><img src = 'category3/CS2.png' width = '70%;'></div></div>","null","neg","CS","CS","3","category3/CS2.png","","","","",""
"","html-keyboard-response","21","280282","0.0-6.0-0.0-0.15","47b8s69lm4","many_one","0","direct_first","1","is06er20","1","26","1","1","3","1","Der Vollständigkeit halber muss ich anführen, dass mir spätestens in der zweiten Runde des ersten Durchgangs die Konstellation gewisser Zeichen mit positiven oder negativen Bildern klar war.","0","1","0","null","","","<div class = 'row'><div class = 'column'><img src = 'category3/CS10.png' width = '70%;'></div><div class = 'column'><img src = 'usneg/9415.bmp' width = '100%;'></div></div>","null","neg","CS","CS","3","category3/CS10.png","","","","",""
"","html-keyboard-response","22","282800","0.0-6.0-0.0-0.16","47b8s69lm4","many_one","0","direct_first","1","is06er20","1","26","1","1","3","1","Der Vollständigkeit halber muss ich anführen, dass mir spätestens in der zweiten Runde des ersten Durchgangs die Konstellation gewisser Zeichen mit positiven oder negativen Bildern klar war.","0","1","0","null","","","<div class = 'row'><div class = 'column'><img src = 'uspos/4599.bmp' width = '100%;'></div><div class = 'column'><img src = 'category2/CS10.png' width = '70%;'></div></div>","null","pos","CS","CS","2","category2/CS10.png","","","","",""
"","html-keyboard-response","23","285315","0.0-6.0-0.0-0.17","47b8s69lm4","many_one","0","direct_first","1","is06er20","1","26","1","1","3","1","Der Vollständigkeit halber muss ich anführen, dass mir spätestens in der zweiten Runde des ersten Durchgangs die Konstellation gewisser Zeichen mit positiven oder negativen Bildern klar war.","0","1","0","null","","","<div class = 'row'><div class = 'column'><img src = 'uspos/1463.bmp' width = '100%;'></div><div class = 'column'><img src = 'category4/CS9.png' width = '70%;'></div></div>","null","pos","CS","CS","4","category4/CS9.png","","","","",""
"","html-keyboard-response","24","287841","0.0-6.0-0.0-0.18","47b8s69lm4","many_one","0","direct_first","1","is06er20","1","26","1","1","3","1","Der Vollständigkeit halber muss ich anführen, dass mir spätestens in der zweiten Runde des ersten Durchgangs die Konstellation gewisser Zeichen mit positiven oder negativen Bildern klar war.","0","1","0","null","","","<div class = 'row'><div class = 'column'><img src = 'uspos/5700.bmp' width = '100%;'></div><div class = 'column'><img src = 'category4/CS1.png' width = '70%;'></div></div>","null","pos","CS","CS","4","category4/CS1.png","","","","",""
"","html-keyboard-response","25","290359","0.0-6.0-0.0-0.19","47b8s69lm4","many_one","0","direct_first","1","is06er20","1","26","1","1","3","1","Der Vollständigkeit halber muss ich anführen, dass mir spätestens in der zweiten Runde des ersten Durchgangs die Konstellation gewisser Zeichen mit positiven oder negativen Bildern klar war.","0","1","0","null","","","<div class = 'row'><div class = 'column'><img src = 'usneg/6020.bmp' width = '100%;'></div><div class = 'column'><img src = 'category1/CS1.png' width = '70%;'></div></div>","null","neg","CS","CS","1","category1/CS1.png","","","","",""
"","survey-html-form","26","297181","0.0-6.0-1.0","47b8s69lm4","many_one","0","direct_first","1","is06er20","1","26","1","1","3","1","Der Vollständigkeit halber muss ich anführen, dass mir spätestens in der zweiten Runde des ersten Durchgangs die Konstellation gewisser Zeichen mit positiven oder negativen Bildern klar war.","0","1","0","6318.039999983739","","{}","","","","","","","","","","","",""
"","html-keyboard-response","27","301205","0.0-6.0-2.0-0.0","47b8s69lm4","many_one","0","direct_first","1","is06er20","1","26","1","1","3","1","Der Vollständigkeit halber muss ich anführen, dass mir spätestens in der zweiten Runde des ersten Durchgangs die Konstellation gewisser Zeichen mit positiven oder negativen Bildern klar war.","0","1","0","null","","","<div class = 'row'><div class = 'column'><img src = 'category3/CS3.png' width = '70%;'></div><div class = 'column'><img src = 'usneg/9920.bmp' width = '100%;'></div></div>","null","neg","CS","CS","3","category3/CS3.png","","","","",""
"","html-keyboard-response","28","303727","0.0-6.0-2.0-0.1","47b8s69lm4","many_one","0","direct_first","1","is06er20","1","26","1","1","3","1","Der Vollständigkeit halber muss ich anführen, dass mir spätestens in der zweiten Runde des ersten Durchgangs die Konstellation gewisser Zeichen mit positiven oder negativen Bildern klar war.","0","1","0","null","","","<div class = 'row'><div class = 'column'><img src = 'uspos/8540.bmp' width = '100%;'></div><div class = 'column'><img src = 'category4/CS2.png' width = '70%;'></div></div>","null","pos","CS","CS","4","category4/CS2.png","","","","",""
"","html-keyboard-response","29","306255","0.0-6.0-2.0-0.2","47b8s69lm4","many_one","0","direct_first","1","is06er20","1","26","1","1","3","1","Der Vollständigkeit halber muss ich anführen, dass mir spätestens in der zweiten Runde des ersten Durchgangs die Konstellation gewisser Zeichen mit positiven oder negativen Bildern klar war.","0","1","0","null","","","<div class = 'row'><div class = 'column'><img src = 'uspos/7325.bmp' width = '100%;'></div><div class = 'column'><img src = 'category4/CS4.png' width = '70%;'></div></div>","null","pos","CS","CS","4","category4/CS4.png","","","","",""
"","html-keyboard-response","30","308771","0.0-6.0-2.0-0.3","47b8s69lm4","many_one","0","direct_first","1","is06er20","1","26","1","1","3","1","Der Vollständigkeit halber muss ich anführen, dass mir spätestens in der zweiten Runde des ersten Durchgangs die Konstellation gewisser Zeichen mit positiven oder negativen Bildern klar war.","0","1","0","null","","","<div class = 'row'><div class = 'column'><img src = 'uspos/2341.bmp' width = '100%;'></div><div class = 'column'><img src = 'category4/CS7.png' width = '70%;'></div></div>","null","pos","CS","CS","4","category4/CS7.png","","","","",""
"","html-keyboard-response","31","311283","0.0-6.0-2.0-0.4","47b8s69lm4","many_one","0","direct_first","1","is06er20","1","26","1","1","3","1","Der Vollständigkeit halber muss ich anführen, dass mir spätestens in der zweiten Runde des ersten Durchgangs die Konstellation gewisser Zeichen mit positiven oder negativen Bildern klar war.","0","1","0","null","","","<div class = 'row'><div class = 'column'><img src = 'usneg/9180.bmp' width = '100%;'></div><div class = 'column'><img src = 'category3/CS7.png' width = '70%;'></div></div>","null","neg","CS","CS","3","category3/CS7.png","","","","",""
"","html-keyboard-response","32","313803","0.0-6.0-2.0-0.5","47b8s69lm4","many_one","0","direct_first","1","is06er20","1","26","1","1","3","1","Der Vollständigkeit halber muss ich anführen, dass mir spätestens in der zweiten Runde des ersten Durchgangs die Konstellation gewisser Zeichen mit positiven oder negativen Bildern klar war.","0","1","0","null","","","<div class = 'row'><div class = 'column'><img src = 'usneg/9280.bmp' width = '100%;'></div><div class = 'column'><img src = 'category3/CS1.png' width = '70%;'></div></div>","null","neg","CS","CS","3","category3/CS1.png","","","","",""
"","html-keyboard-response","33","316323","0.0-6.0-2.0-0.6","47b8s69lm4","many_one","0","direct_first","1","is06er20","1","26","1","1","3","1","Der Vollständigkeit halber muss ich anführen, dass mir spätestens in der zweiten Runde des ersten Durchgangs die Konstellation gewisser Zeichen mit positiven oder negativen Bildern klar war.","0","1","0","null","","","<div class = 'row'><div class = 'column'><img src = 'usneg/2900.bmp' width = '100%;'></div><div class = 'column'><img src = 'category1/CS9.png' width = '70%;'></div></div>","null","neg","CS","CS","1","category1/CS9.png","","","","",""
"","html-keyboard-response","34","318838","0.0-6.0-2.0-0.7","47b8s69lm4","many_one","0","direct_first","1","is06er20","1","26","1","1","3","1","Der Vollständigkeit halber muss ich anführen, dass mir spätestens in der zweiten Runde des ersten Durchgangs die Konstellation gewisser Zeichen mit positiven oder negativen Bildern klar war.","0","1","0","null","","","<div class = 'row'><div class = 'column'><img src = 'uspos/7580.bmp' width = '100%;'></div><div class = 'column'><img src = 'category2/CS6.png' width = '70%;'></div></div>","null","pos","CS","CS","2","category2/CS6.png","","","","",""
"","html-keyboard-response","35","321355","0.0-6.0-2.0-0.8","47b8s69lm4","many_one","0","direct_first","1","is06er20","1","26","1","1","3","1","Der Vollständigkeit halber muss ich anführen, dass mir spätestens in der zweiten Runde des ersten Durchgangs die Konstellation gewisser Zeichen mit positiven oder negativen Bildern klar war.","0","1","0","null","","","<div class = 'row'><div class = 'column'><img src = 'usneg/6020.bmp' width = '100%;'></div><div class = 'column'><img src = 'category1/CS1.png' width = '70%;'></div></div>","null","neg","CS","CS","1","category1/CS1.png","","","","",""
"","html-keyboard-response","36","323868","0.0-6.0-2.0-0.9","47b8s69lm4","many_one","0","direct_first","1","is06er20","1","26","1","1","3","1","Der Vollständigkeit halber muss ich anführen, dass mir spätestens in der zweiten Runde des ersten Durchgangs die Konstellation gewisser Zeichen mit positiven oder negativen Bildern klar war.","0","1","0","null","","","<div class = 'row'><div class = 'column'><img src = 'category3/CS10.png' width = '70%;'></div><div class = 'column'><img src = 'usneg/9415.bmp' width = '100%;'></div></div>","null","neg","CS","CS","3","category3/CS10.png","","","","",""
"","html-keyboard-response","37","326396","0.0-6.0-2.0-0.10","47b8s69lm4","many_one","0","direct_first","1","is06er20","1","26","1","1","3","1","Der Vollständigkeit halber muss ich anführen, dass mir spätestens in der zweiten Runde des ersten Durchgangs die Konstellation gewisser Zeichen mit positiven oder negativen Bildern klar war.","0","1","0","null","","","<div class = 'row'><div class = 'column'><img src = 'category2/CS9.png' width = '70%;'></div><div class = 'column'><img src = 'uspos/2165.bmp' width = '100%;'></div></div>","null","pos","CS","CS","2","category2/CS9.png","","","","",""
"","html-keyboard-response","38","328916","0.0-6.0-2.0-0.11","47b8s69lm4","many_one","0","direct_first","1","is06er20","1","26","1","1","3","1","Der Vollständigkeit halber muss ich anführen, dass mir spätestens in der zweiten Runde des ersten Durchgangs die Konstellation gewisser Zeichen mit positiven oder negativen Bildern klar war.","0","1","0","null","","","<div class = 'row'><div class = 'column'><img src = 'category4/CS9.png' width = '70%;'></div><div class = 'column'><img src = 'uspos/1463.bmp' width = '100%;'></div></div>","null","pos","CS","CS","4","category4/CS9.png","","","","",""
"","html-keyboard-response","39","331435","0.0-6.0-2.0-0.12","47b8s69lm4","many_one","0","direct_first","1","is06er20","1","26","1","1","3","1","Der Vollständigkeit halber muss ich anführen, dass mir spätestens in der zweiten Runde des ersten Durchgangs die Konstellation gewisser Zeichen mit positiven oder negativen Bildern klar war.","0","1","0","null","","","<div class = 'row'><div class = 'column'><img src = 'uspos/4599.bmp' width = '100%;'></div><div class = 'column'><img src = 'category2/CS10.png' width = '70%;'></div></div>","null","pos","CS","CS","2","category2/CS10.png","","","","",""
"","html-keyboard-response","40","333950","0.0-6.0-2.0-0.13","47b8s69lm4","many_one","0","direct_first","1","is06er20","1","26","1","1","3","1","Der Vollständigkeit halber muss ich anführen, dass mir spätestens in der zweiten Runde des ersten Durchgangs die Konstellation gewisser Zeichen mit positiven oder negativen Bildern klar war.","0","1","0","null","","","<div class = 'row'><div class = 'column'><img src = 'usneg/2750.bmp' width = '100%;'></div><div class = 'column'><img src = 'category1/CS8.png' width = '70%;'></div></div>","null","neg","CS","CS","1","category1/CS8.png","","","","",""
"","html-keyboard-response","41","336466","0.0-6.0-2.0-0.14","47b8s69lm4","many_one","0","direct_first","1","is06er20","1","26","1","1","3","1","Der Vollständigkeit halber muss ich anführen, dass mir spätestens in der zweiten Runde des ersten Durchgangs die Konstellation gewisser Zeichen mit positiven oder negativen Bildern klar war.","0","1","0","null","","","<div class = 'row'><div class = 'column'><img src = 'category1/CS6.png' width = '70%;'></div><div class = 'column'><img src = 'usneg/6212.bmp' width = '100%;'></div></div>","null","neg","CS","CS","1","category1/CS6.png","","","","",""
"","html-keyboard-response","42","338983","0.0-6.0-2.0-0.15","47b8s69lm4","many_one","0","direct_first","1","is06er20","1","26","1","1","3","1","Der Vollständigkeit halber muss ich anführen, dass mir spätestens in der zweiten Runde des ersten Durchgangs die Konstellation gewisser Zeichen mit positiven oder negativen Bildern klar war.","0","1","0","null","","","<div class = 'row'><div class = 'column'><img src = 'category1/CS3.png' width = '70%;'></div><div class = 'column'><img src = 'usneg/9290.bmp' width = '100%;'></div></div>","null","neg","CS","CS","1","category1/CS3.png","","","","",""
"","html-keyboard-response","43","341498","0.0-6.0-2.0-0.16","47b8s69lm4","many_one","0","direct_first","1","is06er20","1","26","1","1","3","1","Der Vollständigkeit halber muss ich anführen, dass mir spätestens in der zweiten Runde des ersten Durchgangs die Konstellation gewisser Zeichen mit positiven oder negativen Bildern klar war.","0","1","0","null","","","<div class = 'row'><div class = 'column'><img src = 'uspos/5700.bmp' width = '100%;'></div><div class = 'column'><img src = 'category4/CS1.png' width = '70%;'></div></div>","null","pos","CS","CS","4","category4/CS1.png","","","","",""
"","html-keyboard-response","44","344013","0.0-6.0-2.0-0.17","47b8s69lm4","many_one","0","direct_first","1","is06er20","1","26","1","1","3","1","Der Vollständigkeit halber muss ich anführen, dass mir spätestens in der zweiten Runde des ersten Durchgangs die Konstellation gewisser Zeichen mit positiven oder negativen Bildern klar war.","0","1","0","null","","","<div class = 'row'><div class = 'column'><img src = 'uspos/8350.bmp' width = '100%;'></div><div class = 'column'><img src = 'category2/CS4.png' width = '70%;'></div></div>","null","pos","CS","CS","2","category2/CS4.png","","","","",""
"","html-keyboard-response","45","346538","0.0-6.0-2.0-0.18","47b8s69lm4","many_one","0","direct_first","1","is06er20","1","26","1","1","3","1","Der Vollständigkeit halber muss ich anführen, dass mir spätestens in der zweiten Runde des ersten Durchgangs die Konstellation gewisser Zeichen mit positiven oder negativen Bildern klar war.","0","1","0","null","","","<div class = 'row'><div class = 'column'><img src = 'category2/CS8.png' width = '70%;'></div><div class = 'column'><img src = 'uspos/1340.bmp' width = '100%;'></div></div>","null","pos","CS","CS","2","category2/CS8.png","","","","",""
"","html-keyboard-response","46","349054","0.0-6.0-2.0-0.19","47b8s69lm4","many_one","0","direct_first","1","is06er20","1","26","1","1","3","1","Der Vollständigkeit halber muss ich anführen, dass mir spätestens in der zweiten Runde des ersten Durchgangs die Konstellation gewisser Zeichen mit positiven oder negativen Bildern klar war.","0","1","0","null","","","<div class = 'row'><div class = 'column'><img src = 'category3/CS2.png' width = '70%;'></div><div class = 'column'><img src = 'usneg/9584.bmp' width = '100%;'></div></div>","null","neg","CS","CS","3","category3/CS2.png","","","","",""
"","survey-html-form","47","353836","0.0-6.0-3.0","47b8s69lm4","many_one","0","direct_first","1","is06er20","1","26","1","1","3","1","Der Vollständigkeit halber muss ich anführen, dass mir spätestens in der zweiten Runde des ersten Durchgangs die Konstellation gewisser Zeichen mit positiven oder negativen Bildern klar war.","0","1","0","4277.230000006966","","{}","","","","","","","","","","","",""
"","html-keyboard-response","48","357858","0.0-6.0-4.0-0.0","47b8s69lm4","many_one","0","direct_first","1","is06er20","1","26","1","1","3","1","Der Vollständigkeit halber muss ich anführen, dass mir spätestens in der zweiten Runde des ersten Durchgangs die Konstellation gewisser Zeichen mit positiven oder negativen Bildern klar war.","0","1","0","null","","","<div class = 'row'><div class = 'column'><img src = 'category1/CS9.png' width = '70%;'></div><div class = 'column'><img src = 'usneg/2900.bmp' width = '100%;'></div></div>","null","neg","CS","CS","1","category1/CS9.png","","","","",""
"","html-keyboard-response","49","360375","0.0-6.0-4.0-0.1","47b8s69lm4","many_one","0","direct_first","1","is06er20","1","26","1","1","3","1","Der Vollständigkeit halber muss ich anführen, dass mir spätestens in der zweiten Runde des ersten Durchgangs die Konstellation gewisser Zeichen mit positiven oder negativen Bildern klar war.","0","1","0","null","","","<div class = 'row'><div class = 'column'><img src = 'category4/CS9.png' width = '70%;'></div><div class = 'column'><img src = 'uspos/1463.bmp' width = '100%;'></div></div>","null","pos","CS","CS","4","category4/CS9.png","","","","",""
"","html-keyboard-response","50","362900","0.0-6.0-4.0-0.2","47b8s69lm4","many_one","0","direct_first","1","is06er20","1","26","1","1","3","1","Der Vollständigkeit halber muss ich anführen, dass mir spätestens in der zweiten Runde des ersten Durchgangs die Konstellation gewisser Zeichen mit positiven oder negativen Bildern klar war.","0","1","0","null","","","<div class = 'row'><div class = 'column'><img src = 'usneg/9584.bmp' width = '100%;'></div><div class = 'column'><img src = 'category3/CS2.png' width = '70%;'></div></div>","null","neg","CS","CS","3","category3/CS2.png","","","","",""
"","html-keyboard-response","51","365419","0.0-6.0-4.0-0.3","47b8s69lm4","many_one","0","direct_first","1","is06er20","1","26","1","1","3","1","Der Vollständigkeit halber muss ich anführen, dass mir spätestens in der zweiten Runde des ersten Durchgangs die Konstellation gewisser Zeichen mit positiven oder negativen Bildern klar war.","0","1","0","null","","","<div class = 'row'><div class = 'column'><img src = 'uspos/2341.bmp' width = '100%;'></div><div class = 'column'><img src = 'category4/CS7.png' width = '70%;'></div></div>","null","pos","CS","CS","4","category4/CS7.png","","","","",""
"","html-keyboard-response","52","367938","0.0-6.0-4.0-0.4","47b8s69lm4","many_one","0","direct_first","1","is06er20","1","26","1","1","3","1","Der Vollständigkeit halber muss ich anführen, dass mir spätestens in der zweiten Runde des ersten Durchgangs die Konstellation gewisser Zeichen mit positiven oder negativen Bildern klar war.","0","1","0","null","","","<div class = 'row'><div class = 'column'><img src = 'category3/CS10.png' width = '70%;'></div><div class = 'column'><img src = 'usneg/9415.bmp' width = '100%;'></div></div>","null","neg","CS","CS","3","category3/CS10.png","","","","",""
"","html-keyboard-response","53","370449","0.0-6.0-4.0-0.5","47b8s69lm4","many_one","0","direct_first","1","is06er20","1","26","1","1","3","1","Der Vollständigkeit halber muss ich anführen, dass mir spätestens in der zweiten Runde des ersten Durchgangs die Konstellation gewisser Zeichen mit positiven oder negativen Bildern klar war.","0","1","0","null","","","<div class = 'row'><div class = 'column'><img src = 'category1/CS3.png' width = '70%;'></div><div class = 'column'><img src = 'usneg/9290.bmp' width = '100%;'></div></div>","null","neg","CS","CS","1","category1/CS3.png","","","","",""
"","html-keyboard-response","54","372966","0.0-6.0-4.0-0.6","47b8s69lm4","many_one","0","direct_first","1","is06er20","1","26","1","1","3","1","Der Vollständigkeit halber muss ich anführen, dass mir spätestens in der zweiten Runde des ersten Durchgangs die Konstellation gewisser Zeichen mit positiven oder negativen Bildern klar war.","0","1","0","null","","","<div class = 'row'><div class = 'column'><img src = 'category3/CS1.png' width = '70%;'></div><div class = 'column'><img src = 'usneg/9280.bmp' width = '100%;'></div></div>","null","neg","CS","CS","3","category3/CS1.png","","","","",""
"","html-keyboard-response","55","375480","0.0-6.0-4.0-0.7","47b8s69lm4","many_one","0","direct_first","1","is06er20","1","26","1","1","3","1","Der Vollständigkeit halber muss ich anführen, dass mir spätestens in der zweiten Runde des ersten Durchgangs die Konstellation gewisser Zeichen mit positiven oder negativen Bildern klar war.","0","1","0","null","","","<div class = 'row'><div class = 'column'><img src = 'category2/CS6.png' width = '70%;'></div><div class = 'column'><img src = 'uspos/7580.bmp' width = '100%;'></div></div>","null","pos","CS","CS","2","category2/CS6.png","","","","",""
"","html-keyboard-response","56","377996","0.0-6.0-4.0-0.8","47b8s69lm4","many_one","0","direct_first","1","is06er20","1","26","1","1","3","1","Der Vollständigkeit halber muss ich anführen, dass mir spätestens in der zweiten Runde des ersten Durchgangs die Konstellation gewisser Zeichen mit positiven oder negativen Bildern klar war.","0","1","0","null","","","<div class = 'row'><div class = 'column'><img src = 'category2/CS10.png' width = '70%;'></div><div class = 'column'><img src = 'uspos/4599.bmp' width = '100%;'></div></div>","null","pos","CS","CS","2","category2/CS10.png","","","","",""
"","html-keyboard-response","57","380512","0.0-6.0-4.0-0.9","47b8s69lm4","many_one","0","direct_first","1","is06er20","1","26","1","1","3","1","Der Vollständigkeit halber muss ich anführen, dass mir spätestens in der zweiten Runde des ersten Durchgangs die Konstellation gewisser Zeichen mit positiven oder negativen Bildern klar war.","0","1","0","null","","","<div class = 'row'><div class = 'column'><img src = 'uspos/7325.bmp' width = '100%;'></div><div class = 'column'><img src = 'category4/CS4.png' width = '70%;'></div></div>","null","pos","CS","CS","4","category4/CS4.png","","","","",""
"","html-keyboard-response","58","383029","0.0-6.0-4.0-0.10","47b8s69lm4","many_one","0","direct_first","1","is06er20","1","26","1","1","3","1","Der Vollständigkeit halber muss ich anführen, dass mir spätestens in der zweiten Runde des ersten Durchgangs die Konstellation gewisser Zeichen mit positiven oder negativen Bildern klar war.","0","1","0","null","","","<div class = 'row'><div class = 'column'><img src = 'usneg/9180.bmp' width = '100%;'></div><div class = 'column'><img src = 'category3/CS7.png' width = '70%;'></div></div>","null","neg","CS","CS","3","category3/CS7.png","","","","",""
"","html-keyboard-response","59","385537","0.0-6.0-4.0-0.11","47b8s69lm4","many_one","0","direct_first","1","is06er20","1","26","1","1","3","1","Der Vollständigkeit halber muss ich anführen, dass mir spätestens in der zweiten Runde des ersten Durchgangs die Konstellation gewisser Zeichen mit positiven oder negativen Bildern klar war.","0","1","0","null","","","<div class = 'row'><div class = 'column'><img src = 'category2/CS9.png' width = '70%;'></div><div class = 'column'><img src = 'uspos/2165.bmp' width = '100%;'></div></div>","null","pos","CS","CS","2","category2/CS9.png","","","","",""
"","html-keyboard-response","60","388050","0.0-6.0-4.0-0.12","47b8s69lm4","many_one","0","direct_first","1","is06er20","1","26","1","1","3","1","Der Vollständigkeit halber muss ich anführen, dass mir spätestens in der zweiten Runde des ersten Durchgangs die Konstellation gewisser Zeichen mit positiven oder negativen Bildern klar war.","0","1","0","null","","","<div class = 'row'><div class = 'column'><img src = 'category4/CS1.png' width = '70%;'></div><div class = 'column'><img src = 'uspos/5700.bmp' width = '100%;'></div></div>","null","pos","CS","CS","4","category4/CS1.png","","","","",""
"","html-keyboard-response","61","390576","0.0-6.0-4.0-0.13","47b8s69lm4","many_one","0","direct_first","1","is06er20","1","26","1","1","3","1","Der Vollständigkeit halber muss ich anführen, dass mir spätestens in der zweiten Runde des ersten Durchgangs die Konstellation gewisser Zeichen mit positiven oder negativen Bildern klar war.","0","1","0","null","","","<div class = 'row'><div class = 'column'><img src = 'uspos/8350.bmp' width = '100%;'></div><div class = 'column'><img src = 'category2/CS4.png' width = '70%;'></div></div>","null","pos","CS","CS","2","category2/CS4.png","","","","",""
"","html-keyboard-response","62","393091","0.0-6.0-4.0-0.14","47b8s69lm4","many_one","0","direct_first","1","is06er20","1","26","1","1","3","1","Der Vollständigkeit halber muss ich anführen, dass mir spätestens in der zweiten Runde des ersten Durchgangs die Konstellation gewisser Zeichen mit positiven oder negativen Bildern klar war.","0","1","0","null","","","<div class = 'row'><div class = 'column'><img src = 'category1/CS1.png' width = '70%;'></div><div class = 'column'><img src = 'usneg/6020.bmp' width = '100%;'></div></div>","null","neg","CS","CS","1","category1/CS1.png","","","","",""
"","html-keyboard-response","63","395609","0.0-6.0-4.0-0.15","47b8s69lm4","many_one","0","direct_first","1","is06er20","1","26","1","1","3","1","Der Vollständigkeit halber muss ich anführen, dass mir spätestens in der zweiten Runde des ersten Durchgangs die Konstellation gewisser Zeichen mit positiven oder negativen Bildern klar war.","0","1","0","null","","","<div class = 'row'><div class = 'column'><img src = 'uspos/8540.bmp' width = '100%;'></div><div class = 'column'><img src = 'category4/CS2.png' width = '70%;'></div></div>","null","pos","CS","CS","4","category4/CS2.png","","","","",""
"","html-keyboard-response","64","398123","0.0-6.0-4.0-0.16","47b8s69lm4","many_one","0","direct_first","1","is06er20","1","26","1","1","3","1","Der Vollständigkeit halber muss ich anführen, dass mir spätestens in der zweiten Runde des ersten Durchgangs die Konstellation gewisser Zeichen mit positiven oder negativen Bildern klar war.","0","1","0","null","","","<div class = 'row'><div class = 'column'><img src = 'category1/CS8.png' width = '70%;'></div><div class = 'column'><img src = 'usneg/2750.bmp' width = '100%;'></div></div>","null","neg","CS","CS","1","category1/CS8.png","","","","",""
"","html-keyboard-response","65","400639","0.0-6.0-4.0-0.17","47b8s69lm4","many_one","0","direct_first","1","is06er20","1","26","1","1","3","1","Der Vollständigkeit halber muss ich anführen, dass mir spätestens in der zweiten Runde des ersten Durchgangs die Konstellation gewisser Zeichen mit positiven oder negativen Bildern klar war.","0","1","0","null","","","<div class = 'row'><div class = 'column'><img src = 'category2/CS8.png' width = '70%;'></div><div class = 'column'><img src = 'uspos/1340.bmp' width = '100%;'></div></div>","null","pos","CS","CS","2","category2/CS8.png","","","","",""
"","html-keyboard-response","66","403154","0.0-6.0-4.0-0.18","47b8s69lm4","many_one","0","direct_first","1","is06er20","1","26","1","1","3","1","Der Vollständigkeit halber muss ich anführen, dass mir spätestens in der zweiten Runde des ersten Durchgangs die Konstellation gewisser Zeichen mit positiven oder negativen Bildern klar war.","0","1","0","null","","","<div class = 'row'><div class = 'column'><img src = 'category3/CS3.png' width = '70%;'></div><div class = 'column'><img src = 'usneg/9920.bmp' width = '100%;'></div></div>","null","neg","CS","CS","3","category3/CS3.png","","","","",""
"","html-keyboard-response","67","405664","0.0-6.0-4.0-0.19","47b8s69lm4","many_one","0","direct_first","1","is06er20","1","26","1","1","3","1","Der Vollständigkeit halber muss ich anführen, dass mir spätestens in der zweiten Runde des ersten Durchgangs die Konstellation gewisser Zeichen mit positiven oder negativen Bildern klar war.","0","1","0","null","","","<div class = 'row'><div class = 'column'><img src = 'usneg/6212.bmp' width = '100%;'></div><div class = 'column'><img src = 'category1/CS6.png' width = '70%;'></div></div>","null","neg","CS","CS","1","category1/CS6.png","","","","",""
"","survey-html-form","68","408696","0.0-6.0-5.0","47b8s69lm4","many_one","0","direct_first","1","is06er20","1","26","1","1","3","1","Der Vollständigkeit halber muss ich anführen, dass mir spätestens in der zweiten Runde des ersten Durchgangs die Konstellation gewisser Zeichen mit positiven oder negativen Bildern klar war.","0","1","0","2524.9349999940023","","{}","","","","","","","","","","","",""
"","html-keyboard-response","69","412725","0.0-6.0-6.0-0.0","47b8s69lm4","many_one","0","direct_first","1","is06er20","1","26","1","1","3","1","Der Vollständigkeit halber muss ich anführen, dass mir spätestens in der zweiten Runde des ersten Durchgangs die Konstellation gewisser Zeichen mit positiven oder negativen Bildern klar war.","0","1","0","null","","","<div class = 'row'><div class = 'column'><img src = 'uspos/7325.bmp' width = '100%;'></div><div class = 'column'><img src = 'category4/CS4.png' width = '70%;'></div></div>","null","pos","CS","CS","4","category4/CS4.png","","","","",""
"","html-keyboard-response","70","415244","0.0-6.0-6.0-0.1","47b8s69lm4","many_one","0","direct_first","1","is06er20","1","26","1","1","3","1","Der Vollständigkeit halber muss ich anführen, dass mir spätestens in der zweiten Runde des ersten Durchgangs die Konstellation gewisser Zeichen mit positiven oder negativen Bildern klar war.","0","1","0","null","","","<div class = 'row'><div class = 'column'><img src = 'uspos/4599.bmp' width = '100%;'></div><div class = 'column'><img src = 'category2/CS10.png' width = '70%;'></div></div>","null","pos","CS","CS","2","category2/CS10.png","","","","",""
"","html-keyboard-response","71","417757","0.0-6.0-6.0-0.2","47b8s69lm4","many_one","0","direct_first","1","is06er20","1","26","1","1","3","1","Der Vollständigkeit halber muss ich anführen, dass mir spätestens in der zweiten Runde des ersten Durchgangs die Konstellation gewisser Zeichen mit positiven oder negativen Bildern klar war.","0","1","0","null","","","<div class = 'row'><div class = 'column'><img src = 'uspos/2341.bmp' width = '100%;'></div><div class = 'column'><img src = 'category4/CS7.png' width = '70%;'></div></div>","null","pos","CS","CS","4","category4/CS7.png","","","","",""
"","html-keyboard-response","72","420286","0.0-6.0-6.0-0.3","47b8s69lm4","many_one","0","direct_first","1","is06er20","1","26","1","1","3","1","Der Vollständigkeit halber muss ich anführen, dass mir spätestens in der zweiten Runde des ersten Durchgangs die Konstellation gewisser Zeichen mit positiven oder negativen Bildern klar war.","0","1","0","null","","","<div class = 'row'><div class = 'column'><img src = 'category4/CS9.png' width = '70%;'></div><div class = 'column'><img src = 'uspos/1463.bmp' width = '100%;'></div></div>","null","pos","CS","CS","4","category4/CS9.png","","","","",""
"","html-keyboard-response","73","422803","0.0-6.0-6.0-0.4","47b8s69lm4","many_one","0","direct_first","1","is06er20","1","26","1","1","3","1","Der Vollständigkeit halber muss ich anführen, dass mir spätestens in der zweiten Runde des ersten Durchgangs die Konstellation gewisser Zeichen mit positiven oder negativen Bildern klar war.","0","1","0","null","","","<div class = 'row'><div class = 'column'><img src = 'category1/CS8.png' width = '70%;'></div><div class = 'column'><img src = 'usneg/2750.bmp' width = '100%;'></div></div>","null","neg","CS","CS","1","category1/CS8.png","","","","",""
"","html-keyboard-response","74","425321","0.0-6.0-6.0-0.5","47b8s69lm4","many_one","0","direct_first","1","is06er20","1","26","1","1","3","1","Der Vollständigkeit halber muss ich anführen, dass mir spätestens in der zweiten Runde des ersten Durchgangs die Konstellation gewisser Zeichen mit positiven oder negativen Bildern klar war.","0","1","0","null","","","<div class = 'row'><div class = 'column'><img src = 'uspos/1340.bmp' width = '100%;'></div><div class = 'column'><img src = 'category2/CS8.png' width = '70%;'></div></div>","null","pos","CS","CS","2","category2/CS8.png","","","","",""
"","html-keyboard-response","75","427840","0.0-6.0-6.0-0.6","47b8s69lm4","many_one","0","direct_first","1","is06er20","1","26","1","1","3","1","Der Vollständigkeit halber muss ich anführen, dass mir spätestens in der zweiten Runde des ersten Durchgangs die Konstellation gewisser Zeichen mit positiven oder negativen Bildern klar war.","0","1","0","null","","","<div class = 'row'><div class = 'column'><img src = 'category3/CS7.png' width = '70%;'></div><div class = 'column'><img src = 'usneg/9180.bmp' width = '100%;'></div></div>","null","neg","CS","CS","3","category3/CS7.png","","","","",""
"","html-keyboard-response","76","430365","0.0-6.0-6.0-0.7","47b8s69lm4","many_one","0","direct_first","1","is06er20","1","26","1","1","3","1","Der Vollständigkeit halber muss ich anführen, dass mir spätestens in der zweiten Runde des ersten Durchgangs die Konstellation gewisser Zeichen mit positiven oder negativen Bildern klar war.","0","1","0","null","","","<div class = 'row'><div class = 'column'><img src = 'category3/CS3.png' width = '70%;'></div><div class = 'column'><img src = 'usneg/9920.bmp' width = '100%;'></div></div>","null","neg","CS","CS","3","category3/CS3.png","","","","",""
"","html-keyboard-response","77","432882","0.0-6.0-6.0-0.8","47b8s69lm4","many_one","0","direct_first","1","is06er20","1","26","1","1","3","1","Der Vollständigkeit halber muss ich anführen, dass mir spätestens in der zweiten Runde des ersten Durchgangs die Konstellation gewisser Zeichen mit positiven oder negativen Bildern klar war.","0","1","0","null","","","<div class = 'row'><div class = 'column'><img src = 'category3/CS2.png' width = '70%;'></div><div class = 'column'><img src = 'usneg/9584.bmp' width = '100%;'></div></div>","null","neg","CS","CS","3","category3/CS2.png","","","","",""
"","html-keyboard-response","78","435400","0.0-6.0-6.0-0.9","47b8s69lm4","many_one","0","direct_first","1","is06er20","1","26","1","1","3","1","Der Vollständigkeit halber muss ich anführen, dass mir spätestens in der zweiten Runde des ersten Durchgangs die Konstellation gewisser Zeichen mit positiven oder negativen Bildern klar war.","0","1","0","null","","","<div class = 'row'><div class = 'column'><img src = 'uspos/8350.bmp' width = '100%;'></div><div class = 'column'><img src = 'category2/CS4.png' width = '70%;'></div></div>","null","pos","CS","CS","2","category2/CS4.png","","","","",""
"","html-keyboard-response","79","437917","0.0-6.0-6.0-0.10","47b8s69lm4","many_one","0","direct_first","1","is06er20","1","26","1","1","3","1","Der Vollständigkeit halber muss ich anführen, dass mir spätestens in der zweiten Runde des ersten Durchgangs die Konstellation gewisser Zeichen mit positiven oder negativen Bildern klar war.","0","1","0","null","","","<div class = 'row'><div class = 'column'><img src = 'usneg/2900.bmp' width = '100%;'></div><div class = 'column'><img src = 'category1/CS9.png' width = '70%;'></div></div>","null","neg","CS","CS","1","category1/CS9.png","","","","",""
"","html-keyboard-response","80","440428","0.0-6.0-6.0-0.11","47b8s69lm4","many_one","0","direct_first","1","is06er20","1","26","1","1","3","1","Der Vollständigkeit halber muss ich anführen, dass mir spätestens in der zweiten Runde des ersten Durchgangs die Konstellation gewisser Zeichen mit positiven oder negativen Bildern klar war.","0","1","0","null","","","<div class = 'row'><div class = 'column'><img src = 'category1/CS3.png' width = '70%;'></div><div class = 'column'><img src = 'usneg/9290.bmp' width = '100%;'></div></div>","null","neg","CS","CS","1","category1/CS3.png","","","","",""
"","html-keyboard-response","81","442969","0.0-6.0-6.0-0.12","47b8s69lm4","many_one","0","direct_first","1","is06er20","1","26","1","1","3","1","Der Vollständigkeit halber muss ich anführen, dass mir spätestens in der zweiten Runde des ersten Durchgangs die Konstellation gewisser Zeichen mit positiven oder negativen Bildern klar war.","0","1","0","null","","","<div class = 'row'><div class = 'column'><img src = 'uspos/5700.bmp' width = '100%;'></div><div class = 'column'><img src = 'category4/CS1.png' width = '70%;'></div></div>","null","pos","CS","CS","4","category4/CS1.png","","","","",""
"","html-keyboard-response","82","445483","0.0-6.0-6.0-0.13","47b8s69lm4","many_one","0","direct_first","1","is06er20","1","26","1","1","3","1","Der Vollständigkeit halber muss ich anführen, dass mir spätestens in der zweiten Runde des ersten Durchgangs die Konstellation gewisser Zeichen mit positiven oder negativen Bildern klar war.","0","1","0","null","","","<div class = 'row'><div class = 'column'><img src = 'uspos/7580.bmp' width = '100%;'></div><div class = 'column'><img src = 'category2/CS6.png' width = '70%;'></div></div>","null","pos","CS","CS","2","category2/CS6.png","","","","",""
"","html-keyboard-response","83","448008","0.0-6.0-6.0-0.14","47b8s69lm4","many_one","0","direct_first","1","is06er20","1","26","1","1","3","1","Der Vollständigkeit halber muss ich anführen, dass mir spätestens in der zweiten Runde des ersten Durchgangs die Konstellation gewisser Zeichen mit positiven oder negativen Bildern klar war.","0","1","0","null","","","<div class = 'row'><div class = 'column'><img src = 'usneg/6020.bmp' width = '100%;'></div><div class = 'column'><img src = 'category1/CS1.png' width = '70%;'></div></div>","null","neg","CS","CS","1","category1/CS1.png","","","","",""
"","html-keyboard-response","84","450531","0.0-6.0-6.0-0.15","47b8s69lm4","many_one","0","direct_first","1","is06er20","1","26","1","1","3","1","Der Vollständigkeit halber muss ich anführen, dass mir spätestens in der zweiten Runde des ersten Durchgangs die Konstellation gewisser Zeichen mit positiven oder negativen Bildern klar war.","0","1","0","null","","","<div class = 'row'><div class = 'column'><img src = 'usneg/9280.bmp' width = '100%;'></div><div class = 'column'><img src = 'category3/CS1.png' width = '70%;'></div></div>","null","neg","CS","CS","3","category3/CS1.png","","","","",""
"","html-keyboard-response","85","453048","0.0-6.0-6.0-0.16","47b8s69lm4","many_one","0","direct_first","1","is06er20","1","26","1","1","3","1","Der Vollständigkeit halber muss ich anführen, dass mir spätestens in der zweiten Runde des ersten Durchgangs die Konstellation gewisser Zeichen mit positiven oder negativen Bildern klar war.","0","1","0","null","","","<div class = 'row'><div class = 'column'><img src = 'usneg/9415.bmp' width = '100%;'></div><div class = 'column'><img src = 'category3/CS10.png' width = '70%;'></div></div>","null","neg","CS","CS","3","category3/CS10.png","","","","",""
"","html-keyboard-response","86","455563","0.0-6.0-6.0-0.17","47b8s69lm4","many_one","0","direct_first","1","is06er20","1","26","1","1","3","1","Der Vollständigkeit halber muss ich anführen, dass mir spätestens in der zweiten Runde des ersten Durchgangs die Konstellation gewisser Zeichen mit positiven oder negativen Bildern klar war.","0","1","0","null","","","<div class = 'row'><div class = 'column'><img src = 'uspos/2165.bmp' width = '100%;'></div><div class = 'column'><img src = 'category2/CS9.png' width = '70%;'></div></div>","null","pos","CS","CS","2","category2/CS9.png","","","","",""
"","html-keyboard-response","87","458089","0.0-6.0-6.0-0.18","47b8s69lm4","many_one","0","direct_first","1","is06er20","1","26","1","1","3","1","Der Vollständigkeit halber muss ich anführen, dass mir spätestens in der zweiten Runde des ersten Durchgangs die Konstellation gewisser Zeichen mit positiven oder negativen Bildern klar war.","0","1","0","null","","","<div class = 'row'><div class = 'column'><img src = 'usneg/6212.bmp' width = '100%;'></div><div class = 'column'><img src = 'category1/CS6.png' width = '70%;'></div></div>","null","neg","CS","CS","1","category1/CS6.png","","","","",""
"","html-keyboard-response","88","460604","0.0-6.0-6.0-0.19","47b8s69lm4","many_one","0","direct_first","1","is06er20","1","26","1","1","3","1","Der Vollständigkeit halber muss ich anführen, dass mir spätestens in der zweiten Runde des ersten Durchgangs die Konstellation gewisser Zeichen mit positiven oder negativen Bildern klar war.","0","1","0","null","","","<div class = 'row'><div class = 'column'><img src = 'category4/CS2.png' width = '70%;'></div><div class = 'column'><img src = 'uspos/8540.bmp' width = '100%;'></div></div>","null","pos","CS","CS","4","category4/CS2.png","","","","",""
"","survey-html-form","89","472119","0.0-7.0","47b8s69lm4","many_one","0","direct_first","1","is06er20","1","26","1","1","3","1","Der Vollständigkeit halber muss ich anführen, dass mir spätestens in der zweiten Runde des ersten Durchgangs die Konstellation gewisser Zeichen mit positiven oder negativen Bildern klar war.","0","1","0","11016.61500002956","","{}","","","","","","","","","","","",""
"","image-slider-response","90","480787","0.0-8.0-0.0","47b8s69lm4","many_one","0","direct_first","1","is06er20","1","26","1","1","3","1","Der Vollständigkeit halber muss ich anführen, dass mir spätestens in der zweiten Runde des ersten Durchgangs die Konstellation gewisser Zeichen mit positiven oder negativen Bildern klar war.","0","1","0","6650.239999988116","","","","","pos","CS","CS","2","category2/CS4.png","42","targets/7.png","direct","",""
"","image-slider-response","91","488035","0.0-8.0-0.1","47b8s69lm4","many_one","0","direct_first","1","is06er20","1","26","1","1","3","1","Der Vollständigkeit halber muss ich anführen, dass mir spätestens in der zweiten Runde des ersten Durchgangs die Konstellation gewisser Zeichen mit positiven oder negativen Bildern klar war.","0","1","0","7240.209999959916","","","","","neg","CS","CS","3","category3/CS3.png","-3","targets/18.png","direct","",""
"","image-slider-response","92","492414","0.0-8.0-0.2","47b8s69lm4","many_one","0","direct_first","1","is06er20","1","26","1","1","3","1","Der Vollständigkeit halber muss ich anführen, dass mir spätestens in der zweiten Runde des ersten Durchgangs die Konstellation gewisser Zeichen mit positiven oder negativen Bildern klar war.","0","1","0","4368.450000009034","","","","","pos","CS","CS","4","category4/CS9.png","62","targets/32.png","direct","",""
"","image-slider-response","93","495670","0.0-8.0-0.3","47b8s69lm4","many_one","0","direct_first","1","is06er20","1","26","1","1","3","1","Der Vollständigkeit halber muss ich anführen, dass mir spätestens in der zweiten Runde des ersten Durchgangs die Konstellation gewisser Zeichen mit positiven oder negativen Bildern klar war.","0","1","0","3252.344999986235","","","","","neg","GS","GSold","1","category1/CS10.png","-48","targets/35.png","direct","",""
"","image-slider-response","94","500087","0.0-8.0-0.4","47b8s69lm4","many_one","0","direct_first","1","is06er20","1","26","1","1","3","1","Der Vollständigkeit halber muss ich anführen, dass mir spätestens in der zweiten Runde des ersten Durchgangs die Konstellation gewisser Zeichen mit positiven oder negativen Bildern klar war.","0","1","0","4411.345000029542","","","","","pos","GS","GSnew","2","category2/GS2.png","-4","targets/5.png","direct","",""
"","image-slider-response","95","503797","0.0-8.0-0.5","47b8s69lm4","many_one","0","direct_first","1","is06er20","1","26","1","1","3","1","Der Vollständigkeit halber muss ich anführen, dass mir spätestens in der zweiten Runde des ersten Durchgangs die Konstellation gewisser Zeichen mit positiven oder negativen Bildern klar war.","0","1","0","3704.8000000067987","","","","","neg","CS","CS","1","category1/CS3.png","-34","targets/43.png","direct","",""
"","image-slider-response","96","507717","0.0-8.0-0.6","47b8s69lm4","many_one","0","direct_first","1","is06er20","1","26","1","1","3","1","Der Vollständigkeit halber muss ich anführen, dass mir spätestens in der zweiten Runde des ersten Durchgangs die Konstellation gewisser Zeichen mit positiven oder negativen Bildern klar war.","0","1","0","3911.3650000072084","","","","","pos","CS","CS","4","category4/CS4.png","40","targets/12.png","direct","",""
"","image-slider-response","97","511045","0.0-8.0-0.7","47b8s69lm4","many_one","0","direct_first","1","is06er20","1","26","1","1","3","1","Der Vollständigkeit halber muss ich anführen, dass mir spätestens in der zweiten Runde des ersten Durchgangs die Konstellation gewisser Zeichen mit positiven oder negativen Bildern klar war.","0","1","0","3320.6500000087544","","","","","pos","GS","GSold","4","category4/CS8.png","66","targets/10.png","direct","",""
"","image-slider-response","98","514024","0.0-8.0-0.8","47b8s69lm4","many_one","0","direct_first","1","is06er20","1","26","1","1","3","1","Der Vollständigkeit halber muss ich anführen, dass mir spätestens in der zweiten Runde des ersten Durchgangs die Konstellation gewisser Zeichen mit positiven oder negativen Bildern klar war.","0","1","0","2971.1549999774434","","","","","pos","CS","CS","4","category4/CS7.png","54","targets/3.png","direct","",""
"","image-slider-response","99","516940","0.0-8.0-0.9","47b8s69lm4","many_one","0","direct_first","1","is06er20","1","26","1","1","3","1","Der Vollständigkeit halber muss ich anführen, dass mir spätestens in der zweiten Runde des ersten Durchgangs die Konstellation gewisser Zeichen mit positiven oder negativen Bildern klar war.","0","1","0","2910.31499998644","","","","","pos","GS","GSold","2","category2/CS5.png","39","targets/37.png","direct","",""
"","image-slider-response","100","520763","0.0-8.0-0.10","47b8s69lm4","many_one","0","direct_first","1","is06er20","1","26","1","1","3","1","Der Vollständigkeit halber muss ich anführen, dass mir spätestens in der zweiten Runde des ersten Durchgangs die Konstellation gewisser Zeichen mit positiven oder negativen Bildern klar war.","0","1","0","3818.3399999979883","","","","","neg","CS","CS","3","category3/CS2.png","-4","targets/9.png","direct","",""
"","image-slider-response","101","524759","0.0-8.0-0.11","47b8s69lm4","many_one","0","direct_first","1","is06er20","1","26","1","1","3","1","Der Vollständigkeit halber muss ich anführen, dass mir spätestens in der zweiten Runde des ersten Durchgangs die Konstellation gewisser Zeichen mit positiven oder negativen Bildern klar war.","0","1","0","3986.6499999770895","","","","","neg","GS","GSnew","3","category3/GS2.png","-20","targets/36.png","direct","",""
"","image-slider-response","102","528967","0.0-8.0-0.12","47b8s69lm4","many_one","0","direct_first","1","is06er20","1","26","1","1","3","1","Der Vollständigkeit halber muss ich anführen, dass mir spätestens in der zweiten Runde des ersten Durchgangs die Konstellation gewisser Zeichen mit positiven oder negativen Bildern klar war.","0","1","0","4202.144999988377","","","","","neg","GS","GSnew","1","category1/GS3.png","-38","targets/16.png","direct","",""
"","image-slider-response","103","534607","0.0-8.0-0.13","47b8s69lm4","many_one","0","direct_first","1","is06er20","1","26","1","1","3","1","Der Vollständigkeit halber muss ich anführen, dass mir spätestens in der zweiten Runde des ersten Durchgangs die Konstellation gewisser Zeichen mit positiven oder negativen Bildern klar war.","0","1","0","5635.594999999739","","","","","pos","GS","GSnew","2","category2/GS3.png","3","targets/34.png","direct","",""
"","image-slider-response","104","537955","0.0-8.0-0.14","47b8s69lm4","many_one","0","direct_first","1","is06er20","1","26","1","1","3","1","Der Vollständigkeit halber muss ich anführen, dass mir spätestens in der zweiten Runde des ersten Durchgangs die Konstellation gewisser Zeichen mit positiven oder negativen Bildern klar war.","0","1","0","3339.7250000271015","","","","","pos","GS","GSold","2","category2/CS1.png","67","targets/38.png","direct","",""
"","image-slider-response","105","541599","0.0-8.0-0.15","47b8s69lm4","many_one","0","direct_first","1","is06er20","1","26","1","1","3","1","Der Vollständigkeit halber muss ich anführen, dass mir spätestens in der zweiten Runde des ersten Durchgangs die Konstellation gewisser Zeichen mit positiven oder negativen Bildern klar war.","0","1","0","3640.6149999820627","","","","","pos","GS","GSnew","4","category4/GS3.png","55","targets/27.png","direct","",""
"","image-slider-response","106","545653","0.0-8.0-0.16","47b8s69lm4","many_one","0","direct_first","1","is06er20","1","26","1","1","3","1","Der Vollständigkeit halber muss ich anführen, dass mir spätestens in der zweiten Runde des ersten Durchgangs die Konstellation gewisser Zeichen mit positiven oder negativen Bildern klar war.","0","1","0","4049.9549999949522","","","","","pos","GS","GSnew","4","category4/GS2.png","3","targets/45.png","direct","",""
"","image-slider-response","107","548754","0.0-8.0-0.17","47b8s69lm4","many_one","0","direct_first","1","is06er20","1","26","1","1","3","1","Der Vollständigkeit halber muss ich anführen, dass mir spätestens in der zweiten Runde des ersten Durchgangs die Konstellation gewisser Zeichen mit positiven oder negativen Bildern klar war.","0","1","0","3092.7450000308454","","","","","neg","CS","CS","3","category3/CS7.png","-17","targets/33.png","direct","",""
"","image-slider-response","108","551571","0.0-8.0-0.18","47b8s69lm4","many_one","0","direct_first","1","is06er20","1","26","1","1","3","1","Der Vollständigkeit halber muss ich anführen, dass mir spätestens in der zweiten Runde des ersten Durchgangs die Konstellation gewisser Zeichen mit positiven oder negativen Bildern klar war.","0","1","0","2807.9349999898113","","","","","pos","CS","CS","2","category2/CS9.png","65","targets/44.png","direct","",""
"","image-slider-response","109","554652","0.0-8.0-0.19","47b8s69lm4","many_one","0","direct_first","1","is06er20","1","26","1","1","3","1","Der Vollständigkeit halber muss ich anführen, dass mir spätestens in der zweiten Runde des ersten Durchgangs die Konstellation gewisser Zeichen mit positiven oder negativen Bildern klar war.","0","1","0","3075.8950000163168","","","","","pos","CS","CS","2","category2/CS8.png","62","targets/31.png","direct","",""
"","image-slider-response","110","557867","0.0-8.0-0.20","47b8s69lm4","many_one","0","direct_first","1","is06er20","1","26","1","1","3","1","Der Vollständigkeit halber muss ich anführen, dass mir spätestens in der zweiten Runde des ersten Durchgangs die Konstellation gewisser Zeichen mit positiven oder negativen Bildern klar war.","0","1","0","3211.1649999860674","","","","","neg","GS","GSold","1","category1/CS5.png","-59","targets/4.png","direct","",""
"","image-slider-response","111","563423","0.0-8.0-0.21","47b8s69lm4","many_one","0","direct_first","1","is06er20","1","26","1","1","3","1","Der Vollständigkeit halber muss ich anführen, dass mir spätestens in der zweiten Runde des ersten Durchgangs die Konstellation gewisser Zeichen mit positiven oder negativen Bildern klar war.","0","1","0","5550.199999997858","","","","","neg","GS","GSold","3","category3/CS8.png","-89","targets/21.png","direct","",""
"","image-slider-response","112","567709","0.0-8.0-0.22","47b8s69lm4","many_one","0","direct_first","1","is06er20","1","26","1","1","3","1","Der Vollständigkeit halber muss ich anführen, dass mir spätestens in der zweiten Runde des ersten Durchgangs die Konstellation gewisser Zeichen mit positiven oder negativen Bildern klar war.","0","1","0","4279.18499999214","","","","","neg","CS","CS","1","category1/CS8.png","-22","targets/39.png","direct","",""
"","image-slider-response","113","572249","0.0-8.0-0.23","47b8s69lm4","many_one","0","direct_first","1","is06er20","1","26","1","1","3","1","Der Vollständigkeit halber muss ich anführen, dass mir spätestens in der zweiten Runde des ersten Durchgangs die Konstellation gewisser Zeichen mit positiven oder negativen Bildern klar war.","0","1","0","4536.21499997098","","","","","neg","GS","abstract","3","category3/wang.png","-6","targets/23.png","direct","",""
"","image-slider-response","114","575818","0.0-8.0-0.24","47b8s69lm4","many_one","0","direct_first","1","is06er20","1","26","1","1","3","1","Der Vollständigkeit halber muss ich anführen, dass mir spätestens in der zweiten Runde des ersten Durchgangs die Konstellation gewisser Zeichen mit positiven oder negativen Bildern klar war.","0","1","0","3562.9449999541976","","","","","neg","CS","CS","3","category3/CS10.png","-12","targets/40.png","direct","",""
"","image-slider-response","115","578700","0.0-8.0-0.25","47b8s69lm4","many_one","0","direct_first","1","is06er20","1","26","1","1","3","1","Der Vollständigkeit halber muss ich anführen, dass mir spätestens in der zweiten Runde des ersten Durchgangs die Konstellation gewisser Zeichen mit positiven oder negativen Bildern klar war.","0","1","0","2874.6749999700114","","","","","pos","CS","CS","2","category2/CS6.png","43","targets/11.png","direct","",""
"","image-slider-response","116","581911","0.0-8.0-0.26","47b8s69lm4","many_one","0","direct_first","1","is06er20","1","26","1","1","3","1","Der Vollständigkeit halber muss ich anführen, dass mir spätestens in der zweiten Runde des ersten Durchgangs die Konstellation gewisser Zeichen mit positiven oder negativen Bildern klar war.","0","1","0","3204.5600000419654","","","","","neg","CS","CS","3","category3/CS1.png","-11","targets/26.png","direct","",""
"","image-slider-response","117","585062","0.0-8.0-0.27","47b8s69lm4","many_one","0","direct_first","1","is06er20","1","26","1","1","3","1","Der Vollständigkeit halber muss ich anführen, dass mir spätestens in der zweiten Runde des ersten Durchgangs die Konstellation gewisser Zeichen mit positiven oder negativen Bildern klar war.","0","1","0","3146.920000028331","","","","","neg","CS","CS","1","category1/CS1.png","-35","targets/46.png","direct","",""
"","image-slider-response","118","587857","0.0-8.0-0.28","47b8s69lm4","many_one","0","direct_first","1","is06er20","1","26","1","1","3","1","Der Vollständigkeit halber muss ich anführen, dass mir spätestens in der zweiten Runde des ersten Durchgangs die Konstellation gewisser Zeichen mit positiven oder negativen Bildern klar war.","0","1","0","2790.934999997262","","","","","pos","GS","GSold","2","category2/CS2.png","48","targets/14.png","direct","",""
"","image-slider-response","119","591773","0.0-8.0-0.29","47b8s69lm4","many_one","0","direct_first","1","is06er20","1","26","1","1","3","1","Der Vollständigkeit halber muss ich anführen, dass mir spätestens in der zweiten Runde des ersten Durchgangs die Konstellation gewisser Zeichen mit positiven oder negativen Bildern klar war.","0","1","0","3911.064999992959","","","","","pos","GS","GSnew","2","category2/GS1.png","3","targets/41.png","direct","",""
"","image-slider-response","120","596591","0.0-8.0-0.30","47b8s69lm4","many_one","0","direct_first","1","is06er20","1","26","1","1","3","1","Der Vollständigkeit halber muss ich anführen, dass mir spätestens in der zweiten Runde des ersten Durchgangs die Konstellation gewisser Zeichen mit positiven oder negativen Bildern klar war.","0","1","0","4811.505000048783","","","","","neg","GS","GSnew","1","category1/GS2.png","-24","targets/25.png","direct","",""
"","image-slider-response","121","599826","0.0-8.0-0.31","47b8s69lm4","many_one","0","direct_first","1","is06er20","1","26","1","1","3","1","Der Vollständigkeit halber muss ich anführen, dass mir spätestens in der zweiten Runde des ersten Durchgangs die Konstellation gewisser Zeichen mit positiven oder negativen Bildern klar war.","0","1","0","3227.5399999925867","","","","","pos","GS","abstract","2","category2/men.png","51","targets/24.png","direct","",""
"","image-slider-response","122","604855","0.0-8.0-0.32","47b8s69lm4","many_one","0","direct_first","1","is06er20","1","26","1","1","3","1","Der Vollständigkeit halber muss ich anführen, dass mir spätestens in der zweiten Runde des ersten Durchgangs die Konstellation gewisser Zeichen mit positiven oder negativen Bildern klar war.","0","1","0","5023.365000030026","","","","","neg","GS","GSold","1","category1/CS7.png","-24","targets/13.png","direct","",""
"","image-slider-response","123","609471","0.0-8.0-0.33","47b8s69lm4","many_one","0","direct_first","1","is06er20","1","26","1","1","3","1","Der Vollständigkeit halber muss ich anführen, dass mir spätestens in der zweiten Runde des ersten Durchgangs die Konstellation gewisser Zeichen mit positiven oder negativen Bildern klar war.","0","1","0","4607.314999972004","","","","","pos","GS","GSnew","4","category4/GS1.png","30","targets/48.png","direct","",""
"","image-slider-response","124","612158","0.0-8.0-0.34","47b8s69lm4","many_one","0","direct_first","1","is06er20","1","26","1","1","3","1","Der Vollständigkeit halber muss ich anführen, dass mir spätestens in der zweiten Runde des ersten Durchgangs die Konstellation gewisser Zeichen mit positiven oder negativen Bildern klar war.","0","1","0","2680.495000036899","","","","","neg","GS","GSold","3","category3/CS6.png","-17","targets/20.png","direct","",""
"","image-slider-response","125","617819","0.0-8.0-0.35","47b8s69lm4","many_one","0","direct_first","1","is06er20","1","26","1","1","3","1","Der Vollständigkeit halber muss ich anführen, dass mir spätestens in der zweiten Runde des ersten Durchgangs die Konstellation gewisser Zeichen mit positiven oder negativen Bildern klar war.","0","1","0","5657.054999959655","","","","","neg","GS","abstract","1","category1/ma.png","-48","targets/42.png","direct","",""
"","image-slider-response","126","620987","0.0-8.0-0.36","47b8s69lm4","many_one","0","direct_first","1","is06er20","1","26","1","1","3","1","Der Vollständigkeit halber muss ich anführen, dass mir spätestens in der zweiten Runde des ersten Durchgangs die Konstellation gewisser Zeichen mit positiven oder negativen Bildern klar war.","0","1","0","3163.234999985434","","","","","neg","GS","GSnew","3","category3/GS1.png","-3","targets/28.png","direct","",""
"","image-slider-response","127","625269","0.0-8.0-0.37","47b8s69lm4","many_one","0","direct_first","1","is06er20","1","26","1","1","3","1","Der Vollständigkeit halber muss ich anführen, dass mir spätestens in der zweiten Runde des ersten Durchgangs die Konstellation gewisser Zeichen mit positiven oder negativen Bildern klar war.","0","1","0","4275.5250000045635","","","","","neg","GS","GSnew","3","category3/GS3.png","-4","targets/29.png","direct","",""
"","image-slider-response","128","628946","0.0-8.0-0.38","47b8s69lm4","many_one","0","direct_first","1","is06er20","1","26","1","1","3","1","Der Vollständigkeit halber muss ich anführen, dass mir spätestens in der zweiten Runde des ersten Durchgangs die Konstellation gewisser Zeichen mit positiven oder negativen Bildern klar war.","0","1","0","3670.8050000015646","","","","","pos","GS","abstract","4","category4/lin.png","29","targets/1.png","direct","",""
"","image-slider-response","129","632986","0.0-8.0-0.39","47b8s69lm4","many_one","0","direct_first","1","is06er20","1","26","1","1","3","1","Der Vollständigkeit halber muss ich anführen, dass mir spätestens in der zweiten Runde des ersten Durchgangs die Konstellation gewisser Zeichen mit positiven oder negativen Bildern klar war.","0","1","0","4035.989999945741","","","","","neg","GS","GSnew","1","category1/GS1.png","-33","targets/15.png","direct","",""
"","image-slider-response","130","637482","0.0-8.0-0.40","47b8s69lm4","many_one","0","direct_first","1","is06er20","1","26","1","1","3","1","Der Vollständigkeit halber muss ich anführen, dass mir spätestens in der zweiten Runde des ersten Durchgangs die Konstellation gewisser Zeichen mit positiven oder negativen Bildern klar war.","0","1","0","4489.824999996927","","","","","pos","CS","CS","4","category4/CS1.png","31","targets/2.png","direct","",""
"","image-slider-response","131","640916","0.0-8.0-0.41","47b8s69lm4","many_one","0","direct_first","1","is06er20","1","26","1","1","3","1","Der Vollständigkeit halber muss ich anführen, dass mir spätestens in der zweiten Runde des ersten Durchgangs die Konstellation gewisser Zeichen mit positiven oder negativen Bildern klar war.","0","1","0","3426.544999994803","","","","","pos","GS","GSold","4","category4/CS3.png","20","targets/47.png","direct","",""
"","image-slider-response","132","643561","0.0-8.0-0.42","47b8s69lm4","many_one","0","direct_first","1","is06er20","1","26","1","1","3","1","Der Vollständigkeit halber muss ich anführen, dass mir spätestens in der zweiten Runde des ersten Durchgangs die Konstellation gewisser Zeichen mit positiven oder negativen Bildern klar war.","0","1","0","2641.239999968093","","","","","neg","CS","CS","1","category1/CS9.png","-25","targets/8.png","direct","",""
"","image-slider-response","133","646494","0.0-8.0-0.43","47b8s69lm4","many_one","0","direct_first","1","is06er20","1","26","1","1","3","1","Der Vollständigkeit halber muss ich anführen, dass mir spätestens in der zweiten Runde des ersten Durchgangs die Konstellation gewisser Zeichen mit positiven oder negativen Bildern klar war.","0","1","0","2927.2800000035204","","","","","pos","CS","CS","2","category2/CS10.png","40","targets/22.png","direct","",""
"","image-slider-response","134","649463","0.0-8.0-0.44","47b8s69lm4","many_one","0","direct_first","1","is06er20","1","26","1","1","3","1","Der Vollständigkeit halber muss ich anführen, dass mir spätestens in der zweiten Runde des ersten Durchgangs die Konstellation gewisser Zeichen mit positiven oder negativen Bildern klar war.","0","1","0","2965.024999983143","","","","","pos","GS","GSold","4","category4/CS6.png","30","targets/30.png","direct","",""
"","image-slider-response","135","653106","0.0-8.0-0.45","47b8s69lm4","many_one","0","direct_first","1","is06er20","1","26","1","1","3","1","Der Vollständigkeit halber muss ich anführen, dass mir spätestens in der zweiten Runde des ersten Durchgangs die Konstellation gewisser Zeichen mit positiven oder negativen Bildern klar war.","0","1","0","3635.634999955073","","","","","pos","CS","CS","4","category4/CS2.png","24","targets/19.png","direct","",""
"","image-slider-response","136","655856","0.0-8.0-0.46","47b8s69lm4","many_one","0","direct_first","1","is06er20","1","26","1","1","3","1","Der Vollständigkeit halber muss ich anführen, dass mir spätestens in der zweiten Runde des ersten Durchgangs die Konstellation gewisser Zeichen mit positiven oder negativen Bildern klar war.","0","1","0","2742.865000036545","","","","","neg","CS","CS","1","category1/CS6.png","-26","targets/17.png","direct","",""
"","image-slider-response","137","658854","0.0-8.0-0.47","47b8s69lm4","many_one","0","direct_first","1","is06er20","1","26","1","1","3","1","Der Vollständigkeit halber muss ich anführen, dass mir spätestens in der zweiten Runde des ersten Durchgangs die Konstellation gewisser Zeichen mit positiven oder negativen Bildern klar war.","0","1","0","2991.295000014361","","","","","neg","GS","GSold","3","category3/CS5.png","-14","targets/6.png","direct","",""
"","html-keyboard-response","138","692187","0.0-9.0","47b8s69lm4","many_one","0","direct_first","1","is06er20","1","26","1","1","3","1","Der Vollständigkeit halber muss ich anführen, dass mir spätestens in der zweiten Runde des ersten Durchgangs die Konstellation gewisser Zeichen mit positiven oder negativen Bildern klar war.","0","1","0","33330.63499996206","","","<p>Sie sehen nun die chinesischen Zeichen nur ganz kurz. Danach sehen Sie die jeweilige Aussprache der Zeichen als Silbe auf dem Bildschrim. Ihre Aufgabe ist es, für jede Silbe anzugeben, ob diese etwas angenehmes, oder unangenehmes bedeuten könnte. Verlassen Sie sich hier vor allem auf Ihre Intuition.<br><br>Die Zeichen werden nur zur Orientierung dargestellt, beachten Sie sie deshalb nicht. Konzentrieren Sie sich vor allem auf die Silben. <br>Reagieren Sie mit folgenden zwei Tasten: <br><br><b>'D' </b> wenn die Silbe etwas <b>unangenehmes</b> bedeuten könnte. <br><b>'K'</b> wenn die Silbe etwas <b>angenehmes</b> bedeuten könnte. <br><br>Bitte legen Sie nun den Zeigefinger der linken Hand auf die Taste 'D' und den Zeigefinger der rechten Hand auf die Taste 'K'. <br>Reagieren Sie auf jede Silbe so schnell wie möglich. Uns interessiert Ihre spontane Reaktion. <br> <br> <br>Drücken Sie 'D' oder 'K', um die nächste Aufgabe zu starten. </p>","75","","","","","","","","","",""
"","html-keyboard-response","139","695206","0.0-10.0-0.0","47b8s69lm4","many_one","0","direct_first","1","is06er20","1","26","1","1","3","1","Der Vollständigkeit halber muss ich anführen, dass mir spätestens in der zweiten Runde des ersten Durchgangs die Konstellation gewisser Zeichen mit positiven oder negativen Bildern klar war.","0","1","0","null","","","<div style=""font-size:60px;"">+</div>","null","","","","","","","","","",""
"","html-keyboard-response","140","695313","0.0-10.0-1.0","47b8s69lm4","many_one","0","direct_first","1","is06er20","1","26","1","1","3","1","Der Vollständigkeit halber muss ich anführen, dass mir spätestens in der zweiten Runde des ersten Durchgangs die Konstellation gewisser Zeichen mit positiven oder negativen Bildern klar war.","0","1","0","null","","","<img src = 'category1/CS9.png' width = '100%;'>","null","","","","","","","","","",""
"","html-keyboard-response","141","695578","0.0-10.0-2.0","47b8s69lm4","many_one","0","direct_first","1","is06er20","1","26","1","1","3","1","Der Vollständigkeit halber muss ich anführen, dass mir spätestens in der zweiten Runde des ersten Durchgangs die Konstellation gewisser Zeichen mit positiven oder negativen Bildern klar war.","0","1","0","null","","","<img src = 'targets/8.png' width = '100%;'>","null","","","","","","","","","",""
"","html-keyboard-response","142","698273","0.0-10.0-3.0","47b8s69lm4","many_one","0","direct_first","1","is06er20","1","26","1","1","3","1","Der Vollständigkeit halber muss ich anführen, dass mir spätestens in der zweiten Runde des ersten Durchgangs die Konstellation gewisser Zeichen mit positiven oder negativen Bildern klar war.","0","1","0","2692.204999970272","","","<img src = 'targets/mask.png' width = '100%;'>","68","neg","CS","CS","1","category1/CS9.png","","targets/8.png","indirect","0","0"
"","html-keyboard-response","143","699799","0.0-10.0-0.1","47b8s69lm4","many_one","0","direct_first","1","is06er20","1","26","1","1","3","1","Der Vollständigkeit halber muss ich anführen, dass mir spätestens in der zweiten Runde des ersten Durchgangs die Konstellation gewisser Zeichen mit positiven oder negativen Bildern klar war.","0","1","0","null","","","<div style=""font-size:60px;"">+</div>","null","","","","","","","","","",""
"","html-keyboard-response","144","699896","0.0-10.0-1.1","47b8s69lm4","many_one","0","direct_first","1","is06er20","1","26","1","1","3","1","Der Vollständigkeit halber muss ich anführen, dass mir spätestens in der zweiten Runde des ersten Durchgangs die Konstellation gewisser Zeichen mit positiven oder negativen Bildern klar war.","0","1","0","null","","","<img src = 'category1/CS8.png' width = '100%;'>","null","","","","","","","","","",""
"","html-keyboard-response","145","700174","0.0-10.0-2.1","47b8s69lm4","many_one","0","direct_first","1","is06er20","1","26","1","1","3","1","Der Vollständigkeit halber muss ich anführen, dass mir spätestens in der zweiten Runde des ersten Durchgangs die Konstellation gewisser Zeichen mit positiven oder negativen Bildern klar war.","0","1","0","null","","","<img src = 'targets/39.png' width = '100%;'>","null","","","","","","","","","",""
"","html-keyboard-response","146","701569","0.0-10.0-3.1","47b8s69lm4","many_one","0","direct_first","1","is06er20","1","26","1","1","3","1","Der Vollständigkeit halber muss ich anführen, dass mir spätestens in der zweiten Runde des ersten Durchgangs die Konstellation gewisser Zeichen mit positiven oder negativen Bildern klar war.","0","1","0","1391.4300000178628","","","<img src = 'targets/mask.png' width = '100%;'>","68","neg","CS","CS","1","category1/CS8.png","","targets/39.png","indirect","0","1"
"","html-keyboard-response","147","703082","0.0-10.0-0.2","47b8s69lm4","many_one","0","direct_first","1","is06er20","1","26","1","1","3","1","Der Vollständigkeit halber muss ich anführen, dass mir spätestens in der zweiten Runde des ersten Durchgangs die Konstellation gewisser Zeichen mit positiven oder negativen Bildern klar war.","0","1","0","null","","","<div style=""font-size:60px;"">+</div>","null","","","","","","","","","",""
"","html-keyboard-response","148","703178","0.0-10.0-1.2","47b8s69lm4","many_one","0","direct_first","1","is06er20","1","26","1","1","3","1","Der Vollständigkeit halber muss ich anführen, dass mir spätestens in der zweiten Runde des ersten Durchgangs die Konstellation gewisser Zeichen mit positiven oder negativen Bildern klar war.","0","1","0","null","","","<img src = 'category2/CS10.png' width = '100%;'>","null","","","","","","","","","",""
"","html-keyboard-response","149","703449","0.0-10.0-2.2","47b8s69lm4","many_one","0","direct_first","1","is06er20","1","26","1","1","3","1","Der Vollständigkeit halber muss ich anführen, dass mir spätestens in der zweiten Runde des ersten Durchgangs die Konstellation gewisser Zeichen mit positiven oder negativen Bildern klar war.","0","1","0","null","","","<img src = 'targets/22.png' width = '100%;'>","null","","","","","","","","","",""
"","html-keyboard-response","150","704562","0.0-10.0-3.2","47b8s69lm4","many_one","0","direct_first","1","is06er20","1","26","1","1","3","1","Der Vollständigkeit halber muss ich anführen, dass mir spätestens in der zweiten Runde des ersten Durchgangs die Konstellation gewisser Zeichen mit positiven oder negativen Bildern klar war.","0","1","0","1108.9550000033341","","","<img src = 'targets/mask.png' width = '100%;'>","75","pos","CS","CS","2","category2/CS10.png","","targets/22.png","indirect","1","2"
"","html-keyboard-response","151","706081","0.0-10.0-0.3","47b8s69lm4","many_one","0","direct_first","1","is06er20","1","26","1","1","3","1","Der Vollständigkeit halber muss ich anführen, dass mir spätestens in der zweiten Runde des ersten Durchgangs die Konstellation gewisser Zeichen mit positiven oder negativen Bildern klar war.","0","1","0","null","","","<div style=""font-size:60px;"">+</div>","null","","","","","","","","","",""
"","html-keyboard-response","152","706177","0.0-10.0-1.3","47b8s69lm4","many_one","0","direct_first","1","is06er20","1","26","1","1","3","1","Der Vollständigkeit halber muss ich anführen, dass mir spätestens in der zweiten Runde des ersten Durchgangs die Konstellation gewisser Zeichen mit positiven oder negativen Bildern klar war.","0","1","0","null","","","<img src = 'category1/CS5.png' width = '100%;'>","null","","","","","","","","","",""
"","html-keyboard-response","153","706444","0.0-10.0-2.3","47b8s69lm4","many_one","0","direct_first","1","is06er20","1","26","1","1","3","1","Der Vollständigkeit halber muss ich anführen, dass mir spätestens in der zweiten Runde des ersten Durchgangs die Konstellation gewisser Zeichen mit positiven oder negativen Bildern klar war.","0","1","0","null","","","<img src = 'targets/4.png' width = '100%;'>","null","","","","","","","","","",""
"","html-keyboard-response","154","706953","0.0-10.0-3.3","47b8s69lm4","many_one","0","direct_first","1","is06er20","1","26","1","1","3","1","Der Vollständigkeit halber muss ich anführen, dass mir spätestens in der zweiten Runde des ersten Durchgangs die Konstellation gewisser Zeichen mit positiven oder negativen Bildern klar war.","0","1","0","505.2799999830313","","","<img src = 'targets/mask.png' width = '100%;'>","68","neg","GS","GSold","1","category1/CS5.png","","targets/4.png","indirect","0","3"
"","html-keyboard-response","155","708467","0.0-10.0-0.4","47b8s69lm4","many_one","0","direct_first","1","is06er20","1","26","1","1","3","1","Der Vollständigkeit halber muss ich anführen, dass mir spätestens in der zweiten Runde des ersten Durchgangs die Konstellation gewisser Zeichen mit positiven oder negativen Bildern klar war.","0","1","0","null","","","<div style=""font-size:60px;"">+</div>","null","","","","","","","","","",""
"","html-keyboard-response","156","708574","0.0-10.0-1.4","47b8s69lm4","many_one","0","direct_first","1","is06er20","1","26","1","1","3","1","Der Vollständigkeit halber muss ich anführen, dass mir spätestens in der zweiten Runde des ersten Durchgangs die Konstellation gewisser Zeichen mit positiven oder negativen Bildern klar war.","0","1","0","null","","","<img src = 'category1/CS1.png' width = '100%;'>","null","","","","","","","","","",""
"","html-keyboard-response","157","708847","0.0-10.0-2.4","47b8s69lm4","many_one","0","direct_first","1","is06er20","1","26","1","1","3","1","Der Vollständigkeit halber muss ich anführen, dass mir spätestens in der zweiten Runde des ersten Durchgangs die Konstellation gewisser Zeichen mit positiven oder negativen Bildern klar war.","0","1","0","null","","","<img src = 'targets/46.png' width = '100%;'>","null","","","","","","","","","",""
"","html-keyboard-response","158","710361","0.0-10.0-3.4","47b8s69lm4","many_one","0","direct_first","1","is06er20","1","26","1","1","3","1","Der Vollständigkeit halber muss ich anführen, dass mir spätestens in der zweiten Runde des ersten Durchgangs die Konstellation gewisser Zeichen mit positiven oder negativen Bildern klar war.","0","1","0","1510.9100000117905","","","<img src = 'targets/mask.png' width = '100%;'>","68","neg","CS","CS","1","category1/CS1.png","","targets/46.png","indirect","0","4"
"","html-keyboard-response","159","711879","0.0-10.0-0.5","47b8s69lm4","many_one","0","direct_first","1","is06er20","1","26","1","1","3","1","Der Vollständigkeit halber muss ich anführen, dass mir spätestens in der zweiten Runde des ersten Durchgangs die Konstellation gewisser Zeichen mit positiven oder negativen Bildern klar war.","0","1","0","null","","","<div style=""font-size:60px;"">+</div>","null","","","","","","","","","",""
"","html-keyboard-response","160","711976","0.0-10.0-1.5","47b8s69lm4","many_one","0","direct_first","1","is06er20","1","26","1","1","3","1","Der Vollständigkeit halber muss ich anführen, dass mir spätestens in der zweiten Runde des ersten Durchgangs die Konstellation gewisser Zeichen mit positiven oder negativen Bildern klar war.","0","1","0","null","","","<img src = 'category1/CS7.png' width = '100%;'>","null","","","","","","","","","",""
"","html-keyboard-response","161","712241","0.0-10.0-2.5","47b8s69lm4","many_one","0","direct_first","1","is06er20","1","26","1","1","3","1","Der Vollständigkeit halber muss ich anführen, dass mir spätestens in der zweiten Runde des ersten Durchgangs die Konstellation gewisser Zeichen mit positiven oder negativen Bildern klar war.","0","1","0","null","","","<img src = 'targets/13.png' width = '100%;'>","null","","","","","","","","","",""
"","html-keyboard-response","162","713041","0.0-10.0-3.5","47b8s69lm4","many_one","0","direct_first","1","is06er20","1","26","1","1","3","1","Der Vollständigkeit halber muss ich anführen, dass mir spätestens in der zweiten Runde des ersten Durchgangs die Konstellation gewisser Zeichen mit positiven oder negativen Bildern klar war.","0","1","0","798.2750000082888","","","<img src = 'targets/mask.png' width = '100%;'>","75","neg","GS","GSold","1","category1/CS7.png","","targets/13.png","indirect","1","5"
"","html-keyboard-response","163","714553","0.0-10.0-0.6","47b8s69lm4","many_one","0","direct_first","1","is06er20","1","26","1","1","3","1","Der Vollständigkeit halber muss ich anführen, dass mir spätestens in der zweiten Runde des ersten Durchgangs die Konstellation gewisser Zeichen mit positiven oder negativen Bildern klar war.","0","1","0","null","","","<div style=""font-size:60px;"">+</div>","null","","","","","","","","","",""
"","html-keyboard-response","164","714647","0.0-10.0-1.6","47b8s69lm4","many_one","0","direct_first","1","is06er20","1","26","1","1","3","1","Der Vollständigkeit halber muss ich anführen, dass mir spätestens in der zweiten Runde des ersten Durchgangs die Konstellation gewisser Zeichen mit positiven oder negativen Bildern klar war.","0","1","0","null","","","<img src = 'category3/CS10.png' width = '100%;'>","null","","","","","","","","","",""
"","html-keyboard-response","165","714912","0.0-10.0-2.6","47b8s69lm4","many_one","0","direct_first","1","is06er20","1","26","1","1","3","1","Der Vollständigkeit halber muss ich anführen, dass mir spätestens in der zweiten Runde des ersten Durchgangs die Konstellation gewisser Zeichen mit positiven oder negativen Bildern klar war.","0","1","0","null","","","<img src = 'targets/40.png' width = '100%;'>","null","","","","","","","","","",""
"","html-keyboard-response","166","716721","0.0-10.0-3.6","47b8s69lm4","many_one","0","direct_first","1","is06er20","1","26","1","1","3","1","Der Vollständigkeit halber muss ich anführen, dass mir spätestens in der zweiten Runde des ersten Durchgangs die Konstellation gewisser Zeichen mit positiven oder negativen Bildern klar war.","0","1","0","1806.3899999833666","","","<img src = 'targets/mask.png' width = '100%;'>","68","neg","CS","CS","3","category3/CS10.png","","targets/40.png","indirect","0","6"
"","html-keyboard-response","167","718234","0.0-10.0-0.7","47b8s69lm4","many_one","0","direct_first","1","is06er20","1","26","1","1","3","1","Der Vollständigkeit halber muss ich anführen, dass mir spätestens in der zweiten Runde des ersten Durchgangs die Konstellation gewisser Zeichen mit positiven oder negativen Bildern klar war.","0","1","0","null","","","<div style=""font-size:60px;"">+</div>","null","","","","","","","","","",""
"","html-keyboard-response","168","718331","0.0-10.0-1.7","47b8s69lm4","many_one","0","direct_first","1","is06er20","1","26","1","1","3","1","Der Vollständigkeit halber muss ich anführen, dass mir spätestens in der zweiten Runde des ersten Durchgangs die Konstellation gewisser Zeichen mit positiven oder negativen Bildern klar war.","0","1","0","null","","","<img src = 'category4/CS9.png' width = '100%;'>","null","","","","","","","","","",""
"","html-keyboard-response","169","718587","0.0-10.0-2.7","47b8s69lm4","many_one","0","direct_first","1","is06er20","1","26","1","1","3","1","Der Vollständigkeit halber muss ich anführen, dass mir spätestens in der zweiten Runde des ersten Durchgangs die Konstellation gewisser Zeichen mit positiven oder negativen Bildern klar war.","0","1","0","null","","","<img src = 'targets/32.png' width = '100%;'>","null","","","","","","","","","",""
"","html-keyboard-response","170","719161","0.0-10.0-3.7","47b8s69lm4","many_one","0","direct_first","1","is06er20","1","26","1","1","3","1","Der Vollständigkeit halber muss ich anführen, dass mir spätestens in der zweiten Runde des ersten Durchgangs die Konstellation gewisser Zeichen mit positiven oder negativen Bildern klar war.","0","1","0","570.209999976214","","","<img src = 'targets/mask.png' width = '100%;'>","75","pos","CS","CS","4","category4/CS9.png","","targets/32.png","indirect","1","7"
"","html-keyboard-response","171","720666","0.0-10.0-0.8","47b8s69lm4","many_one","0","direct_first","1","is06er20","1","26","1","1","3","1","Der Vollständigkeit halber muss ich anführen, dass mir spätestens in der zweiten Runde des ersten Durchgangs die Konstellation gewisser Zeichen mit positiven oder negativen Bildern klar war.","0","1","0","null","","","<div style=""font-size:60px;"">+</div>","null","","","","","","","","","",""
"","html-keyboard-response","172","720771","0.0-10.0-1.8","47b8s69lm4","many_one","0","direct_first","1","is06er20","1","26","1","1","3","1","Der Vollständigkeit halber muss ich anführen, dass mir spätestens in der zweiten Runde des ersten Durchgangs die Konstellation gewisser Zeichen mit positiven oder negativen Bildern klar war.","0","1","0","null","","","<img src = 'category4/CS7.png' width = '100%;'>","null","","","","","","","","","",""
"","html-keyboard-response","173","721039","0.0-10.0-2.8","47b8s69lm4","many_one","0","direct_first","1","is06er20","1","26","1","1","3","1","Der Vollständigkeit halber muss ich anführen, dass mir spätestens in der zweiten Runde des ersten Durchgangs die Konstellation gewisser Zeichen mit positiven oder negativen Bildern klar war.","0","1","0","null","","","<img src = 'targets/3.png' width = '100%;'>","null","","","","","","","","","",""
"","html-keyboard-response","174","721513","0.0-10.0-3.8","47b8s69lm4","many_one","0","direct_first","1","is06er20","1","26","1","1","3","1","Der Vollständigkeit halber muss ich anführen, dass mir spätestens in der zweiten Runde des ersten Durchgangs die Konstellation gewisser Zeichen mit positiven oder negativen Bildern klar war.","0","1","0","470.5100000137463","","","<img src = 'targets/mask.png' width = '100%;'>","75","pos","CS","CS","4","category4/CS7.png","","targets/3.png","indirect","1","8"
"","html-keyboard-response","175","723026","0.0-10.0-0.9","47b8s69lm4","many_one","0","direct_first","1","is06er20","1","26","1","1","3","1","Der Vollständigkeit halber muss ich anführen, dass mir spätestens in der zweiten Runde des ersten Durchgangs die Konstellation gewisser Zeichen mit positiven oder negativen Bildern klar war.","0","1","0","null","","","<div style=""font-size:60px;"">+</div>","null","","","","","","","","","",""
"","html-keyboard-response","176","723123","0.0-10.0-1.9","47b8s69lm4","many_one","0","direct_first","1","is06er20","1","26","1","1","3","1","Der Vollständigkeit halber muss ich anführen, dass mir spätestens in der zweiten Runde des ersten Durchgangs die Konstellation gewisser Zeichen mit positiven oder negativen Bildern klar war.","0","1","0","null","","","<img src = 'category3/CS3.png' width = '100%;'>","null","","","","","","","","","",""
"","html-keyboard-response","177","723388","0.0-10.0-2.9","47b8s69lm4","many_one","0","direct_first","1","is06er20","1","26","1","1","3","1","Der Vollständigkeit halber muss ich anführen, dass mir spätestens in der zweiten Runde des ersten Durchgangs die Konstellation gewisser Zeichen mit positiven oder negativen Bildern klar war.","0","1","0","null","","","<img src = 'targets/18.png' width = '100%;'>","null","","","","","","","","","",""
"","html-keyboard-response","178","723953","0.0-10.0-3.9","47b8s69lm4","many_one","0","direct_first","1","is06er20","1","26","1","1","3","1","Der Vollständigkeit halber muss ich anführen, dass mir spätestens in der zweiten Runde des ersten Durchgangs die Konstellation gewisser Zeichen mit positiven oder negativen Bildern klar war.","0","1","0","561.8499999982305","","","<img src = 'targets/mask.png' width = '100%;'>","68","neg","CS","CS","3","category3/CS3.png","","targets/18.png","indirect","0","9"
"","html-keyboard-response","179","725475","0.0-10.0-0.10","47b8s69lm4","many_one","0","direct_first","1","is06er20","1","26","1","1","3","1","Der Vollständigkeit halber muss ich anführen, dass mir spätestens in der zweiten Runde des ersten Durchgangs die Konstellation gewisser Zeichen mit positiven oder negativen Bildern klar war.","0","1","0","null","","","<div style=""font-size:60px;"">+</div>","null","","","","","","","","","",""
"","html-keyboard-response","180","725572","0.0-10.0-1.10","47b8s69lm4","many_one","0","direct_first","1","is06er20","1","26","1","1","3","1","Der Vollständigkeit halber muss ich anführen, dass mir spätestens in der zweiten Runde des ersten Durchgangs die Konstellation gewisser Zeichen mit positiven oder negativen Bildern klar war.","0","1","0","null","","","<img src = 'category3/CS7.png' width = '100%;'>","null","","","","","","","","","",""
"","html-keyboard-response","181","725835","0.0-10.0-2.10","47b8s69lm4","many_one","0","direct_first","1","is06er20","1","26","1","1","3","1","Der Vollständigkeit halber muss ich anführen, dass mir spätestens in der zweiten Runde des ersten Durchgangs die Konstellation gewisser Zeichen mit positiven oder negativen Bildern klar war.","0","1","0","null","","","<img src = 'targets/33.png' width = '100%;'>","null","","","","","","","","","",""
"","html-keyboard-response","182","726993","0.0-10.0-3.10","47b8s69lm4","many_one","0","direct_first","1","is06er20","1","26","1","1","3","1","Der Vollständigkeit halber muss ich anführen, dass mir spätestens in der zweiten Runde des ersten Durchgangs die Konstellation gewisser Zeichen mit positiven oder negativen Bildern klar war.","0","1","0","1155.5850000004284","","","<img src = 'targets/mask.png' width = '100%;'>","68","neg","CS","CS","3","category3/CS7.png","","targets/33.png","indirect","0","10"
"","html-keyboard-response","183","728508","0.0-10.0-0.11","47b8s69lm4","many_one","0","direct_first","1","is06er20","1","26","1","1","3","1","Der Vollständigkeit halber muss ich anführen, dass mir spätestens in der zweiten Runde des ersten Durchgangs die Konstellation gewisser Zeichen mit positiven oder negativen Bildern klar war.","0","1","0","null","","","<div style=""font-size:60px;"">+</div>","null","","","","","","","","","",""
"","html-keyboard-response","184","728604","0.0-10.0-1.11","47b8s69lm4","many_one","0","direct_first","1","is06er20","1","26","1","1","3","1","Der Vollständigkeit halber muss ich anführen, dass mir spätestens in der zweiten Runde des ersten Durchgangs die Konstellation gewisser Zeichen mit positiven oder negativen Bildern klar war.","0","1","0","null","","","<img src = 'category4/CS1.png' width = '100%;'>","null","","","","","","","","","",""
"","html-keyboard-response","185","728883","0.0-10.0-2.11","47b8s69lm4","many_one","0","direct_first","1","is06er20","1","26","1","1","3","1","Der Vollständigkeit halber muss ich anführen, dass mir spätestens in der zweiten Runde des ersten Durchgangs die Konstellation gewisser Zeichen mit positiven oder negativen Bildern klar war.","0","1","0","null","","","<img src = 'targets/2.png' width = '100%;'>","null","","","","","","","","","",""
"","html-keyboard-response","186","729073","0.0-10.0-3.11","47b8s69lm4","many_one","0","direct_first","1","is06er20","1","26","1","1","3","1","Der Vollständigkeit halber muss ich anführen, dass mir spätestens in der zweiten Runde des ersten Durchgangs die Konstellation gewisser Zeichen mit positiven oder negativen Bildern klar war.","0","1","0","186.20499997632578","","","<img src = 'targets/mask.png' width = '100%;'>","75","pos","CS","CS","4","category4/CS1.png","","targets/2.png","indirect","1","11"
"","html-keyboard-response","187","730590","0.0-10.0-0.12","47b8s69lm4","many_one","0","direct_first","1","is06er20","1","26","1","1","3","1","Der Vollständigkeit halber muss ich anführen, dass mir spätestens in der zweiten Runde des ersten Durchgangs die Konstellation gewisser Zeichen mit positiven oder negativen Bildern klar war.","0","1","0","null","","","<div style=""font-size:60px;"">+</div>","null","","","","","","","","","",""
"","html-keyboard-response","188","730687","0.0-10.0-1.12","47b8s69lm4","many_one","0","direct_first","1","is06er20","1","26","1","1","3","1","Der Vollständigkeit halber muss ich anführen, dass mir spätestens in der zweiten Runde des ersten Durchgangs die Konstellation gewisser Zeichen mit positiven oder negativen Bildern klar war.","0","1","0","null","","","<img src = 'category1/CS10.png' width = '100%;'>","null","","","","","","","","","",""
"","html-keyboard-response","189","730965","0.0-10.0-2.12","47b8s69lm4","many_one","0","direct_first","1","is06er20","1","26","1","1","3","1","Der Vollständigkeit halber muss ich anführen, dass mir spätestens in der zweiten Runde des ersten Durchgangs die Konstellation gewisser Zeichen mit positiven oder negativen Bildern klar war.","0","1","0","null","","","<img src = 'targets/35.png' width = '100%;'>","null","","","","","","","","","",""
"","html-keyboard-response","190","730992","0.0-10.0-3.12","47b8s69lm4","many_one","0","direct_first","1","is06er20","1","26","1","1","3","1","Der Vollständigkeit halber muss ich anführen, dass mir spätestens in der zweiten Runde des ersten Durchgangs die Konstellation gewisser Zeichen mit positiven oder negativen Bildern klar war.","0","1","0","23.719999997410923","","","<img src = 'targets/mask.png' width = '100%;'>","68","neg","GS","GSold","1","category1/CS10.png","","targets/35.png","indirect","0","12"
"","html-keyboard-response","191","732496","0.0-10.0-0.13","47b8s69lm4","many_one","0","direct_first","1","is06er20","1","26","1","1","3","1","Der Vollständigkeit halber muss ich anführen, dass mir spätestens in der zweiten Runde des ersten Durchgangs die Konstellation gewisser Zeichen mit positiven oder negativen Bildern klar war.","0","1","0","null","","","<div style=""font-size:60px;"">+</div>","null","","","","","","","","","",""
