"success","trial_type","trial_index","time_elapsed","internal_node_id","subject","condition","condition_code","measure","measure_code","codeword","gender","age","education","chinese","fach","handedness","comment","hinschauen","ablenkung","gewissenhaft","rt","url","responses","stimulus","key_press","val","type","type_specific","category","cs_selected","response","target","task","indirect","nr_pres"
"true","fullscreen","0","6650","0.0-0.0","h8e0vbwe0z","many_one","0","direct_first","1","le06er28","0","19","1","1","1","1","","0","1","0","","","","","","","","","","","","","","",""
"","external-html","1","30054","0.0-1.0","h8e0vbwe0z","many_one","0","direct_first","1","le06er28","0","19","1","1","1","1","","0","1","0","23091.69499995187","text/information.html","","","","","","","","","","","","",""
"","external-html","2","34375","0.0-2.0","h8e0vbwe0z","many_one","0","direct_first","1","le06er28","0","19","1","1","1","1","","0","1","0","4219.784999964759","text/consent.html","","","","","","","","","","","","",""
"","survey-html-form","3","1767691","0.0-3.0","h8e0vbwe0z","many_one","0","direct_first","1","le06er28","0","19","1","1","1","1","","0","1","0","1733335.0899999496","","{""codeword_enter"":""le06er28""}","","","","","","","","","","","",""
"","survey-html-form","4","1781060","0.0-4.0","h8e0vbwe0z","many_one","0","direct_first","1","le06er28","0","19","1","1","1","1","","0","1","0","13363.14500006847","","{""age"":""19"",""education"":""1"",""subject"":""1"",""gender"":""0"",""handedness"":""1"",""chinese"":""1""}","","","","","","","","","","","",""
"","survey-html-form","5","1793251","0.0-5.0","h8e0vbwe0z","many_one","0","direct_first","1","le06er28","0","19","1","1","1","1","","0","1","0","12188.689999980852","","{}","","","","","","","","","","","",""
"","html-keyboard-response","6","1797264","0.0-6.0-0.0-0.0","h8e0vbwe0z","many_one","0","direct_first","1","le06er28","0","19","1","1","1","1","","0","1","0","null","","","<div class = 'row'><div class = 'column'><img src = 'uspos/5830.bmp' width = '100%;'></div><div class = 'column'><img src = 'category2/CS4.png' width = '70%;'></div></div>","null","pos","CS","CS","2","category2/CS4.png","","","","",""
"","html-keyboard-response","7","1799773","0.0-6.0-0.0-0.1","h8e0vbwe0z","many_one","0","direct_first","1","le06er28","0","19","1","1","1","1","","0","1","0","null","","","<div class = 'row'><div class = 'column'><img src = 'category4/CS10.png' width = '70%;'></div><div class = 'column'><img src = 'usneg/2900.bmp' width = '100%;'></div></div>","null","neg","CS","CS","4","category4/CS10.png","","","","",""
"","html-keyboard-response","8","1802283","0.0-6.0-0.0-0.2","h8e0vbwe0z","many_one","0","direct_first","1","le06er28","0","19","1","1","1","1","","0","1","0","null","","","<div class = 'row'><div class = 'column'><img src = 'category3/CS3.png' width = '70%;'></div><div class = 'column'><img src = 'uspos/4599.bmp' width = '100%;'></div></div>","null","pos","CS","CS","3","category3/CS3.png","","","","",""
"","html-keyboard-response","9","1804797","0.0-6.0-0.0-0.3","h8e0vbwe0z","many_one","0","direct_first","1","le06er28","0","19","1","1","1","1","","0","1","0","null","","","<div class = 'row'><div class = 'column'><img src = 'category1/CS1.png' width = '70%;'></div><div class = 'column'><img src = 'usneg/9415.bmp' width = '100%;'></div></div>","null","neg","CS","CS","1","category1/CS1.png","","","","",""
"","html-keyboard-response","10","1807308","0.0-6.0-0.0-0.4","h8e0vbwe0z","many_one","0","direct_first","1","le06er28","0","19","1","1","1","1","","0","1","0","null","","","<div class = 'row'><div class = 'column'><img src = 'uspos/2040.bmp' width = '100%;'></div><div class = 'column'><img src = 'category3/CS9.png' width = '70%;'></div></div>","null","pos","CS","CS","3","category3/CS9.png","","","","",""
"","html-keyboard-response","11","1809819","0.0-6.0-0.0-0.5","h8e0vbwe0z","many_one","0","direct_first","1","le06er28","0","19","1","1","1","1","","0","1","0","null","","","<div class = 'row'><div class = 'column'><img src = 'category2/CS7.png' width = '70%;'></div><div class = 'column'><img src = 'uspos/5831.bmp' width = '100%;'></div></div>","null","pos","CS","CS","2","category2/CS7.png","","","","",""
"","html-keyboard-response","12","1812331","0.0-6.0-0.0-0.6","h8e0vbwe0z","many_one","0","direct_first","1","le06er28","0","19","1","1","1","1","","0","1","0","null","","","<div class = 'row'><div class = 'column'><img src = 'uspos/8540.bmp' width = '100%;'></div><div class = 'column'><img src = 'category2/CS5.png' width = '70%;'></div></div>","null","pos","CS","CS","2","category2/CS5.png","","","","",""
"","html-keyboard-response","13","1814843","0.0-6.0-0.0-0.7","h8e0vbwe0z","many_one","0","direct_first","1","le06er28","0","19","1","1","1","1","","0","1","0","null","","","<div class = 'row'><div class = 'column'><img src = 'uspos/4625.bmp' width = '100%;'></div><div class = 'column'><img src = 'category2/CS6.png' width = '70%;'></div></div>","null","pos","CS","CS","2","category2/CS6.png","","","","",""
"","html-keyboard-response","14","1817353","0.0-6.0-0.0-0.8","h8e0vbwe0z","many_one","0","direct_first","1","le06er28","0","19","1","1","1","1","","0","1","0","null","","","<div class = 'row'><div class = 'column'><img src = 'usneg/9050.bmp' width = '100%;'></div><div class = 'column'><img src = 'category1/CS10.png' width = '70%;'></div></div>","null","neg","CS","CS","1","category1/CS10.png","","","","",""
"","html-keyboard-response","15","1819867","0.0-6.0-0.0-0.9","h8e0vbwe0z","many_one","0","direct_first","1","le06er28","0","19","1","1","1","1","","0","1","0","null","","","<div class = 'row'><div class = 'column'><img src = 'category1/CS8.png' width = '70%;'></div><div class = 'column'><img src = 'usneg/9290.bmp' width = '100%;'></div></div>","null","neg","CS","CS","1","category1/CS8.png","","","","",""
"","html-keyboard-response","16","1822379","0.0-6.0-0.0-0.10","h8e0vbwe0z","many_one","0","direct_first","1","le06er28","0","19","1","1","1","1","","0","1","0","null","","","<div class = 'row'><div class = 'column'><img src = 'usneg/8485.bmp' width = '100%;'></div><div class = 'column'><img src = 'category1/CS4.png' width = '70%;'></div></div>","null","neg","CS","CS","1","category1/CS4.png","","","","",""
"","html-keyboard-response","17","1824888","0.0-6.0-0.0-0.11","h8e0vbwe0z","many_one","0","direct_first","1","le06er28","0","19","1","1","1","1","","0","1","0","null","","","<div class = 'row'><div class = 'column'><img src = 'uspos/2550.bmp' width = '100%;'></div><div class = 'column'><img src = 'category3/CS6.png' width = '70%;'></div></div>","null","pos","CS","CS","3","category3/CS6.png","","","","",""
"","html-keyboard-response","18","1827394","0.0-6.0-0.0-0.12","h8e0vbwe0z","many_one","0","direct_first","1","le06er28","0","19","1","1","1","1","","0","1","0","null","","","<div class = 'row'><div class = 'column'><img src = 'uspos/2341.bmp' width = '100%;'></div><div class = 'column'><img src = 'category2/CS9.png' width = '70%;'></div></div>","null","pos","CS","CS","2","category2/CS9.png","","","","",""
"","html-keyboard-response","19","1829907","0.0-6.0-0.0-0.13","h8e0vbwe0z","many_one","0","direct_first","1","le06er28","0","19","1","1","1","1","","0","1","0","null","","","<div class = 'row'><div class = 'column'><img src = 'category3/CS4.png' width = '70%;'></div><div class = 'column'><img src = 'uspos/1710.bmp' width = '100%;'></div></div>","null","pos","CS","CS","3","category3/CS4.png","","","","",""
"","html-keyboard-response","20","1832417","0.0-6.0-0.0-0.14","h8e0vbwe0z","many_one","0","direct_first","1","le06er28","0","19","1","1","1","1","","0","1","0","null","","","<div class = 'row'><div class = 'column'><img src = 'usneg/9404.bmp' width = '100%;'></div><div class = 'column'><img src = 'category4/CS2.png' width = '70%;'></div></div>","null","neg","CS","CS","4","category4/CS2.png","","","","",""
"","html-keyboard-response","21","1834926","0.0-6.0-0.0-0.15","h8e0vbwe0z","many_one","0","direct_first","1","le06er28","0","19","1","1","1","1","","0","1","0","null","","","<div class = 'row'><div class = 'column'><img src = 'uspos/2160.bmp' width = '100%;'></div><div class = 'column'><img src = 'category3/CS7.png' width = '70%;'></div></div>","null","pos","CS","CS","3","category3/CS7.png","","","","",""
"","html-keyboard-response","22","1837438","0.0-6.0-0.0-0.16","h8e0vbwe0z","many_one","0","direct_first","1","le06er28","0","19","1","1","1","1","","0","1","0","null","","","<div class = 'row'><div class = 'column'><img src = 'usneg/2205.bmp' width = '100%;'></div><div class = 'column'><img src = 'category4/CS3.png' width = '70%;'></div></div>","null","neg","CS","CS","4","category4/CS3.png","","","","",""
"","html-keyboard-response","23","1839947","0.0-6.0-0.0-0.17","h8e0vbwe0z","many_one","0","direct_first","1","le06er28","0","19","1","1","1","1","","0","1","0","null","","","<div class = 'row'><div class = 'column'><img src = 'usneg/9000.bmp' width = '100%;'></div><div class = 'column'><img src = 'category4/CS7.png' width = '70%;'></div></div>","null","neg","CS","CS","4","category4/CS7.png","","","","",""
"","html-keyboard-response","24","1842453","0.0-6.0-0.0-0.18","h8e0vbwe0z","many_one","0","direct_first","1","le06er28","0","19","1","1","1","1","","0","1","0","null","","","<div class = 'row'><div class = 'column'><img src = 'category1/CS7.png' width = '70%;'></div><div class = 'column'><img src = 'usneg/9041.bmp' width = '100%;'></div></div>","null","neg","CS","CS","1","category1/CS7.png","","","","",""
"","html-keyboard-response","25","1844969","0.0-6.0-0.0-0.19","h8e0vbwe0z","many_one","0","direct_first","1","le06er28","0","19","1","1","1","1","","0","1","0","null","","","<div class = 'row'><div class = 'column'><img src = 'usneg/9342.bmp' width = '100%;'></div><div class = 'column'><img src = 'category4/CS8.png' width = '70%;'></div></div>","null","neg","CS","CS","4","category4/CS8.png","","","","",""
"","survey-html-form","26","1847956","0.0-6.0-1.0","h8e0vbwe0z","many_one","0","direct_first","1","le06er28","0","19","1","1","1","1","","0","1","0","2477.8549999464303","","{}","","","","","","","","","","","",""
"","html-keyboard-response","27","1851970","0.0-6.0-2.0-0.0","h8e0vbwe0z","many_one","0","direct_first","1","le06er28","0","19","1","1","1","1","","0","1","0","null","","","<div class = 'row'><div class = 'column'><img src = 'category1/CS4.png' width = '70%;'></div><div class = 'column'><img src = 'usneg/8485.bmp' width = '100%;'></div></div>","null","neg","CS","CS","1","category1/CS4.png","","","","",""
"","html-keyboard-response","28","1854484","0.0-6.0-2.0-0.1","h8e0vbwe0z","many_one","0","direct_first","1","le06er28","0","19","1","1","1","1","","0","1","0","null","","","<div class = 'row'><div class = 'column'><img src = 'category2/CS6.png' width = '70%;'></div><div class = 'column'><img src = 'uspos/4625.bmp' width = '100%;'></div></div>","null","pos","CS","CS","2","category2/CS6.png","","","","",""
"","html-keyboard-response","29","1856992","0.0-6.0-2.0-0.2","h8e0vbwe0z","many_one","0","direct_first","1","le06er28","0","19","1","1","1","1","","0","1","0","null","","","<div class = 'row'><div class = 'column'><img src = 'usneg/2900.bmp' width = '100%;'></div><div class = 'column'><img src = 'category4/CS10.png' width = '70%;'></div></div>","null","neg","CS","CS","4","category4/CS10.png","","","","",""
"","html-keyboard-response","30","1859504","0.0-6.0-2.0-0.3","h8e0vbwe0z","many_one","0","direct_first","1","le06er28","0","19","1","1","1","1","","0","1","0","null","","","<div class = 'row'><div class = 'column'><img src = 'usneg/9290.bmp' width = '100%;'></div><div class = 'column'><img src = 'category1/CS8.png' width = '70%;'></div></div>","null","neg","CS","CS","1","category1/CS8.png","","","","",""
"","html-keyboard-response","31","1862016","0.0-6.0-2.0-0.4","h8e0vbwe0z","many_one","0","direct_first","1","le06er28","0","19","1","1","1","1","","0","1","0","null","","","<div class = 'row'><div class = 'column'><img src = 'usneg/9342.bmp' width = '100%;'></div><div class = 'column'><img src = 'category4/CS8.png' width = '70%;'></div></div>","null","neg","CS","CS","4","category4/CS8.png","","","","",""
"","html-keyboard-response","32","1864520","0.0-6.0-2.0-0.5","h8e0vbwe0z","many_one","0","direct_first","1","le06er28","0","19","1","1","1","1","","0","1","0","null","","","<div class = 'row'><div class = 'column'><img src = 'category2/CS7.png' width = '70%;'></div><div class = 'column'><img src = 'uspos/5831.bmp' width = '100%;'></div></div>","null","pos","CS","CS","2","category2/CS7.png","","","","",""
"","html-keyboard-response","33","1867034","0.0-6.0-2.0-0.6","h8e0vbwe0z","many_one","0","direct_first","1","le06er28","0","19","1","1","1","1","","0","1","0","null","","","<div class = 'row'><div class = 'column'><img src = 'category4/CS3.png' width = '70%;'></div><div class = 'column'><img src = 'usneg/2205.bmp' width = '100%;'></div></div>","null","neg","CS","CS","4","category4/CS3.png","","","","",""
"","html-keyboard-response","34","1869549","0.0-6.0-2.0-0.7","h8e0vbwe0z","many_one","0","direct_first","1","le06er28","0","19","1","1","1","1","","0","1","0","null","","","<div class = 'row'><div class = 'column'><img src = 'category1/CS10.png' width = '70%;'></div><div class = 'column'><img src = 'usneg/9050.bmp' width = '100%;'></div></div>","null","neg","CS","CS","1","category1/CS10.png","","","","",""
"","html-keyboard-response","35","1872067","0.0-6.0-2.0-0.8","h8e0vbwe0z","many_one","0","direct_first","1","le06er28","0","19","1","1","1","1","","0","1","0","null","","","<div class = 'row'><div class = 'column'><img src = 'uspos/2550.bmp' width = '100%;'></div><div class = 'column'><img src = 'category3/CS6.png' width = '70%;'></div></div>","null","pos","CS","CS","3","category3/CS6.png","","","","",""
"","html-keyboard-response","36","1874575","0.0-6.0-2.0-0.9","h8e0vbwe0z","many_one","0","direct_first","1","le06er28","0","19","1","1","1","1","","0","1","0","null","","","<div class = 'row'><div class = 'column'><img src = 'category3/CS3.png' width = '70%;'></div><div class = 'column'><img src = 'uspos/4599.bmp' width = '100%;'></div></div>","null","pos","CS","CS","3","category3/CS3.png","","","","",""
"","html-keyboard-response","37","1877086","0.0-6.0-2.0-0.10","h8e0vbwe0z","many_one","0","direct_first","1","le06er28","0","19","1","1","1","1","","0","1","0","null","","","<div class = 'row'><div class = 'column'><img src = 'category2/CS4.png' width = '70%;'></div><div class = 'column'><img src = 'uspos/5830.bmp' width = '100%;'></div></div>","null","pos","CS","CS","2","category2/CS4.png","","","","",""
"","html-keyboard-response","38","1879604","0.0-6.0-2.0-0.11","h8e0vbwe0z","many_one","0","direct_first","1","le06er28","0","19","1","1","1","1","","0","1","0","null","","","<div class = 'row'><div class = 'column'><img src = 'usneg/9000.bmp' width = '100%;'></div><div class = 'column'><img src = 'category4/CS7.png' width = '70%;'></div></div>","null","neg","CS","CS","4","category4/CS7.png","","","","",""
"","html-keyboard-response","39","1882117","0.0-6.0-2.0-0.12","h8e0vbwe0z","many_one","0","direct_first","1","le06er28","0","19","1","1","1","1","","0","1","0","null","","","<div class = 'row'><div class = 'column'><img src = 'usneg/9404.bmp' width = '100%;'></div><div class = 'column'><img src = 'category4/CS2.png' width = '70%;'></div></div>","null","neg","CS","CS","4","category4/CS2.png","","","","",""
"","html-keyboard-response","40","1884632","0.0-6.0-2.0-0.13","h8e0vbwe0z","many_one","0","direct_first","1","le06er28","0","19","1","1","1","1","","0","1","0","null","","","<div class = 'row'><div class = 'column'><img src = 'category2/CS9.png' width = '70%;'></div><div class = 'column'><img src = 'uspos/2341.bmp' width = '100%;'></div></div>","null","pos","CS","CS","2","category2/CS9.png","","","","",""
"","html-keyboard-response","41","1887139","0.0-6.0-2.0-0.14","h8e0vbwe0z","many_one","0","direct_first","1","le06er28","0","19","1","1","1","1","","0","1","0","null","","","<div class = 'row'><div class = 'column'><img src = 'usneg/9041.bmp' width = '100%;'></div><div class = 'column'><img src = 'category1/CS7.png' width = '70%;'></div></div>","null","neg","CS","CS","1","category1/CS7.png","","","","",""
"","html-keyboard-response","42","1889652","0.0-6.0-2.0-0.15","h8e0vbwe0z","many_one","0","direct_first","1","le06er28","0","19","1","1","1","1","","0","1","0","null","","","<div class = 'row'><div class = 'column'><img src = 'category3/CS4.png' width = '70%;'></div><div class = 'column'><img src = 'uspos/1710.bmp' width = '100%;'></div></div>","null","pos","CS","CS","3","category3/CS4.png","","","","",""
"","html-keyboard-response","43","1892168","0.0-6.0-2.0-0.16","h8e0vbwe0z","many_one","0","direct_first","1","le06er28","0","19","1","1","1","1","","0","1","0","null","","","<div class = 'row'><div class = 'column'><img src = 'category3/CS9.png' width = '70%;'></div><div class = 'column'><img src = 'uspos/2040.bmp' width = '100%;'></div></div>","null","pos","CS","CS","3","category3/CS9.png","","","","",""
"","html-keyboard-response","44","1894680","0.0-6.0-2.0-0.17","h8e0vbwe0z","many_one","0","direct_first","1","le06er28","0","19","1","1","1","1","","0","1","0","null","","","<div class = 'row'><div class = 'column'><img src = 'uspos/8540.bmp' width = '100%;'></div><div class = 'column'><img src = 'category2/CS5.png' width = '70%;'></div></div>","null","pos","CS","CS","2","category2/CS5.png","","","","",""
"","html-keyboard-response","45","1897197","0.0-6.0-2.0-0.18","h8e0vbwe0z","many_one","0","direct_first","1","le06er28","0","19","1","1","1","1","","0","1","0","null","","","<div class = 'row'><div class = 'column'><img src = 'category3/CS7.png' width = '70%;'></div><div class = 'column'><img src = 'uspos/2160.bmp' width = '100%;'></div></div>","null","pos","CS","CS","3","category3/CS7.png","","","","",""
"","html-keyboard-response","46","1899716","0.0-6.0-2.0-0.19","h8e0vbwe0z","many_one","0","direct_first","1","le06er28","0","19","1","1","1","1","","0","1","0","null","","","<div class = 'row'><div class = 'column'><img src = 'category1/CS1.png' width = '70%;'></div><div class = 'column'><img src = 'usneg/9415.bmp' width = '100%;'></div></div>","null","neg","CS","CS","1","category1/CS1.png","","","","",""
"","survey-html-form","47","1907616","0.0-6.0-3.0","h8e0vbwe0z","many_one","0","direct_first","1","le06er28","0","19","1","1","1","1","","0","1","0","7397.459999890998","","{}","","","","","","","","","","","",""
"","html-keyboard-response","48","1911622","0.0-6.0-4.0-0.0","h8e0vbwe0z","many_one","0","direct_first","1","le06er28","0","19","1","1","1","1","","0","1","0","null","","","<div class = 'row'><div class = 'column'><img src = 'uspos/5830.bmp' width = '100%;'></div><div class = 'column'><img src = 'category2/CS4.png' width = '70%;'></div></div>","null","pos","CS","CS","2","category2/CS4.png","","","","",""
"","html-keyboard-response","49","1914130","0.0-6.0-4.0-0.1","h8e0vbwe0z","many_one","0","direct_first","1","le06er28","0","19","1","1","1","1","","0","1","0","null","","","<div class = 'row'><div class = 'column'><img src = 'usneg/2205.bmp' width = '100%;'></div><div class = 'column'><img src = 'category4/CS3.png' width = '70%;'></div></div>","null","neg","CS","CS","4","category4/CS3.png","","","","",""
"","html-keyboard-response","50","1916641","0.0-6.0-4.0-0.2","h8e0vbwe0z","many_one","0","direct_first","1","le06er28","0","19","1","1","1","1","","0","1","0","null","","","<div class = 'row'><div class = 'column'><img src = 'uspos/4599.bmp' width = '100%;'></div><div class = 'column'><img src = 'category3/CS3.png' width = '70%;'></div></div>","null","pos","CS","CS","3","category3/CS3.png","","","","",""
"","html-keyboard-response","51","1919150","0.0-6.0-4.0-0.3","h8e0vbwe0z","many_one","0","direct_first","1","le06er28","0","19","1","1","1","1","","0","1","0","null","","","<div class = 'row'><div class = 'column'><img src = 'category4/CS10.png' width = '70%;'></div><div class = 'column'><img src = 'usneg/2900.bmp' width = '100%;'></div></div>","null","neg","CS","CS","4","category4/CS10.png","","","","",""
"","html-keyboard-response","52","1921664","0.0-6.0-4.0-0.4","h8e0vbwe0z","many_one","0","direct_first","1","le06er28","0","19","1","1","1","1","","0","1","0","null","","","<div class = 'row'><div class = 'column'><img src = 'category2/CS6.png' width = '70%;'></div><div class = 'column'><img src = 'uspos/4625.bmp' width = '100%;'></div></div>","null","pos","CS","CS","2","category2/CS6.png","","","","",""
"","html-keyboard-response","53","1924178","0.0-6.0-4.0-0.5","h8e0vbwe0z","many_one","0","direct_first","1","le06er28","0","19","1","1","1","1","","0","1","0","null","","","<div class = 'row'><div class = 'column'><img src = 'usneg/9290.bmp' width = '100%;'></div><div class = 'column'><img src = 'category1/CS8.png' width = '70%;'></div></div>","null","neg","CS","CS","1","category1/CS8.png","","","","",""
"","html-keyboard-response","54","1926693","0.0-6.0-4.0-0.6","h8e0vbwe0z","many_one","0","direct_first","1","le06er28","0","19","1","1","1","1","","0","1","0","null","","","<div class = 'row'><div class = 'column'><img src = 'uspos/8540.bmp' width = '100%;'></div><div class = 'column'><img src = 'category2/CS5.png' width = '70%;'></div></div>","null","pos","CS","CS","2","category2/CS5.png","","","","",""
"","html-keyboard-response","55","1929210","0.0-6.0-4.0-0.7","h8e0vbwe0z","many_one","0","direct_first","1","le06er28","0","19","1","1","1","1","","0","1","0","null","","","<div class = 'row'><div class = 'column'><img src = 'category4/CS7.png' width = '70%;'></div><div class = 'column'><img src = 'usneg/9000.bmp' width = '100%;'></div></div>","null","neg","CS","CS","4","category4/CS7.png","","","","",""
"","html-keyboard-response","56","1931722","0.0-6.0-4.0-0.8","h8e0vbwe0z","many_one","0","direct_first","1","le06er28","0","19","1","1","1","1","","0","1","0","null","","","<div class = 'row'><div class = 'column'><img src = 'usneg/9041.bmp' width = '100%;'></div><div class = 'column'><img src = 'category1/CS7.png' width = '70%;'></div></div>","null","neg","CS","CS","1","category1/CS7.png","","","","",""
"","html-keyboard-response","57","1934242","0.0-6.0-4.0-0.9","h8e0vbwe0z","many_one","0","direct_first","1","le06er28","0","19","1","1","1","1","","0","1","0","null","","","<div class = 'row'><div class = 'column'><img src = 'uspos/2341.bmp' width = '100%;'></div><div class = 'column'><img src = 'category2/CS9.png' width = '70%;'></div></div>","null","pos","CS","CS","2","category2/CS9.png","","","","",""
"","html-keyboard-response","58","1936751","0.0-6.0-4.0-0.10","h8e0vbwe0z","many_one","0","direct_first","1","le06er28","0","19","1","1","1","1","","0","1","0","null","","","<div class = 'row'><div class = 'column'><img src = 'usneg/9415.bmp' width = '100%;'></div><div class = 'column'><img src = 'category1/CS1.png' width = '70%;'></div></div>","null","neg","CS","CS","1","category1/CS1.png","","","","",""
"","html-keyboard-response","59","1939262","0.0-6.0-4.0-0.11","h8e0vbwe0z","many_one","0","direct_first","1","le06er28","0","19","1","1","1","1","","0","1","0","null","","","<div class = 'row'><div class = 'column'><img src = 'usneg/8485.bmp' width = '100%;'></div><div class = 'column'><img src = 'category1/CS4.png' width = '70%;'></div></div>","null","neg","CS","CS","1","category1/CS4.png","","","","",""
"","html-keyboard-response","60","1941776","0.0-6.0-4.0-0.12","h8e0vbwe0z","many_one","0","direct_first","1","le06er28","0","19","1","1","1","1","","0","1","0","null","","","<div class = 'row'><div class = 'column'><img src = 'usneg/9050.bmp' width = '100%;'></div><div class = 'column'><img src = 'category1/CS10.png' width = '70%;'></div></div>","null","neg","CS","CS","1","category1/CS10.png","","","","",""
"","html-keyboard-response","61","1944289","0.0-6.0-4.0-0.13","h8e0vbwe0z","many_one","0","direct_first","1","le06er28","0","19","1","1","1","1","","0","1","0","null","","","<div class = 'row'><div class = 'column'><img src = 'usneg/9342.bmp' width = '100%;'></div><div class = 'column'><img src = 'category4/CS8.png' width = '70%;'></div></div>","null","neg","CS","CS","4","category4/CS8.png","","","","",""
"","html-keyboard-response","62","1946802","0.0-6.0-4.0-0.14","h8e0vbwe0z","many_one","0","direct_first","1","le06er28","0","19","1","1","1","1","","0","1","0","null","","","<div class = 'row'><div class = 'column'><img src = 'category4/CS2.png' width = '70%;'></div><div class = 'column'><img src = 'usneg/9404.bmp' width = '100%;'></div></div>","null","neg","CS","CS","4","category4/CS2.png","","","","",""
"","html-keyboard-response","63","1949320","0.0-6.0-4.0-0.15","h8e0vbwe0z","many_one","0","direct_first","1","le06er28","0","19","1","1","1","1","","0","1","0","null","","","<div class = 'row'><div class = 'column'><img src = 'uspos/2040.bmp' width = '100%;'></div><div class = 'column'><img src = 'category3/CS9.png' width = '70%;'></div></div>","null","pos","CS","CS","3","category3/CS9.png","","","","",""
"","html-keyboard-response","64","1951834","0.0-6.0-4.0-0.16","h8e0vbwe0z","many_one","0","direct_first","1","le06er28","0","19","1","1","1","1","","0","1","0","null","","","<div class = 'row'><div class = 'column'><img src = 'category3/CS6.png' width = '70%;'></div><div class = 'column'><img src = 'uspos/2550.bmp' width = '100%;'></div></div>","null","pos","CS","CS","3","category3/CS6.png","","","","",""
"","html-keyboard-response","65","1954348","0.0-6.0-4.0-0.17","h8e0vbwe0z","many_one","0","direct_first","1","le06er28","0","19","1","1","1","1","","0","1","0","null","","","<div class = 'row'><div class = 'column'><img src = 'category2/CS7.png' width = '70%;'></div><div class = 'column'><img src = 'uspos/5831.bmp' width = '100%;'></div></div>","null","pos","CS","CS","2","category2/CS7.png","","","","",""
"","html-keyboard-response","66","1956860","0.0-6.0-4.0-0.18","h8e0vbwe0z","many_one","0","direct_first","1","le06er28","0","19","1","1","1","1","","0","1","0","null","","","<div class = 'row'><div class = 'column'><img src = 'category3/CS7.png' width = '70%;'></div><div class = 'column'><img src = 'uspos/2160.bmp' width = '100%;'></div></div>","null","pos","CS","CS","3","category3/CS7.png","","","","",""
"","html-keyboard-response","67","1959368","0.0-6.0-4.0-0.19","h8e0vbwe0z","many_one","0","direct_first","1","le06er28","0","19","1","1","1","1","","0","1","0","null","","","<div class = 'row'><div class = 'column'><img src = 'category3/CS4.png' width = '70%;'></div><div class = 'column'><img src = 'uspos/1710.bmp' width = '100%;'></div></div>","null","pos","CS","CS","3","category3/CS4.png","","","","",""
"","survey-html-form","68","1962171","0.0-6.0-5.0","h8e0vbwe0z","many_one","0","direct_first","1","le06er28","0","19","1","1","1","1","","0","1","0","2300.2849998883903","","{}","","","","","","","","","","","",""
"","html-keyboard-response","69","1966184","0.0-6.0-6.0-0.0","h8e0vbwe0z","many_one","0","direct_first","1","le06er28","0","19","1","1","1","1","","0","1","0","null","","","<div class = 'row'><div class = 'column'><img src = 'category2/CS7.png' width = '70%;'></div><div class = 'column'><img src = 'uspos/5831.bmp' width = '100%;'></div></div>","null","pos","CS","CS","2","category2/CS7.png","","","","",""
"","html-keyboard-response","70","1968689","0.0-6.0-6.0-0.1","h8e0vbwe0z","many_one","0","direct_first","1","le06er28","0","19","1","1","1","1","","0","1","0","null","","","<div class = 'row'><div class = 'column'><img src = 'usneg/9000.bmp' width = '100%;'></div><div class = 'column'><img src = 'category4/CS7.png' width = '70%;'></div></div>","null","neg","CS","CS","4","category4/CS7.png","","","","",""
"","html-keyboard-response","71","1971197","0.0-6.0-6.0-0.2","h8e0vbwe0z","many_one","0","direct_first","1","le06er28","0","19","1","1","1","1","","0","1","0","null","","","<div class = 'row'><div class = 'column'><img src = 'category3/CS7.png' width = '70%;'></div><div class = 'column'><img src = 'uspos/2160.bmp' width = '100%;'></div></div>","null","pos","CS","CS","3","category3/CS7.png","","","","",""
"","html-keyboard-response","72","1973706","0.0-6.0-6.0-0.3","h8e0vbwe0z","many_one","0","direct_first","1","le06er28","0","19","1","1","1","1","","0","1","0","null","","","<div class = 'row'><div class = 'column'><img src = 'uspos/2341.bmp' width = '100%;'></div><div class = 'column'><img src = 'category2/CS9.png' width = '70%;'></div></div>","null","pos","CS","CS","2","category2/CS9.png","","","","",""
"","html-keyboard-response","73","1976220","0.0-6.0-6.0-0.4","h8e0vbwe0z","many_one","0","direct_first","1","le06er28","0","19","1","1","1","1","","0","1","0","null","","","<div class = 'row'><div class = 'column'><img src = 'uspos/1710.bmp' width = '100%;'></div><div class = 'column'><img src = 'category3/CS4.png' width = '70%;'></div></div>","null","pos","CS","CS","3","category3/CS4.png","","","","",""
"","html-keyboard-response","74","1978731","0.0-6.0-6.0-0.5","h8e0vbwe0z","many_one","0","direct_first","1","le06er28","0","19","1","1","1","1","","0","1","0","null","","","<div class = 'row'><div class = 'column'><img src = 'uspos/8540.bmp' width = '100%;'></div><div class = 'column'><img src = 'category2/CS5.png' width = '70%;'></div></div>","null","pos","CS","CS","2","category2/CS5.png","","","","",""
"","html-keyboard-response","75","1981241","0.0-6.0-6.0-0.6","h8e0vbwe0z","many_one","0","direct_first","1","le06er28","0","19","1","1","1","1","","0","1","0","null","","","<div class = 'row'><div class = 'column'><img src = 'usneg/2205.bmp' width = '100%;'></div><div class = 'column'><img src = 'category4/CS3.png' width = '70%;'></div></div>","null","neg","CS","CS","4","category4/CS3.png","","","","",""
"","html-keyboard-response","76","1983747","0.0-6.0-6.0-0.7","h8e0vbwe0z","many_one","0","direct_first","1","le06er28","0","19","1","1","1","1","","0","1","0","null","","","<div class = 'row'><div class = 'column'><img src = 'category3/CS3.png' width = '70%;'></div><div class = 'column'><img src = 'uspos/4599.bmp' width = '100%;'></div></div>","null","pos","CS","CS","3","category3/CS3.png","","","","",""
"","html-keyboard-response","77","1986255","0.0-6.0-6.0-0.8","h8e0vbwe0z","many_one","0","direct_first","1","le06er28","0","19","1","1","1","1","","0","1","0","null","","","<div class = 'row'><div class = 'column'><img src = 'uspos/4625.bmp' width = '100%;'></div><div class = 'column'><img src = 'category2/CS6.png' width = '70%;'></div></div>","null","pos","CS","CS","2","category2/CS6.png","","","","",""
"","html-keyboard-response","78","1988764","0.0-6.0-6.0-0.9","h8e0vbwe0z","many_one","0","direct_first","1","le06er28","0","19","1","1","1","1","","0","1","0","null","","","<div class = 'row'><div class = 'column'><img src = 'category3/CS6.png' width = '70%;'></div><div class = 'column'><img src = 'uspos/2550.bmp' width = '100%;'></div></div>","null","pos","CS","CS","3","category3/CS6.png","","","","",""
"","html-keyboard-response","79","1991286","0.0-6.0-6.0-0.10","h8e0vbwe0z","many_one","0","direct_first","1","le06er28","0","19","1","1","1","1","","0","1","0","null","","","<div class = 'row'><div class = 'column'><img src = 'category1/CS1.png' width = '70%;'></div><div class = 'column'><img src = 'usneg/9415.bmp' width = '100%;'></div></div>","null","neg","CS","CS","1","category1/CS1.png","","","","",""
"","html-keyboard-response","80","1993791","0.0-6.0-6.0-0.11","h8e0vbwe0z","many_one","0","direct_first","1","le06er28","0","19","1","1","1","1","","0","1","0","null","","","<div class = 'row'><div class = 'column'><img src = 'usneg/2900.bmp' width = '100%;'></div><div class = 'column'><img src = 'category4/CS10.png' width = '70%;'></div></div>","null","neg","CS","CS","4","category4/CS10.png","","","","",""
"","html-keyboard-response","81","1996303","0.0-6.0-6.0-0.12","h8e0vbwe0z","many_one","0","direct_first","1","le06er28","0","19","1","1","1","1","","0","1","0","null","","","<div class = 'row'><div class = 'column'><img src = 'category3/CS9.png' width = '70%;'></div><div class = 'column'><img src = 'uspos/2040.bmp' width = '100%;'></div></div>","null","pos","CS","CS","3","category3/CS9.png","","","","",""
"","html-keyboard-response","82","1998817","0.0-6.0-6.0-0.13","h8e0vbwe0z","many_one","0","direct_first","1","le06er28","0","19","1","1","1","1","","0","1","0","null","","","<div class = 'row'><div class = 'column'><img src = 'usneg/8485.bmp' width = '100%;'></div><div class = 'column'><img src = 'category1/CS4.png' width = '70%;'></div></div>","null","neg","CS","CS","1","category1/CS4.png","","","","",""
"","html-keyboard-response","83","2001327","0.0-6.0-6.0-0.14","h8e0vbwe0z","many_one","0","direct_first","1","le06er28","0","19","1","1","1","1","","0","1","0","null","","","<div class = 'row'><div class = 'column'><img src = 'category2/CS4.png' width = '70%;'></div><div class = 'column'><img src = 'uspos/5830.bmp' width = '100%;'></div></div>","null","pos","CS","CS","2","category2/CS4.png","","","","",""
"","html-keyboard-response","84","2003839","0.0-6.0-6.0-0.15","h8e0vbwe0z","many_one","0","direct_first","1","le06er28","0","19","1","1","1","1","","0","1","0","null","","","<div class = 'row'><div class = 'column'><img src = 'usneg/9342.bmp' width = '100%;'></div><div class = 'column'><img src = 'category4/CS8.png' width = '70%;'></div></div>","null","neg","CS","CS","4","category4/CS8.png","","","","",""
"","html-keyboard-response","85","2006349","0.0-6.0-6.0-0.16","h8e0vbwe0z","many_one","0","direct_first","1","le06er28","0","19","1","1","1","1","","0","1","0","null","","","<div class = 'row'><div class = 'column'><img src = 'usneg/9290.bmp' width = '100%;'></div><div class = 'column'><img src = 'category1/CS8.png' width = '70%;'></div></div>","null","neg","CS","CS","1","category1/CS8.png","","","","",""
"","html-keyboard-response","86","2008861","0.0-6.0-6.0-0.17","h8e0vbwe0z","many_one","0","direct_first","1","le06er28","0","19","1","1","1","1","","0","1","0","null","","","<div class = 'row'><div class = 'column'><img src = 'category4/CS2.png' width = '70%;'></div><div class = 'column'><img src = 'usneg/9404.bmp' width = '100%;'></div></div>","null","neg","CS","CS","4","category4/CS2.png","","","","",""
"","html-keyboard-response","87","2011364","0.0-6.0-6.0-0.18","h8e0vbwe0z","many_one","0","direct_first","1","le06er28","0","19","1","1","1","1","","0","1","0","null","","","<div class = 'row'><div class = 'column'><img src = 'usneg/9050.bmp' width = '100%;'></div><div class = 'column'><img src = 'category1/CS10.png' width = '70%;'></div></div>","null","neg","CS","CS","1","category1/CS10.png","","","","",""
"","html-keyboard-response","88","2013872","0.0-6.0-6.0-0.19","h8e0vbwe0z","many_one","0","direct_first","1","le06er28","0","19","1","1","1","1","","0","1","0","null","","","<div class = 'row'><div class = 'column'><img src = 'category1/CS7.png' width = '70%;'></div><div class = 'column'><img src = 'usneg/9041.bmp' width = '100%;'></div></div>","null","neg","CS","CS","1","category1/CS7.png","","","","",""
"","survey-html-form","89","2021848","0.0-7.0","h8e0vbwe0z","many_one","0","direct_first","1","le06er28","0","19","1","1","1","1","","0","1","0","7472.885000053793","","{}","","","","","","","","","","","",""
"","image-slider-response","90","2032928","0.0-8.0-0.0","h8e0vbwe0z","many_one","0","direct_first","1","le06er28","0","19","1","1","1","1","","0","1","0","9069.385000038892","","","","","neg","GS","GSold","4","category4/CS6.png","-43","targets/48.png","direct","",""
"","image-slider-response","91","2036872","0.0-8.0-0.1","h8e0vbwe0z","many_one","0","direct_first","1","le06er28","0","19","1","1","1","1","","0","1","0","3940.679999999702","","","","","neg","GS","GSold","1","category1/CS3.png","40","targets/1.png","direct","",""
"","image-slider-response","92","2040079","0.0-8.0-0.2","h8e0vbwe0z","many_one","0","direct_first","1","le06er28","0","19","1","1","1","1","","0","1","0","3204.6550000086427","","","","","pos","CS","CS","2","category2/CS5.png","53","targets/20.png","direct","",""
"","image-slider-response","93","2043024","0.0-8.0-0.3","h8e0vbwe0z","many_one","0","direct_first","1","le06er28","0","19","1","1","1","1","","0","1","0","2942.3599999863654","","","","","neg","GS","GSnew","1","category1/GS1.png","-55","targets/4.png","direct","",""
"","image-slider-response","94","2046168","0.0-8.0-0.4","h8e0vbwe0z","many_one","0","direct_first","1","le06er28","0","19","1","1","1","1","","0","1","0","3141.9899999164045","","","","","neg","CS","CS","1","category1/CS1.png","-42","targets/46.png","direct","",""
"","image-slider-response","95","2048696","0.0-8.0-0.5","h8e0vbwe0z","many_one","0","direct_first","1","le06er28","0","19","1","1","1","1","","0","1","0","2525.804999982938","","","","","neg","CS","CS","4","category4/CS10.png","-21","targets/45.png","direct","",""
"","image-slider-response","96","2051695","0.0-8.0-0.6","h8e0vbwe0z","many_one","0","direct_first","1","le06er28","0","19","1","1","1","1","","0","1","0","2997.155000222847","","","","","pos","CS","CS","2","category2/CS4.png","67","targets/6.png","direct","",""
"","image-slider-response","97","2054152","0.0-8.0-0.7","h8e0vbwe0z","many_one","0","direct_first","1","le06er28","0","19","1","1","1","1","","0","1","0","2453.874999890104","","","","","neg","GS","GSnew","4","category4/GS1.png","-55","targets/25.png","direct","",""
"","image-slider-response","98","2057034","0.0-8.0-0.8","h8e0vbwe0z","many_one","0","direct_first","1","le06er28","0","19","1","1","1","1","","0","1","0","2878.495000069961","","","","","neg","GS","GSold","1","category1/CS2.png","-53","targets/13.png","direct","",""
"","image-slider-response","99","2059346","0.0-8.0-0.9","h8e0vbwe0z","many_one","0","direct_first","1","le06er28","0","19","1","1","1","1","","0","1","0","2309.3399999197572","","","","","pos","CS","CS","2","category2/CS6.png","77","targets/10.png","direct","",""
"","image-slider-response","100","2061682","0.0-8.0-0.10","h8e0vbwe0z","many_one","0","direct_first","1","le06er28","0","19","1","1","1","1","","0","1","0","2333.345000166446","","","","","neg","CS","CS","1","category1/CS7.png","-22","targets/9.png","direct","",""
"","image-slider-response","101","2065033","0.0-8.0-0.11","h8e0vbwe0z","many_one","0","direct_first","1","le06er28","0","19","1","1","1","1","","0","1","0","3349.414999829605","","","","","pos","GS","GSold","3","category3/CS1.png","30","targets/40.png","direct","",""
"","image-slider-response","102","2067354","0.0-8.0-0.12","h8e0vbwe0z","many_one","0","direct_first","1","le06er28","0","19","1","1","1","1","","0","1","0","2317.869999911636","","","","","neg","CS","CS","4","category4/CS3.png","-64","targets/27.png","direct","",""
"","image-slider-response","103","2069642","0.0-8.0-0.13","h8e0vbwe0z","many_one","0","direct_first","1","le06er28","0","19","1","1","1","1","","0","1","0","2286.0000000800937","","","","","pos","CS","CS","2","category2/CS7.png","68","targets/2.png","direct","",""
"","image-slider-response","104","2072226","0.0-8.0-0.14","h8e0vbwe0z","many_one","0","direct_first","1","le06er28","0","19","1","1","1","1","","0","1","0","2581.735000014305","","","","","neg","GS","GSnew","4","category4/GS2.png","-40","targets/32.png","direct","",""
"","image-slider-response","105","2074378","0.0-8.0-0.15","h8e0vbwe0z","many_one","0","direct_first","1","le06er28","0","19","1","1","1","1","","0","1","0","2149.435000028461","","","","","pos","GS","GSnew","2","category2/GS3.png","-49","targets/15.png","direct","",""
"","image-slider-response","106","2076538","0.0-8.0-0.16","h8e0vbwe0z","many_one","0","direct_first","1","le06er28","0","19","1","1","1","1","","0","1","0","2158.0550000071526","","","","","pos","CS","CS","3","category3/CS3.png","61","targets/3.png","direct","",""
"","image-slider-response","107","2078553","0.0-8.0-0.17","h8e0vbwe0z","many_one","0","direct_first","1","le06er28","0","19","1","1","1","1","","0","1","0","2013.624999905005","","","","","neg","CS","CS","4","category4/CS8.png","-48","targets/37.png","direct","",""
"","image-slider-response","108","2081674","0.0-8.0-0.18","h8e0vbwe0z","many_one","0","direct_first","1","le06er28","0","19","1","1","1","1","","0","1","0","3118.199999909848","","","","","pos","GS","GSnew","3","category3/GS3.png","-63","targets/34.png","direct","",""
"","image-slider-response","109","2085242","0.0-8.0-0.19","h8e0vbwe0z","many_one","0","direct_first","1","le06er28","0","19","1","1","1","1","","0","1","0","3566.0950001329184","","","","","pos","GS","abstract","3","category3/wang.png","53","targets/35.png","direct","",""
"","image-slider-response","110","2087762","0.0-8.0-0.20","h8e0vbwe0z","many_one","0","direct_first","1","le06er28","0","19","1","1","1","1","","0","1","0","2517.3700000159442","","","","","neg","CS","CS","1","category1/CS4.png","-46","targets/23.png","direct","",""
"","image-slider-response","111","2091290","0.0-8.0-0.21","h8e0vbwe0z","many_one","0","direct_first","1","le06er28","0","19","1","1","1","1","","0","1","0","3525.565000018105","","","","","neg","GS","GSnew","1","category1/GS2.png","-28","targets/43.png","direct","",""
"","image-slider-response","112","2093274","0.0-8.0-0.22","h8e0vbwe0z","many_one","0","direct_first","1","le06er28","0","19","1","1","1","1","","0","1","0","1981.5799999050796","","","","","neg","CS","CS","1","category1/CS8.png","39","targets/17.png","direct","",""
"","image-slider-response","113","2095170","0.0-8.0-0.23","h8e0vbwe0z","many_one","0","direct_first","1","le06er28","0","19","1","1","1","1","","0","1","0","1894.1349999513477","","","","","neg","CS","CS","4","category4/CS7.png","-42","targets/8.png","direct","",""
"","image-slider-response","114","2097450","0.0-8.0-0.24","h8e0vbwe0z","many_one","0","direct_first","1","le06er28","0","19","1","1","1","1","","0","1","0","2278.1450001057237","","","","","pos","GS","GSnew","3","category3/GS1.png","-11","targets/14.png","direct","",""
"","image-slider-response","115","2099961","0.0-8.0-0.25","h8e0vbwe0z","many_one","0","direct_first","1","le06er28","0","19","1","1","1","1","","0","1","0","2509.414999978617","","","","","neg","GS","abstract","4","category4/lin.png","30","targets/39.png","direct","",""
"","image-slider-response","116","2102049","0.0-8.0-0.26","h8e0vbwe0z","many_one","0","direct_first","1","le06er28","0","19","1","1","1","1","","0","1","0","2086.0150000080466","","","","","pos","CS","CS","3","category3/CS4.png","-46","targets/7.png","direct","",""
"","image-slider-response","117","2105098","0.0-8.0-0.27","h8e0vbwe0z","many_one","0","direct_first","1","le06er28","0","19","1","1","1","1","","0","1","0","3046.2450000923127","","","","","pos","GS","GSold","2","category2/CS2.png","82","targets/16.png","direct","",""
"","image-slider-response","118","2106826","0.0-8.0-0.28","h8e0vbwe0z","many_one","0","direct_first","1","le06er28","0","19","1","1","1","1","","0","1","0","1726.0400000959635","","","","","pos","GS","GSold","2","category2/CS10.png","51","targets/38.png","direct","",""
"","image-slider-response","119","2109538","0.0-8.0-0.29","h8e0vbwe0z","many_one","0","direct_first","1","le06er28","0","19","1","1","1","1","","0","1","0","2709.7400000784546","","","","","neg","GS","GSnew","4","category4/GS3.png","-59","targets/24.png","direct","",""
"","image-slider-response","120","2112114","0.0-8.0-0.30","h8e0vbwe0z","many_one","0","direct_first","1","le06er28","0","19","1","1","1","1","","0","1","0","2573.2950000092387","","","","","pos","CS","CS","3","category3/CS9.png","53","targets/44.png","direct","",""
"","image-slider-response","121","2114531","0.0-8.0-0.31","h8e0vbwe0z","many_one","0","direct_first","1","le06er28","0","19","1","1","1","1","","0","1","0","2413.9199999626726","","","","","neg","GS","abstract","1","category1/ma.png","-29","targets/26.png","direct","",""
"","image-slider-response","122","2117115","0.0-8.0-0.32","h8e0vbwe0z","many_one","0","direct_first","1","le06er28","0","19","1","1","1","1","","0","1","0","2582.8250001650304","","","","","pos","GS","abstract","2","category2/men.png","59","targets/21.png","direct","",""
"","image-slider-response","123","2119387","0.0-8.0-0.33","h8e0vbwe0z","many_one","0","direct_first","1","le06er28","0","19","1","1","1","1","","0","1","0","2269.2400000523776","","","","","pos","GS","GSnew","3","category3/GS2.png","-20","targets/30.png","direct","",""
"","image-slider-response","124","2121683","0.0-8.0-0.34","h8e0vbwe0z","many_one","0","direct_first","1","le06er28","0","19","1","1","1","1","","0","1","0","2293.559999903664","","","","","pos","CS","CS","3","category3/CS7.png","-39","targets/41.png","direct","",""
"","image-slider-response","125","2124034","0.0-8.0-0.35","h8e0vbwe0z","many_one","0","direct_first","1","le06er28","0","19","1","1","1","1","","0","1","0","2349.459999939427","","","","","neg","GS","GSnew","1","category1/GS3.png","-29","targets/12.png","direct","",""
"","image-slider-response","126","2127403","0.0-8.0-0.36","h8e0vbwe0z","many_one","0","direct_first","1","le06er28","0","19","1","1","1","1","","0","1","0","3365.87499990128","","","","","pos","GS","GSold","3","category3/CS2.png","60","targets/29.png","direct","",""
"","image-slider-response","127","2129531","0.0-8.0-0.37","h8e0vbwe0z","many_one","0","direct_first","1","le06er28","0","19","1","1","1","1","","0","1","0","2125.779999885708","","","","","neg","GS","GSold","4","category4/CS1.png","-42","targets/31.png","direct","",""
"","image-slider-response","128","2131315","0.0-8.0-0.38","h8e0vbwe0z","many_one","0","direct_first","1","le06er28","0","19","1","1","1","1","","0","1","0","1782.1250001434237","","","","","neg","GS","GSold","1","category1/CS5.png","-32","targets/42.png","direct","",""
"","image-slider-response","129","2133138","0.0-8.0-0.39","h8e0vbwe0z","many_one","0","direct_first","1","le06er28","0","19","1","1","1","1","","0","1","0","1821.250000037253","","","","","neg","CS","CS","1","category1/CS10.png","-23","targets/5.png","direct","",""
"","image-slider-response","130","2134939","0.0-8.0-0.40","h8e0vbwe0z","many_one","0","direct_first","1","le06er28","0","19","1","1","1","1","","0","1","0","1798.4949999954551","","","","","pos","CS","CS","2","category2/CS9.png","58","targets/33.png","direct","",""
"","image-slider-response","131","2137778","0.0-8.0-0.41","h8e0vbwe0z","many_one","0","direct_first","1","le06er28","0","19","1","1","1","1","","0","1","0","2837.6599999610335","","","","","pos","GS","GSold","2","category2/CS3.png","81","targets/36.png","direct","",""
"","image-slider-response","132","2140243","0.0-8.0-0.42","h8e0vbwe0z","many_one","0","direct_first","1","le06er28","0","19","1","1","1","1","","0","1","0","2461.8800000753254","","","","","pos","GS","GSold","3","category3/CS10.png","-12","targets/28.png","direct","",""
"","image-slider-response","133","2142667","0.0-8.0-0.43","h8e0vbwe0z","many_one","0","direct_first","1","le06er28","0","19","1","1","1","1","","0","1","0","2421.3250000029802","","","","","pos","GS","GSnew","2","category2/GS1.png","-68","targets/22.png","direct","",""
"","image-slider-response","134","2144867","0.0-8.0-0.44","h8e0vbwe0z","many_one","0","direct_first","1","le06er28","0","19","1","1","1","1","","0","1","0","2198.6549999564886","","","","","neg","CS","CS","4","category4/CS2.png","-23","targets/18.png","direct","",""
"","image-slider-response","135","2147746","0.0-8.0-0.45","h8e0vbwe0z","many_one","0","direct_first","1","le06er28","0","19","1","1","1","1","","0","1","0","2877.0050001330674","","","","","pos","CS","CS","3","category3/CS6.png","-23","targets/11.png","direct","",""
"","image-slider-response","136","2150418","0.0-8.0-0.46","h8e0vbwe0z","many_one","0","direct_first","1","le06er28","0","19","1","1","1","1","","0","1","0","2669.179999968037","","","","","neg","GS","GSold","4","category4/CS5.png","-73","targets/47.png","direct","",""
"","image-slider-response","137","2152410","0.0-8.0-0.47","h8e0vbwe0z","many_one","0","direct_first","1","le06er28","0","19","1","1","1","1","","0","1","0","1990.15500000678","","","","","pos","GS","GSnew","2","category2/GS2.png","-16","targets/19.png","direct","",""
"","html-keyboard-response","138","2179179","0.0-9.0","h8e0vbwe0z","many_one","0","direct_first","1","le06er28","0","19","1","1","1","1","","0","1","0","26768.979999935254","","","<p>Sie sehen nun die chinesischen Zeichen nur ganz kurz. Danach sehen Sie die jeweilige Aussprache der Zeichen als Silbe auf dem Bildschrim. Ihre Aufgabe ist es, für jede Silbe anzugeben, ob diese etwas angenehmes, oder unangenehmes bedeuten könnte. Verlassen Sie sich hier vor allem auf Ihre Intuition.<br><br>Die Zeichen werden nur zur Orientierung dargestellt, beachten Sie sie deshalb nicht. Konzentrieren Sie sich vor allem auf die Silben. <br>Reagieren Sie mit folgenden zwei Tasten: <br><br><b>'D' </b> wenn die Silbe etwas <b>unangenehmes</b> bedeuten könnte. <br><b>'K'</b> wenn die Silbe etwas <b>angenehmes</b> bedeuten könnte. <br><br>Bitte legen Sie nun den Zeigefinger der linken Hand auf die Taste 'D' und den Zeigefinger der rechten Hand auf die Taste 'K'. <br>Reagieren Sie auf jede Silbe so schnell wie möglich. Uns interessiert Ihre spontane Reaktion. <br> <br> <br>Drücken Sie 'D' oder 'K', um die nächste Aufgabe zu starten. </p>","75","","","","","","","","","",""
"","html-keyboard-response","139","2182190","0.0-10.0-0.0","h8e0vbwe0z","many_one","0","direct_first","1","le06er28","0","19","1","1","1","1","","0","1","0","null","","","<div style=""font-size:60px;"">+</div>","null","","","","","","","","","",""
"","html-keyboard-response","140","2182286","0.0-10.0-1.0","h8e0vbwe0z","many_one","0","direct_first","1","le06er28","0","19","1","1","1","1","","0","1","0","null","","","<img src = 'category2/CS4.png' width = '100%;'>","null","","","","","","","","","",""
"","html-keyboard-response","141","2182544","0.0-10.0-2.0","h8e0vbwe0z","many_one","0","direct_first","1","le06er28","0","19","1","1","1","1","","0","1","0","null","","","<img src = 'targets/6.png' width = '100%;'>","null","","","","","","","","","",""
"","html-keyboard-response","142","2189176","0.0-10.0-3.0","h8e0vbwe0z","many_one","0","direct_first","1","le06er28","0","19","1","1","1","1","","0","1","0","6631.079999962822","","","<img src = 'targets/mask.png' width = '100%;'>","68","pos","CS","CS","2","category2/CS4.png","","targets/6.png","indirect","0","0"
"","html-keyboard-response","143","2190684","0.0-10.0-0.1","h8e0vbwe0z","many_one","0","direct_first","1","le06er28","0","19","1","1","1","1","","0","1","0","null","","","<div style=""font-size:60px;"">+</div>","null","","","","","","","","","",""
"","html-keyboard-response","144","2190783","0.0-10.0-1.1","h8e0vbwe0z","many_one","0","direct_first","1","le06er28","0","19","1","1","1","1","","0","1","0","null","","","<img src = 'category3/CS9.png' width = '100%;'>","null","","","","","","","","","",""
"","html-keyboard-response","145","2191041","0.0-10.0-2.1","h8e0vbwe0z","many_one","0","direct_first","1","le06er28","0","19","1","1","1","1","","0","1","0","null","","","<img src = 'targets/44.png' width = '100%;'>","null","","","","","","","","","",""
"","html-keyboard-response","146","2195092","0.0-10.0-3.1","h8e0vbwe0z","many_one","0","direct_first","1","le06er28","0","19","1","1","1","1","","0","1","0","4049.769999925047","","","<img src = 'targets/mask.png' width = '100%;'>","75","pos","CS","CS","3","category3/CS9.png","","targets/44.png","indirect","1","1"
"","html-keyboard-response","147","2196601","0.0-10.0-0.2","h8e0vbwe0z","many_one","0","direct_first","1","le06er28","0","19","1","1","1","1","","0","1","0","null","","","<div style=""font-size:60px;"">+</div>","null","","","","","","","","","",""
"","html-keyboard-response","148","2196697","0.0-10.0-1.2","h8e0vbwe0z","many_one","0","direct_first","1","le06er28","0","19","1","1","1","1","","0","1","0","null","","","<img src = 'category1/CS7.png' width = '100%;'>","null","","","","","","","","","",""
"","html-keyboard-response","149","2196962","0.0-10.0-2.2","h8e0vbwe0z","many_one","0","direct_first","1","le06er28","0","19","1","1","1","1","","0","1","0","null","","","<img src = 'targets/9.png' width = '100%;'>","null","","","","","","","","","",""
"","html-keyboard-response","150","2199421","0.0-10.0-3.2","h8e0vbwe0z","many_one","0","direct_first","1","le06er28","0","19","1","1","1","1","","0","1","0","2457.6049998868257","","","<img src = 'targets/mask.png' width = '100%;'>","75","neg","CS","CS","1","category1/CS7.png","","targets/9.png","indirect","1","2"
"","html-keyboard-response","151","2200930","0.0-10.0-0.3","h8e0vbwe0z","many_one","0","direct_first","1","le06er28","0","19","1","1","1","1","","0","1","0","null","","","<div style=""font-size:60px;"">+</div>","null","","","","","","","","","",""
"","html-keyboard-response","152","2201026","0.0-10.0-1.3","h8e0vbwe0z","many_one","0","direct_first","1","le06er28","0","19","1","1","1","1","","0","1","0","null","","","<img src = 'category1/CS5.png' width = '100%;'>","null","","","","","","","","","",""
"","html-keyboard-response","153","2201286","0.0-10.0-2.3","h8e0vbwe0z","many_one","0","direct_first","1","le06er28","0","19","1","1","1","1","","0","1","0","null","","","<img src = 'targets/42.png' width = '100%;'>","null","","","","","","","","","",""
"","html-keyboard-response","154","2202301","0.0-10.0-3.3","h8e0vbwe0z","many_one","0","direct_first","1","le06er28","0","19","1","1","1","1","","0","1","0","1012.2849999461323","","","<img src = 'targets/mask.png' width = '100%;'>","68","neg","GS","GSold","1","category1/CS5.png","","targets/42.png","indirect","0","3"
"","html-keyboard-response","155","2203806","0.0-10.0-0.4","h8e0vbwe0z","many_one","0","direct_first","1","le06er28","0","19","1","1","1","1","","0","1","0","null","","","<div style=""font-size:60px;"">+</div>","null","","","","","","","","","",""
"","html-keyboard-response","156","2203903","0.0-10.0-1.4","h8e0vbwe0z","many_one","0","direct_first","1","le06er28","0","19","1","1","1","1","","0","1","0","null","","","<img src = 'category3/CS6.png' width = '100%;'>","null","","","","","","","","","",""
"","html-keyboard-response","157","2204165","0.0-10.0-2.4","h8e0vbwe0z","many_one","0","direct_first","1","le06er28","0","19","1","1","1","1","","0","1","0","null","","","<img src = 'targets/11.png' width = '100%;'>","null","","","","","","","","","",""
"","html-keyboard-response","158","2205309","0.0-10.0-3.4","h8e0vbwe0z","many_one","0","direct_first","1","le06er28","0","19","1","1","1","1","","0","1","0","1143.1200001388788","","","<img src = 'targets/mask.png' width = '100%;'>","68","pos","CS","CS","3","category3/CS6.png","","targets/11.png","indirect","0","4"
"","html-keyboard-response","159","2206813","0.0-10.0-0.5","h8e0vbwe0z","many_one","0","direct_first","1","le06er28","0","19","1","1","1","1","","0","1","0","null","","","<div style=""font-size:60px;"">+</div>","null","","","","","","","","","",""
"","html-keyboard-response","160","2206909","0.0-10.0-1.5","h8e0vbwe0z","many_one","0","direct_first","1","le06er28","0","19","1","1","1","1","","0","1","0","null","","","<img src = 'category2/CS5.png' width = '100%;'>","null","","","","","","","","","",""
"","html-keyboard-response","161","2207165","0.0-10.0-2.5","h8e0vbwe0z","many_one","0","direct_first","1","le06er28","0","19","1","1","1","1","","0","1","0","null","","","<img src = 'targets/20.png' width = '100%;'>","null","","","","","","","","","",""
"","html-keyboard-response","162","2208156","0.0-10.0-3.5","h8e0vbwe0z","many_one","0","direct_first","1","le06er28","0","19","1","1","1","1","","0","1","0","990.3599999379367","","","<img src = 'targets/mask.png' width = '100%;'>","75","pos","CS","CS","2","category2/CS5.png","","targets/20.png","indirect","1","5"
"","html-keyboard-response","163","2209666","0.0-10.0-0.6","h8e0vbwe0z","many_one","0","direct_first","1","le06er28","0","19","1","1","1","1","","0","1","0","null","","","<div style=""font-size:60px;"">+</div>","null","","","","","","","","","",""
"","html-keyboard-response","164","2209759","0.0-10.0-1.6","h8e0vbwe0z","many_one","0","direct_first","1","le06er28","0","19","1","1","1","1","","0","1","0","null","","","<img src = 'category4/CS10.png' width = '100%;'>","null","","","","","","","","","",""
"","html-keyboard-response","165","2210016","0.0-10.0-2.6","h8e0vbwe0z","many_one","0","direct_first","1","le06er28","0","19","1","1","1","1","","0","1","0","null","","","<img src = 'targets/45.png' width = '100%;'>","null","","","","","","","","","",""
"","html-keyboard-response","166","2210959","0.0-10.0-3.6","h8e0vbwe0z","many_one","0","direct_first","1","le06er28","0","19","1","1","1","1","","0","1","0","941.4949999190867","","","<img src = 'targets/mask.png' width = '100%;'>","68","neg","CS","CS","4","category4/CS10.png","","targets/45.png","indirect","0","6"
"","html-keyboard-response","167","2212474","0.0-10.0-0.7","h8e0vbwe0z","many_one","0","direct_first","1","le06er28","0","19","1","1","1","1","","0","1","0","null","","","<div style=""font-size:60px;"">+</div>","null","","","","","","","","","",""
"","html-keyboard-response","168","2212570","0.0-10.0-1.7","h8e0vbwe0z","many_one","0","direct_first","1","le06er28","0","19","1","1","1","1","","0","1","0","null","","","<img src = 'category1/CS4.png' width = '100%;'>","null","","","","","","","","","",""
"","html-keyboard-response","169","2212828","0.0-10.0-2.7","h8e0vbwe0z","many_one","0","direct_first","1","le06er28","0","19","1","1","1","1","","0","1","0","null","","","<img src = 'targets/23.png' width = '100%;'>","null","","","","","","","","","",""
"","html-keyboard-response","170","2213892","0.0-10.0-3.7","h8e0vbwe0z","many_one","0","direct_first","1","le06er28","0","19","1","1","1","1","","0","1","0","1062.6850000116974","","","<img src = 'targets/mask.png' width = '100%;'>","75","neg","CS","CS","1","category1/CS4.png","","targets/23.png","indirect","1","7"
"","html-keyboard-response","171","2215409","0.0-10.0-0.8","h8e0vbwe0z","many_one","0","direct_first","1","le06er28","0","19","1","1","1","1","","0","1","0","null","","","<div style=""font-size:60px;"">+</div>","null","","","","","","","","","",""
"","html-keyboard-response","172","2215505","0.0-10.0-1.8","h8e0vbwe0z","many_one","0","direct_first","1","le06er28","0","19","1","1","1","1","","0","1","0","null","","","<img src = 'category1/CS2.png' width = '100%;'>","null","","","","","","","","","",""
"","html-keyboard-response","173","2215767","0.0-10.0-2.8","h8e0vbwe0z","many_one","0","direct_first","1","le06er28","0","19","1","1","1","1","","0","1","0","null","","","<img src = 'targets/13.png' width = '100%;'>","null","","","","","","","","","",""
"","html-keyboard-response","174","2216687","0.0-10.0-3.8","h8e0vbwe0z","many_one","0","direct_first","1","le06er28","0","19","1","1","1","1","","0","1","0","917.7099999506027","","","<img src = 'targets/mask.png' width = '100%;'>","68","neg","GS","GSold","1","category1/CS2.png","","targets/13.png","indirect","0","8"
"","html-keyboard-response","175","2218191","0.0-10.0-0.9","h8e0vbwe0z","many_one","0","direct_first","1","le06er28","0","19","1","1","1","1","","0","1","0","null","","","<div style=""font-size:60px;"">+</div>","null","","","","","","","","","",""
"","html-keyboard-response","176","2218287","0.0-10.0-1.9","h8e0vbwe0z","many_one","0","direct_first","1","le06er28","0","19","1","1","1","1","","0","1","0","null","","","<img src = 'category2/CS9.png' width = '100%;'>","null","","","","","","","","","",""
"","html-keyboard-response","177","2218548","0.0-10.0-2.9","h8e0vbwe0z","many_one","0","direct_first","1","le06er28","0","19","1","1","1","1","","0","1","0","null","","","<img src = 'targets/33.png' width = '100%;'>","null","","","","","","","","","",""
"","html-keyboard-response","178","2219262","0.0-10.0-3.9","h8e0vbwe0z","many_one","0","direct_first","1","le06er28","0","19","1","1","1","1","","0","1","0","712.3199999332428","","","<img src = 'targets/mask.png' width = '100%;'>","68","pos","CS","CS","2","category2/CS9.png","","targets/33.png","indirect","0","9"
"","html-keyboard-response","179","2220770","0.0-10.0-0.10","h8e0vbwe0z","many_one","0","direct_first","1","le06er28","0","19","1","1","1","1","","0","1","0","null","","","<div style=""font-size:60px;"">+</div>","null","","","","","","","","","",""
"","html-keyboard-response","180","2220862","0.0-10.0-1.10","h8e0vbwe0z","many_one","0","direct_first","1","le06er28","0","19","1","1","1","1","","0","1","0","null","","","<img src = 'category1/CS10.png' width = '100%;'>","null","","","","","","","","","",""
"","html-keyboard-response","181","2221118","0.0-10.0-2.10","h8e0vbwe0z","many_one","0","direct_first","1","le06er28","0","19","1","1","1","1","","0","1","0","null","","","<img src = 'targets/5.png' width = '100%;'>","null","","","","","","","","","",""
"","html-keyboard-response","182","2221782","0.0-10.0-3.10","h8e0vbwe0z","many_one","0","direct_first","1","le06er28","0","19","1","1","1","1","","0","1","0","662.1050001122057","","","<img src = 'targets/mask.png' width = '100%;'>","68","neg","CS","CS","1","category1/CS10.png","","targets/5.png","indirect","0","10"
"","html-keyboard-response","183","2223286","0.0-10.0-0.11","h8e0vbwe0z","many_one","0","direct_first","1","le06er28","0","19","1","1","1","1","","0","1","0","null","","","<div style=""font-size:60px;"">+</div>","null","","","","","","","","","",""
"","html-keyboard-response","184","2223383","0.0-10.0-1.11","h8e0vbwe0z","many_one","0","direct_first","1","le06er28","0","19","1","1","1","1","","0","1","0","null","","","<img src = 'category4/CS7.png' width = '100%;'>","null","","","","","","","","","",""
"","html-keyboard-response","185","2223641","0.0-10.0-2.11","h8e0vbwe0z","many_one","0","direct_first","1","le06er28","0","19","1","1","1","1","","0","1","0","null","","","<img src = 'targets/8.png' width = '100%;'>","null","","","","","","","","","",""
"","html-keyboard-response","186","2224203","0.0-10.0-3.11","h8e0vbwe0z","many_one","0","direct_first","1","le06er28","0","19","1","1","1","1","","0","1","0","560.2750000543892","","","<img src = 'targets/mask.png' width = '100%;'>","75","neg","CS","CS","4","category4/CS7.png","","targets/8.png","indirect","1","11"
"","html-keyboard-response","187","2225718","0.0-10.0-0.12","h8e0vbwe0z","many_one","0","direct_first","1","le06er28","0","19","1","1","1","1","","0","1","0","null","","","<div style=""font-size:60px;"">+</div>","null","","","","","","","","","",""
"","html-keyboard-response","188","2225818","0.0-10.0-1.12","h8e0vbwe0z","many_one","0","direct_first","1","le06er28","0","19","1","1","1","1","","0","1","0","null","","","<img src = 'category3/CS4.png' width = '100%;'>","null","","","","","","","","","",""
"","html-keyboard-response","189","2226073","0.0-10.0-2.12","h8e0vbwe0z","many_one","0","direct_first","1","le06er28","0","19","1","1","1","1","","0","1","0","null","","","<img src = 'targets/7.png' width = '100%;'>","null","","","","","","","","","",""
"","html-keyboard-response","190","2226731","0.0-10.0-3.12","h8e0vbwe0z","many_one","0","direct_first","1","le06er28","0","19","1","1","1","1","","0","1","0","657.2549999691546","","","<img src = 'targets/mask.png' width = '100%;'>","75","pos","CS","CS","3","category3/CS4.png","","targets/7.png","indirect","1","12"
"","html-keyboard-response","191","2228244","0.0-10.0-0.13","h8e0vbwe0z","many_one","0","direct_first","1","le06er28","0","19","1","1","1","1","","0","1","0","null","","","<div style=""font-size:60px;"">+</div>","null","","","","","","","","","",""
"","html-keyboard-response","192","2228341","0.0-10.0-1.13","h8e0vbwe0z","many_one","0","direct_first","1","le06er28","0","19","1","1","1","1","","0","1","0","null","","","<img src = 'category1/CS1.png' width = '100%;'>","null","","","","","","","","","",""
"","html-keyboard-response","193","2228597","0.0-10.0-2.13","h8e0vbwe0z","many_one","0","direct_first","1","le06er28","0","19","1","1","1","1","","0","1","0","null","","","<img src = 'targets/46.png' width = '100%;'>","null","","","","","","","","","",""
"","html-keyboard-response","194","2229628","0.0-10.0-3.13","h8e0vbwe0z","many_one","0","direct_first","1","le06er28","0","19","1","1","1","1","","0","1","0","1029.2550001759082","","","<img src = 'targets/mask.png' width = '100%;'>","68","neg","CS","CS","1","category1/CS1.png","","targets/46.png","indirect","0","13"
"","html-keyboard-response","195","2231141","0.0-10.0-0.14","h8e0vbwe0z","many_one","0","direct_first","1","le06er28","0","19","1","1","1","1","","0","1","0","null","","","<div style=""font-size:60px;"">+</div>","null","","","","","","","","","",""
"","html-keyboard-response","196","2231237","0.0-10.0-1.14","h8e0vbwe0z","many_one","0","direct_first","1","le06er28","0","19","1","1","1","1","","0","1","0","null","","","<img src = 'category1/CS8.png' width = '100%;'>","null","","","","","","","","","",""
"","html-keyboard-response","197","2231491","0.0-10.0-2.14","h8e0vbwe0z","many_one","0","direct_first","1","le06er28","0","19","1","1","1","1","","0","1","0","null","","","<img src = 'targets/17.png' width = '100%;'>","null","","","","","","","","","",""
"","html-keyboard-response","198","2232197","0.0-10.0-3.14","h8e0vbwe0z","many_one","0","direct_first","1","le06er28","0","19","1","1","1","1","","0","1","0","704.4699999969453","","","<img src = 'targets/mask.png' width = '100%;'>","68","neg","CS","CS","1","category1/CS8.png","","targets/17.png","indirect","0","14"
"","html-keyboard-response","199","2233703","0.0-10.0-0.15","h8e0vbwe0z","many_one","0","direct_first","1","le06er28","0","19","1","1","1","1","","0","1","0","null","","","<div style=""font-size:60px;"">+</div>","null","","","","","","","","","",""
"","html-keyboard-response","200","2233796","0.0-10.0-1.15","h8e0vbwe0z","many_one","0","direct_first","1","le06er28","0","19","1","1","1","1","","0","1","0","null","","","<img src = 'category2/CS6.png' width = '100%;'>","null","","","","","","","","","",""
"","html-keyboard-response","201","2234053","0.0-10.0-2.15","h8e0vbwe0z","many_one","0","direct_first","1","le06er28","0","19","1","1","1","1","","0","1","0","null","","","<img src = 'targets/10.png' width = '100%;'>","null","","","","","","","","","",""
"","html-keyboard-response","202","2234636","0.0-10.0-3.15","h8e0vbwe0z","many_one","0","direct_first","1","le06er28","0","19","1","1","1","1","","0","1","0","582.0899999234825","","","<img src = 'targets/mask.png' width = '100%;'>","75","pos","CS","CS","2","category2/CS6.png","","targets/10.png","indirect","1","15"
"","html-keyboard-response","203","2236138","0.0-10.0-0.16","h8e0vbwe0z","many_one","0","direct_first","1","le06er28","0","19","1","1","1","1","","0","1","0","null","","","<div style=""font-size:60px;"">+</div>","null","","","","","","","","","",""
"","html-keyboard-response","204","2236235","0.0-10.0-1.16","h8e0vbwe0z","many_one","0","direct_first","1","le06er28","0","19","1","1","1","1","","0","1","0","null","","","<img src = 'category3/CS2.png' width = '100%;'>","null","","","","","","","","","",""
"","html-keyboard-response","205","2236494","0.0-10.0-2.16","h8e0vbwe0z","many_one","0","direct_first","1","le06er28","0","19","1","1","1","1","","0","1","0","null","","","<img src = 'targets/29.png' width = '100%;'>","null","","","","","","","","","",""
"","html-keyboard-response","206","2237087","0.0-10.0-3.16","h8e0vbwe0z","many_one","0","direct_first","1","le06er28","0","19","1","1","1","1","","0","1","0","591.725000180304","","","<img src = 'targets/mask.png' width = '100%;'>","75","pos","GS","GSold","3","category3/CS2.png","","targets/29.png","indirect","1","16"
"","html-keyboard-response","207","2238608","0.0-10.0-0.17","h8e0vbwe0z","many_one","0","direct_first","1","le06er28","0","19","1","1","1","1","","0","1","0","null","","","<div style=""font-size:60px;"">+</div>","null","","","","","","","","","",""
"","html-keyboard-response","208","2238704","0.0-10.0-1.17","h8e0vbwe0z","many_one","0","direct_first","1","le06er28","0","19","1","1","1","1","","0","1","0","null","","","<img src = 'category4/CS8.png' width = '100%;'>","null","","","","","","","","","",""
"","html-keyboard-response","209","2238960","0.0-10.0-2.17","h8e0vbwe0z","many_one","0","direct_first","1","le06er28","0","19","1","1","1","1","","0","1","0","null","","","<img src = 'targets/37.png' width = '100%;'>","null","","","","","","","","","",""
"","html-keyboard-response","210","2239814","0.0-10.0-3.17","h8e0vbwe0z","many_one","0","direct_first","1","le06er28","0","19","1","1","1","1","","0","1","0","849.479999858886","","","<img src = 'targets/mask.png' width = '100%;'>","68","neg","CS","CS","4","category4/CS8.png","","targets/37.png","indirect","0","17"
"","html-keyboard-response","211","2241329","0.0-10.0-0.18","h8e0vbwe0z","many_one","0","direct_first","1","le06er28","0","19","1","1","1","1","","0","1","0","null","","","<div style=""font-size:60px;"">+</div>","null","","","","","","","","","",""
"","html-keyboard-response","212","2241428","0.0-10.0-1.18","h8e0vbwe0z","many_one","0","direct_first","1","le06er28","0","19","1","1","1","1","","0","1","0","null","","","<img src = 'category4/CS3.png' width = '100%;'>","null","","","","","","","","","",""
"","html-keyboard-response","213","2241689","0.0-10.0-2.18","h8e0vbwe0z","many_one","0","direct_first","1","le06er28","0","19","1","1","1","1","","0","1","0","null","","","<img src = 'targets/27.png' width = '100%;'>","null","","","","","","","","","",""
"","html-keyboard-response","214","2242377","0.0-10.0-3.18","h8e0vbwe0z","many_one","0","direct_first","1","le06er28","0","19","1","1","1","1","","0","1","0","686.1849999986589","","","<img src = 'targets/mask.png' width = '100%;'>","75","neg","CS","CS","4","category4/CS3.png","","targets/27.png","indirect","1","18"
"","html-keyboard-response","215","2243881","0.0-10.0-0.19","h8e0vbwe0z","many_one","0","direct_first","1","le06er28","0","19","1","1","1","1","","0","1","0","null","","","<div style=""font-size:60px;"">+</div>","null","","","","","","","","","",""
"","html-keyboard-response","216","2243977","0.0-10.0-1.19","h8e0vbwe0z","many_one","0","direct_first","1","le06er28","0","19","1","1","1","1","","0","1","0","null","","","<img src = 'category1/CS3.png' width = '100%;'>","null","","","","","","","","","",""
"","html-keyboard-response","217","2244232","0.0-10.0-2.19","h8e0vbwe0z","many_one","0","direct_first","1","le06er28","0","19","1","1","1","1","","0","1","0","null","","","<img src = 'targets/1.png' width = '100%;'>","null","","","","","","","","","",""
"","html-keyboard-response","218","2245288","0.0-10.0-3.19","h8e0vbwe0z","many_one","0","direct_first","1","le06er28","0","19","1","1","1","1","","0","1","0","1054.3449998367578","","","<img src = 'targets/mask.png' width = '100%;'>","75","neg","GS","GSold","1","category1/CS3.png","","targets/1.png","indirect","1","19"
"","html-keyboard-response","219","2246801","0.0-10.0-0.20","h8e0vbwe0z","many_one","0","direct_first","1","le06er28","0","19","1","1","1","1","","0","1","0","null","","","<div style=""font-size:60px;"">+</div>","null","","","","","","","","","",""
"","html-keyboard-response","220","2246900","0.0-10.0-1.20","h8e0vbwe0z","many_one","0","direct_first","1","le06er28","0","19","1","1","1","1","","0","1","0","null","","","<img src = 'category3/CS3.png' width = '100%;'>","null","","","","","","","","","",""
"","html-keyboard-response","221","2247157","0.0-10.0-2.20","h8e0vbwe0z","many_one","0","direct_first","1","le06er28","0","19","1","1","1","1","","0","1","0","null","","","<img src = 'targets/3.png' width = '100%;'>","null","","","","","","","","","",""
"","html-keyboard-response","222","2248443","0.0-10.0-3.20","h8e0vbwe0z","many_one","0","direct_first","1","le06er28","0","19","1","1","1","1","","0","1","0","1285.2749999146909","","","<img src = 'targets/mask.png' width = '100%;'>","68","pos","CS","CS","3","category3/CS3.png","","targets/3.png","indirect","0","20"
"","html-keyboard-response","223","2249956","0.0-10.0-0.21","h8e0vbwe0z","many_one","0","direct_first","1","le06er28","0","19","1","1","1","1","","0","1","0","null","","","<div style=""font-size:60px;"">+</div>","null","","","","","","","","","",""
"","html-keyboard-response","224","2250052","0.0-10.0-1.21","h8e0vbwe0z","many_one","0","direct_first","1","le06er28","0","19","1","1","1","1","","0","1","0","null","","","<img src = 'category2/CS7.png' width = '100%;'>","null","","","","","","","","","",""
"","html-keyboard-response","225","2250308","0.0-10.0-2.21","h8e0vbwe0z","many_one","0","direct_first","1","le06er28","0","19","1","1","1","1","","0","1","0","null","","","<img src = 'targets/2.png' width = '100%;'>","null","","","","","","","","","",""
"","html-keyboard-response","226","2251314","0.0-10.0-3.21","h8e0vbwe0z","many_one","0","direct_first","1","le06er28","0","19","1","1","1","1","","0","1","0","1004.3099999893457","","","<img src = 'targets/mask.png' width = '100%;'>","75","pos","CS","CS","2","category2/CS7.png","","targets/2.png","indirect","1","21"
"","html-keyboard-response","227","2252820","0.0-10.0-0.22","h8e0vbwe0z","many_one","0","direct_first","1","le06er28","0","19","1","1","1","1","","0","1","0","null","","","<div style=""font-size:60px;"">+</div>","null","","","","","","","","","",""
"","html-keyboard-response","228","2252919","0.0-10.0-1.22","h8e0vbwe0z","many_one","0","direct_first","1","le06er28","0","19","1","1","1","1","","0","1","0","null","","","<img src = 'category4/CS2.png' width = '100%;'>","null","","","","","","","","","",""
"","html-keyboard-response","229","2253177","0.0-10.0-2.22","h8e0vbwe0z","many_one","0","direct_first","1","le06er28","0","19","1","1","1","1","","0","1","0","null","","","<img src = 'targets/18.png' width = '100%;'>","null","","","","","","","","","",""
"","html-keyboard-response","230","2253732","0.0-10.0-3.22","h8e0vbwe0z","many_one","0","direct_first","1","le06er28","0","19","1","1","1","1","","0","1","0","552.8299999423325","","","<img src = 'targets/mask.png' width = '100%;'>","68","neg","CS","CS","4","category4/CS2.png","","targets/18.png","indirect","0","22"
"","html-keyboard-response","231","2255245","0.0-10.0-0.23","h8e0vbwe0z","many_one","0","direct_first","1","le06er28","0","19","1","1","1","1","","0","1","0","null","","","<div style=""font-size:60px;"">+</div>","null","","","","","","","","","",""
"","html-keyboard-response","232","2255340","0.0-10.0-1.23","h8e0vbwe0z","many_one","0","direct_first","1","le06er28","0","19","1","1","1","1","","0","1","0","null","","","<img src = 'category3/CS7.png' width = '100%;'>","null","","","","","","","","","",""
"","html-keyboard-response","233","2255599","0.0-10.0-2.23","h8e0vbwe0z","many_one","0","direct_first","1","le06er28","0","19","1","1","1","1","","0","1","0","null","","","<img src = 'targets/41.png' width = '100%;'>","null","","","","","","","","","",""
"","html-keyboard-response","234","2256502","0.0-10.0-3.23","h8e0vbwe0z","many_one","0","direct_first","1","le06er28","0","19","1","1","1","1","","0","1","0","900.4549998790026","","","<img src = 'targets/mask.png' width = '100%;'>","68","pos","CS","CS","3","category3/CS7.png","","targets/41.png","indirect","0","23"
"","survey-html-form","235","2266235","0.0-11.0","h8e0vbwe0z","many_one","0","direct_first","1","le06er28","0","19","1","1","1","1","","0","1","0","9229.685000143945","","{}","","","","","","","","","","","",""
"","html-keyboard-response","236","2269243","0.0-12.0-0.0","h8e0vbwe0z","many_one","0","direct_first","1","le06er28","0","19","1","1","1","1","","0","1","0","null","","","<div style=""font-size:60px;"">+</div>","null","","","","","","","","","",""
"","html-keyboard-response","237","2269339","0.0-12.0-1.0","h8e0vbwe0z","many_one","0","direct_first","1","le06er28","0","19","1","1","1","1","","0","1","0","null","","","<img src = 'category4/GS1.png' width = '100%;'>","null","","","","","","","","","",""
"","html-keyboard-response","238","2269599","0.0-12.0-2.0","h8e0vbwe0z","many_one","0","direct_first","1","le06er28","0","19","1","1","1","1","","0","1","0","null","","","<img src = 'targets/25.png' width = '100%;'>","null","","","","","","","","","",""
"","html-keyboard-response","239","2270516","0.0-12.0-3.0","h8e0vbwe0z","many_one","0","direct_first","1","le06er28","0","19","1","1","1","1","","0","1","0","914.6449998952448","","","<img src = 'targets/mask.png' width = '100%;'>","75","neg","GS","GSnew","4","category4/GS1.png","","targets/25.png","indirect","1","24"
"","html-keyboard-response","240","2272023","0.0-12.0-0.1","h8e0vbwe0z","many_one","0","direct_first","1","le06er28","0","19","1","1","1","1","","0","1","0","null","","","<div style=""font-size:60px;"">+</div>","null","","","","","","","","","",""
"","html-keyboard-response","241","2272127","0.0-12.0-1.1","h8e0vbwe0z","many_one","0","direct_first","1","le06er28","0","19","1","1","1","1","","0","1","0","null","","","<img src = 'category2/CS10.png' width = '100%;'>","null","","","","","","","","","",""
"","html-keyboard-response","242","2272384","0.0-12.0-2.1","h8e0vbwe0z","many_one","0","direct_first","1","le06er28","0","19","1","1","1","1","","0","1","0","null","","","<img src = 'targets/38.png' width = '100%;'>","null","","","","","","","","","",""
"","html-keyboard-response","243","2273027","0.0-12.0-3.1","h8e0vbwe0z","many_one","0","direct_first","1","le06er28","0","19","1","1","1","1","","0","1","0","642.1850000042468","","","<img src = 'targets/mask.png' width = '100%;'>","75","pos","GS","GSold","2","category2/CS10.png","","targets/38.png","indirect","1","25"
"","html-keyboard-response","244","2274541","0.0-12.0-0.2","h8e0vbwe0z","many_one","0","direct_first","1","le06er28","0","19","1","1","1","1","","0","1","0","null","","","<div style=""font-size:60px;"">+</div>","null","","","","","","","","","",""
"","html-keyboard-response","245","2274639","0.0-12.0-1.2","h8e0vbwe0z","many_one","0","direct_first","1","le06er28","0","19","1","1","1","1","","0","1","0","null","","","<img src = 'category2/GS3.png' width = '100%;'>","null","","","","","","","","","",""
"","html-keyboard-response","246","2274900","0.0-12.0-2.2","h8e0vbwe0z","many_one","0","direct_first","1","le06er28","0","19","1","1","1","1","","0","1","0","null","","","<img src = 'targets/15.png' width = '100%;'>","null","","","","","","","","","",""
"","html-keyboard-response","247","2275562","0.0-12.0-3.2","h8e0vbwe0z","many_one","0","direct_first","1","le06er28","0","19","1","1","1","1","","0","1","0","660.0750000216067","","","<img src = 'targets/mask.png' width = '100%;'>","75","pos","GS","GSnew","2","category2/GS3.png","","targets/15.png","indirect","1","26"
"","html-keyboard-response","248","2277073","0.0-12.0-0.3","h8e0vbwe0z","many_one","0","direct_first","1","le06er28","0","19","1","1","1","1","","0","1","0","null","","","<div style=""font-size:60px;"">+</div>","null","","","","","","","","","",""
"","html-keyboard-response","249","2277169","0.0-12.0-1.3","h8e0vbwe0z","many_one","0","direct_first","1","le06er28","0","19","1","1","1","1","","0","1","0","null","","","<img src = 'category1/GS2.png' width = '100%;'>","null","","","","","","","","","",""
"","html-keyboard-response","250","2277426","0.0-12.0-2.3","h8e0vbwe0z","many_one","0","direct_first","1","le06er28","0","19","1","1","1","1","","0","1","0","null","","","<img src = 'targets/43.png' width = '100%;'>","null","","","","","","","","","",""
"","html-keyboard-response","251","2277958","0.0-12.0-3.3","h8e0vbwe0z","many_one","0","direct_first","1","le06er28","0","19","1","1","1","1","","0","1","0","531.1499999370426","","","<img src = 'targets/mask.png' width = '100%;'>","68","neg","GS","GSnew","1","category1/GS2.png","","targets/43.png","indirect","0","27"
"","html-keyboard-response","252","2279466","0.0-12.0-0.4","h8e0vbwe0z","many_one","0","direct_first","1","le06er28","0","19","1","1","1","1","","0","1","0","null","","","<div style=""font-size:60px;"">+</div>","null","","","","","","","","","",""
"","html-keyboard-response","253","2279562","0.0-12.0-1.4","h8e0vbwe0z","many_one","0","direct_first","1","le06er28","0","19","1","1","1","1","","0","1","0","null","","","<img src = 'category2/GS1.png' width = '100%;'>","null","","","","","","","","","",""
"","html-keyboard-response","254","2279823","0.0-12.0-2.4","h8e0vbwe0z","many_one","0","direct_first","1","le06er28","0","19","1","1","1","1","","0","1","0","null","","","<img src = 'targets/22.png' width = '100%;'>","null","","","","","","","","","",""
"","html-keyboard-response","255","2280778","0.0-12.0-3.4","h8e0vbwe0z","many_one","0","direct_first","1","le06er28","0","19","1","1","1","1","","0","1","0","952.6100000366569","","","<img src = 'targets/mask.png' width = '100%;'>","75","pos","GS","GSnew","2","category2/GS1.png","","targets/22.png","indirect","1","28"
"","html-keyboard-response","256","2282293","0.0-12.0-0.5","h8e0vbwe0z","many_one","0","direct_first","1","le06er28","0","19","1","1","1","1","","0","1","0","null","","","<div style=""font-size:60px;"">+</div>","null","","","","","","","","","",""
"","html-keyboard-response","257","2282389","0.0-12.0-1.5","h8e0vbwe0z","many_one","0","direct_first","1","le06er28","0","19","1","1","1","1","","0","1","0","null","","","<img src = 'category3/wang.png' width = '100%;'>","null","","","","","","","","","",""
"","html-keyboard-response","258","2282645","0.0-12.0-2.5","h8e0vbwe0z","many_one","0","direct_first","1","le06er28","0","19","1","1","1","1","","0","1","0","null","","","<img src = 'targets/35.png' width = '100%;'>","null","","","","","","","","","",""
"","html-keyboard-response","259","2283291","0.0-12.0-3.5","h8e0vbwe0z","many_one","0","direct_first","1","le06er28","0","19","1","1","1","1","","0","1","0","645.0600000098348","","","<img src = 'targets/mask.png' width = '100%;'>","75","pos","GS","abstract","3","category3/wang.png","","targets/35.png","indirect","1","29"
"","html-keyboard-response","260","2284799","0.0-12.0-0.6","h8e0vbwe0z","many_one","0","direct_first","1","le06er28","0","19","1","1","1","1","","0","1","0","null","","","<div style=""font-size:60px;"">+</div>","null","","","","","","","","","",""
"","html-keyboard-response","261","2284895","0.0-12.0-1.6","h8e0vbwe0z","many_one","0","direct_first","1","le06er28","0","19","1","1","1","1","","0","1","0","null","","","<img src = 'category3/GS2.png' width = '100%;'>","null","","","","","","","","","",""
"","html-keyboard-response","262","2285155","0.0-12.0-2.6","h8e0vbwe0z","many_one","0","direct_first","1","le06er28","0","19","1","1","1","1","","0","1","0","null","","","<img src = 'targets/30.png' width = '100%;'>","null","","","","","","","","","",""
"","html-keyboard-response","263","2285646","0.0-12.0-3.6","h8e0vbwe0z","many_one","0","direct_first","1","le06er28","0","19","1","1","1","1","","0","1","0","489.43500011228025","","","<img src = 'targets/mask.png' width = '100%;'>","68","pos","GS","GSnew","3","category3/GS2.png","","targets/30.png","indirect","0","30"
"","html-keyboard-response","264","2287153","0.0-12.0-0.7","h8e0vbwe0z","many_one","0","direct_first","1","le06er28","0","19","1","1","1","1","","0","1","0","null","","","<div style=""font-size:60px;"">+</div>","null","","","","","","","","","",""
"","html-keyboard-response","265","2287249","0.0-12.0-1.7","h8e0vbwe0z","many_one","0","direct_first","1","le06er28","0","19","1","1","1","1","","0","1","0","null","","","<img src = 'category3/GS1.png' width = '100%;'>","null","","","","","","","","","",""
"","html-keyboard-response","266","2287508","0.0-12.0-2.7","h8e0vbwe0z","many_one","0","direct_first","1","le06er28","0","19","1","1","1","1","","0","1","0","null","","","<img src = 'targets/14.png' width = '100%;'>","null","","","","","","","","","",""
"","html-keyboard-response","267","2288051","0.0-12.0-3.7","h8e0vbwe0z","many_one","0","direct_first","1","le06er28","0","19","1","1","1","1","","0","1","0","541.704999981448","","","<img src = 'targets/mask.png' width = '100%;'>","68","pos","GS","GSnew","3","category3/GS1.png","","targets/14.png","indirect","0","31"
"","html-keyboard-response","268","2289556","0.0-12.0-0.8","h8e0vbwe0z","many_one","0","direct_first","1","le06er28","0","19","1","1","1","1","","0","1","0","null","","","<div style=""font-size:60px;"">+</div>","null","","","","","","","","","",""
"","html-keyboard-response","269","2289652","0.0-12.0-1.8","h8e0vbwe0z","many_one","0","direct_first","1","le06er28","0","19","1","1","1","1","","0","1","0","null","","","<img src = 'category4/GS3.png' width = '100%;'>","null","","","","","","","","","",""
"","html-keyboard-response","270","2289905","0.0-12.0-2.8","h8e0vbwe0z","many_one","0","direct_first","1","le06er28","0","19","1","1","1","1","","0","1","0","null","","","<img src = 'targets/24.png' width = '100%;'>","null","","","","","","","","","",""
"","html-keyboard-response","271","2290366","0.0-12.0-3.8","h8e0vbwe0z","many_one","0","direct_first","1","le06er28","0","19","1","1","1","1","","0","1","0","459.71000008285046","","","<img src = 'targets/mask.png' width = '100%;'>","68","neg","GS","GSnew","4","category4/GS3.png","","targets/24.png","indirect","0","32"
"","html-keyboard-response","272","2291871","0.0-12.0-0.9","h8e0vbwe0z","many_one","0","direct_first","1","le06er28","0","19","1","1","1","1","","0","1","0","null","","","<div style=""font-size:60px;"">+</div>","null","","","","","","","","","",""
"","html-keyboard-response","273","2291967","0.0-12.0-1.9","h8e0vbwe0z","many_one","0","direct_first","1","le06er28","0","19","1","1","1","1","","0","1","0","null","","","<img src = 'category4/CS6.png' width = '100%;'>","null","","","","","","","","","",""
"","html-keyboard-response","274","2292224","0.0-12.0-2.9","h8e0vbwe0z","many_one","0","direct_first","1","le06er28","0","19","1","1","1","1","","0","1","0","null","","","<img src = 'targets/48.png' width = '100%;'>","null","","","","","","","","","",""
"","html-keyboard-response","275","2292957","0.0-12.0-3.9","h8e0vbwe0z","many_one","0","direct_first","1","le06er28","0","19","1","1","1","1","","0","1","0","732.4449999723583","","","<img src = 'targets/mask.png' width = '100%;'>","68","neg","GS","GSold","4","category4/CS6.png","","targets/48.png","indirect","0","33"
"","html-keyboard-response","276","2294471","0.0-12.0-0.10","h8e0vbwe0z","many_one","0","direct_first","1","le06er28","0","19","1","1","1","1","","0","1","0","null","","","<div style=""font-size:60px;"">+</div>","null","","","","","","","","","",""
"","html-keyboard-response","277","2294569","0.0-12.0-1.10","h8e0vbwe0z","many_one","0","direct_first","1","le06er28","0","19","1","1","1","1","","0","1","0","null","","","<img src = 'category1/GS3.png' width = '100%;'>","null","","","","","","","","","",""
"","html-keyboard-response","278","2294825","0.0-12.0-2.10","h8e0vbwe0z","many_one","0","direct_first","1","le06er28","0","19","1","1","1","1","","0","1","0","null","","","<img src = 'targets/12.png' width = '100%;'>","null","","","","","","","","","",""
"","html-keyboard-response","279","2295552","0.0-12.0-3.10","h8e0vbwe0z","many_one","0","direct_first","1","le06er28","0","19","1","1","1","1","","0","1","0","725.0800000037998","","","<img src = 'targets/mask.png' width = '100%;'>","68","neg","GS","GSnew","1","category1/GS3.png","","targets/12.png","indirect","0","34"
"","html-keyboard-response","280","2297059","0.0-12.0-0.11","h8e0vbwe0z","many_one","0","direct_first","1","le06er28","0","19","1","1","1","1","","0","1","0","null","","","<div style=""font-size:60px;"">+</div>","null","","","","","","","","","",""
"","html-keyboard-response","281","2297156","0.0-12.0-1.11","h8e0vbwe0z","many_one","0","direct_first","1","le06er28","0","19","1","1","1","1","","0","1","0","null","","","<img src = 'category4/CS5.png' width = '100%;'>","null","","","","","","","","","",""
"","html-keyboard-response","282","2297412","0.0-12.0-2.11","h8e0vbwe0z","many_one","0","direct_first","1","le06er28","0","19","1","1","1","1","","0","1","0","null","","","<img src = 'targets/47.png' width = '100%;'>","null","","","","","","","","","",""
"","html-keyboard-response","283","2298339","0.0-12.0-3.11","h8e0vbwe0z","many_one","0","direct_first","1","le06er28","0","19","1","1","1","1","","0","1","0","925.9649999439716","","","<img src = 'targets/mask.png' width = '100%;'>","75","neg","GS","GSold","4","category4/CS5.png","","targets/47.png","indirect","1","35"
"","html-keyboard-response","284","2299850","0.0-12.0-0.12","h8e0vbwe0z","many_one","0","direct_first","1","le06er28","0","19","1","1","1","1","","0","1","0","null","","","<div style=""font-size:60px;"">+</div>","null","","","","","","","","","",""
"","html-keyboard-response","285","2299954","0.0-12.0-1.12","h8e0vbwe0z","many_one","0","direct_first","1","le06er28","0","19","1","1","1","1","","0","1","0","null","","","<img src = 'category3/CS1.png' width = '100%;'>","null","","","","","","","","","",""
"","html-keyboard-response","286","2300221","0.0-12.0-2.12","h8e0vbwe0z","many_one","0","direct_first","1","le06er28","0","19","1","1","1","1","","0","1","0","null","","","<img src = 'targets/40.png' width = '100%;'>","null","","","","","","","","","",""
"","html-keyboard-response","287","2300827","0.0-12.0-3.12","h8e0vbwe0z","many_one","0","direct_first","1","le06er28","0","19","1","1","1","1","","0","1","0","603.3999999053776","","","<img src = 'targets/mask.png' width = '100%;'>","75","pos","GS","GSold","3","category3/CS1.png","","targets/40.png","indirect","1","36"
"","html-keyboard-response","288","2302336","0.0-12.0-0.13","h8e0vbwe0z","many_one","0","direct_first","1","le06er28","0","19","1","1","1","1","","0","1","0","null","","","<div style=""font-size:60px;"">+</div>","null","","","","","","","","","",""
"","html-keyboard-response","289","2302432","0.0-12.0-1.13","h8e0vbwe0z","many_one","0","direct_first","1","le06er28","0","19","1","1","1","1","","0","1","0","null","","","<img src = 'category2/GS2.png' width = '100%;'>","null","","","","","","","","","",""
"","html-keyboard-response","290","2302691","0.0-12.0-2.13","h8e0vbwe0z","many_one","0","direct_first","1","le06er28","0","19","1","1","1","1","","0","1","0","null","","","<img src = 'targets/19.png' width = '100%;'>","null","","","","","","","","","",""
"","html-keyboard-response","291","2303861","0.0-12.0-3.13","h8e0vbwe0z","many_one","0","direct_first","1","le06er28","0","19","1","1","1","1","","0","1","0","1169.1600000485778","","","<img src = 'targets/mask.png' width = '100%;'>","68","pos","GS","GSnew","2","category2/GS2.png","","targets/19.png","indirect","0","37"
"","html-keyboard-response","292","2305376","0.0-12.0-0.14","h8e0vbwe0z","many_one","0","direct_first","1","le06er28","0","19","1","1","1","1","","0","1","0","null","","","<div style=""font-size:60px;"">+</div>","null","","","","","","","","","",""
"","html-keyboard-response","293","2305471","0.0-12.0-1.14","h8e0vbwe0z","many_one","0","direct_first","1","le06er28","0","19","1","1","1","1","","0","1","0","null","","","<img src = 'category4/GS2.png' width = '100%;'>","null","","","","","","","","","",""
"","html-keyboard-response","294","2305730","0.0-12.0-2.14","h8e0vbwe0z","many_one","0","direct_first","1","le06er28","0","19","1","1","1","1","","0","1","0","null","","","<img src = 'targets/32.png' width = '100%;'>","null","","","","","","","","","",""
"","html-keyboard-response","295","2306353","0.0-12.0-3.14","h8e0vbwe0z","many_one","0","direct_first","1","le06er28","0","19","1","1","1","1","","0","1","0","620.6600000150502","","","<img src = 'targets/mask.png' width = '100%;'>","68","neg","GS","GSnew","4","category4/GS2.png","","targets/32.png","indirect","0","38"
"","html-keyboard-response","296","2307864","0.0-12.0-0.15","h8e0vbwe0z","many_one","0","direct_first","1","le06er28","0","19","1","1","1","1","","0","1","0","null","","","<div style=""font-size:60px;"">+</div>","null","","","","","","","","","",""
"","html-keyboard-response","297","2307968","0.0-12.0-1.15","h8e0vbwe0z","many_one","0","direct_first","1","le06er28","0","19","1","1","1","1","","0","1","0","null","","","<img src = 'category2/CS3.png' width = '100%;'>","null","","","","","","","","","",""
"","html-keyboard-response","298","2308225","0.0-12.0-2.15","h8e0vbwe0z","many_one","0","direct_first","1","le06er28","0","19","1","1","1","1","","0","1","0","null","","","<img src = 'targets/36.png' width = '100%;'>","null","","","","","","","","","",""
"","html-keyboard-response","299","2308680","0.0-12.0-3.15","h8e0vbwe0z","many_one","0","direct_first","1","le06er28","0","19","1","1","1","1","","0","1","0","453.78000009804964","","","<img src = 'targets/mask.png' width = '100%;'>","75","pos","GS","GSold","2","category2/CS3.png","","targets/36.png","indirect","1","39"
"","html-keyboard-response","300","2310183","0.0-12.0-0.16","h8e0vbwe0z","many_one","0","direct_first","1","le06er28","0","19","1","1","1","1","","0","1","0","null","","","<div style=""font-size:60px;"">+</div>","null","","","","","","","","","",""
"","html-keyboard-response","301","2310278","0.0-12.0-1.16","h8e0vbwe0z","many_one","0","direct_first","1","le06er28","0","19","1","1","1","1","","0","1","0","null","","","<img src = 'category2/CS2.png' width = '100%;'>","null","","","","","","","","","",""
"","html-keyboard-response","302","2310544","0.0-12.0-2.16","h8e0vbwe0z","many_one","0","direct_first","1","le06er28","0","19","1","1","1","1","","0","1","0","null","","","<img src = 'targets/16.png' width = '100%;'>","null","","","","","","","","","",""
"","html-keyboard-response","303","2311881","0.0-12.0-3.16","h8e0vbwe0z","many_one","0","direct_first","1","le06er28","0","19","1","1","1","1","","0","1","0","1335.759999928996","","","<img src = 'targets/mask.png' width = '100%;'>","75","pos","GS","GSold","2","category2/CS2.png","","targets/16.png","indirect","1","40"
"","html-keyboard-response","304","2313395","0.0-12.0-0.17","h8e0vbwe0z","many_one","0","direct_first","1","le06er28","0","19","1","1","1","1","","0","1","0","null","","","<div style=""font-size:60px;"">+</div>","null","","","","","","","","","",""
"","html-keyboard-response","305","2313494","0.0-12.0-1.17","h8e0vbwe0z","many_one","0","direct_first","1","le06er28","0","19","1","1","1","1","","0","1","0","null","","","<img src = 'category2/men.png' width = '100%;'>","null","","","","","","","","","",""
"","html-keyboard-response","306","2313755","0.0-12.0-2.17","h8e0vbwe0z","many_one","0","direct_first","1","le06er28","0","19","1","1","1","1","","0","1","0","null","","","<img src = 'targets/21.png' width = '100%;'>","null","","","","","","","","","",""
"","html-keyboard-response","307","2314638","0.0-12.0-3.17","h8e0vbwe0z","many_one","0","direct_first","1","le06er28","0","19","1","1","1","1","","0","1","0","881.2249999027699","","","<img src = 'targets/mask.png' width = '100%;'>","75","pos","GS","abstract","2","category2/men.png","","targets/21.png","indirect","1","41"
"","html-keyboard-response","308","2316150","0.0-12.0-0.18","h8e0vbwe0z","many_one","0","direct_first","1","le06er28","0","19","1","1","1","1","","0","1","0","null","","","<div style=""font-size:60px;"">+</div>","null","","","","","","","","","",""
"","html-keyboard-response","309","2316246","0.0-12.0-1.18","h8e0vbwe0z","many_one","0","direct_first","1","le06er28","0","19","1","1","1","1","","0","1","0","null","","","<img src = 'category3/GS3.png' width = '100%;'>","null","","","","","","","","","",""
"","html-keyboard-response","310","2316502","0.0-12.0-2.18","h8e0vbwe0z","many_one","0","direct_first","1","le06er28","0","19","1","1","1","1","","0","1","0","null","","","<img src = 'targets/34.png' width = '100%;'>","null","","","","","","","","","",""
"","html-keyboard-response","311","2317117","0.0-12.0-3.18","h8e0vbwe0z","many_one","0","direct_first","1","le06er28","0","19","1","1","1","1","","0","1","0","613.9700000640005","","","<img src = 'targets/mask.png' width = '100%;'>","75","pos","GS","GSnew","3","category3/GS3.png","","targets/34.png","indirect","1","42"
"","html-keyboard-response","312","2318630","0.0-12.0-0.19","h8e0vbwe0z","many_one","0","direct_first","1","le06er28","0","19","1","1","1","1","","0","1","0","null","","","<div style=""font-size:60px;"">+</div>","null","","","","","","","","","",""
"","html-keyboard-response","313","2318726","0.0-12.0-1.19","h8e0vbwe0z","many_one","0","direct_first","1","le06er28","0","19","1","1","1","1","","0","1","0","null","","","<img src = 'category1/GS1.png' width = '100%;'>","null","","","","","","","","","",""
"","html-keyboard-response","314","2318985","0.0-12.0-2.19","h8e0vbwe0z","many_one","0","direct_first","1","le06er28","0","19","1","1","1","1","","0","1","0","null","","","<img src = 'targets/4.png' width = '100%;'>","null","","","","","","","","","",""
"","html-keyboard-response","315","2319947","0.0-12.0-3.19","h8e0vbwe0z","many_one","0","direct_first","1","le06er28","0","19","1","1","1","1","","0","1","0","960.179999936372","","","<img src = 'targets/mask.png' width = '100%;'>","75","neg","GS","GSnew","1","category1/GS1.png","","targets/4.png","indirect","1","43"
"","html-keyboard-response","316","2321460","0.0-12.0-0.20","h8e0vbwe0z","many_one","0","direct_first","1","le06er28","0","19","1","1","1","1","","0","1","0","null","","","<div style=""font-size:60px;"">+</div>","null","","","","","","","","","",""
"","html-keyboard-response","317","2321552","0.0-12.0-1.20","h8e0vbwe0z","many_one","0","direct_first","1","le06er28","0","19","1","1","1","1","","0","1","0","null","","","<img src = 'category4/CS1.png' width = '100%;'>","null","","","","","","","","","",""
"","html-keyboard-response","318","2321813","0.0-12.0-2.20","h8e0vbwe0z","many_one","0","direct_first","1","le06er28","0","19","1","1","1","1","","0","1","0","null","","","<img src = 'targets/31.png' width = '100%;'>","null","","","","","","","","","",""
"","html-keyboard-response","319","2322574","0.0-12.0-3.20","h8e0vbwe0z","many_one","0","direct_first","1","le06er28","0","19","1","1","1","1","","0","1","0","759.3100001104176","","","<img src = 'targets/mask.png' width = '100%;'>","75","neg","GS","GSold","4","category4/CS1.png","","targets/31.png","indirect","1","44"
"","html-keyboard-response","320","2324083","0.0-12.0-0.21","h8e0vbwe0z","many_one","0","direct_first","1","le06er28","0","19","1","1","1","1","","0","1","0","null","","","<div style=""font-size:60px;"">+</div>","null","","","","","","","","","",""
"","html-keyboard-response","321","2324179","0.0-12.0-1.21","h8e0vbwe0z","many_one","0","direct_first","1","le06er28","0","19","1","1","1","1","","0","1","0","null","","","<img src = 'category1/ma.png' width = '100%;'>","null","","","","","","","","","",""
"","html-keyboard-response","322","2324447","0.0-12.0-2.21","h8e0vbwe0z","many_one","0","direct_first","1","le06er28","0","19","1","1","1","1","","0","1","0","null","","","<img src = 'targets/26.png' width = '100%;'>","null","","","","","","","","","",""
"","html-keyboard-response","323","2326032","0.0-12.0-3.21","h8e0vbwe0z","many_one","0","direct_first","1","le06er28","0","19","1","1","1","1","","0","1","0","1583.5750000551343","","","<img src = 'targets/mask.png' width = '100%;'>","75","neg","GS","abstract","1","category1/ma.png","","targets/26.png","indirect","1","45"
"","html-keyboard-response","324","2327538","0.0-12.0-0.22","h8e0vbwe0z","many_one","0","direct_first","1","le06er28","0","19","1","1","1","1","","0","1","0","null","","","<div style=""font-size:60px;"">+</div>","null","","","","","","","","","",""
"","html-keyboard-response","325","2327634","0.0-12.0-1.22","h8e0vbwe0z","many_one","0","direct_first","1","le06er28","0","19","1","1","1","1","","0","1","0","null","","","<img src = 'category4/lin.png' width = '100%;'>","null","","","","","","","","","",""
"","html-keyboard-response","326","2327899","0.0-12.0-2.22","h8e0vbwe0z","many_one","0","direct_first","1","le06er28","0","19","1","1","1","1","","0","1","0","null","","","<img src = 'targets/39.png' width = '100%;'>","null","","","","","","","","","",""
