"success","trial_type","trial_index","time_elapsed","internal_node_id","subject","condition","condition_code","measure","measure_code","codeword","gender","age","education","chinese","fach","handedness","comment","hinschauen","ablenkung","gewissenhaft","rt","url","responses","stimulus","key_press","val","type","type_specific","category","cs_selected","target","indirect","task","nr_pres","response"
"true","fullscreen","0","4017","0.0-0.0","tlqe0hbqpl","one_one","1","indirect_first","0","le07as20","0","24","1","1","3","1","","0","1","0","","","","","","","","","","","","","","",""
"","external-html","1","67324","0.0-1.0","tlqe0hbqpl","one_one","1","indirect_first","0","le07as20","0","24","1","1","3","1","","0","1","0","63069.27999999607","text/information.html","","","","","","","","","","","","",""
"","external-html","2","90893","0.0-2.0","tlqe0hbqpl","one_one","1","indirect_first","0","le07as20","0","24","1","1","3","1","","0","1","0","23409.210000012536","text/consent.html","","","","","","","","","","","","",""
"","survey-html-form","3","188877","0.0-3.0","tlqe0hbqpl","one_one","1","indirect_first","0","le07as20","0","24","1","1","3","1","","0","1","0","97974.6200000518","","{""codeword_enter"":""le07as20""}","","","","","","","","","","","",""
"","survey-html-form","4","205787","0.0-4.0","tlqe0hbqpl","one_one","1","indirect_first","0","le07as20","0","24","1","1","3","1","","0","1","0","16895.850000029895","","{""age"":""24"",""education"":""1"",""subject"":""3"",""gender"":""0"",""handedness"":""1"",""chinese"":""1""}","","","","","","","","","","","",""
"","survey-html-form","5","208298","0.0-5.0","tlqe0hbqpl","one_one","1","indirect_first","0","le07as20","0","24","1","1","3","1","","0","1","0","2502.9499999945983","","{}","","","","","","","","","","","",""
"","html-keyboard-response","6","212311","0.0-6.0-0.0-0.0","tlqe0hbqpl","one_one","1","indirect_first","0","le07as20","0","24","1","1","3","1","","0","1","0","null","","","<div class = 'row'><div class = 'column'><img src = 'category2/CS5.png' width = '70%;'></div><div class = 'column'><img src = 'uspos/5831.bmp' width = '100%;'></div></div>","null","pos","CS","CS","2","category2/CS5.png","","","","",""
"","html-keyboard-response","7","214822","0.0-6.0-0.0-0.1","tlqe0hbqpl","one_one","1","indirect_first","0","le07as20","0","24","1","1","3","1","","0","1","0","null","","","<div class = 'row'><div class = 'column'><img src = 'category3/CS6.png' width = '70%;'></div><div class = 'column'><img src = 'usneg/9181.bmp' width = '100%;'></div></div>","null","neg","CS","CS","3","category3/CS6.png","","","","",""
"","html-keyboard-response","8","217327","0.0-6.0-0.0-0.2","tlqe0hbqpl","one_one","1","indirect_first","0","le07as20","0","24","1","1","3","1","","0","1","0","null","","","<div class = 'row'><div class = 'column'><img src = 'uspos/5629.bmp' width = '100%;'></div><div class = 'column'><img src = 'category1/CS4.png' width = '70%;'></div></div>","null","pos","CS","CS","1","category1/CS4.png","","","","",""
"","html-keyboard-response","9","219833","0.0-6.0-0.0-0.3","tlqe0hbqpl","one_one","1","indirect_first","0","le07as20","0","24","1","1","3","1","","0","1","0","null","","","<div class = 'row'><div class = 'column'><img src = 'usneg/9290.bmp' width = '100%;'></div><div class = 'column'><img src = 'category4/CS5.png' width = '70%;'></div></div>","null","neg","CS","CS","4","category4/CS5.png","","","","",""
"","html-keyboard-response","10","222340","0.0-6.0-0.0-0.4","tlqe0hbqpl","one_one","1","indirect_first","0","le07as20","0","24","1","1","3","1","","0","1","0","null","","","<div class = 'row'><div class = 'column'><img src = 'usneg/9181.bmp' width = '100%;'></div><div class = 'column'><img src = 'category3/CS6.png' width = '70%;'></div></div>","null","neg","CS","CS","3","category3/CS6.png","","","","",""
"","html-keyboard-response","11","224846","0.0-6.0-0.0-0.5","tlqe0hbqpl","one_one","1","indirect_first","0","le07as20","0","24","1","1","3","1","","0","1","0","null","","","<div class = 'row'><div class = 'column'><img src = 'category2/CS5.png' width = '70%;'></div><div class = 'column'><img src = 'uspos/5831.bmp' width = '100%;'></div></div>","null","pos","CS","CS","2","category2/CS5.png","","","","",""
"","html-keyboard-response","12","227354","0.0-6.0-0.0-0.6","tlqe0hbqpl","one_one","1","indirect_first","0","le07as20","0","24","1","1","3","1","","0","1","0","null","","","<div class = 'row'><div class = 'column'><img src = 'uspos/5629.bmp' width = '100%;'></div><div class = 'column'><img src = 'category1/CS4.png' width = '70%;'></div></div>","null","pos","CS","CS","1","category1/CS4.png","","","","",""
"","html-keyboard-response","13","229863","0.0-6.0-0.0-0.7","tlqe0hbqpl","one_one","1","indirect_first","0","le07as20","0","24","1","1","3","1","","0","1","0","null","","","<div class = 'row'><div class = 'column'><img src = 'usneg/9290.bmp' width = '100%;'></div><div class = 'column'><img src = 'category4/CS5.png' width = '70%;'></div></div>","null","neg","CS","CS","4","category4/CS5.png","","","","",""
"","html-keyboard-response","14","232368","0.0-6.0-0.0-0.8","tlqe0hbqpl","one_one","1","indirect_first","0","le07as20","0","24","1","1","3","1","","0","1","0","null","","","<div class = 'row'><div class = 'column'><img src = 'category3/CS6.png' width = '70%;'></div><div class = 'column'><img src = 'usneg/9181.bmp' width = '100%;'></div></div>","null","neg","CS","CS","3","category3/CS6.png","","","","",""
"","html-keyboard-response","15","234874","0.0-6.0-0.0-0.9","tlqe0hbqpl","one_one","1","indirect_first","0","le07as20","0","24","1","1","3","1","","0","1","0","null","","","<div class = 'row'><div class = 'column'><img src = 'category1/CS4.png' width = '70%;'></div><div class = 'column'><img src = 'uspos/5629.bmp' width = '100%;'></div></div>","null","pos","CS","CS","1","category1/CS4.png","","","","",""
"","html-keyboard-response","16","237380","0.0-6.0-0.0-0.10","tlqe0hbqpl","one_one","1","indirect_first","0","le07as20","0","24","1","1","3","1","","0","1","0","null","","","<div class = 'row'><div class = 'column'><img src = 'usneg/9181.bmp' width = '100%;'></div><div class = 'column'><img src = 'category3/CS6.png' width = '70%;'></div></div>","null","neg","CS","CS","3","category3/CS6.png","","","","",""
"","html-keyboard-response","17","239889","0.0-6.0-0.0-0.11","tlqe0hbqpl","one_one","1","indirect_first","0","le07as20","0","24","1","1","3","1","","0","1","0","null","","","<div class = 'row'><div class = 'column'><img src = 'uspos/5629.bmp' width = '100%;'></div><div class = 'column'><img src = 'category1/CS4.png' width = '70%;'></div></div>","null","pos","CS","CS","1","category1/CS4.png","","","","",""
"","html-keyboard-response","18","242395","0.0-6.0-0.0-0.12","tlqe0hbqpl","one_one","1","indirect_first","0","le07as20","0","24","1","1","3","1","","0","1","0","null","","","<div class = 'row'><div class = 'column'><img src = 'category2/CS5.png' width = '70%;'></div><div class = 'column'><img src = 'uspos/5831.bmp' width = '100%;'></div></div>","null","pos","CS","CS","2","category2/CS5.png","","","","",""
"","html-keyboard-response","19","244900","0.0-6.0-0.0-0.13","tlqe0hbqpl","one_one","1","indirect_first","0","le07as20","0","24","1","1","3","1","","0","1","0","null","","","<div class = 'row'><div class = 'column'><img src = 'category4/CS5.png' width = '70%;'></div><div class = 'column'><img src = 'usneg/9290.bmp' width = '100%;'></div></div>","null","neg","CS","CS","4","category4/CS5.png","","","","",""
"","html-keyboard-response","20","247406","0.0-6.0-0.0-0.14","tlqe0hbqpl","one_one","1","indirect_first","0","le07as20","0","24","1","1","3","1","","0","1","0","null","","","<div class = 'row'><div class = 'column'><img src = 'category3/CS6.png' width = '70%;'></div><div class = 'column'><img src = 'usneg/9181.bmp' width = '100%;'></div></div>","null","neg","CS","CS","3","category3/CS6.png","","","","",""
"","html-keyboard-response","21","249915","0.0-6.0-0.0-0.15","tlqe0hbqpl","one_one","1","indirect_first","0","le07as20","0","24","1","1","3","1","","0","1","0","null","","","<div class = 'row'><div class = 'column'><img src = 'usneg/9290.bmp' width = '100%;'></div><div class = 'column'><img src = 'category4/CS5.png' width = '70%;'></div></div>","null","neg","CS","CS","4","category4/CS5.png","","","","",""
"","html-keyboard-response","22","252422","0.0-6.0-0.0-0.16","tlqe0hbqpl","one_one","1","indirect_first","0","le07as20","0","24","1","1","3","1","","0","1","0","null","","","<div class = 'row'><div class = 'column'><img src = 'category1/CS4.png' width = '70%;'></div><div class = 'column'><img src = 'uspos/5629.bmp' width = '100%;'></div></div>","null","pos","CS","CS","1","category1/CS4.png","","","","",""
"","html-keyboard-response","23","254929","0.0-6.0-0.0-0.17","tlqe0hbqpl","one_one","1","indirect_first","0","le07as20","0","24","1","1","3","1","","0","1","0","null","","","<div class = 'row'><div class = 'column'><img src = 'category2/CS5.png' width = '70%;'></div><div class = 'column'><img src = 'uspos/5831.bmp' width = '100%;'></div></div>","null","pos","CS","CS","2","category2/CS5.png","","","","",""
"","html-keyboard-response","24","257435","0.0-6.0-0.0-0.18","tlqe0hbqpl","one_one","1","indirect_first","0","le07as20","0","24","1","1","3","1","","0","1","0","null","","","<div class = 'row'><div class = 'column'><img src = 'category4/CS5.png' width = '70%;'></div><div class = 'column'><img src = 'usneg/9290.bmp' width = '100%;'></div></div>","null","neg","CS","CS","4","category4/CS5.png","","","","",""
"","html-keyboard-response","25","259944","0.0-6.0-0.0-0.19","tlqe0hbqpl","one_one","1","indirect_first","0","le07as20","0","24","1","1","3","1","","0","1","0","null","","","<div class = 'row'><div class = 'column'><img src = 'category2/CS5.png' width = '70%;'></div><div class = 'column'><img src = 'uspos/5831.bmp' width = '100%;'></div></div>","null","pos","CS","CS","2","category2/CS5.png","","","","",""
"","survey-html-form","26","275107","0.0-6.0-1.0","tlqe0hbqpl","one_one","1","indirect_first","0","le07as20","0","24","1","1","3","1","","0","1","0","14659.175000037067","","{}","","","","","","","","","","","",""
"","html-keyboard-response","27","279115","0.0-6.0-2.0-0.0","tlqe0hbqpl","one_one","1","indirect_first","0","le07as20","0","24","1","1","3","1","","0","1","0","null","","","<div class = 'row'><div class = 'column'><img src = 'category4/CS5.png' width = '70%;'></div><div class = 'column'><img src = 'usneg/9290.bmp' width = '100%;'></div></div>","null","neg","CS","CS","4","category4/CS5.png","","","","",""
"","html-keyboard-response","28","281621","0.0-6.0-2.0-0.1","tlqe0hbqpl","one_one","1","indirect_first","0","le07as20","0","24","1","1","3","1","","0","1","0","null","","","<div class = 'row'><div class = 'column'><img src = 'uspos/5629.bmp' width = '100%;'></div><div class = 'column'><img src = 'category1/CS4.png' width = '70%;'></div></div>","null","pos","CS","CS","1","category1/CS4.png","","","","",""
"","html-keyboard-response","29","284130","0.0-6.0-2.0-0.2","tlqe0hbqpl","one_one","1","indirect_first","0","le07as20","0","24","1","1","3","1","","0","1","0","null","","","<div class = 'row'><div class = 'column'><img src = 'usneg/9181.bmp' width = '100%;'></div><div class = 'column'><img src = 'category3/CS6.png' width = '70%;'></div></div>","null","neg","CS","CS","3","category3/CS6.png","","","","",""
"","html-keyboard-response","30","286635","0.0-6.0-2.0-0.3","tlqe0hbqpl","one_one","1","indirect_first","0","le07as20","0","24","1","1","3","1","","0","1","0","null","","","<div class = 'row'><div class = 'column'><img src = 'category2/CS5.png' width = '70%;'></div><div class = 'column'><img src = 'uspos/5831.bmp' width = '100%;'></div></div>","null","pos","CS","CS","2","category2/CS5.png","","","","",""
"","html-keyboard-response","31","289142","0.0-6.0-2.0-0.4","tlqe0hbqpl","one_one","1","indirect_first","0","le07as20","0","24","1","1","3","1","","0","1","0","null","","","<div class = 'row'><div class = 'column'><img src = 'category3/CS6.png' width = '70%;'></div><div class = 'column'><img src = 'usneg/9181.bmp' width = '100%;'></div></div>","null","neg","CS","CS","3","category3/CS6.png","","","","",""
"","html-keyboard-response","32","291649","0.0-6.0-2.0-0.5","tlqe0hbqpl","one_one","1","indirect_first","0","le07as20","0","24","1","1","3","1","","0","1","0","null","","","<div class = 'row'><div class = 'column'><img src = 'uspos/5629.bmp' width = '100%;'></div><div class = 'column'><img src = 'category1/CS4.png' width = '70%;'></div></div>","null","pos","CS","CS","1","category1/CS4.png","","","","",""
"","html-keyboard-response","33","294155","0.0-6.0-2.0-0.6","tlqe0hbqpl","one_one","1","indirect_first","0","le07as20","0","24","1","1","3","1","","0","1","0","null","","","<div class = 'row'><div class = 'column'><img src = 'uspos/5831.bmp' width = '100%;'></div><div class = 'column'><img src = 'category2/CS5.png' width = '70%;'></div></div>","null","pos","CS","CS","2","category2/CS5.png","","","","",""
"","html-keyboard-response","34","296662","0.0-6.0-2.0-0.7","tlqe0hbqpl","one_one","1","indirect_first","0","le07as20","0","24","1","1","3","1","","0","1","0","null","","","<div class = 'row'><div class = 'column'><img src = 'category1/CS4.png' width = '70%;'></div><div class = 'column'><img src = 'uspos/5629.bmp' width = '100%;'></div></div>","null","pos","CS","CS","1","category1/CS4.png","","","","",""
"","html-keyboard-response","35","299169","0.0-6.0-2.0-0.8","tlqe0hbqpl","one_one","1","indirect_first","0","le07as20","0","24","1","1","3","1","","0","1","0","null","","","<div class = 'row'><div class = 'column'><img src = 'usneg/9181.bmp' width = '100%;'></div><div class = 'column'><img src = 'category3/CS6.png' width = '70%;'></div></div>","null","neg","CS","CS","3","category3/CS6.png","","","","",""
"","html-keyboard-response","36","301674","0.0-6.0-2.0-0.9","tlqe0hbqpl","one_one","1","indirect_first","0","le07as20","0","24","1","1","3","1","","0","1","0","null","","","<div class = 'row'><div class = 'column'><img src = 'category1/CS4.png' width = '70%;'></div><div class = 'column'><img src = 'uspos/5629.bmp' width = '100%;'></div></div>","null","pos","CS","CS","1","category1/CS4.png","","","","",""
"","html-keyboard-response","37","304179","0.0-6.0-2.0-0.10","tlqe0hbqpl","one_one","1","indirect_first","0","le07as20","0","24","1","1","3","1","","0","1","0","null","","","<div class = 'row'><div class = 'column'><img src = 'usneg/9181.bmp' width = '100%;'></div><div class = 'column'><img src = 'category3/CS6.png' width = '70%;'></div></div>","null","neg","CS","CS","3","category3/CS6.png","","","","",""
"","html-keyboard-response","38","306686","0.0-6.0-2.0-0.11","tlqe0hbqpl","one_one","1","indirect_first","0","le07as20","0","24","1","1","3","1","","0","1","0","null","","","<div class = 'row'><div class = 'column'><img src = 'category2/CS5.png' width = '70%;'></div><div class = 'column'><img src = 'uspos/5831.bmp' width = '100%;'></div></div>","null","pos","CS","CS","2","category2/CS5.png","","","","",""
"","html-keyboard-response","39","309195","0.0-6.0-2.0-0.12","tlqe0hbqpl","one_one","1","indirect_first","0","le07as20","0","24","1","1","3","1","","0","1","0","null","","","<div class = 'row'><div class = 'column'><img src = 'usneg/9290.bmp' width = '100%;'></div><div class = 'column'><img src = 'category4/CS5.png' width = '70%;'></div></div>","null","neg","CS","CS","4","category4/CS5.png","","","","",""
"","html-keyboard-response","40","311704","0.0-6.0-2.0-0.13","tlqe0hbqpl","one_one","1","indirect_first","0","le07as20","0","24","1","1","3","1","","0","1","0","null","","","<div class = 'row'><div class = 'column'><img src = 'usneg/9181.bmp' width = '100%;'></div><div class = 'column'><img src = 'category3/CS6.png' width = '70%;'></div></div>","null","neg","CS","CS","3","category3/CS6.png","","","","",""
"","html-keyboard-response","41","314208","0.0-6.0-2.0-0.14","tlqe0hbqpl","one_one","1","indirect_first","0","le07as20","0","24","1","1","3","1","","0","1","0","null","","","<div class = 'row'><div class = 'column'><img src = 'category4/CS5.png' width = '70%;'></div><div class = 'column'><img src = 'usneg/9290.bmp' width = '100%;'></div></div>","null","neg","CS","CS","4","category4/CS5.png","","","","",""
"","html-keyboard-response","42","316714","0.0-6.0-2.0-0.15","tlqe0hbqpl","one_one","1","indirect_first","0","le07as20","0","24","1","1","3","1","","0","1","0","null","","","<div class = 'row'><div class = 'column'><img src = 'uspos/5831.bmp' width = '100%;'></div><div class = 'column'><img src = 'category2/CS5.png' width = '70%;'></div></div>","null","pos","CS","CS","2","category2/CS5.png","","","","",""
"","html-keyboard-response","43","319223","0.0-6.0-2.0-0.16","tlqe0hbqpl","one_one","1","indirect_first","0","le07as20","0","24","1","1","3","1","","0","1","0","null","","","<div class = 'row'><div class = 'column'><img src = 'category4/CS5.png' width = '70%;'></div><div class = 'column'><img src = 'usneg/9290.bmp' width = '100%;'></div></div>","null","neg","CS","CS","4","category4/CS5.png","","","","",""
"","html-keyboard-response","44","321730","0.0-6.0-2.0-0.17","tlqe0hbqpl","one_one","1","indirect_first","0","le07as20","0","24","1","1","3","1","","0","1","0","null","","","<div class = 'row'><div class = 'column'><img src = 'category2/CS5.png' width = '70%;'></div><div class = 'column'><img src = 'uspos/5831.bmp' width = '100%;'></div></div>","null","pos","CS","CS","2","category2/CS5.png","","","","",""
"","html-keyboard-response","45","324237","0.0-6.0-2.0-0.18","tlqe0hbqpl","one_one","1","indirect_first","0","le07as20","0","24","1","1","3","1","","0","1","0","null","","","<div class = 'row'><div class = 'column'><img src = 'category4/CS5.png' width = '70%;'></div><div class = 'column'><img src = 'usneg/9290.bmp' width = '100%;'></div></div>","null","neg","CS","CS","4","category4/CS5.png","","","","",""
"","html-keyboard-response","46","326743","0.0-6.0-2.0-0.19","tlqe0hbqpl","one_one","1","indirect_first","0","le07as20","0","24","1","1","3","1","","0","1","0","null","","","<div class = 'row'><div class = 'column'><img src = 'uspos/5629.bmp' width = '100%;'></div><div class = 'column'><img src = 'category1/CS4.png' width = '70%;'></div></div>","null","pos","CS","CS","1","category1/CS4.png","","","","",""
"","survey-html-form","47","344032","0.0-6.0-3.0","tlqe0hbqpl","one_one","1","indirect_first","0","le07as20","0","24","1","1","3","1","","0","1","0","16785.169999988284","","{}","","","","","","","","","","","",""
"","html-keyboard-response","48","348040","0.0-6.0-4.0-0.0","tlqe0hbqpl","one_one","1","indirect_first","0","le07as20","0","24","1","1","3","1","","0","1","0","null","","","<div class = 'row'><div class = 'column'><img src = 'uspos/5831.bmp' width = '100%;'></div><div class = 'column'><img src = 'category2/CS5.png' width = '70%;'></div></div>","null","pos","CS","CS","2","category2/CS5.png","","","","",""
"","html-keyboard-response","49","350546","0.0-6.0-4.0-0.1","tlqe0hbqpl","one_one","1","indirect_first","0","le07as20","0","24","1","1","3","1","","0","1","0","null","","","<div class = 'row'><div class = 'column'><img src = 'usneg/9290.bmp' width = '100%;'></div><div class = 'column'><img src = 'category4/CS5.png' width = '70%;'></div></div>","null","neg","CS","CS","4","category4/CS5.png","","","","",""
"","html-keyboard-response","50","353055","0.0-6.0-4.0-0.2","tlqe0hbqpl","one_one","1","indirect_first","0","le07as20","0","24","1","1","3","1","","0","1","0","null","","","<div class = 'row'><div class = 'column'><img src = 'uspos/5629.bmp' width = '100%;'></div><div class = 'column'><img src = 'category1/CS4.png' width = '70%;'></div></div>","null","pos","CS","CS","1","category1/CS4.png","","","","",""
"","html-keyboard-response","51","355561","0.0-6.0-4.0-0.3","tlqe0hbqpl","one_one","1","indirect_first","0","le07as20","0","24","1","1","3","1","","0","1","0","null","","","<div class = 'row'><div class = 'column'><img src = 'usneg/9290.bmp' width = '100%;'></div><div class = 'column'><img src = 'category4/CS5.png' width = '70%;'></div></div>","null","neg","CS","CS","4","category4/CS5.png","","","","",""
"","html-keyboard-response","52","358067","0.0-6.0-4.0-0.4","tlqe0hbqpl","one_one","1","indirect_first","0","le07as20","0","24","1","1","3","1","","0","1","0","null","","","<div class = 'row'><div class = 'column'><img src = 'usneg/9181.bmp' width = '100%;'></div><div class = 'column'><img src = 'category3/CS6.png' width = '70%;'></div></div>","null","neg","CS","CS","3","category3/CS6.png","","","","",""
"","html-keyboard-response","53","360573","0.0-6.0-4.0-0.5","tlqe0hbqpl","one_one","1","indirect_first","0","le07as20","0","24","1","1","3","1","","0","1","0","null","","","<div class = 'row'><div class = 'column'><img src = 'uspos/5629.bmp' width = '100%;'></div><div class = 'column'><img src = 'category1/CS4.png' width = '70%;'></div></div>","null","pos","CS","CS","1","category1/CS4.png","","","","",""
"","html-keyboard-response","54","363081","0.0-6.0-4.0-0.6","tlqe0hbqpl","one_one","1","indirect_first","0","le07as20","0","24","1","1","3","1","","0","1","0","null","","","<div class = 'row'><div class = 'column'><img src = 'category3/CS6.png' width = '70%;'></div><div class = 'column'><img src = 'usneg/9181.bmp' width = '100%;'></div></div>","null","neg","CS","CS","3","category3/CS6.png","","","","",""
"","html-keyboard-response","55","365586","0.0-6.0-4.0-0.7","tlqe0hbqpl","one_one","1","indirect_first","0","le07as20","0","24","1","1","3","1","","0","1","0","null","","","<div class = 'row'><div class = 'column'><img src = 'category4/CS5.png' width = '70%;'></div><div class = 'column'><img src = 'usneg/9290.bmp' width = '100%;'></div></div>","null","neg","CS","CS","4","category4/CS5.png","","","","",""
"","html-keyboard-response","56","368093","0.0-6.0-4.0-0.8","tlqe0hbqpl","one_one","1","indirect_first","0","le07as20","0","24","1","1","3","1","","0","1","0","null","","","<div class = 'row'><div class = 'column'><img src = 'category3/CS6.png' width = '70%;'></div><div class = 'column'><img src = 'usneg/9181.bmp' width = '100%;'></div></div>","null","neg","CS","CS","3","category3/CS6.png","","","","",""
"","html-keyboard-response","57","370598","0.0-6.0-4.0-0.9","tlqe0hbqpl","one_one","1","indirect_first","0","le07as20","0","24","1","1","3","1","","0","1","0","null","","","<div class = 'row'><div class = 'column'><img src = 'usneg/9290.bmp' width = '100%;'></div><div class = 'column'><img src = 'category4/CS5.png' width = '70%;'></div></div>","null","neg","CS","CS","4","category4/CS5.png","","","","",""
"","html-keyboard-response","58","373106","0.0-6.0-4.0-0.10","tlqe0hbqpl","one_one","1","indirect_first","0","le07as20","0","24","1","1","3","1","","0","1","0","null","","","<div class = 'row'><div class = 'column'><img src = 'category1/CS4.png' width = '70%;'></div><div class = 'column'><img src = 'uspos/5629.bmp' width = '100%;'></div></div>","null","pos","CS","CS","1","category1/CS4.png","","","","",""
"","html-keyboard-response","59","375612","0.0-6.0-4.0-0.11","tlqe0hbqpl","one_one","1","indirect_first","0","le07as20","0","24","1","1","3","1","","0","1","0","null","","","<div class = 'row'><div class = 'column'><img src = 'uspos/5831.bmp' width = '100%;'></div><div class = 'column'><img src = 'category2/CS5.png' width = '70%;'></div></div>","null","pos","CS","CS","2","category2/CS5.png","","","","",""
"","html-keyboard-response","60","378119","0.0-6.0-4.0-0.12","tlqe0hbqpl","one_one","1","indirect_first","0","le07as20","0","24","1","1","3","1","","0","1","0","null","","","<div class = 'row'><div class = 'column'><img src = 'usneg/9181.bmp' width = '100%;'></div><div class = 'column'><img src = 'category3/CS6.png' width = '70%;'></div></div>","null","neg","CS","CS","3","category3/CS6.png","","","","",""
"","html-keyboard-response","61","380624","0.0-6.0-4.0-0.13","tlqe0hbqpl","one_one","1","indirect_first","0","le07as20","0","24","1","1","3","1","","0","1","0","null","","","<div class = 'row'><div class = 'column'><img src = 'uspos/5831.bmp' width = '100%;'></div><div class = 'column'><img src = 'category2/CS5.png' width = '70%;'></div></div>","null","pos","CS","CS","2","category2/CS5.png","","","","",""
"","html-keyboard-response","62","383131","0.0-6.0-4.0-0.14","tlqe0hbqpl","one_one","1","indirect_first","0","le07as20","0","24","1","1","3","1","","0","1","0","null","","","<div class = 'row'><div class = 'column'><img src = 'category1/CS4.png' width = '70%;'></div><div class = 'column'><img src = 'uspos/5629.bmp' width = '100%;'></div></div>","null","pos","CS","CS","1","category1/CS4.png","","","","",""
"","html-keyboard-response","63","385636","0.0-6.0-4.0-0.15","tlqe0hbqpl","one_one","1","indirect_first","0","le07as20","0","24","1","1","3","1","","0","1","0","null","","","<div class = 'row'><div class = 'column'><img src = 'uspos/5831.bmp' width = '100%;'></div><div class = 'column'><img src = 'category2/CS5.png' width = '70%;'></div></div>","null","pos","CS","CS","2","category2/CS5.png","","","","",""
"","html-keyboard-response","64","388145","0.0-6.0-4.0-0.16","tlqe0hbqpl","one_one","1","indirect_first","0","le07as20","0","24","1","1","3","1","","0","1","0","null","","","<div class = 'row'><div class = 'column'><img src = 'usneg/9181.bmp' width = '100%;'></div><div class = 'column'><img src = 'category3/CS6.png' width = '70%;'></div></div>","null","neg","CS","CS","3","category3/CS6.png","","","","",""
"","html-keyboard-response","65","390652","0.0-6.0-4.0-0.17","tlqe0hbqpl","one_one","1","indirect_first","0","le07as20","0","24","1","1","3","1","","0","1","0","null","","","<div class = 'row'><div class = 'column'><img src = 'category2/CS5.png' width = '70%;'></div><div class = 'column'><img src = 'uspos/5831.bmp' width = '100%;'></div></div>","null","pos","CS","CS","2","category2/CS5.png","","","","",""
"","html-keyboard-response","66","393159","0.0-6.0-4.0-0.18","tlqe0hbqpl","one_one","1","indirect_first","0","le07as20","0","24","1","1","3","1","","0","1","0","null","","","<div class = 'row'><div class = 'column'><img src = 'category1/CS4.png' width = '70%;'></div><div class = 'column'><img src = 'uspos/5629.bmp' width = '100%;'></div></div>","null","pos","CS","CS","1","category1/CS4.png","","","","",""
"","html-keyboard-response","67","395668","0.0-6.0-4.0-0.19","tlqe0hbqpl","one_one","1","indirect_first","0","le07as20","0","24","1","1","3","1","","0","1","0","null","","","<div class = 'row'><div class = 'column'><img src = 'usneg/9290.bmp' width = '100%;'></div><div class = 'column'><img src = 'category4/CS5.png' width = '70%;'></div></div>","null","neg","CS","CS","4","category4/CS5.png","","","","",""
"","survey-html-form","68","413405","0.0-6.0-5.0","tlqe0hbqpl","one_one","1","indirect_first","0","le07as20","0","24","1","1","3","1","","0","1","0","17233.754999993835","","{}","","","","","","","","","","","",""
"","html-keyboard-response","69","417422","0.0-6.0-6.0-0.0","tlqe0hbqpl","one_one","1","indirect_first","0","le07as20","0","24","1","1","3","1","","0","1","0","null","","","<div class = 'row'><div class = 'column'><img src = 'usneg/9181.bmp' width = '100%;'></div><div class = 'column'><img src = 'category3/CS6.png' width = '70%;'></div></div>","null","neg","CS","CS","3","category3/CS6.png","","","","",""
"","html-keyboard-response","70","419928","0.0-6.0-6.0-0.1","tlqe0hbqpl","one_one","1","indirect_first","0","le07as20","0","24","1","1","3","1","","0","1","0","null","","","<div class = 'row'><div class = 'column'><img src = 'category2/CS5.png' width = '70%;'></div><div class = 'column'><img src = 'uspos/5831.bmp' width = '100%;'></div></div>","null","pos","CS","CS","2","category2/CS5.png","","","","",""
"","html-keyboard-response","71","422434","0.0-6.0-6.0-0.2","tlqe0hbqpl","one_one","1","indirect_first","0","le07as20","0","24","1","1","3","1","","0","1","0","null","","","<div class = 'row'><div class = 'column'><img src = 'usneg/9181.bmp' width = '100%;'></div><div class = 'column'><img src = 'category3/CS6.png' width = '70%;'></div></div>","null","neg","CS","CS","3","category3/CS6.png","","","","",""
"","html-keyboard-response","72","424938","0.0-6.0-6.0-0.3","tlqe0hbqpl","one_one","1","indirect_first","0","le07as20","0","24","1","1","3","1","","0","1","0","null","","","<div class = 'row'><div class = 'column'><img src = 'usneg/9290.bmp' width = '100%;'></div><div class = 'column'><img src = 'category4/CS5.png' width = '70%;'></div></div>","null","neg","CS","CS","4","category4/CS5.png","","","","",""
"","html-keyboard-response","73","427446","0.0-6.0-6.0-0.4","tlqe0hbqpl","one_one","1","indirect_first","0","le07as20","0","24","1","1","3","1","","0","1","0","null","","","<div class = 'row'><div class = 'column'><img src = 'category2/CS5.png' width = '70%;'></div><div class = 'column'><img src = 'uspos/5831.bmp' width = '100%;'></div></div>","null","pos","CS","CS","2","category2/CS5.png","","","","",""
"","html-keyboard-response","74","429952","0.0-6.0-6.0-0.5","tlqe0hbqpl","one_one","1","indirect_first","0","le07as20","0","24","1","1","3","1","","0","1","0","null","","","<div class = 'row'><div class = 'column'><img src = 'category1/CS4.png' width = '70%;'></div><div class = 'column'><img src = 'uspos/5629.bmp' width = '100%;'></div></div>","null","pos","CS","CS","1","category1/CS4.png","","","","",""
"","html-keyboard-response","75","432458","0.0-6.0-6.0-0.6","tlqe0hbqpl","one_one","1","indirect_first","0","le07as20","0","24","1","1","3","1","","0","1","0","null","","","<div class = 'row'><div class = 'column'><img src = 'category4/CS5.png' width = '70%;'></div><div class = 'column'><img src = 'usneg/9290.bmp' width = '100%;'></div></div>","null","neg","CS","CS","4","category4/CS5.png","","","","",""
"","html-keyboard-response","76","434965","0.0-6.0-6.0-0.7","tlqe0hbqpl","one_one","1","indirect_first","0","le07as20","0","24","1","1","3","1","","0","1","0","null","","","<div class = 'row'><div class = 'column'><img src = 'uspos/5629.bmp' width = '100%;'></div><div class = 'column'><img src = 'category1/CS4.png' width = '70%;'></div></div>","null","pos","CS","CS","1","category1/CS4.png","","","","",""
"","html-keyboard-response","77","437474","0.0-6.0-6.0-0.8","tlqe0hbqpl","one_one","1","indirect_first","0","le07as20","0","24","1","1","3","1","","0","1","0","null","","","<div class = 'row'><div class = 'column'><img src = 'category3/CS6.png' width = '70%;'></div><div class = 'column'><img src = 'usneg/9181.bmp' width = '100%;'></div></div>","null","neg","CS","CS","3","category3/CS6.png","","","","",""
"","html-keyboard-response","78","439982","0.0-6.0-6.0-0.9","tlqe0hbqpl","one_one","1","indirect_first","0","le07as20","0","24","1","1","3","1","","0","1","0","null","","","<div class = 'row'><div class = 'column'><img src = 'category4/CS5.png' width = '70%;'></div><div class = 'column'><img src = 'usneg/9290.bmp' width = '100%;'></div></div>","null","neg","CS","CS","4","category4/CS5.png","","","","",""
"","html-keyboard-response","79","442489","0.0-6.0-6.0-0.10","tlqe0hbqpl","one_one","1","indirect_first","0","le07as20","0","24","1","1","3","1","","0","1","0","null","","","<div class = 'row'><div class = 'column'><img src = 'category1/CS4.png' width = '70%;'></div><div class = 'column'><img src = 'uspos/5629.bmp' width = '100%;'></div></div>","null","pos","CS","CS","1","category1/CS4.png","","","","",""
"","html-keyboard-response","80","444995","0.0-6.0-6.0-0.11","tlqe0hbqpl","one_one","1","indirect_first","0","le07as20","0","24","1","1","3","1","","0","1","0","null","","","<div class = 'row'><div class = 'column'><img src = 'category2/CS5.png' width = '70%;'></div><div class = 'column'><img src = 'uspos/5831.bmp' width = '100%;'></div></div>","null","pos","CS","CS","2","category2/CS5.png","","","","",""
"","html-keyboard-response","81","447503","0.0-6.0-6.0-0.12","tlqe0hbqpl","one_one","1","indirect_first","0","le07as20","0","24","1","1","3","1","","0","1","0","null","","","<div class = 'row'><div class = 'column'><img src = 'usneg/9290.bmp' width = '100%;'></div><div class = 'column'><img src = 'category4/CS5.png' width = '70%;'></div></div>","null","neg","CS","CS","4","category4/CS5.png","","","","",""
"","html-keyboard-response","82","450010","0.0-6.0-6.0-0.13","tlqe0hbqpl","one_one","1","indirect_first","0","le07as20","0","24","1","1","3","1","","0","1","0","null","","","<div class = 'row'><div class = 'column'><img src = 'uspos/5831.bmp' width = '100%;'></div><div class = 'column'><img src = 'category2/CS5.png' width = '70%;'></div></div>","null","pos","CS","CS","2","category2/CS5.png","","","","",""
"","html-keyboard-response","83","452517","0.0-6.0-6.0-0.14","tlqe0hbqpl","one_one","1","indirect_first","0","le07as20","0","24","1","1","3","1","","0","1","0","null","","","<div class = 'row'><div class = 'column'><img src = 'usneg/9181.bmp' width = '100%;'></div><div class = 'column'><img src = 'category3/CS6.png' width = '70%;'></div></div>","null","neg","CS","CS","3","category3/CS6.png","","","","",""
"","html-keyboard-response","84","455023","0.0-6.0-6.0-0.15","tlqe0hbqpl","one_one","1","indirect_first","0","le07as20","0","24","1","1","3","1","","0","1","0","null","","","<div class = 'row'><div class = 'column'><img src = 'category1/CS4.png' width = '70%;'></div><div class = 'column'><img src = 'uspos/5629.bmp' width = '100%;'></div></div>","null","pos","CS","CS","1","category1/CS4.png","","","","",""
"","html-keyboard-response","85","457532","0.0-6.0-6.0-0.16","tlqe0hbqpl","one_one","1","indirect_first","0","le07as20","0","24","1","1","3","1","","0","1","0","null","","","<div class = 'row'><div class = 'column'><img src = 'usneg/9181.bmp' width = '100%;'></div><div class = 'column'><img src = 'category3/CS6.png' width = '70%;'></div></div>","null","neg","CS","CS","3","category3/CS6.png","","","","",""
"","html-keyboard-response","86","460039","0.0-6.0-6.0-0.17","tlqe0hbqpl","one_one","1","indirect_first","0","le07as20","0","24","1","1","3","1","","0","1","0","null","","","<div class = 'row'><div class = 'column'><img src = 'uspos/5629.bmp' width = '100%;'></div><div class = 'column'><img src = 'category1/CS4.png' width = '70%;'></div></div>","null","pos","CS","CS","1","category1/CS4.png","","","","",""
"","html-keyboard-response","87","462546","0.0-6.0-6.0-0.18","tlqe0hbqpl","one_one","1","indirect_first","0","le07as20","0","24","1","1","3","1","","0","1","0","null","","","<div class = 'row'><div class = 'column'><img src = 'category2/CS5.png' width = '70%;'></div><div class = 'column'><img src = 'uspos/5831.bmp' width = '100%;'></div></div>","null","pos","CS","CS","2","category2/CS5.png","","","","",""
"","html-keyboard-response","88","465053","0.0-6.0-6.0-0.19","tlqe0hbqpl","one_one","1","indirect_first","0","le07as20","0","24","1","1","3","1","","0","1","0","null","","","<div class = 'row'><div class = 'column'><img src = 'category4/CS5.png' width = '70%;'></div><div class = 'column'><img src = 'usneg/9290.bmp' width = '100%;'></div></div>","null","neg","CS","CS","4","category4/CS5.png","","","","",""
"","html-keyboard-response","89","562180","0.0-7.0","tlqe0hbqpl","one_one","1","indirect_first","0","le07as20","0","24","1","1","3","1","","0","1","0","96620.86500000441","","","<p>Sie sehen nun die chinesischen Zeichen nur ganz kurz. Danach sehen Sie die jeweilige Aussprache der Zeichen als Silbe auf dem Bildschrim. Ihre Aufgabe ist es, für jede Silbe anzugeben, ob diese etwas angenehmes, oder unangenehmes bedeuten könnte. Verlassen Sie sich hier vor allem auf Ihre Intuition.<br><br>Die Zeichen werden nur zur Orientierung dargestellt, beachten Sie sie deshalb nicht. Konzentrieren Sie sich vor allem auf die Silben. <br>Reagieren Sie mit folgenden zwei Tasten: <br><br><b>'D' </b> wenn die Silbe etwas <b>unangenehmes</b> bedeuten könnte. <br><b>'K'</b> wenn die Silbe etwas <b>angenehmes</b> bedeuten könnte. <br><br>Bitte legen Sie nun den Zeigefinger der linken Hand auf die Taste 'D' und den Zeigefinger der rechten Hand auf die Taste 'K'. <br>Reagieren Sie auf jede Silbe so schnell wie möglich. Uns interessiert Ihre spontane Reaktion. <br> <br> <br>Drücken Sie 'D' oder 'K', um die nächste Aufgabe zu starten. </p>","68","","","","","","","","","",""
"","html-keyboard-response","90","565184","0.0-8.0-0.0","tlqe0hbqpl","one_one","1","indirect_first","0","le07as20","0","24","1","1","3","1","","0","1","0","null","","","<div style=""font-size:60px;"">+</div>","null","","","","","","","","","",""
"","html-keyboard-response","91","565279","0.0-8.0-1.0","tlqe0hbqpl","one_one","1","indirect_first","0","le07as20","0","24","1","1","3","1","","0","1","0","null","","","<img src = 'category2/CS10.png' width = '100%;'>","null","","","","","","","","","",""
"","html-keyboard-response","92","565533","0.0-8.0-2.0","tlqe0hbqpl","one_one","1","indirect_first","0","le07as20","0","24","1","1","3","1","","0","1","0","null","","","<img src = 'targets/41.png' width = '100%;'>","null","","","","","","","","","",""
"","html-keyboard-response","93","569254","0.0-8.0-3.0","tlqe0hbqpl","one_one","1","indirect_first","0","le07as20","0","24","1","1","3","1","","0","1","0","3718.345000001136","","","<img src = 'targets/mask.png' width = '100%;'>","75","pos","GS","GSold","2","category2/CS10.png","targets/41.png","1","indirect","0",""
"","html-keyboard-response","94","570761","0.0-8.0-0.1","tlqe0hbqpl","one_one","1","indirect_first","0","le07as20","0","24","1","1","3","1","","0","1","0","null","","","<div style=""font-size:60px;"">+</div>","null","","","","","","","","","",""
"","html-keyboard-response","95","570854","0.0-8.0-1.1","tlqe0hbqpl","one_one","1","indirect_first","0","le07as20","0","24","1","1","3","1","","0","1","0","null","","","<img src = 'category1/CS5.png' width = '100%;'>","null","","","","","","","","","",""
"","html-keyboard-response","96","571108","0.0-8.0-2.1","tlqe0hbqpl","one_one","1","indirect_first","0","le07as20","0","24","1","1","3","1","","0","1","0","null","","","<img src = 'targets/5.png' width = '100%;'>","null","","","","","","","","","",""
"","html-keyboard-response","97","572031","0.0-8.0-3.1","tlqe0hbqpl","one_one","1","indirect_first","0","le07as20","0","24","1","1","3","1","","0","1","0","919.6750000119209","","","<img src = 'targets/mask.png' width = '100%;'>","75","pos","GS","GSold","1","category1/CS5.png","targets/5.png","1","indirect","1",""
"","html-keyboard-response","98","573534","0.0-8.0-0.2","tlqe0hbqpl","one_one","1","indirect_first","0","le07as20","0","24","1","1","3","1","","0","1","0","null","","","<div style=""font-size:60px;"">+</div>","null","","","","","","","","","",""
"","html-keyboard-response","99","573627","0.0-8.0-1.2","tlqe0hbqpl","one_one","1","indirect_first","0","le07as20","0","24","1","1","3","1","","0","1","0","null","","","<img src = 'category4/CS5.png' width = '100%;'>","null","","","","","","","","","",""
"","html-keyboard-response","100","573883","0.0-8.0-2.2","tlqe0hbqpl","one_one","1","indirect_first","0","le07as20","0","24","1","1","3","1","","0","1","0","null","","","<img src = 'targets/39.png' width = '100%;'>","null","","","","","","","","","",""
"","html-keyboard-response","101","574377","0.0-8.0-3.2","tlqe0hbqpl","one_one","1","indirect_first","0","le07as20","0","24","1","1","3","1","","0","1","0","490.5700000235811","","","<img src = 'targets/mask.png' width = '100%;'>","68","neg","CS","CS","4","category4/CS5.png","targets/39.png","0","indirect","2",""
"","html-keyboard-response","102","575881","0.0-8.0-0.3","tlqe0hbqpl","one_one","1","indirect_first","0","le07as20","0","24","1","1","3","1","","0","1","0","null","","","<div style=""font-size:60px;"">+</div>","null","","","","","","","","","",""
"","html-keyboard-response","103","575975","0.0-8.0-1.3","tlqe0hbqpl","one_one","1","indirect_first","0","le07as20","0","24","1","1","3","1","","0","1","0","null","","","<img src = 'category1/CS4.png' width = '100%;'>","null","","","","","","","","","",""
"","html-keyboard-response","104","576229","0.0-8.0-2.3","tlqe0hbqpl","one_one","1","indirect_first","0","le07as20","0","24","1","1","3","1","","0","1","0","null","","","<img src = 'targets/28.png' width = '100%;'>","null","","","","","","","","","",""
"","html-keyboard-response","105","577319","0.0-8.0-3.3","tlqe0hbqpl","one_one","1","indirect_first","0","le07as20","0","24","1","1","3","1","","0","1","0","1085.4099999996834","","","<img src = 'targets/mask.png' width = '100%;'>","68","pos","CS","CS","1","category1/CS4.png","targets/28.png","0","indirect","3",""
"","html-keyboard-response","106","578823","0.0-8.0-0.4","tlqe0hbqpl","one_one","1","indirect_first","0","le07as20","0","24","1","1","3","1","","0","1","0","null","","","<div style=""font-size:60px;"">+</div>","null","","","","","","","","","",""
"","html-keyboard-response","107","578917","0.0-8.0-1.4","tlqe0hbqpl","one_one","1","indirect_first","0","le07as20","0","24","1","1","3","1","","0","1","0","null","","","<img src = 'category4/CS6.png' width = '100%;'>","null","","","","","","","","","",""
"","html-keyboard-response","108","579171","0.0-8.0-2.4","tlqe0hbqpl","one_one","1","indirect_first","0","le07as20","0","24","1","1","3","1","","0","1","0","null","","","<img src = 'targets/43.png' width = '100%;'>","null","","","","","","","","","",""
"","html-keyboard-response","109","580222","0.0-8.0-3.4","tlqe0hbqpl","one_one","1","indirect_first","0","le07as20","0","24","1","1","3","1","","0","1","0","1047.6599999819882","","","<img src = 'targets/mask.png' width = '100%;'>","75","neg","GS","GSold","4","category4/CS6.png","targets/43.png","1","indirect","4",""
"","html-keyboard-response","110","581728","0.0-8.0-0.5","tlqe0hbqpl","one_one","1","indirect_first","0","le07as20","0","24","1","1","3","1","","0","1","0","null","","","<div style=""font-size:60px;"">+</div>","null","","","","","","","","","",""
"","html-keyboard-response","111","581820","0.0-8.0-1.5","tlqe0hbqpl","one_one","1","indirect_first","0","le07as20","0","24","1","1","3","1","","0","1","0","null","","","<img src = 'category1/CS8.png' width = '100%;'>","null","","","","","","","","","",""
"","html-keyboard-response","112","582075","0.0-8.0-2.5","tlqe0hbqpl","one_one","1","indirect_first","0","le07as20","0","24","1","1","3","1","","0","1","0","null","","","<img src = 'targets/7.png' width = '100%;'>","null","","","","","","","","","",""
"","html-keyboard-response","113","582823","0.0-8.0-3.5","tlqe0hbqpl","one_one","1","indirect_first","0","le07as20","0","24","1","1","3","1","","0","1","0","744.9350000242703","","","<img src = 'targets/mask.png' width = '100%;'>","75","pos","GS","GSold","1","category1/CS8.png","targets/7.png","1","indirect","5",""
"","html-keyboard-response","114","584326","0.0-8.0-0.6","tlqe0hbqpl","one_one","1","indirect_first","0","le07as20","0","24","1","1","3","1","","0","1","0","null","","","<div style=""font-size:60px;"">+</div>","null","","","","","","","","","",""
"","html-keyboard-response","115","584420","0.0-8.0-1.6","tlqe0hbqpl","one_one","1","indirect_first","0","le07as20","0","24","1","1","3","1","","0","1","0","null","","","<img src = 'category3/CS7.png' width = '100%;'>","null","","","","","","","","","",""
"","html-keyboard-response","116","584675","0.0-8.0-2.6","tlqe0hbqpl","one_one","1","indirect_first","0","le07as20","0","24","1","1","3","1","","0","1","0","null","","","<img src = 'targets/8.png' width = '100%;'>","null","","","","","","","","","",""
"","html-keyboard-response","117","585857","0.0-8.0-3.6","tlqe0hbqpl","one_one","1","indirect_first","0","le07as20","0","24","1","1","3","1","","0","1","0","1177.529999986291","","","<img src = 'targets/mask.png' width = '100%;'>","75","neg","GS","GSold","3","category3/CS7.png","targets/8.png","1","indirect","6",""
"","html-keyboard-response","118","587360","0.0-8.0-0.7","tlqe0hbqpl","one_one","1","indirect_first","0","le07as20","0","24","1","1","3","1","","0","1","0","null","","","<div style=""font-size:60px;"">+</div>","null","","","","","","","","","",""
"","html-keyboard-response","119","587454","0.0-8.0-1.7","tlqe0hbqpl","one_one","1","indirect_first","0","le07as20","0","24","1","1","3","1","","0","1","0","null","","","<img src = 'category2/CS4.png' width = '100%;'>","null","","","","","","","","","",""
"","html-keyboard-response","120","587710","0.0-8.0-2.7","tlqe0hbqpl","one_one","1","indirect_first","0","le07as20","0","24","1","1","3","1","","0","1","0","null","","","<img src = 'targets/48.png' width = '100%;'>","null","","","","","","","","","",""
"","html-keyboard-response","121","589400","0.0-8.0-3.7","tlqe0hbqpl","one_one","1","indirect_first","0","le07as20","0","24","1","1","3","1","","0","1","0","1687.4550000065938","","","<img src = 'targets/mask.png' width = '100%;'>","68","pos","GS","GSold","2","category2/CS4.png","targets/48.png","0","indirect","7",""
"","html-keyboard-response","122","590905","0.0-8.0-0.8","tlqe0hbqpl","one_one","1","indirect_first","0","le07as20","0","24","1","1","3","1","","0","1","0","null","","","<div style=""font-size:60px;"">+</div>","null","","","","","","","","","",""
"","html-keyboard-response","123","590999","0.0-8.0-1.8","tlqe0hbqpl","one_one","1","indirect_first","0","le07as20","0","24","1","1","3","1","","0","1","0","null","","","<img src = 'category2/CS5.png' width = '100%;'>","null","","","","","","","","","",""
"","html-keyboard-response","124","591253","0.0-8.0-2.8","tlqe0hbqpl","one_one","1","indirect_first","0","le07as20","0","24","1","1","3","1","","0","1","0","null","","","<img src = 'targets/26.png' width = '100%;'>","null","","","","","","","","","",""
"","html-keyboard-response","125","592759","0.0-8.0-3.8","tlqe0hbqpl","one_one","1","indirect_first","0","le07as20","0","24","1","1","3","1","","0","1","0","1501.6750000067987","","","<img src = 'targets/mask.png' width = '100%;'>","75","pos","CS","CS","2","category2/CS5.png","targets/26.png","1","indirect","8",""
"","html-keyboard-response","126","594262","0.0-8.0-0.9","tlqe0hbqpl","one_one","1","indirect_first","0","le07as20","0","24","1","1","3","1","","0","1","0","null","","","<div style=""font-size:60px;"">+</div>","null","","","","","","","","","",""
"","html-keyboard-response","127","594354","0.0-8.0-1.9","tlqe0hbqpl","one_one","1","indirect_first","0","le07as20","0","24","1","1","3","1","","0","1","0","null","","","<img src = 'category4/CS7.png' width = '100%;'>","null","","","","","","","","","",""
"","html-keyboard-response","128","594608","0.0-8.0-2.9","tlqe0hbqpl","one_one","1","indirect_first","0","le07as20","0","24","1","1","3","1","","0","1","0","null","","","<img src = 'targets/11.png' width = '100%;'>","null","","","","","","","","","",""
"","html-keyboard-response","129","595758","0.0-8.0-3.9","tlqe0hbqpl","one_one","1","indirect_first","0","le07as20","0","24","1","1","3","1","","0","1","0","1145.4549999907613","","","<img src = 'targets/mask.png' width = '100%;'>","68","neg","GS","GSold","4","category4/CS7.png","targets/11.png","0","indirect","9",""
"","html-keyboard-response","130","597262","0.0-8.0-0.10","tlqe0hbqpl","one_one","1","indirect_first","0","le07as20","0","24","1","1","3","1","","0","1","0","null","","","<div style=""font-size:60px;"">+</div>","null","","","","","","","","","",""
"","html-keyboard-response","131","597356","0.0-8.0-1.10","tlqe0hbqpl","one_one","1","indirect_first","0","le07as20","0","24","1","1","3","1","","0","1","0","null","","","<img src = 'category3/CS8.png' width = '100%;'>","null","","","","","","","","","",""
"","html-keyboard-response","132","597611","0.0-8.0-2.10","tlqe0hbqpl","one_one","1","indirect_first","0","le07as20","0","24","1","1","3","1","","0","1","0","null","","","<img src = 'targets/9.png' width = '100%;'>","null","","","","","","","","","",""
"","html-keyboard-response","133","599577","0.0-8.0-3.10","tlqe0hbqpl","one_one","1","indirect_first","0","le07as20","0","24","1","1","3","1","","0","1","0","1962.8299999749288","","","<img src = 'targets/mask.png' width = '100%;'>","75","neg","GS","GSold","3","category3/CS8.png","targets/9.png","1","indirect","10",""
"","html-keyboard-response","134","601081","0.0-8.0-0.11","tlqe0hbqpl","one_one","1","indirect_first","0","le07as20","0","24","1","1","3","1","","0","1","0","null","","","<div style=""font-size:60px;"">+</div>","null","","","","","","","","","",""
"","html-keyboard-response","135","601174","0.0-8.0-1.11","tlqe0hbqpl","one_one","1","indirect_first","0","le07as20","0","24","1","1","3","1","","0","1","0","null","","","<img src = 'category4/CS8.png' width = '100%;'>","null","","","","","","","","","",""
"","html-keyboard-response","136","601429","0.0-8.0-2.11","tlqe0hbqpl","one_one","1","indirect_first","0","le07as20","0","24","1","1","3","1","","0","1","0","null","","","<img src = 'targets/33.png' width = '100%;'>","null","","","","","","","","","",""
"","html-keyboard-response","137","602119","0.0-8.0-3.11","tlqe0hbqpl","one_one","1","indirect_first","0","le07as20","0","24","1","1","3","1","","0","1","0","685.364999982994","","","<img src = 'targets/mask.png' width = '100%;'>","68","neg","GS","GSold","4","category4/CS8.png","targets/33.png","0","indirect","11",""
"","html-keyboard-response","138","603623","0.0-8.0-0.12","tlqe0hbqpl","one_one","1","indirect_first","0","le07as20","0","24","1","1","3","1","","0","1","0","null","","","<div style=""font-size:60px;"">+</div>","null","","","","","","","","","",""
"","html-keyboard-response","139","603717","0.0-8.0-1.12","tlqe0hbqpl","one_one","1","indirect_first","0","le07as20","0","24","1","1","3","1","","0","1","0","null","","","<img src = 'category3/CS6.png' width = '100%;'>","null","","","","","","","","","",""
"","html-keyboard-response","140","603971","0.0-8.0-2.12","tlqe0hbqpl","one_one","1","indirect_first","0","le07as20","0","24","1","1","3","1","","0","1","0","null","","","<img src = 'targets/19.png' width = '100%;'>","null","","","","","","","","","",""
"","html-keyboard-response","141","604686","0.0-8.0-3.12","tlqe0hbqpl","one_one","1","indirect_first","0","le07as20","0","24","1","1","3","1","","0","1","0","712.2599999420345","","","<img src = 'targets/mask.png' width = '100%;'>","68","neg","CS","CS","3","category3/CS6.png","targets/19.png","0","indirect","12",""
"","html-keyboard-response","142","606191","0.0-8.0-0.13","tlqe0hbqpl","one_one","1","indirect_first","0","le07as20","0","24","1","1","3","1","","0","1","0","null","","","<div style=""font-size:60px;"">+</div>","null","","","","","","","","","",""
"","html-keyboard-response","143","606284","0.0-8.0-1.13","tlqe0hbqpl","one_one","1","indirect_first","0","le07as20","0","24","1","1","3","1","","0","1","0","null","","","<img src = 'category1/CS6.png' width = '100%;'>","null","","","","","","","","","",""
"","html-keyboard-response","144","606538","0.0-8.0-2.13","tlqe0hbqpl","one_one","1","indirect_first","0","le07as20","0","24","1","1","3","1","","0","1","0","null","","","<img src = 'targets/31.png' width = '100%;'>","null","","","","","","","","","",""
"","html-keyboard-response","145","607278","0.0-8.0-3.13","tlqe0hbqpl","one_one","1","indirect_first","0","le07as20","0","24","1","1","3","1","","0","1","0","735.5200000456534","","","<img src = 'targets/mask.png' width = '100%;'>","75","pos","GS","GSold","1","category1/CS6.png","targets/31.png","1","indirect","13",""
"","html-keyboard-response","146","608784","0.0-8.0-0.14","tlqe0hbqpl","one_one","1","indirect_first","0","le07as20","0","24","1","1","3","1","","0","1","0","null","","","<div style=""font-size:60px;"">+</div>","null","","","","","","","","","",""
"","html-keyboard-response","147","608877","0.0-8.0-1.14","tlqe0hbqpl","one_one","1","indirect_first","0","le07as20","0","24","1","1","3","1","","0","1","0","null","","","<img src = 'category2/CS2.png' width = '100%;'>","null","","","","","","","","","",""
"","html-keyboard-response","148","609131","0.0-8.0-2.14","tlqe0hbqpl","one_one","1","indirect_first","0","le07as20","0","24","1","1","3","1","","0","1","0","null","","","<img src = 'targets/40.png' width = '100%;'>","null","","","","","","","","","",""
"","html-keyboard-response","149","610704","0.0-8.0-3.14","tlqe0hbqpl","one_one","1","indirect_first","0","le07as20","0","24","1","1","3","1","","0","1","0","1569.5899999700487","","","<img src = 'targets/mask.png' width = '100%;'>","68","pos","GS","GSold","2","category2/CS2.png","targets/40.png","0","indirect","14",""
"","html-keyboard-response","150","612208","0.0-8.0-0.15","tlqe0hbqpl","one_one","1","indirect_first","0","le07as20","0","24","1","1","3","1","","0","1","0","null","","","<div style=""font-size:60px;"">+</div>","null","","","","","","","","","",""
"","html-keyboard-response","151","612301","0.0-8.0-1.15","tlqe0hbqpl","one_one","1","indirect_first","0","le07as20","0","24","1","1","3","1","","0","1","0","null","","","<img src = 'category3/CS10.png' width = '100%;'>","null","","","","","","","","","",""
"","html-keyboard-response","152","612555","0.0-8.0-2.15","tlqe0hbqpl","one_one","1","indirect_first","0","le07as20","0","24","1","1","3","1","","0","1","0","null","","","<img src = 'targets/45.png' width = '100%;'>","null","","","","","","","","","",""
"","html-keyboard-response","153","614792","0.0-8.0-3.15","tlqe0hbqpl","one_one","1","indirect_first","0","le07as20","0","24","1","1","3","1","","0","1","0","2232.849999971222","","","<img src = 'targets/mask.png' width = '100%;'>","68","neg","GS","GSold","3","category3/CS10.png","targets/45.png","0","indirect","15",""
"","survey-html-form","154","619731","0.0-9.0","tlqe0hbqpl","one_one","1","indirect_first","0","le07as20","0","24","1","1","3","1","","0","1","0","4435.3200000477955","","{}","","","","","","","","","","","",""
"","html-keyboard-response","155","622734","0.0-10.0-0.0","tlqe0hbqpl","one_one","1","indirect_first","0","le07as20","0","24","1","1","3","1","","0","1","0","null","","","<div style=""font-size:60px;"">+</div>","null","","","","","","","","","",""
"","html-keyboard-response","156","622829","0.0-10.0-1.0","tlqe0hbqpl","one_one","1","indirect_first","0","le07as20","0","24","1","1","3","1","","0","1","0","null","","","<img src = 'category2/GS2.png' width = '100%;'>","null","","","","","","","","","",""
"","html-keyboard-response","157","623084","0.0-10.0-2.0","tlqe0hbqpl","one_one","1","indirect_first","0","le07as20","0","24","1","1","3","1","","0","1","0","null","","","<img src = 'targets/10.png' width = '100%;'>","null","","","","","","","","","",""
"","html-keyboard-response","158","626449","0.0-10.0-3.0","tlqe0hbqpl","one_one","1","indirect_first","0","le07as20","0","24","1","1","3","1","","0","1","0","3360.709999979008","","","<img src = 'targets/mask.png' width = '100%;'>","68","pos","GS","GSnew","2","category2/GS2.png","targets/10.png","0","indirect","16",""
"","html-keyboard-response","159","627953","0.0-10.0-0.1","tlqe0hbqpl","one_one","1","indirect_first","0","le07as20","0","24","1","1","3","1","","0","1","0","null","","","<div style=""font-size:60px;"">+</div>","null","","","","","","","","","",""
"","html-keyboard-response","160","628047","0.0-10.0-1.1","tlqe0hbqpl","one_one","1","indirect_first","0","le07as20","0","24","1","1","3","1","","0","1","0","null","","","<img src = 'category2/men.png' width = '100%;'>","null","","","","","","","","","",""
"","html-keyboard-response","161","628300","0.0-10.0-2.1","tlqe0hbqpl","one_one","1","indirect_first","0","le07as20","0","24","1","1","3","1","","0","1","0","null","","","<img src = 'targets/17.png' width = '100%;'>","null","","","","","","","","","",""
"","html-keyboard-response","162","629295","0.0-10.0-3.1","tlqe0hbqpl","one_one","1","indirect_first","0","le07as20","0","24","1","1","3","1","","0","1","0","992.2800000058487","","","<img src = 'targets/mask.png' width = '100%;'>","68","pos","GS","abstract","2","category2/men.png","targets/17.png","0","indirect","17",""
"","html-keyboard-response","163","630799","0.0-10.0-0.2","tlqe0hbqpl","one_one","1","indirect_first","0","le07as20","0","24","1","1","3","1","","0","1","0","null","","","<div style=""font-size:60px;"">+</div>","null","","","","","","","","","",""
"","html-keyboard-response","164","630893","0.0-10.0-1.2","tlqe0hbqpl","one_one","1","indirect_first","0","le07as20","0","24","1","1","3","1","","0","1","0","null","","","<img src = 'category1/GS3.png' width = '100%;'>","null","","","","","","","","","",""
"","html-keyboard-response","165","631148","0.0-10.0-2.2","tlqe0hbqpl","one_one","1","indirect_first","0","le07as20","0","24","1","1","3","1","","0","1","0","null","","","<img src = 'targets/42.png' width = '100%;'>","null","","","","","","","","","",""
"","html-keyboard-response","166","633487","0.0-10.0-3.2","tlqe0hbqpl","one_one","1","indirect_first","0","le07as20","0","24","1","1","3","1","","0","1","0","2333.2949999603443","","","<img src = 'targets/mask.png' width = '100%;'>","68","pos","GS","GSnew","1","category1/GS3.png","targets/42.png","0","indirect","18",""
"","html-keyboard-response","167","634990","0.0-10.0-0.3","tlqe0hbqpl","one_one","1","indirect_first","0","le07as20","0","24","1","1","3","1","","0","1","0","null","","","<div style=""font-size:60px;"">+</div>","null","","","","","","","","","",""
"","html-keyboard-response","168","635084","0.0-10.0-1.3","tlqe0hbqpl","one_one","1","indirect_first","0","le07as20","0","24","1","1","3","1","","0","1","0","null","","","<img src = 'category1/GS1.png' width = '100%;'>","null","","","","","","","","","",""
"","html-keyboard-response","169","635340","0.0-10.0-2.3","tlqe0hbqpl","one_one","1","indirect_first","0","le07as20","0","24","1","1","3","1","","0","1","0","null","","","<img src = 'targets/37.png' width = '100%;'>","null","","","","","","","","","",""
"","html-keyboard-response","170","636021","0.0-10.0-3.3","tlqe0hbqpl","one_one","1","indirect_first","0","le07as20","0","24","1","1","3","1","","0","1","0","677.5350000243634","","","<img src = 'targets/mask.png' width = '100%;'>","68","pos","GS","GSnew","1","category1/GS1.png","targets/37.png","0","indirect","19",""
"","html-keyboard-response","171","637525","0.0-10.0-0.4","tlqe0hbqpl","one_one","1","indirect_first","0","le07as20","0","24","1","1","3","1","","0","1","0","null","","","<div style=""font-size:60px;"">+</div>","null","","","","","","","","","",""
"","html-keyboard-response","172","637619","0.0-10.0-1.4","tlqe0hbqpl","one_one","1","indirect_first","0","le07as20","0","24","1","1","3","1","","0","1","0","null","","","<img src = 'category3/GS3.png' width = '100%;'>","null","","","","","","","","","",""
"","html-keyboard-response","173","637874","0.0-10.0-2.4","tlqe0hbqpl","one_one","1","indirect_first","0","le07as20","0","24","1","1","3","1","","0","1","0","null","","","<img src = 'targets/13.png' width = '100%;'>","null","","","","","","","","","",""
"","html-keyboard-response","174","638600","0.0-10.0-3.4","tlqe0hbqpl","one_one","1","indirect_first","0","le07as20","0","24","1","1","3","1","","0","1","0","723.0649999692105","","","<img src = 'targets/mask.png' width = '100%;'>","75","neg","GS","GSnew","3","category3/GS3.png","targets/13.png","1","indirect","20",""
"","html-keyboard-response","175","640104","0.0-10.0-0.5","tlqe0hbqpl","one_one","1","indirect_first","0","le07as20","0","24","1","1","3","1","","0","1","0","null","","","<div style=""font-size:60px;"">+</div>","null","","","","","","","","","",""
"","html-keyboard-response","176","640198","0.0-10.0-1.5","tlqe0hbqpl","one_one","1","indirect_first","0","le07as20","0","24","1","1","3","1","","0","1","0","null","","","<img src = 'category3/GS1.png' width = '100%;'>","null","","","","","","","","","",""
"","html-keyboard-response","177","640451","0.0-10.0-2.5","tlqe0hbqpl","one_one","1","indirect_first","0","le07as20","0","24","1","1","3","1","","0","1","0","null","","","<img src = 'targets/22.png' width = '100%;'>","null","","","","","","","","","",""
"","html-keyboard-response","178","641061","0.0-10.0-3.5","tlqe0hbqpl","one_one","1","indirect_first","0","le07as20","0","24","1","1","3","1","","0","1","0","606.6750000463799","","","<img src = 'targets/mask.png' width = '100%;'>","75","neg","GS","GSnew","3","category3/GS1.png","targets/22.png","1","indirect","21",""
"","html-keyboard-response","179","642564","0.0-10.0-0.6","tlqe0hbqpl","one_one","1","indirect_first","0","le07as20","0","24","1","1","3","1","","0","1","0","null","","","<div style=""font-size:60px;"">+</div>","null","","","","","","","","","",""
"","html-keyboard-response","180","642658","0.0-10.0-1.6","tlqe0hbqpl","one_one","1","indirect_first","0","le07as20","0","24","1","1","3","1","","0","1","0","null","","","<img src = 'category4/GS1.png' width = '100%;'>","null","","","","","","","","","",""
"","html-keyboard-response","181","642912","0.0-10.0-2.6","tlqe0hbqpl","one_one","1","indirect_first","0","le07as20","0","24","1","1","3","1","","0","1","0","null","","","<img src = 'targets/4.png' width = '100%;'>","null","","","","","","","","","",""
"","html-keyboard-response","182","643615","0.0-10.0-3.6","tlqe0hbqpl","one_one","1","indirect_first","0","le07as20","0","24","1","1","3","1","","0","1","0","699.0249999798834","","","<img src = 'targets/mask.png' width = '100%;'>","68","neg","GS","GSnew","4","category4/GS1.png","targets/4.png","0","indirect","22",""
"","html-keyboard-response","183","645119","0.0-10.0-0.7","tlqe0hbqpl","one_one","1","indirect_first","0","le07as20","0","24","1","1","3","1","","0","1","0","null","","","<div style=""font-size:60px;"">+</div>","null","","","","","","","","","",""
"","html-keyboard-response","184","645213","0.0-10.0-1.7","tlqe0hbqpl","one_one","1","indirect_first","0","le07as20","0","24","1","1","3","1","","0","1","0","null","","","<img src = 'category4/GS3.png' width = '100%;'>","null","","","","","","","","","",""
"","html-keyboard-response","185","645469","0.0-10.0-2.7","tlqe0hbqpl","one_one","1","indirect_first","0","le07as20","0","24","1","1","3","1","","0","1","0","null","","","<img src = 'targets/12.png' width = '100%;'>","null","","","","","","","","","",""
"","html-keyboard-response","186","646927","0.0-10.0-3.7","tlqe0hbqpl","one_one","1","indirect_first","0","le07as20","0","24","1","1","3","1","","0","1","0","1453.4800000255927","","","<img src = 'targets/mask.png' width = '100%;'>","75","neg","GS","GSnew","4","category4/GS3.png","targets/12.png","1","indirect","23",""
"","html-keyboard-response","187","648430","0.0-10.0-0.8","tlqe0hbqpl","one_one","1","indirect_first","0","le07as20","0","24","1","1","3","1","","0","1","0","null","","","<div style=""font-size:60px;"">+</div>","null","","","","","","","","","",""
"","html-keyboard-response","188","648522","0.0-10.0-1.8","tlqe0hbqpl","one_one","1","indirect_first","0","le07as20","0","24","1","1","3","1","","0","1","0","null","","","<img src = 'category4/lin.png' width = '100%;'>","null","","","","","","","","","",""
"","html-keyboard-response","189","648776","0.0-10.0-2.8","tlqe0hbqpl","one_one","1","indirect_first","0","le07as20","0","24","1","1","3","1","","0","1","0","null","","","<img src = 'targets/1.png' width = '100%;'>","null","","","","","","","","","",""
"","html-keyboard-response","190","649401","0.0-10.0-3.8","tlqe0hbqpl","one_one","1","indirect_first","0","le07as20","0","24","1","1","3","1","","0","1","0","622.304999968037","","","<img src = 'targets/mask.png' width = '100%;'>","75","neg","GS","abstract","4","category4/lin.png","targets/1.png","1","indirect","24",""
"","html-keyboard-response","191","650905","0.0-10.0-0.9","tlqe0hbqpl","one_one","1","indirect_first","0","le07as20","0","24","1","1","3","1","","0","1","0","null","","","<div style=""font-size:60px;"">+</div>","null","","","","","","","","","",""
"","html-keyboard-response","192","650997","0.0-10.0-1.9","tlqe0hbqpl","one_one","1","indirect_first","0","le07as20","0","24","1","1","3","1","","0","1","0","null","","","<img src = 'category2/GS1.png' width = '100%;'>","null","","","","","","","","","",""
"","html-keyboard-response","193","651252","0.0-10.0-2.9","tlqe0hbqpl","one_one","1","indirect_first","0","le07as20","0","24","1","1","3","1","","0","1","0","null","","","<img src = 'targets/24.png' width = '100%;'>","null","","","","","","","","","",""
"","html-keyboard-response","194","652246","0.0-10.0-3.9","tlqe0hbqpl","one_one","1","indirect_first","0","le07as20","0","24","1","1","3","1","","0","1","0","992.2050000168383","","","<img src = 'targets/mask.png' width = '100%;'>","68","pos","GS","GSnew","2","category2/GS1.png","targets/24.png","0","indirect","25",""
"","html-keyboard-response","195","653751","0.0-10.0-0.10","tlqe0hbqpl","one_one","1","indirect_first","0","le07as20","0","24","1","1","3","1","","0","1","0","null","","","<div style=""font-size:60px;"">+</div>","null","","","","","","","","","",""
"","html-keyboard-response","196","653845","0.0-10.0-1.10","tlqe0hbqpl","one_one","1","indirect_first","0","le07as20","0","24","1","1","3","1","","0","1","0","null","","","<img src = 'category2/GS3.png' width = '100%;'>","null","","","","","","","","","",""
"","html-keyboard-response","197","654100","0.0-10.0-2.10","tlqe0hbqpl","one_one","1","indirect_first","0","le07as20","0","24","1","1","3","1","","0","1","0","null","","","<img src = 'targets/20.png' width = '100%;'>","null","","","","","","","","","",""
"","html-keyboard-response","198","656054","0.0-10.0-3.10","tlqe0hbqpl","one_one","1","indirect_first","0","le07as20","0","24","1","1","3","1","","0","1","0","1951.4300000155345","","","<img src = 'targets/mask.png' width = '100%;'>","68","pos","GS","GSnew","2","category2/GS3.png","targets/20.png","0","indirect","26",""
"","html-keyboard-response","199","657559","0.0-10.0-0.11","tlqe0hbqpl","one_one","1","indirect_first","0","le07as20","0","24","1","1","3","1","","0","1","0","null","","","<div style=""font-size:60px;"">+</div>","null","","","","","","","","","",""
"","html-keyboard-response","200","657652","0.0-10.0-1.11","tlqe0hbqpl","one_one","1","indirect_first","0","le07as20","0","24","1","1","3","1","","0","1","0","null","","","<img src = 'category3/wang.png' width = '100%;'>","null","","","","","","","","","",""
"","html-keyboard-response","201","657905","0.0-10.0-2.11","tlqe0hbqpl","one_one","1","indirect_first","0","le07as20","0","24","1","1","3","1","","0","1","0","null","","","<img src = 'targets/14.png' width = '100%;'>","null","","","","","","","","","",""
"","html-keyboard-response","202","659206","0.0-10.0-3.11","tlqe0hbqpl","one_one","1","indirect_first","0","le07as20","0","24","1","1","3","1","","0","1","0","1296.8500000424683","","","<img src = 'targets/mask.png' width = '100%;'>","68","neg","GS","abstract","3","category3/wang.png","targets/14.png","0","indirect","27",""
"","html-keyboard-response","203","660712","0.0-10.0-0.12","tlqe0hbqpl","one_one","1","indirect_first","0","le07as20","0","24","1","1","3","1","","0","1","0","null","","","<div style=""font-size:60px;"">+</div>","null","","","","","","","","","",""
"","html-keyboard-response","204","660805","0.0-10.0-1.12","tlqe0hbqpl","one_one","1","indirect_first","0","le07as20","0","24","1","1","3","1","","0","1","0","null","","","<img src = 'category1/ma.png' width = '100%;'>","null","","","","","","","","","",""
"","html-keyboard-response","205","661061","0.0-10.0-2.12","tlqe0hbqpl","one_one","1","indirect_first","0","le07as20","0","24","1","1","3","1","","0","1","0","null","","","<img src = 'targets/46.png' width = '100%;'>","null","","","","","","","","","",""
"","html-keyboard-response","206","661704","0.0-10.0-3.12","tlqe0hbqpl","one_one","1","indirect_first","0","le07as20","0","24","1","1","3","1","","0","1","0","640.4350000084378","","","<img src = 'targets/mask.png' width = '100%;'>","75","pos","GS","abstract","1","category1/ma.png","targets/46.png","1","indirect","28",""
"","html-keyboard-response","207","663209","0.0-10.0-0.13","tlqe0hbqpl","one_one","1","indirect_first","0","le07as20","0","24","1","1","3","1","","0","1","0","null","","","<div style=""font-size:60px;"">+</div>","null","","","","","","","","","",""
"","html-keyboard-response","208","663302","0.0-10.0-1.13","tlqe0hbqpl","one_one","1","indirect_first","0","le07as20","0","24","1","1","3","1","","0","1","0","null","","","<img src = 'category3/GS2.png' width = '100%;'>","null","","","","","","","","","",""
"","html-keyboard-response","209","663556","0.0-10.0-2.13","tlqe0hbqpl","one_one","1","indirect_first","0","le07as20","0","24","1","1","3","1","","0","1","0","null","","","<img src = 'targets/30.png' width = '100%;'>","null","","","","","","","","","",""
"","html-keyboard-response","210","664111","0.0-10.0-3.13","tlqe0hbqpl","one_one","1","indirect_first","0","le07as20","0","24","1","1","3","1","","0","1","0","550.1050000311807","","","<img src = 'targets/mask.png' width = '100%;'>","75","neg","GS","GSnew","3","category3/GS2.png","targets/30.png","1","indirect","29",""
"","html-keyboard-response","211","665616","0.0-10.0-0.14","tlqe0hbqpl","one_one","1","indirect_first","0","le07as20","0","24","1","1","3","1","","0","1","0","null","","","<div style=""font-size:60px;"">+</div>","null","","","","","","","","","",""
"","html-keyboard-response","212","665709","0.0-10.0-1.14","tlqe0hbqpl","one_one","1","indirect_first","0","le07as20","0","24","1","1","3","1","","0","1","0","null","","","<img src = 'category4/GS2.png' width = '100%;'>","null","","","","","","","","","",""
"","html-keyboard-response","213","665964","0.0-10.0-2.14","tlqe0hbqpl","one_one","1","indirect_first","0","le07as20","0","24","1","1","3","1","","0","1","0","null","","","<img src = 'targets/29.png' width = '100%;'>","null","","","","","","","","","",""
"","html-keyboard-response","214","667843","0.0-10.0-3.14","tlqe0hbqpl","one_one","1","indirect_first","0","le07as20","0","24","1","1","3","1","","0","1","0","1875.5550000350922","","","<img src = 'targets/mask.png' width = '100%;'>","75","neg","GS","GSnew","4","category4/GS2.png","targets/29.png","1","indirect","30",""
"","html-keyboard-response","215","669346","0.0-10.0-0.15","tlqe0hbqpl","one_one","1","indirect_first","0","le07as20","0","24","1","1","3","1","","0","1","0","null","","","<div style=""font-size:60px;"">+</div>","null","","","","","","","","","",""
"","html-keyboard-response","216","669440","0.0-10.0-1.15","tlqe0hbqpl","one_one","1","indirect_first","0","le07as20","0","24","1","1","3","1","","0","1","0","null","","","<img src = 'category1/GS2.png' width = '100%;'>","null","","","","","","","","","",""
"","html-keyboard-response","217","669696","0.0-10.0-2.15","tlqe0hbqpl","one_one","1","indirect_first","0","le07as20","0","24","1","1","3","1","","0","1","0","null","","","<img src = 'targets/32.png' width = '100%;'>","null","","","","","","","","","",""
"","html-keyboard-response","218","672216","0.0-10.0-3.15","tlqe0hbqpl","one_one","1","indirect_first","0","le07as20","0","24","1","1","3","1","","0","1","0","2515.2699999744073","","","<img src = 'targets/mask.png' width = '100%;'>","68","pos","GS","GSnew","1","category1/GS2.png","targets/32.png","0","indirect","31",""
"","survey-html-form","219","688708","0.0-11.0","tlqe0hbqpl","one_one","1","indirect_first","0","le07as20","0","24","1","1","3","1","","0","1","0","15988.925000012387","","{}","","","","","","","","","","","",""
"","image-slider-response","220","696863","0.0-12.0-0.0","tlqe0hbqpl","one_one","1","indirect_first","0","le07as20","0","24","1","1","3","1","","0","1","0","6146.820000023581","","","","","neg","GS","GSold","4","category4/CS8.png","targets/33.png","","direct","","-29"
"","image-slider-response","221","700343","0.0-12.0-0.1","tlqe0hbqpl","one_one","1","indirect_first","0","le07as20","0","24","1","1","3","1","","0","1","0","3472.409999987576","","","","","pos","GS","GSnew","1","category1/GS3.png","targets/42.png","","direct","","-13"
"","image-slider-response","222","704068","0.0-12.0-0.2","tlqe0hbqpl","one_one","1","indirect_first","0","le07as20","0","24","1","1","3","1","","0","1","0","3720.939999970142","","","","","pos","GS","GSold","1","category1/CS8.png","targets/7.png","","direct","","57"
"","image-slider-response","223","709117","0.0-12.0-0.3","tlqe0hbqpl","one_one","1","indirect_first","0","le07as20","0","24","1","1","3","1","","0","1","0","5044.494999980088","","","","","neg","GS","GSnew","4","category4/GS3.png","targets/12.png","","direct","","-47"
"","image-slider-response","224","712478","0.0-12.0-0.4","tlqe0hbqpl","one_one","1","indirect_first","0","le07as20","0","24","1","1","3","1","","0","1","0","3356.8949999753386","","","","","pos","GS","abstract","1","category1/ma.png","targets/46.png","","direct","","-67"
"","image-slider-response","225","715701","0.0-12.0-0.5","tlqe0hbqpl","one_one","1","indirect_first","0","le07as20","0","24","1","1","3","1","","0","1","0","3218.4499999857508","","","","","neg","GS","GSold","4","category4/CS6.png","targets/43.png","","direct","","51"
"","image-slider-response","226","718127","0.0-12.0-0.6","tlqe0hbqpl","one_one","1","indirect_first","0","le07as20","0","24","1","1","3","1","","0","1","0","2419.3100000265986","","","","","pos","GS","GSnew","2","category2/GS1.png","targets/24.png","","direct","","11"
"","image-slider-response","227","721135","0.0-12.0-0.7","tlqe0hbqpl","one_one","1","indirect_first","0","le07as20","0","24","1","1","3","1","","0","1","0","3003.3800000092015","","","","","pos","GS","GSold","1","category1/CS6.png","targets/31.png","","direct","","-33"
"","image-slider-response","228","723671","0.0-12.0-0.8","tlqe0hbqpl","one_one","1","indirect_first","0","le07as20","0","24","1","1","3","1","","0","1","0","2530.330000037793","","","","","pos","GS","GSnew","2","category2/GS3.png","targets/20.png","","direct","","-44"
"","image-slider-response","229","728527","0.0-12.0-0.9","tlqe0hbqpl","one_one","1","indirect_first","0","le07as20","0","24","1","1","3","1","","0","1","0","4852.034999988973","","","","","neg","GS","abstract","3","category3/wang.png","targets/14.png","","direct","","6"
"","image-slider-response","230","731814","0.0-12.0-0.10","tlqe0hbqpl","one_one","1","indirect_first","0","le07as20","0","24","1","1","3","1","","0","1","0","3282.8650000155903","","","","","neg","GS","GSold","4","category4/CS7.png","targets/11.png","","direct","","52"
"","image-slider-response","231","733687","0.0-12.0-0.11","tlqe0hbqpl","one_one","1","indirect_first","0","le07as20","0","24","1","1","3","1","","0","1","0","1866.2200000253506","","","","","neg","GS","abstract","4","category4/lin.png","targets/1.png","","direct","","-30"
"","image-slider-response","232","737716","0.0-12.0-0.12","tlqe0hbqpl","one_one","1","indirect_first","0","le07as20","0","24","1","1","3","1","","0","1","0","4025.9749999968335","","","","","neg","GS","GSold","3","category3/CS8.png","targets/9.png","","direct","","50"
"","image-slider-response","233","740809","0.0-12.0-0.13","tlqe0hbqpl","one_one","1","indirect_first","0","le07as20","0","24","1","1","3","1","","0","1","0","3089.304999972228","","","","","pos","CS","CS","2","category2/CS5.png","targets/26.png","","direct","","47"
"","image-slider-response","234","743356","0.0-12.0-0.14","tlqe0hbqpl","one_one","1","indirect_first","0","le07as20","0","24","1","1","3","1","","0","1","0","2542.394999996759","","","","","neg","GS","GSold","3","category3/CS10.png","targets/45.png","","direct","","32"
"","image-slider-response","235","745868","0.0-12.0-0.15","tlqe0hbqpl","one_one","1","indirect_first","0","le07as20","0","24","1","1","3","1","","0","1","0","2508.819999988191","","","","","pos","GS","GSold","2","category2/CS10.png","targets/41.png","","direct","","46"
"","image-slider-response","236","747982","0.0-12.0-0.16","tlqe0hbqpl","one_one","1","indirect_first","0","le07as20","0","24","1","1","3","1","","0","1","0","2108.520000008866","","","","","pos","GS","GSnew","1","category1/GS2.png","targets/32.png","","direct","","-45"
"","image-slider-response","237","750088","0.0-12.0-0.17","tlqe0hbqpl","one_one","1","indirect_first","0","le07as20","0","24","1","1","3","1","","0","1","0","2103.2450000056997","","","","","neg","GS","GSnew","3","category3/GS3.png","targets/13.png","","direct","","-38"
"","image-slider-response","238","755133","0.0-12.0-0.18","tlqe0hbqpl","one_one","1","indirect_first","0","le07as20","0","24","1","1","3","1","","0","1","0","5040.169999992941","","","","","neg","GS","GSold","3","category3/CS7.png","targets/8.png","","direct","","-15"
"","image-slider-response","239","757495","0.0-12.0-0.19","tlqe0hbqpl","one_one","1","indirect_first","0","le07as20","0","24","1","1","3","1","","0","1","0","2358.2550000282936","","","","","pos","GS","GSnew","1","category1/GS1.png","targets/37.png","","direct","","-37"
"","image-slider-response","240","759778","0.0-12.0-0.20","tlqe0hbqpl","one_one","1","indirect_first","0","le07as20","0","24","1","1","3","1","","0","1","0","2279.114999982994","","","","","pos","CS","CS","1","category1/CS4.png","targets/28.png","","direct","","30"
"","image-slider-response","241","761965","0.0-12.0-0.21","tlqe0hbqpl","one_one","1","indirect_first","0","le07as20","0","24","1","1","3","1","","0","1","0","2182.904999994207","","","","","neg","GS","GSnew","3","category3/GS1.png","targets/22.png","","direct","","24"
"","image-slider-response","242","764105","0.0-12.0-0.22","tlqe0hbqpl","one_one","1","indirect_first","0","le07as20","0","24","1","1","3","1","","0","1","0","2136.720000009518","","","","","pos","GS","GSold","2","category2/CS2.png","targets/40.png","","direct","","46"
"","image-slider-response","243","766408","0.0-12.0-0.23","tlqe0hbqpl","one_one","1","indirect_first","0","le07as20","0","24","1","1","3","1","","0","1","0","2300.2400000113994","","","","","neg","CS","CS","4","category4/CS5.png","targets/39.png","","direct","","8"
"","image-slider-response","244","768657","0.0-12.0-0.24","tlqe0hbqpl","one_one","1","indirect_first","0","le07as20","0","24","1","1","3","1","","0","1","0","2245.9099999978207","","","","","neg","GS","GSnew","3","category3/GS2.png","targets/30.png","","direct","","-28"
"","image-slider-response","245","770651","0.0-12.0-0.25","tlqe0hbqpl","one_one","1","indirect_first","0","le07as20","0","24","1","1","3","1","","0","1","0","1990.0950000155717","","","","","pos","GS","abstract","2","category2/men.png","targets/17.png","","direct","","-36"
"","image-slider-response","246","772884","0.0-12.0-0.26","tlqe0hbqpl","one_one","1","indirect_first","0","le07as20","0","24","1","1","3","1","","0","1","0","2227.8299999888986","","","","","neg","GS","GSnew","4","category4/GS2.png","targets/29.png","","direct","","22"
"","image-slider-response","247","774803","0.0-12.0-0.27","tlqe0hbqpl","one_one","1","indirect_first","0","le07as20","0","24","1","1","3","1","","0","1","0","1912.3649999964982","","","","","pos","GS","GSnew","2","category2/GS2.png","targets/10.png","","direct","","-34"
"","image-slider-response","248","776747","0.0-12.0-0.28","tlqe0hbqpl","one_one","1","indirect_first","0","le07as20","0","24","1","1","3","1","","0","1","0","1939.1699999687262","","","","","pos","GS","GSold","1","category1/CS5.png","targets/5.png","","direct","","47"
"","image-slider-response","249","779033","0.0-12.0-0.29","tlqe0hbqpl","one_one","1","indirect_first","0","le07as20","0","24","1","1","3","1","","0","1","0","2281.585000047926","","","","","pos","GS","GSold","2","category2/CS4.png","targets/48.png","","direct","","43"
"","image-slider-response","250","780962","0.0-12.0-0.30","tlqe0hbqpl","one_one","1","indirect_first","0","le07as20","0","24","1","1","3","1","","0","1","0","1925.1449999865144","","","","","neg","GS","GSnew","4","category4/GS1.png","targets/4.png","","direct","","-45"
"","image-slider-response","251","783395","0.0-12.0-0.31","tlqe0hbqpl","one_one","1","indirect_first","0","le07as20","0","24","1","1","3","1","","0","1","0","2428.1000000191852","","","","","neg","CS","CS","3","category3/CS6.png","targets/19.png","","direct","","28"
"","survey-html-form","252","789540","0.0-13.0","tlqe0hbqpl","one_one","1","indirect_first","0","le07as20","0","24","1","1","3","1","","0","1","0","6141.500000027008","","{}","","","","","","","","","","","",""
"","image-slider-response","253","795667","0.0-14.0-0.0","tlqe0hbqpl","one_one","1","indirect_first","0","le07as20","0","24","1","1","3","1","","0","1","0","5119.279999984428","","","","","pos","All","all","1","category1/ma_all.png","","","all","","19"
"","image-slider-response","254","797904","0.0-14.0-0.1","tlqe0hbqpl","one_one","1","indirect_first","0","le07as20","0","24","1","1","3","1","","0","1","0","2231.3800000119954","","","","","neg","All","all","3","category3/wang_all.png","","","all","","10"
"","image-slider-response","255","801183","0.0-14.0-0.2","tlqe0hbqpl","one_one","1","indirect_first","0","le07as20","0","24","1","1","3","1","","0","1","0","3274.074999964796","","","","","neg","All","all","4","category4/lin_all.png","","","all","","-24"
"","image-slider-response","256","804938","0.0-14.0-0.3","tlqe0hbqpl","one_one","1","indirect_first","0","le07as20","0","24","1","1","3","1","","0","1","0","3751.059999980498","","","","","pos","All","all","2","category2/men_all.png","","","all","","29"
"","survey-text","257","816892","0.0-15.0","tlqe0hbqpl","one_one","1","indirect_first","0","le07as20","0","24","1","1","3","1","","0","1","0","11872.099999978673","","{""comment"":""""}","","","","","","","","","","","",""
"","survey-html-form","258","830073","0.0-16.0","tlqe0hbqpl","one_one","1","indirect_first","0","le07as20","0","24","1","1","3","1","","0","1","0","13172.959999996237","","{""hinschauen"":""0"",""ablenkung"":""1"",""gewissenhaft"":""0""}","","","","","","","","","","","",""
