"success","trial_type","trial_index","time_elapsed","internal_node_id","subject","condition","condition_code","measure","measure_code","codeword","gender","age","education","chinese","fach","handedness","comment","hinschauen","ablenkung","gewissenhaft","rt","url","responses","stimulus","key_press","val","type","type_specific","category","cs_selected","response","target","task","indirect","nr_pres"
"true","fullscreen","0","5948","0.0-0.0","l7n9aszzdf","many_one","0","direct_first","1","ll08ar27","3","27","1","1","2","1","","0","1","0","","","","","","","","","","","","","","",""
"","external-html","1","25330","0.0-1.0","l7n9aszzdf","many_one","0","direct_first","1","ll08ar27","3","27","1","1","2","1","","0","1","0","19317","text/information.html","","","","","","","","","","","","",""
"","external-html","2","39794","0.0-2.0","l7n9aszzdf","many_one","0","direct_first","1","ll08ar27","3","27","1","1","2","1","","0","1","0","14337","text/consent.html","","","","","","","","","","","","",""
"","survey-html-form","3","755745","0.0-3.0","l7n9aszzdf","many_one","0","direct_first","1","ll08ar27","3","27","1","1","2","1","","0","1","0","715941","","{""codeword_enter"":""ll08ar27""}","","","","","","","","","","","",""
"","survey-html-form","4","773624","0.0-4.0","l7n9aszzdf","many_one","0","direct_first","1","ll08ar27","3","27","1","1","2","1","","0","1","0","17869","","{""age"":""27"",""education"":""1"",""subject"":""2"",""gender"":""3"",""handedness"":""1"",""chinese"":""1""}","","","","","","","","","","","",""
"","survey-html-form","5","786182","0.0-5.0","l7n9aszzdf","many_one","0","direct_first","1","ll08ar27","3","27","1","1","2","1","","0","1","0","12554","","{}","","","","","","","","","","","",""
"","html-keyboard-response","6","790192","0.0-6.0-0.0-0.0","l7n9aszzdf","many_one","0","direct_first","1","ll08ar27","3","27","1","1","2","1","","0","1","0","null","","","<div class = 'row'><div class = 'column'><img src = 'uspos/1460.bmp' width = '100%;'></div><div class = 'column'><img src = 'category2/CS2.png' width = '70%;'></div></div>","null","pos","CS","CS","2","category2/CS2.png","","","","",""
"","html-keyboard-response","7","792699","0.0-6.0-0.0-0.1","l7n9aszzdf","many_one","0","direct_first","1","ll08ar27","3","27","1","1","2","1","","0","1","0","null","","","<div class = 'row'><div class = 'column'><img src = 'category3/CS10.png' width = '70%;'></div><div class = 'column'><img src = 'usneg/9435.bmp' width = '100%;'></div></div>","null","neg","CS","CS","3","category3/CS10.png","","","","",""
"","html-keyboard-response","8","795202","0.0-6.0-0.0-0.2","l7n9aszzdf","many_one","0","direct_first","1","ll08ar27","3","27","1","1","2","1","","0","1","0","null","","","<div class = 'row'><div class = 'column'><img src = 'category4/CS10.png' width = '70%;'></div><div class = 'column'><img src = 'uspos/2040.bmp' width = '100%;'></div></div>","null","pos","CS","CS","4","category4/CS10.png","","","","",""
"","html-keyboard-response","9","797706","0.0-6.0-0.0-0.3","l7n9aszzdf","many_one","0","direct_first","1","ll08ar27","3","27","1","1","2","1","","0","1","0","null","","","<div class = 'row'><div class = 'column'><img src = 'category1/CS8.png' width = '70%;'></div><div class = 'column'><img src = 'usneg/3160.bmp' width = '100%;'></div></div>","null","neg","CS","CS","1","category1/CS8.png","","","","",""
"","html-keyboard-response","10","800210","0.0-6.0-0.0-0.4","l7n9aszzdf","many_one","0","direct_first","1","ll08ar27","3","27","1","1","2","1","","0","1","0","null","","","<div class = 'row'><div class = 'column'><img src = 'category4/CS3.png' width = '70%;'></div><div class = 'column'><img src = 'uspos/1340.bmp' width = '100%;'></div></div>","null","pos","CS","CS","4","category4/CS3.png","","","","",""
"","html-keyboard-response","11","802713","0.0-6.0-0.0-0.5","l7n9aszzdf","many_one","0","direct_first","1","ll08ar27","3","27","1","1","2","1","","0","1","0","null","","","<div class = 'row'><div class = 'column'><img src = 'category2/CS8.png' width = '70%;'></div><div class = 'column'><img src = 'uspos/2311.bmp' width = '100%;'></div></div>","null","pos","CS","CS","2","category2/CS8.png","","","","",""
"","html-keyboard-response","12","805215","0.0-6.0-0.0-0.6","l7n9aszzdf","many_one","0","direct_first","1","ll08ar27","3","27","1","1","2","1","","0","1","0","null","","","<div class = 'row'><div class = 'column'><img src = 'category3/CS9.png' width = '70%;'></div><div class = 'column'><img src = 'usneg/2900.bmp' width = '100%;'></div></div>","null","neg","CS","CS","3","category3/CS9.png","","","","",""
"","html-keyboard-response","13","807719","0.0-6.0-0.0-0.7","l7n9aszzdf","many_one","0","direct_first","1","ll08ar27","3","27","1","1","2","1","","0","1","0","null","","","<div class = 'row'><div class = 'column'><img src = 'category1/CS4.png' width = '70%;'></div><div class = 'column'><img src = 'usneg/9340.bmp' width = '100%;'></div></div>","null","neg","CS","CS","1","category1/CS4.png","","","","",""
"","html-keyboard-response","14","810223","0.0-6.0-0.0-0.8","l7n9aszzdf","many_one","0","direct_first","1","ll08ar27","3","27","1","1","2","1","","0","1","0","null","","","<div class = 'row'><div class = 'column'><img src = 'usneg/9584.bmp' width = '100%;'></div><div class = 'column'><img src = 'category3/CS5.png' width = '70%;'></div></div>","null","neg","CS","CS","3","category3/CS5.png","","","","",""
"","html-keyboard-response","15","812726","0.0-6.0-0.0-0.9","l7n9aszzdf","many_one","0","direct_first","1","ll08ar27","3","27","1","1","2","1","","0","1","0","null","","","<div class = 'row'><div class = 'column'><img src = 'uspos/8461.bmp' width = '100%;'></div><div class = 'column'><img src = 'category4/CS4.png' width = '70%;'></div></div>","null","pos","CS","CS","4","category4/CS4.png","","","","",""
"","html-keyboard-response","16","815231","0.0-6.0-0.0-0.10","l7n9aszzdf","many_one","0","direct_first","1","ll08ar27","3","27","1","1","2","1","","0","1","0","null","","","<div class = 'row'><div class = 'column'><img src = 'category4/CS9.png' width = '70%;'></div><div class = 'column'><img src = 'uspos/1440.bmp' width = '100%;'></div></div>","null","pos","CS","CS","4","category4/CS9.png","","","","",""
"","html-keyboard-response","17","817733","0.0-6.0-0.0-0.11","l7n9aszzdf","many_one","0","direct_first","1","ll08ar27","3","27","1","1","2","1","","0","1","0","null","","","<div class = 'row'><div class = 'column'><img src = 'category2/CS9.png' width = '70%;'></div><div class = 'column'><img src = 'uspos/5600.bmp' width = '100%;'></div></div>","null","pos","CS","CS","2","category2/CS9.png","","","","",""
"","html-keyboard-response","18","820235","0.0-6.0-0.0-0.12","l7n9aszzdf","many_one","0","direct_first","1","ll08ar27","3","27","1","1","2","1","","0","1","0","null","","","<div class = 'row'><div class = 'column'><img src = 'category3/CS8.png' width = '70%;'></div><div class = 'column'><img src = 'usneg/9560.bmp' width = '100%;'></div></div>","null","neg","CS","CS","3","category3/CS8.png","","","","",""
"","html-keyboard-response","19","822738","0.0-6.0-0.0-0.13","l7n9aszzdf","many_one","0","direct_first","1","ll08ar27","3","27","1","1","2","1","","0","1","0","null","","","<div class = 'row'><div class = 'column'><img src = 'usneg/9181.bmp' width = '100%;'></div><div class = 'column'><img src = 'category1/CS6.png' width = '70%;'></div></div>","null","neg","CS","CS","1","category1/CS6.png","","","","",""
"","html-keyboard-response","20","825241","0.0-6.0-0.0-0.14","l7n9aszzdf","many_one","0","direct_first","1","ll08ar27","3","27","1","1","2","1","","0","1","0","null","","","<div class = 'row'><div class = 'column'><img src = 'uspos/2550.bmp' width = '100%;'></div><div class = 'column'><img src = 'category4/CS7.png' width = '70%;'></div></div>","null","pos","CS","CS","4","category4/CS7.png","","","","",""
"","html-keyboard-response","21","827745","0.0-6.0-0.0-0.15","l7n9aszzdf","many_one","0","direct_first","1","ll08ar27","3","27","1","1","2","1","","0","1","0","null","","","<div class = 'row'><div class = 'column'><img src = 'category1/CS5.png' width = '70%;'></div><div class = 'column'><img src = 'usneg/9280.bmp' width = '100%;'></div></div>","null","neg","CS","CS","1","category1/CS5.png","","","","",""
"","html-keyboard-response","22","830249","0.0-6.0-0.0-0.16","l7n9aszzdf","many_one","0","direct_first","1","ll08ar27","3","27","1","1","2","1","","0","1","0","null","","","<div class = 'row'><div class = 'column'><img src = 'category2/CS7.png' width = '70%;'></div><div class = 'column'><img src = 'uspos/8540.bmp' width = '100%;'></div></div>","null","pos","CS","CS","2","category2/CS7.png","","","","",""
"","html-keyboard-response","23","832751","0.0-6.0-0.0-0.17","l7n9aszzdf","many_one","0","direct_first","1","ll08ar27","3","27","1","1","2","1","","0","1","0","null","","","<div class = 'row'><div class = 'column'><img src = 'usneg/6020.bmp' width = '100%;'></div><div class = 'column'><img src = 'category1/CS3.png' width = '70%;'></div></div>","null","neg","CS","CS","1","category1/CS3.png","","","","",""
"","html-keyboard-response","24","835253","0.0-6.0-0.0-0.18","l7n9aszzdf","many_one","0","direct_first","1","ll08ar27","3","27","1","1","2","1","","0","1","0","null","","","<div class = 'row'><div class = 'column'><img src = 'uspos/2208.bmp' width = '100%;'></div><div class = 'column'><img src = 'category2/CS10.png' width = '70%;'></div></div>","null","pos","CS","CS","2","category2/CS10.png","","","","",""
"","html-keyboard-response","25","837757","0.0-6.0-0.0-0.19","l7n9aszzdf","many_one","0","direct_first","1","ll08ar27","3","27","1","1","2","1","","0","1","0","null","","","<div class = 'row'><div class = 'column'><img src = 'usneg/7380.bmp' width = '100%;'></div><div class = 'column'><img src = 'category3/CS2.png' width = '70%;'></div></div>","null","neg","CS","CS","3","category3/CS2.png","","","","",""
"","survey-html-form","26","840032","0.0-6.0-1.0","l7n9aszzdf","many_one","0","direct_first","1","ll08ar27","3","27","1","1","2","1","","0","1","0","1772","","{}","","","","","","","","","","","",""
"","html-keyboard-response","27","844037","0.0-6.0-2.0-0.0","l7n9aszzdf","many_one","0","direct_first","1","ll08ar27","3","27","1","1","2","1","","0","1","0","null","","","<div class = 'row'><div class = 'column'><img src = 'uspos/1340.bmp' width = '100%;'></div><div class = 'column'><img src = 'category4/CS3.png' width = '70%;'></div></div>","null","pos","CS","CS","4","category4/CS3.png","","","","",""
"","html-keyboard-response","28","846540","0.0-6.0-2.0-0.1","l7n9aszzdf","many_one","0","direct_first","1","ll08ar27","3","27","1","1","2","1","","0","1","0","null","","","<div class = 'row'><div class = 'column'><img src = 'category1/CS3.png' width = '70%;'></div><div class = 'column'><img src = 'usneg/6020.bmp' width = '100%;'></div></div>","null","neg","CS","CS","1","category1/CS3.png","","","","",""
"","html-keyboard-response","29","849042","0.0-6.0-2.0-0.2","l7n9aszzdf","many_one","0","direct_first","1","ll08ar27","3","27","1","1","2","1","","0","1","0","null","","","<div class = 'row'><div class = 'column'><img src = 'uspos/2208.bmp' width = '100%;'></div><div class = 'column'><img src = 'category2/CS10.png' width = '70%;'></div></div>","null","pos","CS","CS","2","category2/CS10.png","","","","",""
"","html-keyboard-response","30","851545","0.0-6.0-2.0-0.3","l7n9aszzdf","many_one","0","direct_first","1","ll08ar27","3","27","1","1","2","1","","0","1","0","null","","","<div class = 'row'><div class = 'column'><img src = 'category1/CS5.png' width = '70%;'></div><div class = 'column'><img src = 'usneg/9280.bmp' width = '100%;'></div></div>","null","neg","CS","CS","1","category1/CS5.png","","","","",""
"","html-keyboard-response","31","854048","0.0-6.0-2.0-0.4","l7n9aszzdf","many_one","0","direct_first","1","ll08ar27","3","27","1","1","2","1","","0","1","0","null","","","<div class = 'row'><div class = 'column'><img src = 'uspos/5600.bmp' width = '100%;'></div><div class = 'column'><img src = 'category2/CS9.png' width = '70%;'></div></div>","null","pos","CS","CS","2","category2/CS9.png","","","","",""
"","html-keyboard-response","32","856550","0.0-6.0-2.0-0.5","l7n9aszzdf","many_one","0","direct_first","1","ll08ar27","3","27","1","1","2","1","","0","1","0","null","","","<div class = 'row'><div class = 'column'><img src = 'usneg/9435.bmp' width = '100%;'></div><div class = 'column'><img src = 'category3/CS10.png' width = '70%;'></div></div>","null","neg","CS","CS","3","category3/CS10.png","","","","",""
"","html-keyboard-response","33","859053","0.0-6.0-2.0-0.6","l7n9aszzdf","many_one","0","direct_first","1","ll08ar27","3","27","1","1","2","1","","0","1","0","null","","","<div class = 'row'><div class = 'column'><img src = 'category1/CS4.png' width = '70%;'></div><div class = 'column'><img src = 'usneg/9340.bmp' width = '100%;'></div></div>","null","neg","CS","CS","1","category1/CS4.png","","","","",""
"","html-keyboard-response","34","861556","0.0-6.0-2.0-0.7","l7n9aszzdf","many_one","0","direct_first","1","ll08ar27","3","27","1","1","2","1","","0","1","0","null","","","<div class = 'row'><div class = 'column'><img src = 'category3/CS8.png' width = '70%;'></div><div class = 'column'><img src = 'usneg/9560.bmp' width = '100%;'></div></div>","null","neg","CS","CS","3","category3/CS8.png","","","","",""
"","html-keyboard-response","35","864058","0.0-6.0-2.0-0.8","l7n9aszzdf","many_one","0","direct_first","1","ll08ar27","3","27","1","1","2","1","","0","1","0","null","","","<div class = 'row'><div class = 'column'><img src = 'uspos/2040.bmp' width = '100%;'></div><div class = 'column'><img src = 'category4/CS10.png' width = '70%;'></div></div>","null","pos","CS","CS","4","category4/CS10.png","","","","",""
"","html-keyboard-response","36","866561","0.0-6.0-2.0-0.9","l7n9aszzdf","many_one","0","direct_first","1","ll08ar27","3","27","1","1","2","1","","0","1","0","null","","","<div class = 'row'><div class = 'column'><img src = 'usneg/2900.bmp' width = '100%;'></div><div class = 'column'><img src = 'category3/CS9.png' width = '70%;'></div></div>","null","neg","CS","CS","3","category3/CS9.png","","","","",""
"","html-keyboard-response","37","869063","0.0-6.0-2.0-0.10","l7n9aszzdf","many_one","0","direct_first","1","ll08ar27","3","27","1","1","2","1","","0","1","0","null","","","<div class = 'row'><div class = 'column'><img src = 'category4/CS9.png' width = '70%;'></div><div class = 'column'><img src = 'uspos/1440.bmp' width = '100%;'></div></div>","null","pos","CS","CS","4","category4/CS9.png","","","","",""
"","html-keyboard-response","38","871567","0.0-6.0-2.0-0.11","l7n9aszzdf","many_one","0","direct_first","1","ll08ar27","3","27","1","1","2","1","","0","1","0","null","","","<div class = 'row'><div class = 'column'><img src = 'category3/CS2.png' width = '70%;'></div><div class = 'column'><img src = 'usneg/7380.bmp' width = '100%;'></div></div>","null","neg","CS","CS","3","category3/CS2.png","","","","",""
"","html-keyboard-response","39","874071","0.0-6.0-2.0-0.12","l7n9aszzdf","many_one","0","direct_first","1","ll08ar27","3","27","1","1","2","1","","0","1","0","null","","","<div class = 'row'><div class = 'column'><img src = 'usneg/9584.bmp' width = '100%;'></div><div class = 'column'><img src = 'category3/CS5.png' width = '70%;'></div></div>","null","neg","CS","CS","3","category3/CS5.png","","","","",""
"","html-keyboard-response","40","876574","0.0-6.0-2.0-0.13","l7n9aszzdf","many_one","0","direct_first","1","ll08ar27","3","27","1","1","2","1","","0","1","0","null","","","<div class = 'row'><div class = 'column'><img src = 'category4/CS4.png' width = '70%;'></div><div class = 'column'><img src = 'uspos/8461.bmp' width = '100%;'></div></div>","null","pos","CS","CS","4","category4/CS4.png","","","","",""
"","html-keyboard-response","41","879075","0.0-6.0-2.0-0.14","l7n9aszzdf","many_one","0","direct_first","1","ll08ar27","3","27","1","1","2","1","","0","1","0","null","","","<div class = 'row'><div class = 'column'><img src = 'uspos/2550.bmp' width = '100%;'></div><div class = 'column'><img src = 'category4/CS7.png' width = '70%;'></div></div>","null","pos","CS","CS","4","category4/CS7.png","","","","",""
"","html-keyboard-response","42","881580","0.0-6.0-2.0-0.15","l7n9aszzdf","many_one","0","direct_first","1","ll08ar27","3","27","1","1","2","1","","0","1","0","null","","","<div class = 'row'><div class = 'column'><img src = 'category2/CS8.png' width = '70%;'></div><div class = 'column'><img src = 'uspos/2311.bmp' width = '100%;'></div></div>","null","pos","CS","CS","2","category2/CS8.png","","","","",""
"","html-keyboard-response","43","884082","0.0-6.0-2.0-0.16","l7n9aszzdf","many_one","0","direct_first","1","ll08ar27","3","27","1","1","2","1","","0","1","0","null","","","<div class = 'row'><div class = 'column'><img src = 'category2/CS2.png' width = '70%;'></div><div class = 'column'><img src = 'uspos/1460.bmp' width = '100%;'></div></div>","null","pos","CS","CS","2","category2/CS2.png","","","","",""
"","html-keyboard-response","44","886585","0.0-6.0-2.0-0.17","l7n9aszzdf","many_one","0","direct_first","1","ll08ar27","3","27","1","1","2","1","","0","1","0","null","","","<div class = 'row'><div class = 'column'><img src = 'category1/CS6.png' width = '70%;'></div><div class = 'column'><img src = 'usneg/9181.bmp' width = '100%;'></div></div>","null","neg","CS","CS","1","category1/CS6.png","","","","",""
"","html-keyboard-response","45","889088","0.0-6.0-2.0-0.18","l7n9aszzdf","many_one","0","direct_first","1","ll08ar27","3","27","1","1","2","1","","0","1","0","null","","","<div class = 'row'><div class = 'column'><img src = 'usneg/3160.bmp' width = '100%;'></div><div class = 'column'><img src = 'category1/CS8.png' width = '70%;'></div></div>","null","neg","CS","CS","1","category1/CS8.png","","","","",""
"","html-keyboard-response","46","891590","0.0-6.0-2.0-0.19","l7n9aszzdf","many_one","0","direct_first","1","ll08ar27","3","27","1","1","2","1","","0","1","0","null","","","<div class = 'row'><div class = 'column'><img src = 'uspos/8540.bmp' width = '100%;'></div><div class = 'column'><img src = 'category2/CS7.png' width = '70%;'></div></div>","null","pos","CS","CS","2","category2/CS7.png","","","","",""
"","survey-html-form","47","894335","0.0-6.0-3.0","l7n9aszzdf","many_one","0","direct_first","1","ll08ar27","3","27","1","1","2","1","","0","1","0","2244","","{}","","","","","","","","","","","",""
"","html-keyboard-response","48","898341","0.0-6.0-4.0-0.0","l7n9aszzdf","many_one","0","direct_first","1","ll08ar27","3","27","1","1","2","1","","0","1","0","null","","","<div class = 'row'><div class = 'column'><img src = 'category4/CS9.png' width = '70%;'></div><div class = 'column'><img src = 'uspos/1440.bmp' width = '100%;'></div></div>","null","pos","CS","CS","4","category4/CS9.png","","","","",""
"","html-keyboard-response","49","900843","0.0-6.0-4.0-0.1","l7n9aszzdf","many_one","0","direct_first","1","ll08ar27","3","27","1","1","2","1","","0","1","0","null","","","<div class = 'row'><div class = 'column'><img src = 'category1/CS4.png' width = '70%;'></div><div class = 'column'><img src = 'usneg/9340.bmp' width = '100%;'></div></div>","null","neg","CS","CS","1","category1/CS4.png","","","","",""
"","html-keyboard-response","50","903347","0.0-6.0-4.0-0.2","l7n9aszzdf","many_one","0","direct_first","1","ll08ar27","3","27","1","1","2","1","","0","1","0","null","","","<div class = 'row'><div class = 'column'><img src = 'usneg/9280.bmp' width = '100%;'></div><div class = 'column'><img src = 'category1/CS5.png' width = '70%;'></div></div>","null","neg","CS","CS","1","category1/CS5.png","","","","",""
"","html-keyboard-response","51","905850","0.0-6.0-4.0-0.3","l7n9aszzdf","many_one","0","direct_first","1","ll08ar27","3","27","1","1","2","1","","0","1","0","null","","","<div class = 'row'><div class = 'column'><img src = 'uspos/2311.bmp' width = '100%;'></div><div class = 'column'><img src = 'category2/CS8.png' width = '70%;'></div></div>","null","pos","CS","CS","2","category2/CS8.png","","","","",""
"","html-keyboard-response","52","908353","0.0-6.0-4.0-0.4","l7n9aszzdf","many_one","0","direct_first","1","ll08ar27","3","27","1","1","2","1","","0","1","0","null","","","<div class = 'row'><div class = 'column'><img src = 'category2/CS10.png' width = '70%;'></div><div class = 'column'><img src = 'uspos/2208.bmp' width = '100%;'></div></div>","null","pos","CS","CS","2","category2/CS10.png","","","","",""
"","html-keyboard-response","53","910855","0.0-6.0-4.0-0.5","l7n9aszzdf","many_one","0","direct_first","1","ll08ar27","3","27","1","1","2","1","","0","1","0","null","","","<div class = 'row'><div class = 'column'><img src = 'category3/CS9.png' width = '70%;'></div><div class = 'column'><img src = 'usneg/2900.bmp' width = '100%;'></div></div>","null","neg","CS","CS","3","category3/CS9.png","","","","",""
"","html-keyboard-response","54","913358","0.0-6.0-4.0-0.6","l7n9aszzdf","many_one","0","direct_first","1","ll08ar27","3","27","1","1","2","1","","0","1","0","null","","","<div class = 'row'><div class = 'column'><img src = 'category2/CS2.png' width = '70%;'></div><div class = 'column'><img src = 'uspos/1460.bmp' width = '100%;'></div></div>","null","pos","CS","CS","2","category2/CS2.png","","","","",""
"","html-keyboard-response","55","915860","0.0-6.0-4.0-0.7","l7n9aszzdf","many_one","0","direct_first","1","ll08ar27","3","27","1","1","2","1","","0","1","0","null","","","<div class = 'row'><div class = 'column'><img src = 'usneg/9560.bmp' width = '100%;'></div><div class = 'column'><img src = 'category3/CS8.png' width = '70%;'></div></div>","null","neg","CS","CS","3","category3/CS8.png","","","","",""
"","html-keyboard-response","56","918363","0.0-6.0-4.0-0.8","l7n9aszzdf","many_one","0","direct_first","1","ll08ar27","3","27","1","1","2","1","","0","1","0","null","","","<div class = 'row'><div class = 'column'><img src = 'category4/CS3.png' width = '70%;'></div><div class = 'column'><img src = 'uspos/1340.bmp' width = '100%;'></div></div>","null","pos","CS","CS","4","category4/CS3.png","","","","",""
"","html-keyboard-response","57","920865","0.0-6.0-4.0-0.9","l7n9aszzdf","many_one","0","direct_first","1","ll08ar27","3","27","1","1","2","1","","0","1","0","null","","","<div class = 'row'><div class = 'column'><img src = 'usneg/9435.bmp' width = '100%;'></div><div class = 'column'><img src = 'category3/CS10.png' width = '70%;'></div></div>","null","neg","CS","CS","3","category3/CS10.png","","","","",""
"","html-keyboard-response","58","923369","0.0-6.0-4.0-0.10","l7n9aszzdf","many_one","0","direct_first","1","ll08ar27","3","27","1","1","2","1","","0","1","0","null","","","<div class = 'row'><div class = 'column'><img src = 'uspos/5600.bmp' width = '100%;'></div><div class = 'column'><img src = 'category2/CS9.png' width = '70%;'></div></div>","null","pos","CS","CS","2","category2/CS9.png","","","","",""
"","html-keyboard-response","59","925870","0.0-6.0-4.0-0.11","l7n9aszzdf","many_one","0","direct_first","1","ll08ar27","3","27","1","1","2","1","","0","1","0","null","","","<div class = 'row'><div class = 'column'><img src = 'usneg/6020.bmp' width = '100%;'></div><div class = 'column'><img src = 'category1/CS3.png' width = '70%;'></div></div>","null","neg","CS","CS","1","category1/CS3.png","","","","",""
"","html-keyboard-response","60","928373","0.0-6.0-4.0-0.12","l7n9aszzdf","many_one","0","direct_first","1","ll08ar27","3","27","1","1","2","1","","0","1","0","null","","","<div class = 'row'><div class = 'column'><img src = 'uspos/2550.bmp' width = '100%;'></div><div class = 'column'><img src = 'category4/CS7.png' width = '70%;'></div></div>","null","pos","CS","CS","4","category4/CS7.png","","","","",""
"","html-keyboard-response","61","930876","0.0-6.0-4.0-0.13","l7n9aszzdf","many_one","0","direct_first","1","ll08ar27","3","27","1","1","2","1","","0","1","0","null","","","<div class = 'row'><div class = 'column'><img src = 'uspos/8540.bmp' width = '100%;'></div><div class = 'column'><img src = 'category2/CS7.png' width = '70%;'></div></div>","null","pos","CS","CS","2","category2/CS7.png","","","","",""
"","html-keyboard-response","62","933379","0.0-6.0-4.0-0.14","l7n9aszzdf","many_one","0","direct_first","1","ll08ar27","3","27","1","1","2","1","","0","1","0","null","","","<div class = 'row'><div class = 'column'><img src = 'category4/CS10.png' width = '70%;'></div><div class = 'column'><img src = 'uspos/2040.bmp' width = '100%;'></div></div>","null","pos","CS","CS","4","category4/CS10.png","","","","",""
"","html-keyboard-response","63","935881","0.0-6.0-4.0-0.15","l7n9aszzdf","many_one","0","direct_first","1","ll08ar27","3","27","1","1","2","1","","0","1","0","null","","","<div class = 'row'><div class = 'column'><img src = 'usneg/7380.bmp' width = '100%;'></div><div class = 'column'><img src = 'category3/CS2.png' width = '70%;'></div></div>","null","neg","CS","CS","3","category3/CS2.png","","","","",""
"","html-keyboard-response","64","938383","0.0-6.0-4.0-0.16","l7n9aszzdf","many_one","0","direct_first","1","ll08ar27","3","27","1","1","2","1","","0","1","0","null","","","<div class = 'row'><div class = 'column'><img src = 'category1/CS8.png' width = '70%;'></div><div class = 'column'><img src = 'usneg/3160.bmp' width = '100%;'></div></div>","null","neg","CS","CS","1","category1/CS8.png","","","","",""
"","html-keyboard-response","65","940886","0.0-6.0-4.0-0.17","l7n9aszzdf","many_one","0","direct_first","1","ll08ar27","3","27","1","1","2","1","","0","1","0","null","","","<div class = 'row'><div class = 'column'><img src = 'usneg/9181.bmp' width = '100%;'></div><div class = 'column'><img src = 'category1/CS6.png' width = '70%;'></div></div>","null","neg","CS","CS","1","category1/CS6.png","","","","",""
"","html-keyboard-response","66","943389","0.0-6.0-4.0-0.18","l7n9aszzdf","many_one","0","direct_first","1","ll08ar27","3","27","1","1","2","1","","0","1","0","null","","","<div class = 'row'><div class = 'column'><img src = 'category3/CS5.png' width = '70%;'></div><div class = 'column'><img src = 'usneg/9584.bmp' width = '100%;'></div></div>","null","neg","CS","CS","3","category3/CS5.png","","","","",""
"","html-keyboard-response","67","945891","0.0-6.0-4.0-0.19","l7n9aszzdf","many_one","0","direct_first","1","ll08ar27","3","27","1","1","2","1","","0","1","0","null","","","<div class = 'row'><div class = 'column'><img src = 'category4/CS4.png' width = '70%;'></div><div class = 'column'><img src = 'uspos/8461.bmp' width = '100%;'></div></div>","null","pos","CS","CS","4","category4/CS4.png","","","","",""
"","survey-html-form","68","947911","0.0-6.0-5.0","l7n9aszzdf","many_one","0","direct_first","1","ll08ar27","3","27","1","1","2","1","","0","1","0","1518","","{}","","","","","","","","","","","",""
"","html-keyboard-response","69","951915","0.0-6.0-6.0-0.0","l7n9aszzdf","many_one","0","direct_first","1","ll08ar27","3","27","1","1","2","1","","0","1","0","null","","","<div class = 'row'><div class = 'column'><img src = 'uspos/2550.bmp' width = '100%;'></div><div class = 'column'><img src = 'category4/CS7.png' width = '70%;'></div></div>","null","pos","CS","CS","4","category4/CS7.png","","","","",""
"","html-keyboard-response","70","954418","0.0-6.0-6.0-0.1","l7n9aszzdf","many_one","0","direct_first","1","ll08ar27","3","27","1","1","2","1","","0","1","0","null","","","<div class = 'row'><div class = 'column'><img src = 'category3/CS8.png' width = '70%;'></div><div class = 'column'><img src = 'usneg/9560.bmp' width = '100%;'></div></div>","null","neg","CS","CS","3","category3/CS8.png","","","","",""
"","html-keyboard-response","71","956923","0.0-6.0-6.0-0.2","l7n9aszzdf","many_one","0","direct_first","1","ll08ar27","3","27","1","1","2","1","","0","1","0","null","","","<div class = 'row'><div class = 'column'><img src = 'category2/CS2.png' width = '70%;'></div><div class = 'column'><img src = 'uspos/1460.bmp' width = '100%;'></div></div>","null","pos","CS","CS","2","category2/CS2.png","","","","",""
"","html-keyboard-response","72","959426","0.0-6.0-6.0-0.3","l7n9aszzdf","many_one","0","direct_first","1","ll08ar27","3","27","1","1","2","1","","0","1","0","null","","","<div class = 'row'><div class = 'column'><img src = 'category4/CS3.png' width = '70%;'></div><div class = 'column'><img src = 'uspos/1340.bmp' width = '100%;'></div></div>","null","pos","CS","CS","4","category4/CS3.png","","","","",""
"","html-keyboard-response","73","961928","0.0-6.0-6.0-0.4","l7n9aszzdf","many_one","0","direct_first","1","ll08ar27","3","27","1","1","2","1","","0","1","0","null","","","<div class = 'row'><div class = 'column'><img src = 'usneg/3160.bmp' width = '100%;'></div><div class = 'column'><img src = 'category1/CS8.png' width = '70%;'></div></div>","null","neg","CS","CS","1","category1/CS8.png","","","","",""
"","html-keyboard-response","74","964430","0.0-6.0-6.0-0.5","l7n9aszzdf","many_one","0","direct_first","1","ll08ar27","3","27","1","1","2","1","","0","1","0","null","","","<div class = 'row'><div class = 'column'><img src = 'uspos/2311.bmp' width = '100%;'></div><div class = 'column'><img src = 'category2/CS8.png' width = '70%;'></div></div>","null","pos","CS","CS","2","category2/CS8.png","","","","",""
"","html-keyboard-response","75","966934","0.0-6.0-6.0-0.6","l7n9aszzdf","many_one","0","direct_first","1","ll08ar27","3","27","1","1","2","1","","0","1","0","null","","","<div class = 'row'><div class = 'column'><img src = 'category1/CS4.png' width = '70%;'></div><div class = 'column'><img src = 'usneg/9340.bmp' width = '100%;'></div></div>","null","neg","CS","CS","1","category1/CS4.png","","","","",""
"","html-keyboard-response","76","969436","0.0-6.0-6.0-0.7","l7n9aszzdf","many_one","0","direct_first","1","ll08ar27","3","27","1","1","2","1","","0","1","0","null","","","<div class = 'row'><div class = 'column'><img src = 'uspos/8461.bmp' width = '100%;'></div><div class = 'column'><img src = 'category4/CS4.png' width = '70%;'></div></div>","null","pos","CS","CS","4","category4/CS4.png","","","","",""
"","html-keyboard-response","77","971940","0.0-6.0-6.0-0.8","l7n9aszzdf","many_one","0","direct_first","1","ll08ar27","3","27","1","1","2","1","","0","1","0","null","","","<div class = 'row'><div class = 'column'><img src = 'category3/CS9.png' width = '70%;'></div><div class = 'column'><img src = 'usneg/2900.bmp' width = '100%;'></div></div>","null","neg","CS","CS","3","category3/CS9.png","","","","",""
"","html-keyboard-response","78","974442","0.0-6.0-6.0-0.9","l7n9aszzdf","many_one","0","direct_first","1","ll08ar27","3","27","1","1","2","1","","0","1","0","null","","","<div class = 'row'><div class = 'column'><img src = 'category2/CS9.png' width = '70%;'></div><div class = 'column'><img src = 'uspos/5600.bmp' width = '100%;'></div></div>","null","pos","CS","CS","2","category2/CS9.png","","","","",""
"","html-keyboard-response","79","976945","0.0-6.0-6.0-0.10","l7n9aszzdf","many_one","0","direct_first","1","ll08ar27","3","27","1","1","2","1","","0","1","0","null","","","<div class = 'row'><div class = 'column'><img src = 'usneg/9584.bmp' width = '100%;'></div><div class = 'column'><img src = 'category3/CS5.png' width = '70%;'></div></div>","null","neg","CS","CS","3","category3/CS5.png","","","","",""
"","html-keyboard-response","80","979447","0.0-6.0-6.0-0.11","l7n9aszzdf","many_one","0","direct_first","1","ll08ar27","3","27","1","1","2","1","","0","1","0","null","","","<div class = 'row'><div class = 'column'><img src = 'category3/CS2.png' width = '70%;'></div><div class = 'column'><img src = 'usneg/7380.bmp' width = '100%;'></div></div>","null","neg","CS","CS","3","category3/CS2.png","","","","",""
"","html-keyboard-response","81","981949","0.0-6.0-6.0-0.12","l7n9aszzdf","many_one","0","direct_first","1","ll08ar27","3","27","1","1","2","1","","0","1","0","null","","","<div class = 'row'><div class = 'column'><img src = 'category2/CS10.png' width = '70%;'></div><div class = 'column'><img src = 'uspos/2208.bmp' width = '100%;'></div></div>","null","pos","CS","CS","2","category2/CS10.png","","","","",""
"","html-keyboard-response","82","984453","0.0-6.0-6.0-0.13","l7n9aszzdf","many_one","0","direct_first","1","ll08ar27","3","27","1","1","2","1","","0","1","0","null","","","<div class = 'row'><div class = 'column'><img src = 'usneg/9280.bmp' width = '100%;'></div><div class = 'column'><img src = 'category1/CS5.png' width = '70%;'></div></div>","null","neg","CS","CS","1","category1/CS5.png","","","","",""
"","html-keyboard-response","83","986956","0.0-6.0-6.0-0.14","l7n9aszzdf","many_one","0","direct_first","1","ll08ar27","3","27","1","1","2","1","","0","1","0","null","","","<div class = 'row'><div class = 'column'><img src = 'usneg/9435.bmp' width = '100%;'></div><div class = 'column'><img src = 'category3/CS10.png' width = '70%;'></div></div>","null","neg","CS","CS","3","category3/CS10.png","","","","",""
"","html-keyboard-response","84","989459","0.0-6.0-6.0-0.15","l7n9aszzdf","many_one","0","direct_first","1","ll08ar27","3","27","1","1","2","1","","0","1","0","null","","","<div class = 'row'><div class = 'column'><img src = 'category4/CS9.png' width = '70%;'></div><div class = 'column'><img src = 'uspos/1440.bmp' width = '100%;'></div></div>","null","pos","CS","CS","4","category4/CS9.png","","","","",""
"","html-keyboard-response","85","991961","0.0-6.0-6.0-0.16","l7n9aszzdf","many_one","0","direct_first","1","ll08ar27","3","27","1","1","2","1","","0","1","0","null","","","<div class = 'row'><div class = 'column'><img src = 'category4/CS10.png' width = '70%;'></div><div class = 'column'><img src = 'uspos/2040.bmp' width = '100%;'></div></div>","null","pos","CS","CS","4","category4/CS10.png","","","","",""
"","html-keyboard-response","86","994464","0.0-6.0-6.0-0.17","l7n9aszzdf","many_one","0","direct_first","1","ll08ar27","3","27","1","1","2","1","","0","1","0","null","","","<div class = 'row'><div class = 'column'><img src = 'category2/CS7.png' width = '70%;'></div><div class = 'column'><img src = 'uspos/8540.bmp' width = '100%;'></div></div>","null","pos","CS","CS","2","category2/CS7.png","","","","",""
"","html-keyboard-response","87","996967","0.0-6.0-6.0-0.18","l7n9aszzdf","many_one","0","direct_first","1","ll08ar27","3","27","1","1","2","1","","0","1","0","null","","","<div class = 'row'><div class = 'column'><img src = 'category1/CS6.png' width = '70%;'></div><div class = 'column'><img src = 'usneg/9181.bmp' width = '100%;'></div></div>","null","neg","CS","CS","1","category1/CS6.png","","","","",""
"","html-keyboard-response","88","999469","0.0-6.0-6.0-0.19","l7n9aszzdf","many_one","0","direct_first","1","ll08ar27","3","27","1","1","2","1","","0","1","0","null","","","<div class = 'row'><div class = 'column'><img src = 'category1/CS3.png' width = '70%;'></div><div class = 'column'><img src = 'usneg/6020.bmp' width = '100%;'></div></div>","null","neg","CS","CS","1","category1/CS3.png","","","","",""
"","survey-html-form","89","1007337","0.0-7.0","l7n9aszzdf","many_one","0","direct_first","1","ll08ar27","3","27","1","1","2","1","","0","1","0","7365","","{}","","","","","","","","","","","",""
"","image-slider-response","90","1014751","0.0-8.0-0.0","l7n9aszzdf","many_one","0","direct_first","1","ll08ar27","3","27","1","1","2","1","","0","1","0","5405","","","","","neg","CS","CS","1","category1/CS8.png","40","targets/26.png","direct","",""
"","image-slider-response","91","1021775","0.0-8.0-0.1","l7n9aszzdf","many_one","0","direct_first","1","ll08ar27","3","27","1","1","2","1","","0","1","0","7017","","","","","neg","GS","GSnew","3","category3/GS1.png","-67","targets/8.png","direct","",""
"","image-slider-response","92","1028032","0.0-8.0-0.2","l7n9aszzdf","many_one","0","direct_first","1","ll08ar27","3","27","1","1","2","1","","0","1","0","6250","","","","","pos","GS","GSold","4","category4/CS8.png","6","targets/31.png","direct","",""
"","image-slider-response","93","1032622","0.0-8.0-0.3","l7n9aszzdf","many_one","0","direct_first","1","ll08ar27","3","27","1","1","2","1","","0","1","0","4586","","","","","pos","CS","CS","4","category4/CS10.png","-32","targets/9.png","direct","",""
"","image-slider-response","94","1037116","0.0-8.0-0.4","l7n9aszzdf","many_one","0","direct_first","1","ll08ar27","3","27","1","1","2","1","","0","1","0","4487","","","","","neg","CS","CS","1","category1/CS5.png","39","targets/21.png","direct","",""
"","image-slider-response","95","1041309","0.0-8.0-0.5","l7n9aszzdf","many_one","0","direct_first","1","ll08ar27","3","27","1","1","2","1","","0","1","0","4187","","","","","pos","CS","CS","4","category4/CS7.png","39","targets/23.png","direct","",""
"","image-slider-response","96","1046134","0.0-8.0-0.6","l7n9aszzdf","many_one","0","direct_first","1","ll08ar27","3","27","1","1","2","1","","0","1","0","4819","","","","","neg","GS","GSold","1","category1/CS2.png","29","targets/4.png","direct","",""
"","image-slider-response","97","1049986","0.0-8.0-0.7","l7n9aszzdf","many_one","0","direct_first","1","ll08ar27","3","27","1","1","2","1","","0","1","0","3846","","","","","pos","CS","CS","2","category2/CS10.png","7","targets/17.png","direct","",""
"","image-slider-response","98","1054792","0.0-8.0-0.8","l7n9aszzdf","many_one","0","direct_first","1","ll08ar27","3","27","1","1","2","1","","0","1","0","4799","","","","","neg","GS","GSnew","1","category1/GS3.png","5","targets/45.png","direct","",""
"","image-slider-response","99","1058926","0.0-8.0-0.9","l7n9aszzdf","many_one","0","direct_first","1","ll08ar27","3","27","1","1","2","1","","0","1","0","4130","","","","","neg","GS","GSold","3","category3/CS3.png","-42","targets/38.png","direct","",""
"","image-slider-response","100","1061991","0.0-8.0-0.10","l7n9aszzdf","many_one","0","direct_first","1","ll08ar27","3","27","1","1","2","1","","0","1","0","3058","","","","","pos","CS","CS","4","category4/CS3.png","-37","targets/16.png","direct","",""
"","image-slider-response","101","1065491","0.0-8.0-0.11","l7n9aszzdf","many_one","0","direct_first","1","ll08ar27","3","27","1","1","2","1","","0","1","0","3497","","","","","neg","CS","CS","3","category3/CS8.png","9","targets/46.png","direct","",""
"","image-slider-response","102","1068848","0.0-8.0-0.12","l7n9aszzdf","many_one","0","direct_first","1","ll08ar27","3","27","1","1","2","1","","0","1","0","3350","","","","","neg","GS","GSold","1","category1/CS7.png","-34","targets/37.png","direct","",""
"","image-slider-response","103","1073661","0.0-8.0-0.13","l7n9aszzdf","many_one","0","direct_first","1","ll08ar27","3","27","1","1","2","1","","0","1","0","4806","","","","","pos","GS","GSnew","4","category4/GS2.png","32","targets/2.png","direct","",""
"","image-slider-response","104","1076318","0.0-8.0-0.14","l7n9aszzdf","many_one","0","direct_first","1","ll08ar27","3","27","1","1","2","1","","0","1","0","2648","","","","","pos","GS","GSold","4","category4/CS2.png","-40","targets/24.png","direct","",""
"","image-slider-response","105","1079536","0.0-8.0-0.15","l7n9aszzdf","many_one","0","direct_first","1","ll08ar27","3","27","1","1","2","1","","0","1","0","3213","","","","","pos","GS","GSnew","2","category2/GS3.png","-83","targets/19.png","direct","",""
"","image-slider-response","106","1083203","0.0-8.0-0.16","l7n9aszzdf","many_one","0","direct_first","1","ll08ar27","3","27","1","1","2","1","","0","1","0","3661","","","","","pos","CS","CS","2","category2/CS2.png","25","targets/25.png","direct","",""
"","image-slider-response","107","1088418","0.0-8.0-0.17","l7n9aszzdf","many_one","0","direct_first","1","ll08ar27","3","27","1","1","2","1","","0","1","0","5209","","","","","neg","CS","CS","1","category1/CS4.png","36","targets/42.png","direct","",""
"","image-slider-response","108","1091715","0.0-8.0-0.18","l7n9aszzdf","many_one","0","direct_first","1","ll08ar27","3","27","1","1","2","1","","0","1","0","3291","","","","","neg","GS","GSnew","1","category1/GS2.png","15","targets/7.png","direct","",""
"","image-slider-response","109","1096052","0.0-8.0-0.19","l7n9aszzdf","many_one","0","direct_first","1","ll08ar27","3","27","1","1","2","1","","0","1","0","4332","","","","","neg","GS","GSnew","3","category3/GS2.png","67","targets/14.png","direct","",""
"","image-slider-response","110","1098377","0.0-8.0-0.20","l7n9aszzdf","many_one","0","direct_first","1","ll08ar27","3","27","1","1","2","1","","0","1","0","2318","","","","","pos","CS","CS","2","category2/CS8.png","11","targets/6.png","direct","",""
"","image-slider-response","111","1103727","0.0-8.0-0.21","l7n9aszzdf","many_one","0","direct_first","1","ll08ar27","3","27","1","1","2","1","","0","1","0","5346","","","","","neg","CS","CS","3","category3/CS9.png","8","targets/32.png","direct","",""
"","image-slider-response","112","1106089","0.0-8.0-0.22","l7n9aszzdf","many_one","0","direct_first","1","ll08ar27","3","27","1","1","2","1","","0","1","0","2356","","","","","pos","CS","CS","4","category4/CS4.png","17","targets/5.png","direct","",""
"","image-slider-response","113","1109524","0.0-8.0-0.23","l7n9aszzdf","many_one","0","direct_first","1","ll08ar27","3","27","1","1","2","1","","0","1","0","3426","","","","","pos","GS","abstract","4","category4/lin.png","-81","targets/34.png","direct","",""
"","image-slider-response","114","1112314","0.0-8.0-0.24","l7n9aszzdf","many_one","0","direct_first","1","ll08ar27","3","27","1","1","2","1","","0","1","0","2783","","","","","neg","GS","abstract","3","category3/wang.png","-89","targets/15.png","direct","",""
"","image-slider-response","115","1114941","0.0-8.0-0.25","l7n9aszzdf","many_one","0","direct_first","1","ll08ar27","3","27","1","1","2","1","","0","1","0","2622","","","","","neg","GS","GSnew","3","category3/GS3.png","-82","targets/1.png","direct","",""
"","image-slider-response","116","1119668","0.0-8.0-0.26","l7n9aszzdf","many_one","0","direct_first","1","ll08ar27","3","27","1","1","2","1","","0","1","0","4723","","","","","neg","GS","abstract","1","category1/ma.png","12","targets/35.png","direct","",""
"","image-slider-response","117","1122672","0.0-8.0-0.27","l7n9aszzdf","many_one","0","direct_first","1","ll08ar27","3","27","1","1","2","1","","0","1","0","3000","","","","","neg","CS","CS","3","category3/CS2.png","-55","targets/41.png","direct","",""
"","image-slider-response","118","1125891","0.0-8.0-0.28","l7n9aszzdf","many_one","0","direct_first","1","ll08ar27","3","27","1","1","2","1","","0","1","0","3213","","","","","pos","GS","GSnew","2","category2/GS2.png","-62","targets/3.png","direct","",""
"","image-slider-response","119","1130063","0.0-8.0-0.29","l7n9aszzdf","many_one","0","direct_first","1","ll08ar27","3","27","1","1","2","1","","0","1","0","4164","","","","","pos","GS","GSold","2","category2/CS5.png","-61","targets/44.png","direct","",""
"","image-slider-response","120","1133030","0.0-8.0-0.30","l7n9aszzdf","many_one","0","direct_first","1","ll08ar27","3","27","1","1","2","1","","0","1","0","2962","","","","","pos","GS","GSold","4","category4/CS6.png","-57","targets/47.png","direct","",""
"","image-slider-response","121","1136900","0.0-8.0-0.31","l7n9aszzdf","many_one","0","direct_first","1","ll08ar27","3","27","1","1","2","1","","0","1","0","3863","","","","","neg","GS","GSold","1","category1/CS10.png","-91","targets/20.png","direct","",""
"","image-slider-response","122","1139604","0.0-8.0-0.32","l7n9aszzdf","many_one","0","direct_first","1","ll08ar27","3","27","1","1","2","1","","0","1","0","2698","","","","","neg","GS","GSnew","1","category1/GS1.png","-15","targets/29.png","direct","",""
"","image-slider-response","123","1143728","0.0-8.0-0.33","l7n9aszzdf","many_one","0","direct_first","1","ll08ar27","3","27","1","1","2","1","","0","1","0","4119","","","","","pos","GS","GSold","2","category2/CS3.png","29","targets/33.png","direct","",""
"","image-slider-response","124","1146082","0.0-8.0-0.34","l7n9aszzdf","many_one","0","direct_first","1","ll08ar27","3","27","1","1","2","1","","0","1","0","2347","","","","","pos","CS","CS","2","category2/CS9.png","31","targets/36.png","direct","",""
"","image-slider-response","125","1148590","0.0-8.0-0.35","l7n9aszzdf","many_one","0","direct_first","1","ll08ar27","3","27","1","1","2","1","","0","1","0","2502","","","","","neg","GS","GSold","3","category3/CS6.png","-37","targets/28.png","direct","",""
"","image-slider-response","126","1151644","0.0-8.0-0.36","l7n9aszzdf","many_one","0","direct_first","1","ll08ar27","3","27","1","1","2","1","","0","1","0","3051","","","","","neg","CS","CS","3","category3/CS5.png","-99","targets/48.png","direct","",""
"","image-slider-response","127","1154173","0.0-8.0-0.37","l7n9aszzdf","many_one","0","direct_first","1","ll08ar27","3","27","1","1","2","1","","0","1","0","2524","","","","","pos","CS","CS","2","category2/CS7.png","-39","targets/27.png","direct","",""
"","image-slider-response","128","1156759","0.0-8.0-0.38","l7n9aszzdf","many_one","0","direct_first","1","ll08ar27","3","27","1","1","2","1","","0","1","0","2579","","","","","pos","GS","abstract","2","category2/men.png","-85","targets/10.png","direct","",""
"","image-slider-response","129","1159181","0.0-8.0-0.39","l7n9aszzdf","many_one","0","direct_first","1","ll08ar27","3","27","1","1","2","1","","0","1","0","2416","","","","","neg","GS","GSold","3","category3/CS4.png","-59","targets/12.png","direct","",""
"","image-slider-response","130","1164015","0.0-8.0-0.40","l7n9aszzdf","many_one","0","direct_first","1","ll08ar27","3","27","1","1","2","1","","0","1","0","4829","","","","","pos","GS","GSold","2","category2/CS1.png","-62","targets/18.png","direct","",""
"","image-slider-response","131","1167458","0.0-8.0-0.41","l7n9aszzdf","many_one","0","direct_first","1","ll08ar27","3","27","1","1","2","1","","0","1","0","3437","","","","","neg","CS","CS","1","category1/CS3.png","-41","targets/39.png","direct","",""
"","image-slider-response","132","1170860","0.0-8.0-0.42","l7n9aszzdf","many_one","0","direct_first","1","ll08ar27","3","27","1","1","2","1","","0","1","0","3397","","","","","pos","GS","GSnew","4","category4/GS1.png","-57","targets/11.png","direct","",""
"","image-slider-response","133","1173059","0.0-8.0-0.43","l7n9aszzdf","many_one","0","direct_first","1","ll08ar27","3","27","1","1","2","1","","0","1","0","2195","","","","","pos","GS","GSnew","4","category4/GS3.png","-57","targets/13.png","direct","",""
"","image-slider-response","134","1177358","0.0-8.0-0.44","l7n9aszzdf","many_one","0","direct_first","1","ll08ar27","3","27","1","1","2","1","","0","1","0","4293","","","","","neg","CS","CS","1","category1/CS6.png","-10","targets/22.png","direct","",""
"","image-slider-response","135","1180099","0.0-8.0-0.45","l7n9aszzdf","many_one","0","direct_first","1","ll08ar27","3","27","1","1","2","1","","0","1","0","2737","","","","","pos","GS","GSnew","2","category2/GS1.png","-43","targets/40.png","direct","",""
"","image-slider-response","136","1185322","0.0-8.0-0.46","l7n9aszzdf","many_one","0","direct_first","1","ll08ar27","3","27","1","1","2","1","","0","1","0","5216","","","","","neg","CS","CS","3","category3/CS10.png","-43","targets/43.png","direct","",""
"","image-slider-response","137","1188989","0.0-8.0-0.47","l7n9aszzdf","many_one","0","direct_first","1","ll08ar27","3","27","1","1","2","1","","0","1","0","3660","","","","","pos","CS","CS","4","category4/CS9.png","-23","targets/30.png","direct","",""
"","html-keyboard-response","138","1209568","0.0-9.0","l7n9aszzdf","many_one","0","direct_first","1","ll08ar27","3","27","1","1","2","1","","0","1","0","20574","","","<p>Sie sehen nun die chinesischen Zeichen nur ganz kurz. Danach sehen Sie die jeweilige Aussprache der Zeichen als Silbe auf dem Bildschrim. Ihre Aufgabe ist es, für jede Silbe anzugeben, ob diese etwas angenehmes, oder unangenehmes bedeuten könnte. Verlassen Sie sich hier vor allem auf Ihre Intuition.<br><br>Die Zeichen werden nur zur Orientierung dargestellt, beachten Sie sie deshalb nicht. Konzentrieren Sie sich vor allem auf die Silben. <br>Reagieren Sie mit folgenden zwei Tasten: <br><br><b>'D' </b> wenn die Silbe etwas <b>unangenehmes</b> bedeuten könnte. <br><b>'K'</b> wenn die Silbe etwas <b>angenehmes</b> bedeuten könnte. <br><br>Bitte legen Sie nun den Zeigefinger der linken Hand auf die Taste 'D' und den Zeigefinger der rechten Hand auf die Taste 'K'. <br>Reagieren Sie auf jede Silbe so schnell wie möglich. Uns interessiert Ihre spontane Reaktion. <br> <br> <br>Drücken Sie 'D' oder 'K', um die nächste Aufgabe zu starten. </p>","68","","","","","","","","","",""
"","html-keyboard-response","139","1212571","0.0-10.0-0.0","l7n9aszzdf","many_one","0","direct_first","1","ll08ar27","3","27","1","1","2","1","","0","1","0","null","","","<div style=""font-size:60px;"">+</div>","null","","","","","","","","","",""
"","html-keyboard-response","140","1212664","0.0-10.0-1.0","l7n9aszzdf","many_one","0","direct_first","1","ll08ar27","3","27","1","1","2","1","","0","1","0","null","","","<img src = 'category2/CS9.png' width = '100%;'>","null","","","","","","","","","",""
"","html-keyboard-response","141","1212916","0.0-10.0-2.0","l7n9aszzdf","many_one","0","direct_first","1","ll08ar27","3","27","1","1","2","1","","0","1","0","null","","","<img src = 'targets/36.png' width = '100%;'>","null","","","","","","","","","",""
"","html-keyboard-response","142","1216708","0.0-10.0-3.0","l7n9aszzdf","many_one","0","direct_first","1","ll08ar27","3","27","1","1","2","1","","0","1","0","3789","","","<img src = 'targets/mask.png' width = '100%;'>","68","pos","CS","CS","2","category2/CS9.png","","targets/36.png","indirect","0","0"
"","html-keyboard-response","143","1218211","0.0-10.0-0.1","l7n9aszzdf","many_one","0","direct_first","1","ll08ar27","3","27","1","1","2","1","","0","1","0","null","","","<div style=""font-size:60px;"">+</div>","null","","","","","","","","","",""
"","html-keyboard-response","144","1218303","0.0-10.0-1.1","l7n9aszzdf","many_one","0","direct_first","1","ll08ar27","3","27","1","1","2","1","","0","1","0","null","","","<img src = 'category2/CS8.png' width = '100%;'>","null","","","","","","","","","",""
"","html-keyboard-response","145","1218555","0.0-10.0-2.1","l7n9aszzdf","many_one","0","direct_first","1","ll08ar27","3","27","1","1","2","1","","0","1","0","null","","","<img src = 'targets/6.png' width = '100%;'>","null","","","","","","","","","",""
"","html-keyboard-response","146","1225414","0.0-10.0-3.1","l7n9aszzdf","many_one","0","direct_first","1","ll08ar27","3","27","1","1","2","1","","0","1","0","6857","","","<img src = 'targets/mask.png' width = '100%;'>","75","pos","CS","CS","2","category2/CS8.png","","targets/6.png","indirect","1","1"
"","html-keyboard-response","147","1226915","0.0-10.0-0.2","l7n9aszzdf","many_one","0","direct_first","1","ll08ar27","3","27","1","1","2","1","","0","1","0","null","","","<div style=""font-size:60px;"">+</div>","null","","","","","","","","","",""
"","html-keyboard-response","148","1227007","0.0-10.0-1.2","l7n9aszzdf","many_one","0","direct_first","1","ll08ar27","3","27","1","1","2","1","","0","1","0","null","","","<img src = 'category3/CS4.png' width = '100%;'>","null","","","","","","","","","",""
"","html-keyboard-response","149","1227259","0.0-10.0-2.2","l7n9aszzdf","many_one","0","direct_first","1","ll08ar27","3","27","1","1","2","1","","0","1","0","null","","","<img src = 'targets/12.png' width = '100%;'>","null","","","","","","","","","",""
"","html-keyboard-response","150","1230154","0.0-10.0-3.2","l7n9aszzdf","many_one","0","direct_first","1","ll08ar27","3","27","1","1","2","1","","0","1","0","2892","","","<img src = 'targets/mask.png' width = '100%;'>","75","neg","GS","GSold","3","category3/CS4.png","","targets/12.png","indirect","1","2"
"","html-keyboard-response","151","1231656","0.0-10.0-0.3","l7n9aszzdf","many_one","0","direct_first","1","ll08ar27","3","27","1","1","2","1","","0","1","0","null","","","<div style=""font-size:60px;"">+</div>","null","","","","","","","","","",""
"","html-keyboard-response","152","1231747","0.0-10.0-1.3","l7n9aszzdf","many_one","0","direct_first","1","ll08ar27","3","27","1","1","2","1","","0","1","0","null","","","<img src = 'category4/CS4.png' width = '100%;'>","null","","","","","","","","","",""
"","html-keyboard-response","153","1232000","0.0-10.0-2.3","l7n9aszzdf","many_one","0","direct_first","1","ll08ar27","3","27","1","1","2","1","","0","1","0","null","","","<img src = 'targets/5.png' width = '100%;'>","null","","","","","","","","","",""
"","html-keyboard-response","154","1233839","0.0-10.0-3.3","l7n9aszzdf","many_one","0","direct_first","1","ll08ar27","3","27","1","1","2","1","","0","1","0","1837","","","<img src = 'targets/mask.png' width = '100%;'>","75","pos","CS","CS","4","category4/CS4.png","","targets/5.png","indirect","1","3"
"","html-keyboard-response","155","1235340","0.0-10.0-0.4","l7n9aszzdf","many_one","0","direct_first","1","ll08ar27","3","27","1","1","2","1","","0","1","0","null","","","<div style=""font-size:60px;"">+</div>","null","","","","","","","","","",""
"","html-keyboard-response","156","1235432","0.0-10.0-1.4","l7n9aszzdf","many_one","0","direct_first","1","ll08ar27","3","27","1","1","2","1","","0","1","0","null","","","<img src = 'category1/CS5.png' width = '100%;'>","null","","","","","","","","","",""
"","html-keyboard-response","157","1235685","0.0-10.0-2.4","l7n9aszzdf","many_one","0","direct_first","1","ll08ar27","3","27","1","1","2","1","","0","1","0","null","","","<img src = 'targets/21.png' width = '100%;'>","null","","","","","","","","","",""
"","html-keyboard-response","158","1238276","0.0-10.0-3.4","l7n9aszzdf","many_one","0","direct_first","1","ll08ar27","3","27","1","1","2","1","","0","1","0","2589","","","<img src = 'targets/mask.png' width = '100%;'>","75","neg","CS","CS","1","category1/CS5.png","","targets/21.png","indirect","1","4"
"","html-keyboard-response","159","1239778","0.0-10.0-0.5","l7n9aszzdf","many_one","0","direct_first","1","ll08ar27","3","27","1","1","2","1","","0","1","0","null","","","<div style=""font-size:60px;"">+</div>","null","","","","","","","","","",""
"","html-keyboard-response","160","1239870","0.0-10.0-1.5","l7n9aszzdf","many_one","0","direct_first","1","ll08ar27","3","27","1","1","2","1","","0","1","0","null","","","<img src = 'category2/CS7.png' width = '100%;'>","null","","","","","","","","","",""
"","html-keyboard-response","161","1240122","0.0-10.0-2.5","l7n9aszzdf","many_one","0","direct_first","1","ll08ar27","3","27","1","1","2","1","","0","1","0","null","","","<img src = 'targets/27.png' width = '100%;'>","null","","","","","","","","","",""
"","html-keyboard-response","162","1242435","0.0-10.0-3.5","l7n9aszzdf","many_one","0","direct_first","1","ll08ar27","3","27","1","1","2","1","","0","1","0","2311","","","<img src = 'targets/mask.png' width = '100%;'>","68","pos","CS","CS","2","category2/CS7.png","","targets/27.png","indirect","0","5"
"","html-keyboard-response","163","1243938","0.0-10.0-0.6","l7n9aszzdf","many_one","0","direct_first","1","ll08ar27","3","27","1","1","2","1","","0","1","0","null","","","<div style=""font-size:60px;"">+</div>","null","","","","","","","","","",""
"","html-keyboard-response","164","1244030","0.0-10.0-1.6","l7n9aszzdf","many_one","0","direct_first","1","ll08ar27","3","27","1","1","2","1","","0","1","0","null","","","<img src = 'category4/CS10.png' width = '100%;'>","null","","","","","","","","","",""
"","html-keyboard-response","165","1244281","0.0-10.0-2.6","l7n9aszzdf","many_one","0","direct_first","1","ll08ar27","3","27","1","1","2","1","","0","1","0","null","","","<img src = 'targets/9.png' width = '100%;'>","null","","","","","","","","","",""
"","html-keyboard-response","166","1245335","0.0-10.0-3.6","l7n9aszzdf","many_one","0","direct_first","1","ll08ar27","3","27","1","1","2","1","","0","1","0","1052","","","<img src = 'targets/mask.png' width = '100%;'>","68","pos","CS","CS","4","category4/CS10.png","","targets/9.png","indirect","0","6"
"","html-keyboard-response","167","1246837","0.0-10.0-0.7","l7n9aszzdf","many_one","0","direct_first","1","ll08ar27","3","27","1","1","2","1","","0","1","0","null","","","<div style=""font-size:60px;"">+</div>","null","","","","","","","","","",""
"","html-keyboard-response","168","1246929","0.0-10.0-1.7","l7n9aszzdf","many_one","0","direct_first","1","ll08ar27","3","27","1","1","2","1","","0","1","0","null","","","<img src = 'category2/CS3.png' width = '100%;'>","null","","","","","","","","","",""
"","html-keyboard-response","169","1247181","0.0-10.0-2.7","l7n9aszzdf","many_one","0","direct_first","1","ll08ar27","3","27","1","1","2","1","","0","1","0","null","","","<img src = 'targets/33.png' width = '100%;'>","null","","","","","","","","","",""
"","html-keyboard-response","170","1248219","0.0-10.0-3.7","l7n9aszzdf","many_one","0","direct_first","1","ll08ar27","3","27","1","1","2","1","","0","1","0","1036","","","<img src = 'targets/mask.png' width = '100%;'>","68","pos","GS","GSold","2","category2/CS3.png","","targets/33.png","indirect","0","7"
"","html-keyboard-response","171","1249721","0.0-10.0-0.8","l7n9aszzdf","many_one","0","direct_first","1","ll08ar27","3","27","1","1","2","1","","0","1","0","null","","","<div style=""font-size:60px;"">+</div>","null","","","","","","","","","",""
"","html-keyboard-response","172","1249813","0.0-10.0-1.8","l7n9aszzdf","many_one","0","direct_first","1","ll08ar27","3","27","1","1","2","1","","0","1","0","null","","","<img src = 'category3/CS3.png' width = '100%;'>","null","","","","","","","","","",""
"","html-keyboard-response","173","1250066","0.0-10.0-2.8","l7n9aszzdf","many_one","0","direct_first","1","ll08ar27","3","27","1","1","2","1","","0","1","0","null","","","<img src = 'targets/38.png' width = '100%;'>","null","","","","","","","","","",""
"","html-keyboard-response","174","1252975","0.0-10.0-3.8","l7n9aszzdf","many_one","0","direct_first","1","ll08ar27","3","27","1","1","2","1","","0","1","0","2907","","","<img src = 'targets/mask.png' width = '100%;'>","68","neg","GS","GSold","3","category3/CS3.png","","targets/38.png","indirect","0","8"
"","html-keyboard-response","175","1254478","0.0-10.0-0.9","l7n9aszzdf","many_one","0","direct_first","1","ll08ar27","3","27","1","1","2","1","","0","1","0","null","","","<div style=""font-size:60px;"">+</div>","null","","","","","","","","","",""
"","html-keyboard-response","176","1254570","0.0-10.0-1.9","l7n9aszzdf","many_one","0","direct_first","1","ll08ar27","3","27","1","1","2","1","","0","1","0","null","","","<img src = 'category1/CS6.png' width = '100%;'>","null","","","","","","","","","",""
"","html-keyboard-response","177","1254821","0.0-10.0-2.9","l7n9aszzdf","many_one","0","direct_first","1","ll08ar27","3","27","1","1","2","1","","0","1","0","null","","","<img src = 'targets/22.png' width = '100%;'>","null","","","","","","","","","",""
"","html-keyboard-response","178","1255987","0.0-10.0-3.9","l7n9aszzdf","many_one","0","direct_first","1","ll08ar27","3","27","1","1","2","1","","0","1","0","1164","","","<img src = 'targets/mask.png' width = '100%;'>","75","neg","CS","CS","1","category1/CS6.png","","targets/22.png","indirect","1","9"
"","html-keyboard-response","179","1257489","0.0-10.0-0.10","l7n9aszzdf","many_one","0","direct_first","1","ll08ar27","3","27","1","1","2","1","","0","1","0","null","","","<div style=""font-size:60px;"">+</div>","null","","","","","","","","","",""
"","html-keyboard-response","180","1257581","0.0-10.0-1.10","l7n9aszzdf","many_one","0","direct_first","1","ll08ar27","3","27","1","1","2","1","","0","1","0","null","","","<img src = 'category2/CS2.png' width = '100%;'>","null","","","","","","","","","",""
"","html-keyboard-response","181","1257834","0.0-10.0-2.10","l7n9aszzdf","many_one","0","direct_first","1","ll08ar27","3","27","1","1","2","1","","0","1","0","null","","","<img src = 'targets/25.png' width = '100%;'>","null","","","","","","","","","",""
"","html-keyboard-response","182","1260272","0.0-10.0-3.10","l7n9aszzdf","many_one","0","direct_first","1","ll08ar27","3","27","1","1","2","1","","0","1","0","2437","","","<img src = 'targets/mask.png' width = '100%;'>","68","pos","CS","CS","2","category2/CS2.png","","targets/25.png","indirect","0","10"
"","html-keyboard-response","183","1261775","0.0-10.0-0.11","l7n9aszzdf","many_one","0","direct_first","1","ll08ar27","3","27","1","1","2","1","","0","1","0","null","","","<div style=""font-size:60px;"">+</div>","null","","","","","","","","","",""
"","html-keyboard-response","184","1261869","0.0-10.0-1.11","l7n9aszzdf","many_one","0","direct_first","1","ll08ar27","3","27","1","1","2","1","","0","1","0","null","","","<img src = 'category3/CS2.png' width = '100%;'>","null","","","","","","","","","",""
"","html-keyboard-response","185","1262121","0.0-10.0-2.11","l7n9aszzdf","many_one","0","direct_first","1","ll08ar27","3","27","1","1","2","1","","0","1","0","null","","","<img src = 'targets/41.png' width = '100%;'>","null","","","","","","","","","",""
"","html-keyboard-response","186","1263997","0.0-10.0-3.11","l7n9aszzdf","many_one","0","direct_first","1","ll08ar27","3","27","1","1","2","1","","0","1","0","1872","","","<img src = 'targets/mask.png' width = '100%;'>","68","neg","CS","CS","3","category3/CS2.png","","targets/41.png","indirect","0","11"
"","html-keyboard-response","187","1265501","0.0-10.0-0.12","l7n9aszzdf","many_one","0","direct_first","1","ll08ar27","3","27","1","1","2","1","","0","1","0","null","","","<div style=""font-size:60px;"">+</div>","null","","","","","","","","","",""
"","html-keyboard-response","188","1265593","0.0-10.0-1.12","l7n9aszzdf","many_one","0","direct_first","1","ll08ar27","3","27","1","1","2","1","","0","1","0","null","","","<img src = 'category2/CS10.png' width = '100%;'>","null","","","","","","","","","",""
"","html-keyboard-response","189","1265846","0.0-10.0-2.12","l7n9aszzdf","many_one","0","direct_first","1","ll08ar27","3","27","1","1","2","1","","0","1","0","null","","","<img src = 'targets/17.png' width = '100%;'>","null","","","","","","","","","",""
"","html-keyboard-response","190","1268007","0.0-10.0-3.12","l7n9aszzdf","many_one","0","direct_first","1","ll08ar27","3","27","1","1","2","1","","0","1","0","2159","","","<img src = 'targets/mask.png' width = '100%;'>","68","pos","CS","CS","2","category2/CS10.png","","targets/17.png","indirect","0","12"
"","html-keyboard-response","191","1269508","0.0-10.0-0.13","l7n9aszzdf","many_one","0","direct_first","1","ll08ar27","3","27","1","1","2","1","","0","1","0","null","","","<div style=""font-size:60px;"">+</div>","null","","","","","","","","","",""
"","html-keyboard-response","192","1269600","0.0-10.0-1.13","l7n9aszzdf","many_one","0","direct_first","1","ll08ar27","3","27","1","1","2","1","","0","1","0","null","","","<img src = 'category3/CS5.png' width = '100%;'>","null","","","","","","","","","",""
"","html-keyboard-response","193","1269852","0.0-10.0-2.13","l7n9aszzdf","many_one","0","direct_first","1","ll08ar27","3","27","1","1","2","1","","0","1","0","null","","","<img src = 'targets/48.png' width = '100%;'>","null","","","","","","","","","",""
"","html-keyboard-response","194","1270993","0.0-10.0-3.13","l7n9aszzdf","many_one","0","direct_first","1","ll08ar27","3","27","1","1","2","1","","0","1","0","1139","","","<img src = 'targets/mask.png' width = '100%;'>","68","neg","CS","CS","3","category3/CS5.png","","targets/48.png","indirect","0","13"
"","html-keyboard-response","195","1272496","0.0-10.0-0.14","l7n9aszzdf","many_one","0","direct_first","1","ll08ar27","3","27","1","1","2","1","","0","1","0","null","","","<div style=""font-size:60px;"">+</div>","null","","","","","","","","","",""
"","html-keyboard-response","196","1272587","0.0-10.0-1.14","l7n9aszzdf","many_one","0","direct_first","1","ll08ar27","3","27","1","1","2","1","","0","1","0","null","","","<img src = 'category4/CS9.png' width = '100%;'>","null","","","","","","","","","",""
"","html-keyboard-response","197","1272840","0.0-10.0-2.14","l7n9aszzdf","many_one","0","direct_first","1","ll08ar27","3","27","1","1","2","1","","0","1","0","null","","","<img src = 'targets/30.png' width = '100%;'>","null","","","","","","","","","",""
"","html-keyboard-response","198","1276478","0.0-10.0-3.14","l7n9aszzdf","many_one","0","direct_first","1","ll08ar27","3","27","1","1","2","1","","0","1","0","3637","","","<img src = 'targets/mask.png' width = '100%;'>","68","pos","CS","CS","4","category4/CS9.png","","targets/30.png","indirect","0","14"
"","html-keyboard-response","199","1277980","0.0-10.0-0.15","l7n9aszzdf","many_one","0","direct_first","1","ll08ar27","3","27","1","1","2","1","","0","1","0","null","","","<div style=""font-size:60px;"">+</div>","null","","","","","","","","","",""
"","html-keyboard-response","200","1278073","0.0-10.0-1.15","l7n9aszzdf","many_one","0","direct_first","1","ll08ar27","3","27","1","1","2","1","","0","1","0","null","","","<img src = 'category3/CS8.png' width = '100%;'>","null","","","","","","","","","",""
"","html-keyboard-response","201","1278325","0.0-10.0-2.15","l7n9aszzdf","many_one","0","direct_first","1","ll08ar27","3","27","1","1","2","1","","0","1","0","null","","","<img src = 'targets/46.png' width = '100%;'>","null","","","","","","","","","",""
"","html-keyboard-response","202","1280926","0.0-10.0-3.15","l7n9aszzdf","many_one","0","direct_first","1","ll08ar27","3","27","1","1","2","1","","0","1","0","2599","","","<img src = 'targets/mask.png' width = '100%;'>","75","neg","CS","CS","3","category3/CS8.png","","targets/46.png","indirect","1","15"
"","html-keyboard-response","203","1282428","0.0-10.0-0.16","l7n9aszzdf","many_one","0","direct_first","1","ll08ar27","3","27","1","1","2","1","","0","1","0","null","","","<div style=""font-size:60px;"">+</div>","null","","","","","","","","","",""
"","html-keyboard-response","204","1282520","0.0-10.0-1.16","l7n9aszzdf","many_one","0","direct_first","1","ll08ar27","3","27","1","1","2","1","","0","1","0","null","","","<img src = 'category4/CS3.png' width = '100%;'>","null","","","","","","","","","",""
"","html-keyboard-response","205","1282772","0.0-10.0-2.16","l7n9aszzdf","many_one","0","direct_first","1","ll08ar27","3","27","1","1","2","1","","0","1","0","null","","","<img src = 'targets/16.png' width = '100%;'>","null","","","","","","","","","",""
"","html-keyboard-response","206","1284459","0.0-10.0-3.16","l7n9aszzdf","many_one","0","direct_first","1","ll08ar27","3","27","1","1","2","1","","0","1","0","1685","","","<img src = 'targets/mask.png' width = '100%;'>","68","pos","CS","CS","4","category4/CS3.png","","targets/16.png","indirect","0","16"
"","html-keyboard-response","207","1285962","0.0-10.0-0.17","l7n9aszzdf","many_one","0","direct_first","1","ll08ar27","3","27","1","1","2","1","","0","1","0","null","","","<div style=""font-size:60px;"">+</div>","null","","","","","","","","","",""
"","html-keyboard-response","208","1286052","0.0-10.0-1.17","l7n9aszzdf","many_one","0","direct_first","1","ll08ar27","3","27","1","1","2","1","","0","1","0","null","","","<img src = 'category3/CS10.png' width = '100%;'>","null","","","","","","","","","",""
"","html-keyboard-response","209","1286305","0.0-10.0-2.17","l7n9aszzdf","many_one","0","direct_first","1","ll08ar27","3","27","1","1","2","1","","0","1","0","null","","","<img src = 'targets/43.png' width = '100%;'>","null","","","","","","","","","",""
"","html-keyboard-response","210","1287256","0.0-10.0-3.17","l7n9aszzdf","many_one","0","direct_first","1","ll08ar27","3","27","1","1","2","1","","0","1","0","950","","","<img src = 'targets/mask.png' width = '100%;'>","68","neg","CS","CS","3","category3/CS10.png","","targets/43.png","indirect","0","17"
"","html-keyboard-response","211","1288758","0.0-10.0-0.18","l7n9aszzdf","many_one","0","direct_first","1","ll08ar27","3","27","1","1","2","1","","0","1","0","null","","","<div style=""font-size:60px;"">+</div>","null","","","","","","","","","",""
"","html-keyboard-response","212","1288849","0.0-10.0-1.18","l7n9aszzdf","many_one","0","direct_first","1","ll08ar27","3","27","1","1","2","1","","0","1","0","null","","","<img src = 'category1/CS3.png' width = '100%;'>","null","","","","","","","","","",""
"","html-keyboard-response","213","1289101","0.0-10.0-2.18","l7n9aszzdf","many_one","0","direct_first","1","ll08ar27","3","27","1","1","2","1","","0","1","0","null","","","<img src = 'targets/39.png' width = '100%;'>","null","","","","","","","","","",""
"","html-keyboard-response","214","1291258","0.0-10.0-3.18","l7n9aszzdf","many_one","0","direct_first","1","ll08ar27","3","27","1","1","2","1","","0","1","0","2156","","","<img src = 'targets/mask.png' width = '100%;'>","68","neg","CS","CS","1","category1/CS3.png","","targets/39.png","indirect","0","18"
"","html-keyboard-response","215","1292760","0.0-10.0-0.19","l7n9aszzdf","many_one","0","direct_first","1","ll08ar27","3","27","1","1","2","1","","0","1","0","null","","","<div style=""font-size:60px;"">+</div>","null","","","","","","","","","",""
"","html-keyboard-response","216","1292852","0.0-10.0-1.19","l7n9aszzdf","many_one","0","direct_first","1","ll08ar27","3","27","1","1","2","1","","0","1","0","null","","","<img src = 'category4/CS7.png' width = '100%;'>","null","","","","","","","","","",""
"","html-keyboard-response","217","1293104","0.0-10.0-2.19","l7n9aszzdf","many_one","0","direct_first","1","ll08ar27","3","27","1","1","2","1","","0","1","0","null","","","<img src = 'targets/23.png' width = '100%;'>","null","","","","","","","","","",""
"","html-keyboard-response","218","1294572","0.0-10.0-3.19","l7n9aszzdf","many_one","0","direct_first","1","ll08ar27","3","27","1","1","2","1","","0","1","0","1465","","","<img src = 'targets/mask.png' width = '100%;'>","75","pos","CS","CS","4","category4/CS7.png","","targets/23.png","indirect","1","19"
"","html-keyboard-response","219","1296074","0.0-10.0-0.20","l7n9aszzdf","many_one","0","direct_first","1","ll08ar27","3","27","1","1","2","1","","0","1","0","null","","","<div style=""font-size:60px;"">+</div>","null","","","","","","","","","",""
"","html-keyboard-response","220","1296168","0.0-10.0-1.20","l7n9aszzdf","many_one","0","direct_first","1","ll08ar27","3","27","1","1","2","1","","0","1","0","null","","","<img src = 'category1/CS4.png' width = '100%;'>","null","","","","","","","","","",""
"","html-keyboard-response","221","1296423","0.0-10.0-2.20","l7n9aszzdf","many_one","0","direct_first","1","ll08ar27","3","27","1","1","2","1","","0","1","0","null","","","<img src = 'targets/42.png' width = '100%;'>","null","","","","","","","","","",""
"","html-keyboard-response","222","1297337","0.0-10.0-3.20","l7n9aszzdf","many_one","0","direct_first","1","ll08ar27","3","27","1","1","2","1","","0","1","0","911","","","<img src = 'targets/mask.png' width = '100%;'>","75","neg","CS","CS","1","category1/CS4.png","","targets/42.png","indirect","1","20"
"","html-keyboard-response","223","1298839","0.0-10.0-0.21","l7n9aszzdf","many_one","0","direct_first","1","ll08ar27","3","27","1","1","2","1","","0","1","0","null","","","<div style=""font-size:60px;"">+</div>","null","","","","","","","","","",""
"","html-keyboard-response","224","1298931","0.0-10.0-1.21","l7n9aszzdf","many_one","0","direct_first","1","ll08ar27","3","27","1","1","2","1","","0","1","0","null","","","<img src = 'category1/CS8.png' width = '100%;'>","null","","","","","","","","","",""
"","html-keyboard-response","225","1299183","0.0-10.0-2.21","l7n9aszzdf","many_one","0","direct_first","1","ll08ar27","3","27","1","1","2","1","","0","1","0","null","","","<img src = 'targets/26.png' width = '100%;'>","null","","","","","","","","","",""
"","html-keyboard-response","226","1301506","0.0-10.0-3.21","l7n9aszzdf","many_one","0","direct_first","1","ll08ar27","3","27","1","1","2","1","","0","1","0","2321","","","<img src = 'targets/mask.png' width = '100%;'>","75","neg","CS","CS","1","category1/CS8.png","","targets/26.png","indirect","1","21"
"","html-keyboard-response","227","1303008","0.0-10.0-0.22","l7n9aszzdf","many_one","0","direct_first","1","ll08ar27","3","27","1","1","2","1","","0","1","0","null","","","<div style=""font-size:60px;"">+</div>","null","","","","","","","","","",""
"","html-keyboard-response","228","1303099","0.0-10.0-1.22","l7n9aszzdf","many_one","0","direct_first","1","ll08ar27","3","27","1","1","2","1","","0","1","0","null","","","<img src = 'category3/CS9.png' width = '100%;'>","null","","","","","","","","","",""
"","html-keyboard-response","229","1303352","0.0-10.0-2.22","l7n9aszzdf","many_one","0","direct_first","1","ll08ar27","3","27","1","1","2","1","","0","1","0","null","","","<img src = 'targets/32.png' width = '100%;'>","null","","","","","","","","","",""
"","html-keyboard-response","230","1306023","0.0-10.0-3.22","l7n9aszzdf","many_one","0","direct_first","1","ll08ar27","3","27","1","1","2","1","","0","1","0","2669","","","<img src = 'targets/mask.png' width = '100%;'>","75","neg","CS","CS","3","category3/CS9.png","","targets/32.png","indirect","1","22"
"","html-keyboard-response","231","1307526","0.0-10.0-0.23","l7n9aszzdf","many_one","0","direct_first","1","ll08ar27","3","27","1","1","2","1","","0","1","0","null","","","<div style=""font-size:60px;"">+</div>","null","","","","","","","","","",""
"","html-keyboard-response","232","1307619","0.0-10.0-1.23","l7n9aszzdf","many_one","0","direct_first","1","ll08ar27","3","27","1","1","2","1","","0","1","0","null","","","<img src = 'category3/CS6.png' width = '100%;'>","null","","","","","","","","","",""
"","html-keyboard-response","233","1307871","0.0-10.0-2.23","l7n9aszzdf","many_one","0","direct_first","1","ll08ar27","3","27","1","1","2","1","","0","1","0","null","","","<img src = 'targets/28.png' width = '100%;'>","null","","","","","","","","","",""
"","html-keyboard-response","234","1309715","0.0-10.0-3.23","l7n9aszzdf","many_one","0","direct_first","1","ll08ar27","3","27","1","1","2","1","","0","1","0","1842","","","<img src = 'targets/mask.png' width = '100%;'>","75","neg","GS","GSold","3","category3/CS6.png","","targets/28.png","indirect","1","23"
"","survey-html-form","235","1312057","0.0-11.0","l7n9aszzdf","many_one","0","direct_first","1","ll08ar27","3","27","1","1","2","1","","0","1","0","1837","","{}","","","","","","","","","","","",""
"","html-keyboard-response","236","1315060","0.0-12.0-0.0","l7n9aszzdf","many_one","0","direct_first","1","ll08ar27","3","27","1","1","2","1","","0","1","0","null","","","<div style=""font-size:60px;"">+</div>","null","","","","","","","","","",""
"","html-keyboard-response","237","1315151","0.0-12.0-1.0","l7n9aszzdf","many_one","0","direct_first","1","ll08ar27","3","27","1","1","2","1","","0","1","0","null","","","<img src = 'category3/wang.png' width = '100%;'>","null","","","","","","","","","",""
"","html-keyboard-response","238","1315404","0.0-12.0-2.0","l7n9aszzdf","many_one","0","direct_first","1","ll08ar27","3","27","1","1","2","1","","0","1","0","null","","","<img src = 'targets/15.png' width = '100%;'>","null","","","","","","","","","",""
"","html-keyboard-response","239","1318516","0.0-12.0-3.0","l7n9aszzdf","many_one","0","direct_first","1","ll08ar27","3","27","1","1","2","1","","0","1","0","3110","","","<img src = 'targets/mask.png' width = '100%;'>","75","neg","GS","abstract","3","category3/wang.png","","targets/15.png","indirect","1","24"
"","html-keyboard-response","240","1320018","0.0-12.0-0.1","l7n9aszzdf","many_one","0","direct_first","1","ll08ar27","3","27","1","1","2","1","","0","1","0","null","","","<div style=""font-size:60px;"">+</div>","null","","","","","","","","","",""
"","html-keyboard-response","241","1320109","0.0-12.0-1.1","l7n9aszzdf","many_one","0","direct_first","1","ll08ar27","3","27","1","1","2","1","","0","1","0","null","","","<img src = 'category4/GS3.png' width = '100%;'>","null","","","","","","","","","",""
"","html-keyboard-response","242","1320361","0.0-12.0-2.1","l7n9aszzdf","many_one","0","direct_first","1","ll08ar27","3","27","1","1","2","1","","0","1","0","null","","","<img src = 'targets/13.png' width = '100%;'>","null","","","","","","","","","",""
"","html-keyboard-response","243","1321987","0.0-12.0-3.1","l7n9aszzdf","many_one","0","direct_first","1","ll08ar27","3","27","1","1","2","1","","0","1","0","1623","","","<img src = 'targets/mask.png' width = '100%;'>","75","pos","GS","GSnew","4","category4/GS3.png","","targets/13.png","indirect","1","25"
"","html-keyboard-response","244","1323491","0.0-12.0-0.2","l7n9aszzdf","many_one","0","direct_first","1","ll08ar27","3","27","1","1","2","1","","0","1","0","null","","","<div style=""font-size:60px;"">+</div>","null","","","","","","","","","",""
"","html-keyboard-response","245","1323583","0.0-12.0-1.2","l7n9aszzdf","many_one","0","direct_first","1","ll08ar27","3","27","1","1","2","1","","0","1","0","null","","","<img src = 'category4/CS6.png' width = '100%;'>","null","","","","","","","","","",""
"","html-keyboard-response","246","1323835","0.0-12.0-2.2","l7n9aszzdf","many_one","0","direct_first","1","ll08ar27","3","27","1","1","2","1","","0","1","0","null","","","<img src = 'targets/47.png' width = '100%;'>","null","","","","","","","","","",""
"","html-keyboard-response","247","1324902","0.0-12.0-3.2","l7n9aszzdf","many_one","0","direct_first","1","ll08ar27","3","27","1","1","2","1","","0","1","0","1064","","","<img src = 'targets/mask.png' width = '100%;'>","75","pos","GS","GSold","4","category4/CS6.png","","targets/47.png","indirect","1","26"
"","html-keyboard-response","248","1326405","0.0-12.0-0.3","l7n9aszzdf","many_one","0","direct_first","1","ll08ar27","3","27","1","1","2","1","","0","1","0","null","","","<div style=""font-size:60px;"">+</div>","null","","","","","","","","","",""
"","html-keyboard-response","249","1326497","0.0-12.0-1.3","l7n9aszzdf","many_one","0","direct_first","1","ll08ar27","3","27","1","1","2","1","","0","1","0","null","","","<img src = 'category2/men.png' width = '100%;'>","null","","","","","","","","","",""
"","html-keyboard-response","250","1326749","0.0-12.0-2.3","l7n9aszzdf","many_one","0","direct_first","1","ll08ar27","3","27","1","1","2","1","","0","1","0","null","","","<img src = 'targets/10.png' width = '100%;'>","null","","","","","","","","","",""
"","html-keyboard-response","251","1330871","0.0-12.0-3.3","l7n9aszzdf","many_one","0","direct_first","1","ll08ar27","3","27","1","1","2","1","","0","1","0","4120","","","<img src = 'targets/mask.png' width = '100%;'>","75","pos","GS","abstract","2","category2/men.png","","targets/10.png","indirect","1","27"
"","html-keyboard-response","252","1332372","0.0-12.0-0.4","l7n9aszzdf","many_one","0","direct_first","1","ll08ar27","3","27","1","1","2","1","","0","1","0","null","","","<div style=""font-size:60px;"">+</div>","null","","","","","","","","","",""
"","html-keyboard-response","253","1332464","0.0-12.0-1.4","l7n9aszzdf","many_one","0","direct_first","1","ll08ar27","3","27","1","1","2","1","","0","1","0","null","","","<img src = 'category1/CS2.png' width = '100%;'>","null","","","","","","","","","",""
"","html-keyboard-response","254","1332717","0.0-12.0-2.4","l7n9aszzdf","many_one","0","direct_first","1","ll08ar27","3","27","1","1","2","1","","0","1","0","null","","","<img src = 'targets/4.png' width = '100%;'>","null","","","","","","","","","",""
"","html-keyboard-response","255","1333825","0.0-12.0-3.4","l7n9aszzdf","many_one","0","direct_first","1","ll08ar27","3","27","1","1","2","1","","0","1","0","1107","","","<img src = 'targets/mask.png' width = '100%;'>","75","neg","GS","GSold","1","category1/CS2.png","","targets/4.png","indirect","1","28"
"","html-keyboard-response","256","1335327","0.0-12.0-0.5","l7n9aszzdf","many_one","0","direct_first","1","ll08ar27","3","27","1","1","2","1","","0","1","0","null","","","<div style=""font-size:60px;"">+</div>","null","","","","","","","","","",""
"","html-keyboard-response","257","1335419","0.0-12.0-1.5","l7n9aszzdf","many_one","0","direct_first","1","ll08ar27","3","27","1","1","2","1","","0","1","0","null","","","<img src = 'category1/CS7.png' width = '100%;'>","null","","","","","","","","","",""
"","html-keyboard-response","258","1335672","0.0-12.0-2.5","l7n9aszzdf","many_one","0","direct_first","1","ll08ar27","3","27","1","1","2","1","","0","1","0","null","","","<img src = 'targets/37.png' width = '100%;'>","null","","","","","","","","","",""
"","html-keyboard-response","259","1337073","0.0-12.0-3.5","l7n9aszzdf","many_one","0","direct_first","1","ll08ar27","3","27","1","1","2","1","","0","1","0","1400","","","<img src = 'targets/mask.png' width = '100%;'>","68","neg","GS","GSold","1","category1/CS7.png","","targets/37.png","indirect","0","29"
"","html-keyboard-response","260","1338575","0.0-12.0-0.6","l7n9aszzdf","many_one","0","direct_first","1","ll08ar27","3","27","1","1","2","1","","0","1","0","null","","","<div style=""font-size:60px;"">+</div>","null","","","","","","","","","",""
"","html-keyboard-response","261","1338667","0.0-12.0-1.6","l7n9aszzdf","many_one","0","direct_first","1","ll08ar27","3","27","1","1","2","1","","0","1","0","null","","","<img src = 'category2/GS1.png' width = '100%;'>","null","","","","","","","","","",""
"","html-keyboard-response","262","1338919","0.0-12.0-2.6","l7n9aszzdf","many_one","0","direct_first","1","ll08ar27","3","27","1","1","2","1","","0","1","0","null","","","<img src = 'targets/40.png' width = '100%;'>","null","","","","","","","","","",""
"","html-keyboard-response","263","1339879","0.0-12.0-3.6","l7n9aszzdf","many_one","0","direct_first","1","ll08ar27","3","27","1","1","2","1","","0","1","0","958","","","<img src = 'targets/mask.png' width = '100%;'>","68","pos","GS","GSnew","2","category2/GS1.png","","targets/40.png","indirect","0","30"
"","html-keyboard-response","264","1341380","0.0-12.0-0.7","l7n9aszzdf","many_one","0","direct_first","1","ll08ar27","3","27","1","1","2","1","","0","1","0","null","","","<div style=""font-size:60px;"">+</div>","null","","","","","","","","","",""
"","html-keyboard-response","265","1341472","0.0-12.0-1.7","l7n9aszzdf","many_one","0","direct_first","1","ll08ar27","3","27","1","1","2","1","","0","1","0","null","","","<img src = 'category4/lin.png' width = '100%;'>","null","","","","","","","","","",""
"","html-keyboard-response","266","1341725","0.0-12.0-2.7","l7n9aszzdf","many_one","0","direct_first","1","ll08ar27","3","27","1","1","2","1","","0","1","0","null","","","<img src = 'targets/34.png' width = '100%;'>","null","","","","","","","","","",""
"","html-keyboard-response","267","1342524","0.0-12.0-3.7","l7n9aszzdf","many_one","0","direct_first","1","ll08ar27","3","27","1","1","2","1","","0","1","0","798","","","<img src = 'targets/mask.png' width = '100%;'>","68","pos","GS","abstract","4","category4/lin.png","","targets/34.png","indirect","0","31"
"","html-keyboard-response","268","1344026","0.0-12.0-0.8","l7n9aszzdf","many_one","0","direct_first","1","ll08ar27","3","27","1","1","2","1","","0","1","0","null","","","<div style=""font-size:60px;"">+</div>","null","","","","","","","","","",""
"","html-keyboard-response","269","1344118","0.0-12.0-1.8","l7n9aszzdf","many_one","0","direct_first","1","ll08ar27","3","27","1","1","2","1","","0","1","0","null","","","<img src = 'category4/CS2.png' width = '100%;'>","null","","","","","","","","","",""
"","html-keyboard-response","270","1344370","0.0-12.0-2.8","l7n9aszzdf","many_one","0","direct_first","1","ll08ar27","3","27","1","1","2","1","","0","1","0","null","","","<img src = 'targets/24.png' width = '100%;'>","null","","","","","","","","","",""
"","html-keyboard-response","271","1345408","0.0-12.0-3.8","l7n9aszzdf","many_one","0","direct_first","1","ll08ar27","3","27","1","1","2","1","","0","1","0","1037","","","<img src = 'targets/mask.png' width = '100%;'>","68","pos","GS","GSold","4","category4/CS2.png","","targets/24.png","indirect","0","32"
"","html-keyboard-response","272","1346912","0.0-12.0-0.9","l7n9aszzdf","many_one","0","direct_first","1","ll08ar27","3","27","1","1","2","1","","0","1","0","null","","","<div style=""font-size:60px;"">+</div>","null","","","","","","","","","",""
"","html-keyboard-response","273","1347003","0.0-12.0-1.9","l7n9aszzdf","many_one","0","direct_first","1","ll08ar27","3","27","1","1","2","1","","0","1","0","null","","","<img src = 'category1/GS1.png' width = '100%;'>","null","","","","","","","","","",""
"","html-keyboard-response","274","1347256","0.0-12.0-2.9","l7n9aszzdf","many_one","0","direct_first","1","ll08ar27","3","27","1","1","2","1","","0","1","0","null","","","<img src = 'targets/29.png' width = '100%;'>","null","","","","","","","","","",""
"","html-keyboard-response","275","1349141","0.0-12.0-3.9","l7n9aszzdf","many_one","0","direct_first","1","ll08ar27","3","27","1","1","2","1","","0","1","0","1883","","","<img src = 'targets/mask.png' width = '100%;'>","68","neg","GS","GSnew","1","category1/GS1.png","","targets/29.png","indirect","0","33"
"","html-keyboard-response","276","1350643","0.0-12.0-0.10","l7n9aszzdf","many_one","0","direct_first","1","ll08ar27","3","27","1","1","2","1","","0","1","0","null","","","<div style=""font-size:60px;"">+</div>","null","","","","","","","","","",""
"","html-keyboard-response","277","1350735","0.0-12.0-1.10","l7n9aszzdf","many_one","0","direct_first","1","ll08ar27","3","27","1","1","2","1","","0","1","0","null","","","<img src = 'category4/CS8.png' width = '100%;'>","null","","","","","","","","","",""
"","html-keyboard-response","278","1350987","0.0-12.0-2.10","l7n9aszzdf","many_one","0","direct_first","1","ll08ar27","3","27","1","1","2","1","","0","1","0","null","","","<img src = 'targets/31.png' width = '100%;'>","null","","","","","","","","","",""
"","html-keyboard-response","279","1351899","0.0-12.0-3.10","l7n9aszzdf","many_one","0","direct_first","1","ll08ar27","3","27","1","1","2","1","","0","1","0","910","","","<img src = 'targets/mask.png' width = '100%;'>","68","pos","GS","GSold","4","category4/CS8.png","","targets/31.png","indirect","0","34"
"","html-keyboard-response","280","1353400","0.0-12.0-0.11","l7n9aszzdf","many_one","0","direct_first","1","ll08ar27","3","27","1","1","2","1","","0","1","0","null","","","<div style=""font-size:60px;"">+</div>","null","","","","","","","","","",""
"","html-keyboard-response","281","1353492","0.0-12.0-1.11","l7n9aszzdf","many_one","0","direct_first","1","ll08ar27","3","27","1","1","2","1","","0","1","0","null","","","<img src = 'category2/GS2.png' width = '100%;'>","null","","","","","","","","","",""
"","html-keyboard-response","282","1353744","0.0-12.0-2.11","l7n9aszzdf","many_one","0","direct_first","1","ll08ar27","3","27","1","1","2","1","","0","1","0","null","","","<img src = 'targets/3.png' width = '100%;'>","null","","","","","","","","","",""
"","html-keyboard-response","283","1354386","0.0-12.0-3.11","l7n9aszzdf","many_one","0","direct_first","1","ll08ar27","3","27","1","1","2","1","","0","1","0","639","","","<img src = 'targets/mask.png' width = '100%;'>","68","pos","GS","GSnew","2","category2/GS2.png","","targets/3.png","indirect","0","35"
"","html-keyboard-response","284","1355888","0.0-12.0-0.12","l7n9aszzdf","many_one","0","direct_first","1","ll08ar27","3","27","1","1","2","1","","0","1","0","null","","","<div style=""font-size:60px;"">+</div>","null","","","","","","","","","",""
"","html-keyboard-response","285","1355980","0.0-12.0-1.12","l7n9aszzdf","many_one","0","direct_first","1","ll08ar27","3","27","1","1","2","1","","0","1","0","null","","","<img src = 'category1/ma.png' width = '100%;'>","null","","","","","","","","","",""
"","html-keyboard-response","286","1356232","0.0-12.0-2.12","l7n9aszzdf","many_one","0","direct_first","1","ll08ar27","3","27","1","1","2","1","","0","1","0","null","","","<img src = 'targets/35.png' width = '100%;'>","null","","","","","","","","","",""
"","html-keyboard-response","287","1357009","0.0-12.0-3.12","l7n9aszzdf","many_one","0","direct_first","1","ll08ar27","3","27","1","1","2","1","","0","1","0","776","","","<img src = 'targets/mask.png' width = '100%;'>","68","neg","GS","abstract","1","category1/ma.png","","targets/35.png","indirect","0","36"
"","html-keyboard-response","288","1358511","0.0-12.0-0.13","l7n9aszzdf","many_one","0","direct_first","1","ll08ar27","3","27","1","1","2","1","","0","1","0","null","","","<div style=""font-size:60px;"">+</div>","null","","","","","","","","","",""
"","html-keyboard-response","289","1358604","0.0-12.0-1.13","l7n9aszzdf","many_one","0","direct_first","1","ll08ar27","3","27","1","1","2","1","","0","1","0","null","","","<img src = 'category1/GS2.png' width = '100%;'>","null","","","","","","","","","",""
"","html-keyboard-response","290","1358856","0.0-12.0-2.13","l7n9aszzdf","many_one","0","direct_first","1","ll08ar27","3","27","1","1","2","1","","0","1","0","null","","","<img src = 'targets/7.png' width = '100%;'>","null","","","","","","","","","",""
"","html-keyboard-response","291","1359607","0.0-12.0-3.13","l7n9aszzdf","many_one","0","direct_first","1","ll08ar27","3","27","1","1","2","1","","0","1","0","750","","","<img src = 'targets/mask.png' width = '100%;'>","68","neg","GS","GSnew","1","category1/GS2.png","","targets/7.png","indirect","0","37"
"","html-keyboard-response","292","1361110","0.0-12.0-0.14","l7n9aszzdf","many_one","0","direct_first","1","ll08ar27","3","27","1","1","2","1","","0","1","0","null","","","<div style=""font-size:60px;"">+</div>","null","","","","","","","","","",""
"","html-keyboard-response","293","1361201","0.0-12.0-1.14","l7n9aszzdf","many_one","0","direct_first","1","ll08ar27","3","27","1","1","2","1","","0","1","0","null","","","<img src = 'category3/GS3.png' width = '100%;'>","null","","","","","","","","","",""
"","html-keyboard-response","294","1361454","0.0-12.0-2.14","l7n9aszzdf","many_one","0","direct_first","1","ll08ar27","3","27","1","1","2","1","","0","1","0","null","","","<img src = 'targets/1.png' width = '100%;'>","null","","","","","","","","","",""
"","html-keyboard-response","295","1362160","0.0-12.0-3.14","l7n9aszzdf","many_one","0","direct_first","1","ll08ar27","3","27","1","1","2","1","","0","1","0","704","","","<img src = 'targets/mask.png' width = '100%;'>","68","neg","GS","GSnew","3","category3/GS3.png","","targets/1.png","indirect","0","38"
"","html-keyboard-response","296","1363662","0.0-12.0-0.15","l7n9aszzdf","many_one","0","direct_first","1","ll08ar27","3","27","1","1","2","1","","0","1","0","null","","","<div style=""font-size:60px;"">+</div>","null","","","","","","","","","",""
"","html-keyboard-response","297","1363754","0.0-12.0-1.15","l7n9aszzdf","many_one","0","direct_first","1","ll08ar27","3","27","1","1","2","1","","0","1","0","null","","","<img src = 'category4/GS1.png' width = '100%;'>","null","","","","","","","","","",""
"","html-keyboard-response","298","1364005","0.0-12.0-2.15","l7n9aszzdf","many_one","0","direct_first","1","ll08ar27","3","27","1","1","2","1","","0","1","0","null","","","<img src = 'targets/11.png' width = '100%;'>","null","","","","","","","","","",""
"","html-keyboard-response","299","1364887","0.0-12.0-3.15","l7n9aszzdf","many_one","0","direct_first","1","ll08ar27","3","27","1","1","2","1","","0","1","0","880","","","<img src = 'targets/mask.png' width = '100%;'>","75","pos","GS","GSnew","4","category4/GS1.png","","targets/11.png","indirect","1","39"
"","html-keyboard-response","300","1366389","0.0-12.0-0.16","l7n9aszzdf","many_one","0","direct_first","1","ll08ar27","3","27","1","1","2","1","","0","1","0","null","","","<div style=""font-size:60px;"">+</div>","null","","","","","","","","","",""
"","html-keyboard-response","301","1366481","0.0-12.0-1.16","l7n9aszzdf","many_one","0","direct_first","1","ll08ar27","3","27","1","1","2","1","","0","1","0","null","","","<img src = 'category2/GS3.png' width = '100%;'>","null","","","","","","","","","",""
"","html-keyboard-response","302","1366733","0.0-12.0-2.16","l7n9aszzdf","many_one","0","direct_first","1","ll08ar27","3","27","1","1","2","1","","0","1","0","null","","","<img src = 'targets/19.png' width = '100%;'>","null","","","","","","","","","",""
"","html-keyboard-response","303","1367652","0.0-12.0-3.16","l7n9aszzdf","many_one","0","direct_first","1","ll08ar27","3","27","1","1","2","1","","0","1","0","917","","","<img src = 'targets/mask.png' width = '100%;'>","75","pos","GS","GSnew","2","category2/GS3.png","","targets/19.png","indirect","1","40"
"","html-keyboard-response","304","1369153","0.0-12.0-0.17","l7n9aszzdf","many_one","0","direct_first","1","ll08ar27","3","27","1","1","2","1","","0","1","0","null","","","<div style=""font-size:60px;"">+</div>","null","","","","","","","","","",""
"","html-keyboard-response","305","1369246","0.0-12.0-1.17","l7n9aszzdf","many_one","0","direct_first","1","ll08ar27","3","27","1","1","2","1","","0","1","0","null","","","<img src = 'category3/GS1.png' width = '100%;'>","null","","","","","","","","","",""
"","html-keyboard-response","306","1369497","0.0-12.0-2.17","l7n9aszzdf","many_one","0","direct_first","1","ll08ar27","3","27","1","1","2","1","","0","1","0","null","","","<img src = 'targets/8.png' width = '100%;'>","null","","","","","","","","","",""
"","html-keyboard-response","307","1370495","0.0-12.0-3.17","l7n9aszzdf","many_one","0","direct_first","1","ll08ar27","3","27","1","1","2","1","","0","1","0","995","","","<img src = 'targets/mask.png' width = '100%;'>","68","neg","GS","GSnew","3","category3/GS1.png","","targets/8.png","indirect","0","41"
"","html-keyboard-response","308","1371997","0.0-12.0-0.18","l7n9aszzdf","many_one","0","direct_first","1","ll08ar27","3","27","1","1","2","1","","0","1","0","null","","","<div style=""font-size:60px;"">+</div>","null","","","","","","","","","",""
"","html-keyboard-response","309","1372089","0.0-12.0-1.18","l7n9aszzdf","many_one","0","direct_first","1","ll08ar27","3","27","1","1","2","1","","0","1","0","null","","","<img src = 'category4/GS2.png' width = '100%;'>","null","","","","","","","","","",""
"","html-keyboard-response","310","1372342","0.0-12.0-2.18","l7n9aszzdf","many_one","0","direct_first","1","ll08ar27","3","27","1","1","2","1","","0","1","0","null","","","<img src = 'targets/2.png' width = '100%;'>","null","","","","","","","","","",""
"","html-keyboard-response","311","1372998","0.0-12.0-3.18","l7n9aszzdf","many_one","0","direct_first","1","ll08ar27","3","27","1","1","2","1","","0","1","0","655","","","<img src = 'targets/mask.png' width = '100%;'>","68","pos","GS","GSnew","4","category4/GS2.png","","targets/2.png","indirect","0","42"
"","html-keyboard-response","312","1374500","0.0-12.0-0.19","l7n9aszzdf","many_one","0","direct_first","1","ll08ar27","3","27","1","1","2","1","","0","1","0","null","","","<div style=""font-size:60px;"">+</div>","null","","","","","","","","","",""
"","html-keyboard-response","313","1374591","0.0-12.0-1.19","l7n9aszzdf","many_one","0","direct_first","1","ll08ar27","3","27","1","1","2","1","","0","1","0","null","","","<img src = 'category2/CS1.png' width = '100%;'>","null","","","","","","","","","",""
"","html-keyboard-response","314","1374845","0.0-12.0-2.19","l7n9aszzdf","many_one","0","direct_first","1","ll08ar27","3","27","1","1","2","1","","0","1","0","null","","","<img src = 'targets/18.png' width = '100%;'>","null","","","","","","","","","",""
"","html-keyboard-response","315","1375636","0.0-12.0-3.19","l7n9aszzdf","many_one","0","direct_first","1","ll08ar27","3","27","1","1","2","1","","0","1","0","790","","","<img src = 'targets/mask.png' width = '100%;'>","68","pos","GS","GSold","2","category2/CS1.png","","targets/18.png","indirect","0","43"
"","html-keyboard-response","316","1377138","0.0-12.0-0.20","l7n9aszzdf","many_one","0","direct_first","1","ll08ar27","3","27","1","1","2","1","","0","1","0","null","","","<div style=""font-size:60px;"">+</div>","null","","","","","","","","","",""
"","html-keyboard-response","317","1377230","0.0-12.0-1.20","l7n9aszzdf","many_one","0","direct_first","1","ll08ar27","3","27","1","1","2","1","","0","1","0","null","","","<img src = 'category2/CS5.png' width = '100%;'>","null","","","","","","","","","",""
"","html-keyboard-response","318","1377482","0.0-12.0-2.20","l7n9aszzdf","many_one","0","direct_first","1","ll08ar27","3","27","1","1","2","1","","0","1","0","null","","","<img src = 'targets/44.png' width = '100%;'>","null","","","","","","","","","",""
"","html-keyboard-response","319","1378602","0.0-12.0-3.20","l7n9aszzdf","many_one","0","direct_first","1","ll08ar27","3","27","1","1","2","1","","0","1","0","1117","","","<img src = 'targets/mask.png' width = '100%;'>","75","pos","GS","GSold","2","category2/CS5.png","","targets/44.png","indirect","1","44"
"","html-keyboard-response","320","1380104","0.0-12.0-0.21","l7n9aszzdf","many_one","0","direct_first","1","ll08ar27","3","27","1","1","2","1","","0","1","0","null","","","<div style=""font-size:60px;"">+</div>","null","","","","","","","","","",""
"","html-keyboard-response","321","1380196","0.0-12.0-1.21","l7n9aszzdf","many_one","0","direct_first","1","ll08ar27","3","27","1","1","2","1","","0","1","0","null","","","<img src = 'category3/GS2.png' width = '100%;'>","null","","","","","","","","","",""
"","html-keyboard-response","322","1380448","0.0-12.0-2.21","l7n9aszzdf","many_one","0","direct_first","1","ll08ar27","3","27","1","1","2","1","","0","1","0","null","","","<img src = 'targets/14.png' width = '100%;'>","null","","","","","","","","","",""
"","html-keyboard-response","323","1381388","0.0-12.0-3.21","l7n9aszzdf","many_one","0","direct_first","1","ll08ar27","3","27","1","1","2","1","","0","1","0","939","","","<img src = 'targets/mask.png' width = '100%;'>","68","neg","GS","GSnew","3","category3/GS2.png","","targets/14.png","indirect","0","45"
"","html-keyboard-response","324","1382892","0.0-12.0-0.22","l7n9aszzdf","many_one","0","direct_first","1","ll08ar27","3","27","1","1","2","1","","0","1","0","null","","","<div style=""font-size:60px;"">+</div>","null","","","","","","","","","",""
"","html-keyboard-response","325","1382983","0.0-12.0-1.22","l7n9aszzdf","many_one","0","direct_first","1","ll08ar27","3","27","1","1","2","1","","0","1","0","null","","","<img src = 'category1/GS3.png' width = '100%;'>","null","","","","","","","","","",""
"","html-keyboard-response","326","1383236","0.0-12.0-2.22","l7n9aszzdf","many_one","0","direct_first","1","ll08ar27","3","27","1","1","2","1","","0","1","0","null","","","<img src = 'targets/45.png' width = '100%;'>","null","","","","","","","","","",""
"","html-keyboard-response","327","1385051","0.0-12.0-3.22","l7n9aszzdf","many_one","0","direct_first","1","ll08ar27","3","27","1","1","2","1","","0","1","0","1813","","","<img src = 'targets/mask.png' width = '100%;'>","68","neg","GS","GSnew","1","category1/GS3.png","","targets/45.png","indirect","0","46"
"","html-keyboard-response","328","1386552","0.0-12.0-0.23","l7n9aszzdf","many_one","0","direct_first","1","ll08ar27","3","27","1","1","2","1","","0","1","0","null","","","<div style=""font-size:60px;"">+</div>","null","","","","","","","","","",""
"","html-keyboard-response","329","1386644","0.0-12.0-1.23","l7n9aszzdf","many_one","0","direct_first","1","ll08ar27","3","27","1","1","2","1","","0","1","0","null","","","<img src = 'category1/CS10.png' width = '100%;'>","null","","","","","","","","","",""
"","html-keyboard-response","330","1386896","0.0-12.0-2.23","l7n9aszzdf","many_one","0","direct_first","1","ll08ar27","3","27","1","1","2","1","","0","1","0","null","","","<img src = 'targets/20.png' width = '100%;'>","null","","","","","","","","","",""
"","html-keyboard-response","331","1387975","0.0-12.0-3.23","l7n9aszzdf","many_one","0","direct_first","1","ll08ar27","3","27","1","1","2","1","","0","1","0","1077","","","<img src = 'targets/mask.png' width = '100%;'>","75","neg","GS","GSold","1","category1/CS10.png","","targets/20.png","indirect","1","47"
