"success","trial_type","trial_index","time_elapsed","internal_node_id","subject","condition","condition_code","measure","measure_code","codeword","gender","age","education","chinese","fach","handedness","comment","hinschauen","ablenkung","gewissenhaft","rt","url","responses","stimulus","key_press","val","type","type_specific","category","cs_selected","response","target","task","indirect","nr_pres"
"true","fullscreen","0","12031","0.0-0.0","5o940q51gu","many_one","0","direct_first","1","ch07er25","1","28","1","0","3","1","Manchmal war die Zeit recht kurz, dadurch schwierig zu sehen/erkennen was abgebildet wurde. ","0","1","0","","","","","","","","","","","","","","",""
"","external-html","1","316273","0.0-1.0","5o940q51gu","many_one","0","direct_first","1","ch07er25","1","28","1","0","3","1","Manchmal war die Zeit recht kurz, dadurch schwierig zu sehen/erkennen was abgebildet wurde. ","0","1","0","304107","text/information.html","","","","","","","","","","","","",""
"","external-html","2","452609","0.0-2.0","5o940q51gu","many_one","0","direct_first","1","ch07er25","1","28","1","0","3","1","Manchmal war die Zeit recht kurz, dadurch schwierig zu sehen/erkennen was abgebildet wurde. ","0","1","0","136211","text/consent.html","","","","","","","","","","","","",""
"","survey-html-form","3","553596","0.0-3.0","5o940q51gu","many_one","0","direct_first","1","ch07er25","1","28","1","0","3","1","Manchmal war die Zeit recht kurz, dadurch schwierig zu sehen/erkennen was abgebildet wurde. ","0","1","0","100985","","{""codeword_enter"":""ch07er25""}","","","","","","","","","","","",""
"","survey-html-form","4","589209","0.0-4.0","5o940q51gu","many_one","0","direct_first","1","ch07er25","1","28","1","0","3","1","Manchmal war die Zeit recht kurz, dadurch schwierig zu sehen/erkennen was abgebildet wurde. ","0","1","0","35611","","{""age"":""28"",""education"":""1"",""subject"":""3"",""gender"":""1"",""handedness"":""1"",""chinese"":""0""}","","","","","","","","","","","",""
"","survey-html-form","5","624144","0.0-5.0","5o940q51gu","many_one","0","direct_first","1","ch07er25","1","28","1","0","3","1","Manchmal war die Zeit recht kurz, dadurch schwierig zu sehen/erkennen was abgebildet wurde. ","0","1","0","34934","","{}","","","","","","","","","","","",""
"","html-keyboard-response","6","628171","0.0-6.0-0.0-0.0","5o940q51gu","many_one","0","direct_first","1","ch07er25","1","28","1","0","3","1","Manchmal war die Zeit recht kurz, dadurch schwierig zu sehen/erkennen was abgebildet wurde. ","0","1","0","null","","","<div class = 'row'><div class = 'column'><img src = 'category1/CS6.png' width = '70%;'></div><div class = 'column'><img src = 'usneg/9000.bmp' width = '100%;'></div></div>","null","neg","CS","CS","1","category1/CS6.png","","","","",""
"","html-keyboard-response","7","630711","0.0-6.0-0.0-0.1","5o940q51gu","many_one","0","direct_first","1","ch07er25","1","28","1","0","3","1","Manchmal war die Zeit recht kurz, dadurch schwierig zu sehen/erkennen was abgebildet wurde. ","0","1","0","null","","","<div class = 'row'><div class = 'column'><img src = 'category2/CS4.png' width = '70%;'></div><div class = 'column'><img src = 'uspos/2058.bmp' width = '100%;'></div></div>","null","pos","CS","CS","2","category2/CS4.png","","","","",""
"","html-keyboard-response","8","633252","0.0-6.0-0.0-0.2","5o940q51gu","many_one","0","direct_first","1","ch07er25","1","28","1","0","3","1","Manchmal war die Zeit recht kurz, dadurch schwierig zu sehen/erkennen was abgebildet wurde. ","0","1","0","null","","","<div class = 'row'><div class = 'column'><img src = 'category2/CS9.png' width = '70%;'></div><div class = 'column'><img src = 'uspos/7325.bmp' width = '100%;'></div></div>","null","pos","CS","CS","2","category2/CS9.png","","","","",""
"","html-keyboard-response","9","635791","0.0-6.0-0.0-0.3","5o940q51gu","many_one","0","direct_first","1","ch07er25","1","28","1","0","3","1","Manchmal war die Zeit recht kurz, dadurch schwierig zu sehen/erkennen was abgebildet wurde. ","0","1","0","null","","","<div class = 'row'><div class = 'column'><img src = 'category2/CS3.png' width = '70%;'></div><div class = 'column'><img src = 'uspos/2040.bmp' width = '100%;'></div></div>","null","pos","CS","CS","2","category2/CS3.png","","","","",""
"","html-keyboard-response","10","638309","0.0-6.0-0.0-0.4","5o940q51gu","many_one","0","direct_first","1","ch07er25","1","28","1","0","3","1","Manchmal war die Zeit recht kurz, dadurch schwierig zu sehen/erkennen was abgebildet wurde. ","0","1","0","null","","","<div class = 'row'><div class = 'column'><img src = 'uspos/4599.bmp' width = '100%;'></div><div class = 'column'><img src = 'category3/CS10.png' width = '70%;'></div></div>","null","pos","CS","CS","3","category3/CS10.png","","","","",""
"","html-keyboard-response","11","640831","0.0-6.0-0.0-0.5","5o940q51gu","many_one","0","direct_first","1","ch07er25","1","28","1","0","3","1","Manchmal war die Zeit recht kurz, dadurch schwierig zu sehen/erkennen was abgebildet wurde. ","0","1","0","null","","","<div class = 'row'><div class = 'column'><img src = 'category2/CS8.png' width = '70%;'></div><div class = 'column'><img src = 'uspos/7580.bmp' width = '100%;'></div></div>","null","pos","CS","CS","2","category2/CS8.png","","","","",""
"","html-keyboard-response","12","643371","0.0-6.0-0.0-0.6","5o940q51gu","many_one","0","direct_first","1","ch07er25","1","28","1","0","3","1","Manchmal war die Zeit recht kurz, dadurch schwierig zu sehen/erkennen was abgebildet wurde. ","0","1","0","null","","","<div class = 'row'><div class = 'column'><img src = 'usneg/9561.bmp' width = '100%;'></div><div class = 'column'><img src = 'category4/CS5.png' width = '70%;'></div></div>","null","neg","CS","CS","4","category4/CS5.png","","","","",""
"","html-keyboard-response","13","645910","0.0-6.0-0.0-0.7","5o940q51gu","many_one","0","direct_first","1","ch07er25","1","28","1","0","3","1","Manchmal war die Zeit recht kurz, dadurch schwierig zu sehen/erkennen was abgebildet wurde. ","0","1","0","null","","","<div class = 'row'><div class = 'column'><img src = 'usneg/9220.bmp' width = '100%;'></div><div class = 'column'><img src = 'category1/CS5.png' width = '70%;'></div></div>","null","neg","CS","CS","1","category1/CS5.png","","","","",""
"","html-keyboard-response","14","648441","0.0-6.0-0.0-0.8","5o940q51gu","many_one","0","direct_first","1","ch07er25","1","28","1","0","3","1","Manchmal war die Zeit recht kurz, dadurch schwierig zu sehen/erkennen was abgebildet wurde. ","0","1","0","null","","","<div class = 'row'><div class = 'column'><img src = 'category4/CS1.png' width = '70%;'></div><div class = 'column'><img src = 'usneg/9584.bmp' width = '100%;'></div></div>","null","neg","CS","CS","4","category4/CS1.png","","","","",""
"","html-keyboard-response","15","650981","0.0-6.0-0.0-0.9","5o940q51gu","many_one","0","direct_first","1","ch07er25","1","28","1","0","3","1","Manchmal war die Zeit recht kurz, dadurch schwierig zu sehen/erkennen was abgebildet wurde. ","0","1","0","null","","","<div class = 'row'><div class = 'column'><img src = 'usneg/9041.bmp' width = '100%;'></div><div class = 'column'><img src = 'category4/CS10.png' width = '70%;'></div></div>","null","neg","CS","CS","4","category4/CS10.png","","","","",""
"","html-keyboard-response","16","653522","0.0-6.0-0.0-0.10","5o940q51gu","many_one","0","direct_first","1","ch07er25","1","28","1","0","3","1","Manchmal war die Zeit recht kurz, dadurch schwierig zu sehen/erkennen was abgebildet wurde. ","0","1","0","null","","","<div class = 'row'><div class = 'column'><img src = 'uspos/2208.bmp' width = '100%;'></div><div class = 'column'><img src = 'category3/CS2.png' width = '70%;'></div></div>","null","pos","CS","CS","3","category3/CS2.png","","","","",""
"","html-keyboard-response","17","656061","0.0-6.0-0.0-0.11","5o940q51gu","many_one","0","direct_first","1","ch07er25","1","28","1","0","3","1","Manchmal war die Zeit recht kurz, dadurch schwierig zu sehen/erkennen was abgebildet wurde. ","0","1","0","null","","","<div class = 'row'><div class = 'column'><img src = 'usneg/7380.bmp' width = '100%;'></div><div class = 'column'><img src = 'category1/CS3.png' width = '70%;'></div></div>","null","neg","CS","CS","1","category1/CS3.png","","","","",""
"","html-keyboard-response","18","658581","0.0-6.0-0.0-0.12","5o940q51gu","many_one","0","direct_first","1","ch07er25","1","28","1","0","3","1","Manchmal war die Zeit recht kurz, dadurch schwierig zu sehen/erkennen was abgebildet wurde. ","0","1","0","null","","","<div class = 'row'><div class = 'column'><img src = 'category4/CS3.png' width = '70%;'></div><div class = 'column'><img src = 'usneg/9050.bmp' width = '100%;'></div></div>","null","neg","CS","CS","4","category4/CS3.png","","","","",""
"","html-keyboard-response","19","661111","0.0-6.0-0.0-0.13","5o940q51gu","many_one","0","direct_first","1","ch07er25","1","28","1","0","3","1","Manchmal war die Zeit recht kurz, dadurch schwierig zu sehen/erkennen was abgebildet wurde. ","0","1","0","null","","","<div class = 'row'><div class = 'column'><img src = 'uspos/8190.bmp' width = '100%;'></div><div class = 'column'><img src = 'category3/CS7.png' width = '70%;'></div></div>","null","pos","CS","CS","3","category3/CS7.png","","","","",""
"","html-keyboard-response","20","663631","0.0-6.0-0.0-0.14","5o940q51gu","many_one","0","direct_first","1","ch07er25","1","28","1","0","3","1","Manchmal war die Zeit recht kurz, dadurch schwierig zu sehen/erkennen was abgebildet wurde. ","0","1","0","null","","","<div class = 'row'><div class = 'column'><img src = 'usneg/6838.bmp' width = '100%;'></div><div class = 'column'><img src = 'category4/CS2.png' width = '70%;'></div></div>","null","neg","CS","CS","4","category4/CS2.png","","","","",""
"","html-keyboard-response","21","666165","0.0-6.0-0.0-0.15","5o940q51gu","many_one","0","direct_first","1","ch07er25","1","28","1","0","3","1","Manchmal war die Zeit recht kurz, dadurch schwierig zu sehen/erkennen was abgebildet wurde. ","0","1","0","null","","","<div class = 'row'><div class = 'column'><img src = 'usneg/9340.bmp' width = '100%;'></div><div class = 'column'><img src = 'category1/CS9.png' width = '70%;'></div></div>","null","neg","CS","CS","1","category1/CS9.png","","","","",""
"","html-keyboard-response","22","668681","0.0-6.0-0.0-0.16","5o940q51gu","many_one","0","direct_first","1","ch07er25","1","28","1","0","3","1","Manchmal war die Zeit recht kurz, dadurch schwierig zu sehen/erkennen was abgebildet wurde. ","0","1","0","null","","","<div class = 'row'><div class = 'column'><img src = 'category3/CS5.png' width = '70%;'></div><div class = 'column'><img src = 'uspos/1340.bmp' width = '100%;'></div></div>","null","pos","CS","CS","3","category3/CS5.png","","","","",""
"","html-keyboard-response","23","671220","0.0-6.0-0.0-0.17","5o940q51gu","many_one","0","direct_first","1","ch07er25","1","28","1","0","3","1","Manchmal war die Zeit recht kurz, dadurch schwierig zu sehen/erkennen was abgebildet wurde. ","0","1","0","null","","","<div class = 'row'><div class = 'column'><img src = 'category3/CS8.png' width = '70%;'></div><div class = 'column'><img src = 'uspos/2341.bmp' width = '100%;'></div></div>","null","pos","CS","CS","3","category3/CS8.png","","","","",""
"","html-keyboard-response","24","673735","0.0-6.0-0.0-0.18","5o940q51gu","many_one","0","direct_first","1","ch07er25","1","28","1","0","3","1","Manchmal war die Zeit recht kurz, dadurch schwierig zu sehen/erkennen was abgebildet wurde. ","0","1","0","null","","","<div class = 'row'><div class = 'column'><img src = 'category1/CS1.png' width = '70%;'></div><div class = 'column'><img src = 'usneg/9290.bmp' width = '100%;'></div></div>","null","neg","CS","CS","1","category1/CS1.png","","","","",""
"","html-keyboard-response","25","676258","0.0-6.0-0.0-0.19","5o940q51gu","many_one","0","direct_first","1","ch07er25","1","28","1","0","3","1","Manchmal war die Zeit recht kurz, dadurch schwierig zu sehen/erkennen was abgebildet wurde. ","0","1","0","null","","","<div class = 'row'><div class = 'column'><img src = 'category2/CS6.png' width = '70%;'></div><div class = 'column'><img src = 'uspos/2057.bmp' width = '100%;'></div></div>","null","pos","CS","CS","2","category2/CS6.png","","","","",""
"","survey-html-form","26","682024","0.0-6.0-1.0","5o940q51gu","many_one","0","direct_first","1","ch07er25","1","28","1","0","3","1","Manchmal war die Zeit recht kurz, dadurch schwierig zu sehen/erkennen was abgebildet wurde. ","0","1","0","5263","","{}","","","","","","","","","","","",""
"","html-keyboard-response","27","686056","0.0-6.0-2.0-0.0","5o940q51gu","many_one","0","direct_first","1","ch07er25","1","28","1","0","3","1","Manchmal war die Zeit recht kurz, dadurch schwierig zu sehen/erkennen was abgebildet wurde. ","0","1","0","null","","","<div class = 'row'><div class = 'column'><img src = 'category2/CS9.png' width = '70%;'></div><div class = 'column'><img src = 'uspos/7325.bmp' width = '100%;'></div></div>","null","pos","CS","CS","2","category2/CS9.png","","","","",""
"","html-keyboard-response","28","688581","0.0-6.0-2.0-0.1","5o940q51gu","many_one","0","direct_first","1","ch07er25","1","28","1","0","3","1","Manchmal war die Zeit recht kurz, dadurch schwierig zu sehen/erkennen was abgebildet wurde. ","0","1","0","null","","","<div class = 'row'><div class = 'column'><img src = 'uspos/2058.bmp' width = '100%;'></div><div class = 'column'><img src = 'category2/CS4.png' width = '70%;'></div></div>","null","pos","CS","CS","2","category2/CS4.png","","","","",""
"","html-keyboard-response","29","691096","0.0-6.0-2.0-0.2","5o940q51gu","many_one","0","direct_first","1","ch07er25","1","28","1","0","3","1","Manchmal war die Zeit recht kurz, dadurch schwierig zu sehen/erkennen was abgebildet wurde. ","0","1","0","null","","","<div class = 'row'><div class = 'column'><img src = 'uspos/4599.bmp' width = '100%;'></div><div class = 'column'><img src = 'category3/CS10.png' width = '70%;'></div></div>","null","pos","CS","CS","3","category3/CS10.png","","","","",""
"","html-keyboard-response","30","693616","0.0-6.0-2.0-0.3","5o940q51gu","many_one","0","direct_first","1","ch07er25","1","28","1","0","3","1","Manchmal war die Zeit recht kurz, dadurch schwierig zu sehen/erkennen was abgebildet wurde. ","0","1","0","null","","","<div class = 'row'><div class = 'column'><img src = 'category4/CS3.png' width = '70%;'></div><div class = 'column'><img src = 'usneg/9050.bmp' width = '100%;'></div></div>","null","neg","CS","CS","4","category4/CS3.png","","","","",""
"","html-keyboard-response","31","696140","0.0-6.0-2.0-0.4","5o940q51gu","many_one","0","direct_first","1","ch07er25","1","28","1","0","3","1","Manchmal war die Zeit recht kurz, dadurch schwierig zu sehen/erkennen was abgebildet wurde. ","0","1","0","null","","","<div class = 'row'><div class = 'column'><img src = 'uspos/1340.bmp' width = '100%;'></div><div class = 'column'><img src = 'category3/CS5.png' width = '70%;'></div></div>","null","pos","CS","CS","3","category3/CS5.png","","","","",""
"","html-keyboard-response","32","698658","0.0-6.0-2.0-0.5","5o940q51gu","many_one","0","direct_first","1","ch07er25","1","28","1","0","3","1","Manchmal war die Zeit recht kurz, dadurch schwierig zu sehen/erkennen was abgebildet wurde. ","0","1","0","null","","","<div class = 'row'><div class = 'column'><img src = 'category3/CS8.png' width = '70%;'></div><div class = 'column'><img src = 'uspos/2341.bmp' width = '100%;'></div></div>","null","pos","CS","CS","3","category3/CS8.png","","","","",""
"","html-keyboard-response","33","701168","0.0-6.0-2.0-0.6","5o940q51gu","many_one","0","direct_first","1","ch07er25","1","28","1","0","3","1","Manchmal war die Zeit recht kurz, dadurch schwierig zu sehen/erkennen was abgebildet wurde. ","0","1","0","null","","","<div class = 'row'><div class = 'column'><img src = 'category1/CS9.png' width = '70%;'></div><div class = 'column'><img src = 'usneg/9340.bmp' width = '100%;'></div></div>","null","neg","CS","CS","1","category1/CS9.png","","","","",""
"","html-keyboard-response","34","703691","0.0-6.0-2.0-0.7","5o940q51gu","many_one","0","direct_first","1","ch07er25","1","28","1","0","3","1","Manchmal war die Zeit recht kurz, dadurch schwierig zu sehen/erkennen was abgebildet wurde. ","0","1","0","null","","","<div class = 'row'><div class = 'column'><img src = 'uspos/2040.bmp' width = '100%;'></div><div class = 'column'><img src = 'category2/CS3.png' width = '70%;'></div></div>","null","pos","CS","CS","2","category2/CS3.png","","","","",""
"","html-keyboard-response","35","706191","0.0-6.0-2.0-0.8","5o940q51gu","many_one","0","direct_first","1","ch07er25","1","28","1","0","3","1","Manchmal war die Zeit recht kurz, dadurch schwierig zu sehen/erkennen was abgebildet wurde. ","0","1","0","null","","","<div class = 'row'><div class = 'column'><img src = 'usneg/6838.bmp' width = '100%;'></div><div class = 'column'><img src = 'category4/CS2.png' width = '70%;'></div></div>","null","neg","CS","CS","4","category4/CS2.png","","","","",""
"","html-keyboard-response","36","708731","0.0-6.0-2.0-0.9","5o940q51gu","many_one","0","direct_first","1","ch07er25","1","28","1","0","3","1","Manchmal war die Zeit recht kurz, dadurch schwierig zu sehen/erkennen was abgebildet wurde. ","0","1","0","null","","","<div class = 'row'><div class = 'column'><img src = 'uspos/8190.bmp' width = '100%;'></div><div class = 'column'><img src = 'category3/CS7.png' width = '70%;'></div></div>","null","pos","CS","CS","3","category3/CS7.png","","","","",""
"","html-keyboard-response","37","711271","0.0-6.0-2.0-0.10","5o940q51gu","many_one","0","direct_first","1","ch07er25","1","28","1","0","3","1","Manchmal war die Zeit recht kurz, dadurch schwierig zu sehen/erkennen was abgebildet wurde. ","0","1","0","null","","","<div class = 'row'><div class = 'column'><img src = 'category4/CS5.png' width = '70%;'></div><div class = 'column'><img src = 'usneg/9561.bmp' width = '100%;'></div></div>","null","neg","CS","CS","4","category4/CS5.png","","","","",""
"","html-keyboard-response","38","713811","0.0-6.0-2.0-0.11","5o940q51gu","many_one","0","direct_first","1","ch07er25","1","28","1","0","3","1","Manchmal war die Zeit recht kurz, dadurch schwierig zu sehen/erkennen was abgebildet wurde. ","0","1","0","null","","","<div class = 'row'><div class = 'column'><img src = 'category4/CS1.png' width = '70%;'></div><div class = 'column'><img src = 'usneg/9584.bmp' width = '100%;'></div></div>","null","neg","CS","CS","4","category4/CS1.png","","","","",""
"","html-keyboard-response","39","716331","0.0-6.0-2.0-0.12","5o940q51gu","many_one","0","direct_first","1","ch07er25","1","28","1","0","3","1","Manchmal war die Zeit recht kurz, dadurch schwierig zu sehen/erkennen was abgebildet wurde. ","0","1","0","null","","","<div class = 'row'><div class = 'column'><img src = 'category2/CS8.png' width = '70%;'></div><div class = 'column'><img src = 'uspos/7580.bmp' width = '100%;'></div></div>","null","pos","CS","CS","2","category2/CS8.png","","","","",""
"","html-keyboard-response","40","718871","0.0-6.0-2.0-0.13","5o940q51gu","many_one","0","direct_first","1","ch07er25","1","28","1","0","3","1","Manchmal war die Zeit recht kurz, dadurch schwierig zu sehen/erkennen was abgebildet wurde. ","0","1","0","null","","","<div class = 'row'><div class = 'column'><img src = 'usneg/9000.bmp' width = '100%;'></div><div class = 'column'><img src = 'category1/CS6.png' width = '70%;'></div></div>","null","neg","CS","CS","1","category1/CS6.png","","","","",""
"","html-keyboard-response","41","721411","0.0-6.0-2.0-0.14","5o940q51gu","many_one","0","direct_first","1","ch07er25","1","28","1","0","3","1","Manchmal war die Zeit recht kurz, dadurch schwierig zu sehen/erkennen was abgebildet wurde. ","0","1","0","null","","","<div class = 'row'><div class = 'column'><img src = 'uspos/2208.bmp' width = '100%;'></div><div class = 'column'><img src = 'category3/CS2.png' width = '70%;'></div></div>","null","pos","CS","CS","3","category3/CS2.png","","","","",""
"","html-keyboard-response","42","723950","0.0-6.0-2.0-0.15","5o940q51gu","many_one","0","direct_first","1","ch07er25","1","28","1","0","3","1","Manchmal war die Zeit recht kurz, dadurch schwierig zu sehen/erkennen was abgebildet wurde. ","0","1","0","null","","","<div class = 'row'><div class = 'column'><img src = 'category1/CS5.png' width = '70%;'></div><div class = 'column'><img src = 'usneg/9220.bmp' width = '100%;'></div></div>","null","neg","CS","CS","1","category1/CS5.png","","","","",""
"","html-keyboard-response","43","726471","0.0-6.0-2.0-0.16","5o940q51gu","many_one","0","direct_first","1","ch07er25","1","28","1","0","3","1","Manchmal war die Zeit recht kurz, dadurch schwierig zu sehen/erkennen was abgebildet wurde. ","0","1","0","null","","","<div class = 'row'><div class = 'column'><img src = 'usneg/9290.bmp' width = '100%;'></div><div class = 'column'><img src = 'category1/CS1.png' width = '70%;'></div></div>","null","neg","CS","CS","1","category1/CS1.png","","","","",""
"","html-keyboard-response","44","728991","0.0-6.0-2.0-0.17","5o940q51gu","many_one","0","direct_first","1","ch07er25","1","28","1","0","3","1","Manchmal war die Zeit recht kurz, dadurch schwierig zu sehen/erkennen was abgebildet wurde. ","0","1","0","null","","","<div class = 'row'><div class = 'column'><img src = 'usneg/9041.bmp' width = '100%;'></div><div class = 'column'><img src = 'category4/CS10.png' width = '70%;'></div></div>","null","neg","CS","CS","4","category4/CS10.png","","","","",""
"","html-keyboard-response","45","731530","0.0-6.0-2.0-0.18","5o940q51gu","many_one","0","direct_first","1","ch07er25","1","28","1","0","3","1","Manchmal war die Zeit recht kurz, dadurch schwierig zu sehen/erkennen was abgebildet wurde. ","0","1","0","null","","","<div class = 'row'><div class = 'column'><img src = 'category1/CS3.png' width = '70%;'></div><div class = 'column'><img src = 'usneg/7380.bmp' width = '100%;'></div></div>","null","neg","CS","CS","1","category1/CS3.png","","","","",""
"","html-keyboard-response","46","734051","0.0-6.0-2.0-0.19","5o940q51gu","many_one","0","direct_first","1","ch07er25","1","28","1","0","3","1","Manchmal war die Zeit recht kurz, dadurch schwierig zu sehen/erkennen was abgebildet wurde. ","0","1","0","null","","","<div class = 'row'><div class = 'column'><img src = 'category2/CS6.png' width = '70%;'></div><div class = 'column'><img src = 'uspos/2057.bmp' width = '100%;'></div></div>","null","pos","CS","CS","2","category2/CS6.png","","","","",""
"","survey-html-form","47","736928","0.0-6.0-3.0","5o940q51gu","many_one","0","direct_first","1","ch07er25","1","28","1","0","3","1","Manchmal war die Zeit recht kurz, dadurch schwierig zu sehen/erkennen was abgebildet wurde. ","0","1","0","2358","","{}","","","","","","","","","","","",""
"","html-keyboard-response","48","740951","0.0-6.0-4.0-0.0","5o940q51gu","many_one","0","direct_first","1","ch07er25","1","28","1","0","3","1","Manchmal war die Zeit recht kurz, dadurch schwierig zu sehen/erkennen was abgebildet wurde. ","0","1","0","null","","","<div class = 'row'><div class = 'column'><img src = 'uspos/2040.bmp' width = '100%;'></div><div class = 'column'><img src = 'category2/CS3.png' width = '70%;'></div></div>","null","pos","CS","CS","2","category2/CS3.png","","","","",""
"","html-keyboard-response","49","743471","0.0-6.0-4.0-0.1","5o940q51gu","many_one","0","direct_first","1","ch07er25","1","28","1","0","3","1","Manchmal war die Zeit recht kurz, dadurch schwierig zu sehen/erkennen was abgebildet wurde. ","0","1","0","null","","","<div class = 'row'><div class = 'column'><img src = 'category3/CS7.png' width = '70%;'></div><div class = 'column'><img src = 'uspos/8190.bmp' width = '100%;'></div></div>","null","pos","CS","CS","3","category3/CS7.png","","","","",""
"","html-keyboard-response","50","745991","0.0-6.0-4.0-0.2","5o940q51gu","many_one","0","direct_first","1","ch07er25","1","28","1","0","3","1","Manchmal war die Zeit recht kurz, dadurch schwierig zu sehen/erkennen was abgebildet wurde. ","0","1","0","null","","","<div class = 'row'><div class = 'column'><img src = 'usneg/9041.bmp' width = '100%;'></div><div class = 'column'><img src = 'category4/CS10.png' width = '70%;'></div></div>","null","neg","CS","CS","4","category4/CS10.png","","","","",""
"","html-keyboard-response","51","748511","0.0-6.0-4.0-0.3","5o940q51gu","many_one","0","direct_first","1","ch07er25","1","28","1","0","3","1","Manchmal war die Zeit recht kurz, dadurch schwierig zu sehen/erkennen was abgebildet wurde. ","0","1","0","null","","","<div class = 'row'><div class = 'column'><img src = 'usneg/6838.bmp' width = '100%;'></div><div class = 'column'><img src = 'category4/CS2.png' width = '70%;'></div></div>","null","neg","CS","CS","4","category4/CS2.png","","","","",""
"","html-keyboard-response","52","751031","0.0-6.0-4.0-0.4","5o940q51gu","many_one","0","direct_first","1","ch07er25","1","28","1","0","3","1","Manchmal war die Zeit recht kurz, dadurch schwierig zu sehen/erkennen was abgebildet wurde. ","0","1","0","null","","","<div class = 'row'><div class = 'column'><img src = 'uspos/7325.bmp' width = '100%;'></div><div class = 'column'><img src = 'category2/CS9.png' width = '70%;'></div></div>","null","pos","CS","CS","2","category2/CS9.png","","","","",""
"","html-keyboard-response","53","753571","0.0-6.0-4.0-0.5","5o940q51gu","many_one","0","direct_first","1","ch07er25","1","28","1","0","3","1","Manchmal war die Zeit recht kurz, dadurch schwierig zu sehen/erkennen was abgebildet wurde. ","0","1","0","null","","","<div class = 'row'><div class = 'column'><img src = 'usneg/9340.bmp' width = '100%;'></div><div class = 'column'><img src = 'category1/CS9.png' width = '70%;'></div></div>","null","neg","CS","CS","1","category1/CS9.png","","","","",""
"","html-keyboard-response","54","756111","0.0-6.0-4.0-0.6","5o940q51gu","many_one","0","direct_first","1","ch07er25","1","28","1","0","3","1","Manchmal war die Zeit recht kurz, dadurch schwierig zu sehen/erkennen was abgebildet wurde. ","0","1","0","null","","","<div class = 'row'><div class = 'column'><img src = 'uspos/2057.bmp' width = '100%;'></div><div class = 'column'><img src = 'category2/CS6.png' width = '70%;'></div></div>","null","pos","CS","CS","2","category2/CS6.png","","","","",""
"","html-keyboard-response","55","758651","0.0-6.0-4.0-0.7","5o940q51gu","many_one","0","direct_first","1","ch07er25","1","28","1","0","3","1","Manchmal war die Zeit recht kurz, dadurch schwierig zu sehen/erkennen was abgebildet wurde. ","0","1","0","null","","","<div class = 'row'><div class = 'column'><img src = 'uspos/2208.bmp' width = '100%;'></div><div class = 'column'><img src = 'category3/CS2.png' width = '70%;'></div></div>","null","pos","CS","CS","3","category3/CS2.png","","","","",""
"","html-keyboard-response","56","761151","0.0-6.0-4.0-0.8","5o940q51gu","many_one","0","direct_first","1","ch07er25","1","28","1","0","3","1","Manchmal war die Zeit recht kurz, dadurch schwierig zu sehen/erkennen was abgebildet wurde. ","0","1","0","null","","","<div class = 'row'><div class = 'column'><img src = 'uspos/7580.bmp' width = '100%;'></div><div class = 'column'><img src = 'category2/CS8.png' width = '70%;'></div></div>","null","pos","CS","CS","2","category2/CS8.png","","","","",""
"","html-keyboard-response","57","763691","0.0-6.0-4.0-0.9","5o940q51gu","many_one","0","direct_first","1","ch07er25","1","28","1","0","3","1","Manchmal war die Zeit recht kurz, dadurch schwierig zu sehen/erkennen was abgebildet wurde. ","0","1","0","null","","","<div class = 'row'><div class = 'column'><img src = 'usneg/9290.bmp' width = '100%;'></div><div class = 'column'><img src = 'category1/CS1.png' width = '70%;'></div></div>","null","neg","CS","CS","1","category1/CS1.png","","","","",""
"","html-keyboard-response","58","766231","0.0-6.0-4.0-0.10","5o940q51gu","many_one","0","direct_first","1","ch07er25","1","28","1","0","3","1","Manchmal war die Zeit recht kurz, dadurch schwierig zu sehen/erkennen was abgebildet wurde. ","0","1","0","null","","","<div class = 'row'><div class = 'column'><img src = 'category3/CS5.png' width = '70%;'></div><div class = 'column'><img src = 'uspos/1340.bmp' width = '100%;'></div></div>","null","pos","CS","CS","3","category3/CS5.png","","","","",""
"","html-keyboard-response","59","768760","0.0-6.0-4.0-0.11","5o940q51gu","many_one","0","direct_first","1","ch07er25","1","28","1","0","3","1","Manchmal war die Zeit recht kurz, dadurch schwierig zu sehen/erkennen was abgebildet wurde. ","0","1","0","null","","","<div class = 'row'><div class = 'column'><img src = 'category4/CS5.png' width = '70%;'></div><div class = 'column'><img src = 'usneg/9561.bmp' width = '100%;'></div></div>","null","neg","CS","CS","4","category4/CS5.png","","","","",""
"","html-keyboard-response","60","771271","0.0-6.0-4.0-0.12","5o940q51gu","many_one","0","direct_first","1","ch07er25","1","28","1","0","3","1","Manchmal war die Zeit recht kurz, dadurch schwierig zu sehen/erkennen was abgebildet wurde. ","0","1","0","null","","","<div class = 'row'><div class = 'column'><img src = 'usneg/9050.bmp' width = '100%;'></div><div class = 'column'><img src = 'category4/CS3.png' width = '70%;'></div></div>","null","neg","CS","CS","4","category4/CS3.png","","","","",""
"","html-keyboard-response","61","773791","0.0-6.0-4.0-0.13","5o940q51gu","many_one","0","direct_first","1","ch07er25","1","28","1","0","3","1","Manchmal war die Zeit recht kurz, dadurch schwierig zu sehen/erkennen was abgebildet wurde. ","0","1","0","null","","","<div class = 'row'><div class = 'column'><img src = 'uspos/2341.bmp' width = '100%;'></div><div class = 'column'><img src = 'category3/CS8.png' width = '70%;'></div></div>","null","pos","CS","CS","3","category3/CS8.png","","","","",""
"","html-keyboard-response","62","776331","0.0-6.0-4.0-0.14","5o940q51gu","many_one","0","direct_first","1","ch07er25","1","28","1","0","3","1","Manchmal war die Zeit recht kurz, dadurch schwierig zu sehen/erkennen was abgebildet wurde. ","0","1","0","null","","","<div class = 'row'><div class = 'column'><img src = 'uspos/2058.bmp' width = '100%;'></div><div class = 'column'><img src = 'category2/CS4.png' width = '70%;'></div></div>","null","pos","CS","CS","2","category2/CS4.png","","","","",""
"","html-keyboard-response","63","778871","0.0-6.0-4.0-0.15","5o940q51gu","many_one","0","direct_first","1","ch07er25","1","28","1","0","3","1","Manchmal war die Zeit recht kurz, dadurch schwierig zu sehen/erkennen was abgebildet wurde. ","0","1","0","null","","","<div class = 'row'><div class = 'column'><img src = 'category1/CS3.png' width = '70%;'></div><div class = 'column'><img src = 'usneg/7380.bmp' width = '100%;'></div></div>","null","neg","CS","CS","1","category1/CS3.png","","","","",""
"","html-keyboard-response","64","781391","0.0-6.0-4.0-0.16","5o940q51gu","many_one","0","direct_first","1","ch07er25","1","28","1","0","3","1","Manchmal war die Zeit recht kurz, dadurch schwierig zu sehen/erkennen was abgebildet wurde. ","0","1","0","null","","","<div class = 'row'><div class = 'column'><img src = 'category1/CS6.png' width = '70%;'></div><div class = 'column'><img src = 'usneg/9000.bmp' width = '100%;'></div></div>","null","neg","CS","CS","1","category1/CS6.png","","","","",""
"","html-keyboard-response","65","783911","0.0-6.0-4.0-0.17","5o940q51gu","many_one","0","direct_first","1","ch07er25","1","28","1","0","3","1","Manchmal war die Zeit recht kurz, dadurch schwierig zu sehen/erkennen was abgebildet wurde. ","0","1","0","null","","","<div class = 'row'><div class = 'column'><img src = 'category1/CS5.png' width = '70%;'></div><div class = 'column'><img src = 'usneg/9220.bmp' width = '100%;'></div></div>","null","neg","CS","CS","1","category1/CS5.png","","","","",""
"","html-keyboard-response","66","786451","0.0-6.0-4.0-0.18","5o940q51gu","many_one","0","direct_first","1","ch07er25","1","28","1","0","3","1","Manchmal war die Zeit recht kurz, dadurch schwierig zu sehen/erkennen was abgebildet wurde. ","0","1","0","null","","","<div class = 'row'><div class = 'column'><img src = 'category3/CS10.png' width = '70%;'></div><div class = 'column'><img src = 'uspos/4599.bmp' width = '100%;'></div></div>","null","pos","CS","CS","3","category3/CS10.png","","","","",""
"","html-keyboard-response","67","788991","0.0-6.0-4.0-0.19","5o940q51gu","many_one","0","direct_first","1","ch07er25","1","28","1","0","3","1","Manchmal war die Zeit recht kurz, dadurch schwierig zu sehen/erkennen was abgebildet wurde. ","0","1","0","null","","","<div class = 'row'><div class = 'column'><img src = 'category4/CS1.png' width = '70%;'></div><div class = 'column'><img src = 'usneg/9584.bmp' width = '100%;'></div></div>","null","neg","CS","CS","4","category4/CS1.png","","","","",""
"","survey-html-form","68","794944","0.0-6.0-5.0","5o940q51gu","many_one","0","direct_first","1","ch07er25","1","28","1","0","3","1","Manchmal war die Zeit recht kurz, dadurch schwierig zu sehen/erkennen was abgebildet wurde. ","0","1","0","5433","","{}","","","","","","","","","","","",""
"","html-keyboard-response","69","798981","0.0-6.0-6.0-0.0","5o940q51gu","many_one","0","direct_first","1","ch07er25","1","28","1","0","3","1","Manchmal war die Zeit recht kurz, dadurch schwierig zu sehen/erkennen was abgebildet wurde. ","0","1","0","null","","","<div class = 'row'><div class = 'column'><img src = 'uspos/7325.bmp' width = '100%;'></div><div class = 'column'><img src = 'category2/CS9.png' width = '70%;'></div></div>","null","pos","CS","CS","2","category2/CS9.png","","","","",""
"","html-keyboard-response","70","801521","0.0-6.0-6.0-0.1","5o940q51gu","many_one","0","direct_first","1","ch07er25","1","28","1","0","3","1","Manchmal war die Zeit recht kurz, dadurch schwierig zu sehen/erkennen was abgebildet wurde. ","0","1","0","null","","","<div class = 'row'><div class = 'column'><img src = 'category2/CS6.png' width = '70%;'></div><div class = 'column'><img src = 'uspos/2057.bmp' width = '100%;'></div></div>","null","pos","CS","CS","2","category2/CS6.png","","","","",""
"","html-keyboard-response","71","804061","0.0-6.0-6.0-0.2","5o940q51gu","many_one","0","direct_first","1","ch07er25","1","28","1","0","3","1","Manchmal war die Zeit recht kurz, dadurch schwierig zu sehen/erkennen was abgebildet wurde. ","0","1","0","null","","","<div class = 'row'><div class = 'column'><img src = 'uspos/2040.bmp' width = '100%;'></div><div class = 'column'><img src = 'category2/CS3.png' width = '70%;'></div></div>","null","pos","CS","CS","2","category2/CS3.png","","","","",""
"","html-keyboard-response","72","806601","0.0-6.0-6.0-0.3","5o940q51gu","many_one","0","direct_first","1","ch07er25","1","28","1","0","3","1","Manchmal war die Zeit recht kurz, dadurch schwierig zu sehen/erkennen was abgebildet wurde. ","0","1","0","null","","","<div class = 'row'><div class = 'column'><img src = 'usneg/9220.bmp' width = '100%;'></div><div class = 'column'><img src = 'category1/CS5.png' width = '70%;'></div></div>","null","neg","CS","CS","1","category1/CS5.png","","","","",""
"","html-keyboard-response","73","809141","0.0-6.0-6.0-0.4","5o940q51gu","many_one","0","direct_first","1","ch07er25","1","28","1","0","3","1","Manchmal war die Zeit recht kurz, dadurch schwierig zu sehen/erkennen was abgebildet wurde. ","0","1","0","null","","","<div class = 'row'><div class = 'column'><img src = 'category1/CS1.png' width = '70%;'></div><div class = 'column'><img src = 'usneg/9290.bmp' width = '100%;'></div></div>","null","neg","CS","CS","1","category1/CS1.png","","","","",""
"","html-keyboard-response","74","811661","0.0-6.0-6.0-0.5","5o940q51gu","many_one","0","direct_first","1","ch07er25","1","28","1","0","3","1","Manchmal war die Zeit recht kurz, dadurch schwierig zu sehen/erkennen was abgebildet wurde. ","0","1","0","null","","","<div class = 'row'><div class = 'column'><img src = 'usneg/9340.bmp' width = '100%;'></div><div class = 'column'><img src = 'category1/CS9.png' width = '70%;'></div></div>","null","neg","CS","CS","1","category1/CS9.png","","","","",""
"","html-keyboard-response","75","814181","0.0-6.0-6.0-0.6","5o940q51gu","many_one","0","direct_first","1","ch07er25","1","28","1","0","3","1","Manchmal war die Zeit recht kurz, dadurch schwierig zu sehen/erkennen was abgebildet wurde. ","0","1","0","null","","","<div class = 'row'><div class = 'column'><img src = 'category3/CS10.png' width = '70%;'></div><div class = 'column'><img src = 'uspos/4599.bmp' width = '100%;'></div></div>","null","pos","CS","CS","3","category3/CS10.png","","","","",""
"","html-keyboard-response","76","816700","0.0-6.0-6.0-0.7","5o940q51gu","many_one","0","direct_first","1","ch07er25","1","28","1","0","3","1","Manchmal war die Zeit recht kurz, dadurch schwierig zu sehen/erkennen was abgebildet wurde. ","0","1","0","null","","","<div class = 'row'><div class = 'column'><img src = 'usneg/9561.bmp' width = '100%;'></div><div class = 'column'><img src = 'category4/CS5.png' width = '70%;'></div></div>","null","neg","CS","CS","4","category4/CS5.png","","","","",""
"","html-keyboard-response","77","819221","0.0-6.0-6.0-0.8","5o940q51gu","many_one","0","direct_first","1","ch07er25","1","28","1","0","3","1","Manchmal war die Zeit recht kurz, dadurch schwierig zu sehen/erkennen was abgebildet wurde. ","0","1","0","null","","","<div class = 'row'><div class = 'column'><img src = 'category3/CS2.png' width = '70%;'></div><div class = 'column'><img src = 'uspos/2208.bmp' width = '100%;'></div></div>","null","pos","CS","CS","3","category3/CS2.png","","","","",""
"","html-keyboard-response","78","821741","0.0-6.0-6.0-0.9","5o940q51gu","many_one","0","direct_first","1","ch07er25","1","28","1","0","3","1","Manchmal war die Zeit recht kurz, dadurch schwierig zu sehen/erkennen was abgebildet wurde. ","0","1","0","null","","","<div class = 'row'><div class = 'column'><img src = 'usneg/7380.bmp' width = '100%;'></div><div class = 'column'><img src = 'category1/CS3.png' width = '70%;'></div></div>","null","neg","CS","CS","1","category1/CS3.png","","","","",""
"","html-keyboard-response","79","824261","0.0-6.0-6.0-0.10","5o940q51gu","many_one","0","direct_first","1","ch07er25","1","28","1","0","3","1","Manchmal war die Zeit recht kurz, dadurch schwierig zu sehen/erkennen was abgebildet wurde. ","0","1","0","null","","","<div class = 'row'><div class = 'column'><img src = 'uspos/2341.bmp' width = '100%;'></div><div class = 'column'><img src = 'category3/CS8.png' width = '70%;'></div></div>","null","pos","CS","CS","3","category3/CS8.png","","","","",""
"","html-keyboard-response","80","826801","0.0-6.0-6.0-0.11","5o940q51gu","many_one","0","direct_first","1","ch07er25","1","28","1","0","3","1","Manchmal war die Zeit recht kurz, dadurch schwierig zu sehen/erkennen was abgebildet wurde. ","0","1","0","null","","","<div class = 'row'><div class = 'column'><img src = 'category2/CS8.png' width = '70%;'></div><div class = 'column'><img src = 'uspos/7580.bmp' width = '100%;'></div></div>","null","pos","CS","CS","2","category2/CS8.png","","","","",""
"","html-keyboard-response","81","829321","0.0-6.0-6.0-0.12","5o940q51gu","many_one","0","direct_first","1","ch07er25","1","28","1","0","3","1","Manchmal war die Zeit recht kurz, dadurch schwierig zu sehen/erkennen was abgebildet wurde. ","0","1","0","null","","","<div class = 'row'><div class = 'column'><img src = 'category4/CS3.png' width = '70%;'></div><div class = 'column'><img src = 'usneg/9050.bmp' width = '100%;'></div></div>","null","neg","CS","CS","4","category4/CS3.png","","","","",""
"","html-keyboard-response","82","831841","0.0-6.0-6.0-0.13","5o940q51gu","many_one","0","direct_first","1","ch07er25","1","28","1","0","3","1","Manchmal war die Zeit recht kurz, dadurch schwierig zu sehen/erkennen was abgebildet wurde. ","0","1","0","null","","","<div class = 'row'><div class = 'column'><img src = 'uspos/2058.bmp' width = '100%;'></div><div class = 'column'><img src = 'category2/CS4.png' width = '70%;'></div></div>","null","pos","CS","CS","2","category2/CS4.png","","","","",""
"","html-keyboard-response","83","834361","0.0-6.0-6.0-0.14","5o940q51gu","many_one","0","direct_first","1","ch07er25","1","28","1","0","3","1","Manchmal war die Zeit recht kurz, dadurch schwierig zu sehen/erkennen was abgebildet wurde. ","0","1","0","null","","","<div class = 'row'><div class = 'column'><img src = 'category3/CS7.png' width = '70%;'></div><div class = 'column'><img src = 'uspos/8190.bmp' width = '100%;'></div></div>","null","pos","CS","CS","3","category3/CS7.png","","","","",""
"","html-keyboard-response","84","836881","0.0-6.0-6.0-0.15","5o940q51gu","many_one","0","direct_first","1","ch07er25","1","28","1","0","3","1","Manchmal war die Zeit recht kurz, dadurch schwierig zu sehen/erkennen was abgebildet wurde. ","0","1","0","null","","","<div class = 'row'><div class = 'column'><img src = 'category4/CS1.png' width = '70%;'></div><div class = 'column'><img src = 'usneg/9584.bmp' width = '100%;'></div></div>","null","neg","CS","CS","4","category4/CS1.png","","","","",""
"","html-keyboard-response","85","839421","0.0-6.0-6.0-0.16","5o940q51gu","many_one","0","direct_first","1","ch07er25","1","28","1","0","3","1","Manchmal war die Zeit recht kurz, dadurch schwierig zu sehen/erkennen was abgebildet wurde. ","0","1","0","null","","","<div class = 'row'><div class = 'column'><img src = 'usneg/6838.bmp' width = '100%;'></div><div class = 'column'><img src = 'category4/CS2.png' width = '70%;'></div></div>","null","neg","CS","CS","4","category4/CS2.png","","","","",""
"","html-keyboard-response","86","841961","0.0-6.0-6.0-0.17","5o940q51gu","many_one","0","direct_first","1","ch07er25","1","28","1","0","3","1","Manchmal war die Zeit recht kurz, dadurch schwierig zu sehen/erkennen was abgebildet wurde. ","0","1","0","null","","","<div class = 'row'><div class = 'column'><img src = 'category4/CS10.png' width = '70%;'></div><div class = 'column'><img src = 'usneg/9041.bmp' width = '100%;'></div></div>","null","neg","CS","CS","4","category4/CS10.png","","","","",""
"","html-keyboard-response","87","844482","0.0-6.0-6.0-0.18","5o940q51gu","many_one","0","direct_first","1","ch07er25","1","28","1","0","3","1","Manchmal war die Zeit recht kurz, dadurch schwierig zu sehen/erkennen was abgebildet wurde. ","0","1","0","null","","","<div class = 'row'><div class = 'column'><img src = 'category3/CS5.png' width = '70%;'></div><div class = 'column'><img src = 'uspos/1340.bmp' width = '100%;'></div></div>","null","pos","CS","CS","3","category3/CS5.png","","","","",""
"","html-keyboard-response","88","847021","0.0-6.0-6.0-0.19","5o940q51gu","many_one","0","direct_first","1","ch07er25","1","28","1","0","3","1","Manchmal war die Zeit recht kurz, dadurch schwierig zu sehen/erkennen was abgebildet wurde. ","0","1","0","null","","","<div class = 'row'><div class = 'column'><img src = 'usneg/9000.bmp' width = '100%;'></div><div class = 'column'><img src = 'category1/CS6.png' width = '70%;'></div></div>","null","neg","CS","CS","1","category1/CS6.png","","","","",""
"","survey-html-form","89","873657","0.0-7.0","5o940q51gu","many_one","0","direct_first","1","ch07er25","1","28","1","0","3","1","Manchmal war die Zeit recht kurz, dadurch schwierig zu sehen/erkennen was abgebildet wurde. ","0","1","0","26115","","{}","","","","","","","","","","","",""
"","image-slider-response","90","891864","0.0-8.0-0.0","5o940q51gu","many_one","0","direct_first","1","ch07er25","1","28","1","0","3","1","Manchmal war die Zeit recht kurz, dadurch schwierig zu sehen/erkennen was abgebildet wurde. ","0","1","0","16200","","","","","pos","GS","abstract","3","category3/wang.png","-24","targets/32.png","direct","",""
"","image-slider-response","91","898096","0.0-8.0-0.1","5o940q51gu","many_one","0","direct_first","1","ch07er25","1","28","1","0","3","1","Manchmal war die Zeit recht kurz, dadurch schwierig zu sehen/erkennen was abgebildet wurde. ","0","1","0","6231","","","","","neg","GS","GSold","1","category1/CS8.png","-32","targets/18.png","direct","",""
"","image-slider-response","92","901464","0.0-8.0-0.2","5o940q51gu","many_one","0","direct_first","1","ch07er25","1","28","1","0","3","1","Manchmal war die Zeit recht kurz, dadurch schwierig zu sehen/erkennen was abgebildet wurde. ","0","1","0","3367","","","","","neg","CS","CS","1","category1/CS6.png","-33","targets/7.png","direct","",""
"","image-slider-response","93","904849","0.0-8.0-0.3","5o940q51gu","many_one","0","direct_first","1","ch07er25","1","28","1","0","3","1","Manchmal war die Zeit recht kurz, dadurch schwierig zu sehen/erkennen was abgebildet wurde. ","0","1","0","3383","","","","","neg","GS","GSold","4","category4/CS7.png","-36","targets/9.png","direct","",""
"","image-slider-response","94","910784","0.0-8.0-0.4","5o940q51gu","many_one","0","direct_first","1","ch07er25","1","28","1","0","3","1","Manchmal war die Zeit recht kurz, dadurch schwierig zu sehen/erkennen was abgebildet wurde. ","0","1","0","5934","","","","","pos","CS","CS","2","category2/CS4.png","-23","targets/46.png","direct","",""
"","image-slider-response","95","917360","0.0-8.0-0.5","5o940q51gu","many_one","0","direct_first","1","ch07er25","1","28","1","0","3","1","Manchmal war die Zeit recht kurz, dadurch schwierig zu sehen/erkennen was abgebildet wurde. ","0","1","0","6575","","","","","pos","GS","abstract","2","category2/men.png","48","targets/35.png","direct","",""
"","image-slider-response","96","922888","0.0-8.0-0.6","5o940q51gu","many_one","0","direct_first","1","ch07er25","1","28","1","0","3","1","Manchmal war die Zeit recht kurz, dadurch schwierig zu sehen/erkennen was abgebildet wurde. ","0","1","0","5526","","","","","pos","CS","CS","2","category2/CS6.png","-37","targets/8.png","direct","",""
"","image-slider-response","97","931184","0.0-8.0-0.7","5o940q51gu","many_one","0","direct_first","1","ch07er25","1","28","1","0","3","1","Manchmal war die Zeit recht kurz, dadurch schwierig zu sehen/erkennen was abgebildet wurde. ","0","1","0","8295","","","","","pos","CS","CS","3","category3/CS8.png","-41","targets/34.png","direct","",""
"","image-slider-response","98","934352","0.0-8.0-0.8","5o940q51gu","many_one","0","direct_first","1","ch07er25","1","28","1","0","3","1","Manchmal war die Zeit recht kurz, dadurch schwierig zu sehen/erkennen was abgebildet wurde. ","0","1","0","3166","","","","","neg","GS","GSnew","1","category1/GS1.png","-20","targets/25.png","direct","",""
"","image-slider-response","99","936968","0.0-8.0-0.9","5o940q51gu","many_one","0","direct_first","1","ch07er25","1","28","1","0","3","1","Manchmal war die Zeit recht kurz, dadurch schwierig zu sehen/erkennen was abgebildet wurde. ","0","1","0","2614","","","","","neg","CS","CS","4","category4/CS3.png","-18","targets/33.png","direct","",""
"","image-slider-response","100","940912","0.0-8.0-0.10","5o940q51gu","many_one","0","direct_first","1","ch07er25","1","28","1","0","3","1","Manchmal war die Zeit recht kurz, dadurch schwierig zu sehen/erkennen was abgebildet wurde. ","0","1","0","3943","","","","","neg","CS","CS","4","category4/CS10.png","-25","targets/42.png","direct","",""
"","image-slider-response","101","945584","0.0-8.0-0.11","5o940q51gu","many_one","0","direct_first","1","ch07er25","1","28","1","0","3","1","Manchmal war die Zeit recht kurz, dadurch schwierig zu sehen/erkennen was abgebildet wurde. ","0","1","0","4671","","","","","pos","CS","CS","3","category3/CS2.png","23","targets/2.png","direct","",""
"","image-slider-response","102","950760","0.0-8.0-0.12","5o940q51gu","many_one","0","direct_first","1","ch07er25","1","28","1","0","3","1","Manchmal war die Zeit recht kurz, dadurch schwierig zu sehen/erkennen was abgebildet wurde. ","0","1","0","5174","","","","","neg","GS","GSnew","4","category4/GS2.png","22","targets/21.png","direct","",""
"","image-slider-response","103","953576","0.0-8.0-0.13","5o940q51gu","many_one","0","direct_first","1","ch07er25","1","28","1","0","3","1","Manchmal war die Zeit recht kurz, dadurch schwierig zu sehen/erkennen was abgebildet wurde. ","0","1","0","2815","","","","","neg","GS","GSold","4","category4/CS4.png","-45","targets/23.png","direct","",""
"","image-slider-response","104","955456","0.0-8.0-0.14","5o940q51gu","many_one","0","direct_first","1","ch07er25","1","28","1","0","3","1","Manchmal war die Zeit recht kurz, dadurch schwierig zu sehen/erkennen was abgebildet wurde. ","0","1","0","1879","","","","","neg","GS","GSold","4","category4/CS6.png","-50","targets/13.png","direct","",""
"","image-slider-response","105","958249","0.0-8.0-0.15","5o940q51gu","many_one","0","direct_first","1","ch07er25","1","28","1","0","3","1","Manchmal war die Zeit recht kurz, dadurch schwierig zu sehen/erkennen was abgebildet wurde. ","0","1","0","2792","","","","","neg","CS","CS","1","category1/CS5.png","-12","targets/26.png","direct","",""
"","image-slider-response","106","961241","0.0-8.0-0.16","5o940q51gu","many_one","0","direct_first","1","ch07er25","1","28","1","0","3","1","Manchmal war die Zeit recht kurz, dadurch schwierig zu sehen/erkennen was abgebildet wurde. ","0","1","0","2991","","","","","neg","CS","CS","1","category1/CS9.png","-11","targets/4.png","direct","",""
"","image-slider-response","107","963457","0.0-8.0-0.17","5o940q51gu","many_one","0","direct_first","1","ch07er25","1","28","1","0","3","1","Manchmal war die Zeit recht kurz, dadurch schwierig zu sehen/erkennen was abgebildet wurde. ","0","1","0","2215","","","","","neg","CS","CS","4","category4/CS5.png","-24","targets/17.png","direct","",""
"","image-slider-response","108","968209","0.0-8.0-0.18","5o940q51gu","many_one","0","direct_first","1","ch07er25","1","28","1","0","3","1","Manchmal war die Zeit recht kurz, dadurch schwierig zu sehen/erkennen was abgebildet wurde. ","0","1","0","4750","","","","","pos","CS","CS","2","category2/CS8.png","24","targets/29.png","direct","",""
"","image-slider-response","109","970560","0.0-8.0-0.19","5o940q51gu","many_one","0","direct_first","1","ch07er25","1","28","1","0","3","1","Manchmal war die Zeit recht kurz, dadurch schwierig zu sehen/erkennen was abgebildet wurde. ","0","1","0","2351","","","","","neg","CS","CS","4","category4/CS2.png","-39","targets/39.png","direct","",""
"","image-slider-response","110","976608","0.0-8.0-0.20","5o940q51gu","many_one","0","direct_first","1","ch07er25","1","28","1","0","3","1","Manchmal war die Zeit recht kurz, dadurch schwierig zu sehen/erkennen was abgebildet wurde. ","0","1","0","6047","","","","","pos","GS","GSold","3","category3/CS6.png","0","targets/28.png","direct","",""
"","image-slider-response","111","979184","0.0-8.0-0.21","5o940q51gu","many_one","0","direct_first","1","ch07er25","1","28","1","0","3","1","Manchmal war die Zeit recht kurz, dadurch schwierig zu sehen/erkennen was abgebildet wurde. ","0","1","0","2575","","","","","neg","CS","CS","4","category4/CS1.png","-33","targets/10.png","direct","",""
"","image-slider-response","112","982264","0.0-8.0-0.22","5o940q51gu","many_one","0","direct_first","1","ch07er25","1","28","1","0","3","1","Manchmal war die Zeit recht kurz, dadurch schwierig zu sehen/erkennen was abgebildet wurde. ","0","1","0","3079","","","","","neg","GS","abstract","1","category1/ma.png","23","targets/36.png","direct","",""
"","image-slider-response","113","985080","0.0-8.0-0.23","5o940q51gu","many_one","0","direct_first","1","ch07er25","1","28","1","0","3","1","Manchmal war die Zeit recht kurz, dadurch schwierig zu sehen/erkennen was abgebildet wurde. ","0","1","0","2815","","","","","pos","GS","GSnew","3","category3/GS1.png","-40","targets/47.png","direct","",""
"","image-slider-response","114","990248","0.0-8.0-0.24","5o940q51gu","many_one","0","direct_first","1","ch07er25","1","28","1","0","3","1","Manchmal war die Zeit recht kurz, dadurch schwierig zu sehen/erkennen was abgebildet wurde. ","0","1","0","5167","","","","","neg","GS","GSnew","4","category4/GS3.png","15","targets/6.png","direct","",""
"","image-slider-response","115","994024","0.0-8.0-0.25","5o940q51gu","many_one","0","direct_first","1","ch07er25","1","28","1","0","3","1","Manchmal war die Zeit recht kurz, dadurch schwierig zu sehen/erkennen was abgebildet wurde. ","0","1","0","3775","","","","","pos","GS","GSnew","2","category2/GS1.png","27","targets/15.png","direct","",""
"","image-slider-response","116","996696","0.0-8.0-0.26","5o940q51gu","many_one","0","direct_first","1","ch07er25","1","28","1","0","3","1","Manchmal war die Zeit recht kurz, dadurch schwierig zu sehen/erkennen was abgebildet wurde. ","0","1","0","2670","","","","","neg","CS","CS","1","category1/CS3.png","-20","targets/3.png","direct","",""
"","image-slider-response","117","1001968","0.0-8.0-0.27","5o940q51gu","many_one","0","direct_first","1","ch07er25","1","28","1","0","3","1","Manchmal war die Zeit recht kurz, dadurch schwierig zu sehen/erkennen was abgebildet wurde. ","0","1","0","5270","","","","","pos","CS","CS","2","category2/CS3.png","29","targets/43.png","direct","",""
"","image-slider-response","118","1004464","0.0-8.0-0.28","5o940q51gu","many_one","0","direct_first","1","ch07er25","1","28","1","0","3","1","Manchmal war die Zeit recht kurz, dadurch schwierig zu sehen/erkennen was abgebildet wurde. ","0","1","0","2495","","","","","pos","GS","GSnew","2","category2/GS3.png","44","targets/20.png","direct","",""
"","image-slider-response","119","1009729","0.0-8.0-0.29","5o940q51gu","many_one","0","direct_first","1","ch07er25","1","28","1","0","3","1","Manchmal war die Zeit recht kurz, dadurch schwierig zu sehen/erkennen was abgebildet wurde. ","0","1","0","5262","","","","","neg","GS","GSold","1","category1/CS4.png","-21","targets/12.png","direct","",""
"","image-slider-response","120","1014352","0.0-8.0-0.30","5o940q51gu","many_one","0","direct_first","1","ch07er25","1","28","1","0","3","1","Manchmal war die Zeit recht kurz, dadurch schwierig zu sehen/erkennen was abgebildet wurde. ","0","1","0","4622","","","","","pos","GS","GSnew","3","category3/GS3.png","7","targets/11.png","direct","",""
"","image-slider-response","121","1017569","0.0-8.0-0.31","5o940q51gu","many_one","0","direct_first","1","ch07er25","1","28","1","0","3","1","Manchmal war die Zeit recht kurz, dadurch schwierig zu sehen/erkennen was abgebildet wurde. ","0","1","0","3215","","","","","pos","GS","GSnew","2","category2/GS2.png","13","targets/27.png","direct","",""
"","image-slider-response","122","1021449","0.0-8.0-0.32","5o940q51gu","many_one","0","direct_first","1","ch07er25","1","28","1","0","3","1","Manchmal war die Zeit recht kurz, dadurch schwierig zu sehen/erkennen was abgebildet wurde. ","0","1","0","3878","","","","","pos","GS","GSold","2","category2/CS2.png","15","targets/1.png","direct","",""
"","image-slider-response","123","1026120","0.0-8.0-0.33","5o940q51gu","many_one","0","direct_first","1","ch07er25","1","28","1","0","3","1","Manchmal war die Zeit recht kurz, dadurch schwierig zu sehen/erkennen was abgebildet wurde. ","0","1","0","4670","","","","","pos","CS","CS","3","category3/CS7.png","11","targets/31.png","direct","",""
"","image-slider-response","124","1030512","0.0-8.0-0.34","5o940q51gu","many_one","0","direct_first","1","ch07er25","1","28","1","0","3","1","Manchmal war die Zeit recht kurz, dadurch schwierig zu sehen/erkennen was abgebildet wurde. ","0","1","0","4391","","","","","pos","GS","GSold","2","category2/CS7.png","35","targets/45.png","direct","",""
"","image-slider-response","125","1033305","0.0-8.0-0.35","5o940q51gu","many_one","0","direct_first","1","ch07er25","1","28","1","0","3","1","Manchmal war die Zeit recht kurz, dadurch schwierig zu sehen/erkennen was abgebildet wurde. ","0","1","0","2790","","","","","pos","GS","GSold","3","category3/CS4.png","13","targets/48.png","direct","",""
"","image-slider-response","126","1037264","0.0-8.0-0.36","5o940q51gu","many_one","0","direct_first","1","ch07er25","1","28","1","0","3","1","Manchmal war die Zeit recht kurz, dadurch schwierig zu sehen/erkennen was abgebildet wurde. ","0","1","0","3959","","","","","pos","CS","CS","3","category3/CS10.png","-23","targets/41.png","direct","",""
"","image-slider-response","127","1041176","0.0-8.0-0.37","5o940q51gu","many_one","0","direct_first","1","ch07er25","1","28","1","0","3","1","Manchmal war die Zeit recht kurz, dadurch schwierig zu sehen/erkennen was abgebildet wurde. ","0","1","0","3910","","","","","neg","CS","CS","1","category1/CS1.png","-34","targets/37.png","direct","",""
"","image-slider-response","128","1044240","0.0-8.0-0.38","5o940q51gu","many_one","0","direct_first","1","ch07er25","1","28","1","0","3","1","Manchmal war die Zeit recht kurz, dadurch schwierig zu sehen/erkennen was abgebildet wurde. ","0","1","0","3063","","","","","pos","GS","GSold","2","category2/CS10.png","-41","targets/24.png","direct","",""
"","image-slider-response","129","1047464","0.0-8.0-0.39","5o940q51gu","many_one","0","direct_first","1","ch07er25","1","28","1","0","3","1","Manchmal war die Zeit recht kurz, dadurch schwierig zu sehen/erkennen was abgebildet wurde. ","0","1","0","3222","","","","","neg","GS","GSnew","1","category1/GS3.png","-20","targets/14.png","direct","",""
"","image-slider-response","130","1056024","0.0-8.0-0.40","5o940q51gu","many_one","0","direct_first","1","ch07er25","1","28","1","0","3","1","Manchmal war die Zeit recht kurz, dadurch schwierig zu sehen/erkennen was abgebildet wurde. ","0","1","0","8559","","","","","pos","GS","GSnew","3","category3/GS2.png","-30","targets/16.png","direct","",""
"","image-slider-response","131","1059488","0.0-8.0-0.41","5o940q51gu","many_one","0","direct_first","1","ch07er25","1","28","1","0","3","1","Manchmal war die Zeit recht kurz, dadurch schwierig zu sehen/erkennen was abgebildet wurde. ","0","1","0","3462","","","","","pos","CS","CS","3","category3/CS5.png","-17","targets/30.png","direct","",""
"","image-slider-response","132","1063288","0.0-8.0-0.42","5o940q51gu","many_one","0","direct_first","1","ch07er25","1","28","1","0","3","1","Manchmal war die Zeit recht kurz, dadurch schwierig zu sehen/erkennen was abgebildet wurde. ","0","1","0","3799","","","","","neg","GS","GSnew","4","category4/GS1.png","8","targets/44.png","direct","",""
"","image-slider-response","133","1066536","0.0-8.0-0.43","5o940q51gu","many_one","0","direct_first","1","ch07er25","1","28","1","0","3","1","Manchmal war die Zeit recht kurz, dadurch schwierig zu sehen/erkennen was abgebildet wurde. ","0","1","0","3246","","","","","pos","CS","CS","2","category2/CS9.png","12","targets/19.png","direct","",""
"","image-slider-response","134","1070472","0.0-8.0-0.44","5o940q51gu","many_one","0","direct_first","1","ch07er25","1","28","1","0","3","1","Manchmal war die Zeit recht kurz, dadurch schwierig zu sehen/erkennen was abgebildet wurde. ","0","1","0","3934","","","","","neg","GS","abstract","4","category4/lin.png","25","targets/22.png","direct","",""
"","image-slider-response","135","1073488","0.0-8.0-0.45","5o940q51gu","many_one","0","direct_first","1","ch07er25","1","28","1","0","3","1","Manchmal war die Zeit recht kurz, dadurch schwierig zu sehen/erkennen was abgebildet wurde. ","0","1","0","3015","","","","","pos","GS","GSold","3","category3/CS9.png","-24","targets/38.png","direct","",""
"","image-slider-response","136","1075904","0.0-8.0-0.46","5o940q51gu","many_one","0","direct_first","1","ch07er25","1","28","1","0","3","1","Manchmal war die Zeit recht kurz, dadurch schwierig zu sehen/erkennen was abgebildet wurde. ","0","1","0","2414","","","","","neg","GS","GSnew","1","category1/GS2.png","-15","targets/5.png","direct","",""
"","image-slider-response","137","1078520","0.0-8.0-0.47","5o940q51gu","many_one","0","direct_first","1","ch07er25","1","28","1","0","3","1","Manchmal war die Zeit recht kurz, dadurch schwierig zu sehen/erkennen was abgebildet wurde. ","0","1","0","2615","","","","","neg","GS","GSold","1","category1/CS10.png","12","targets/40.png","direct","",""
"","html-keyboard-response","138","1136954","0.0-9.0","5o940q51gu","many_one","0","direct_first","1","ch07er25","1","28","1","0","3","1","Manchmal war die Zeit recht kurz, dadurch schwierig zu sehen/erkennen was abgebildet wurde. ","0","1","0","58433","","","<p>Sie sehen nun die chinesischen Zeichen nur ganz kurz. Danach sehen Sie die jeweilige Aussprache der Zeichen als Silbe auf dem Bildschrim. Ihre Aufgabe ist es, fr jede Silbe anzugeben, ob diese etwas angenehmes, oder unangenehmes bedeuten knnte. Verlassen Sie sich hier vor allem auf Ihre Intuition.<br><br>Die Zeichen werden nur zur Orientierung dargestellt, beachten Sie sie deshalb nicht. Konzentrieren Sie sich vor allem auf die Silben. <br>Reagieren Sie mit folgenden zwei Tasten: <br><br><b>'D' </b> wenn die Silbe etwas <b>unangenehmes</b> bedeuten knnte. <br><b>'K'</b> wenn die Silbe etwas <b>angenehmes</b> bedeuten knnte. <br><br>Bitte legen Sie nun den Zeigefinger der linken Hand auf die Taste 'D' und den Zeigefinger der rechten Hand auf die Taste 'K'. <br>Reagieren Sie auf jede Silbe so schnell wie mglich. Uns interessiert Ihre spontane Reaktion. <br> <br> <br>Drcken Sie 'D' oder 'K', um die nchste Aufgabe zu starten. </p>","75","","","","","","","","","",""
"","html-keyboard-response","139","1139991","0.0-10.0-0.0","5o940q51gu","many_one","0","direct_first","1","ch07er25","1","28","1","0","3","1","Manchmal war die Zeit recht kurz, dadurch schwierig zu sehen/erkennen was abgebildet wurde. ","0","1","0","null","","","<div style=""font-size:60px;"">+</div>","null","","","","","","","","","",""
"","html-keyboard-response","140","1140090","0.0-10.0-1.0","5o940q51gu","many_one","0","direct_first","1","ch07er25","1","28","1","0","3","1","Manchmal war die Zeit recht kurz, dadurch schwierig zu sehen/erkennen was abgebildet wurde. ","0","1","0","null","","","<img src = 'category4/CS1.png' width = '100%;'>","null","","","","","","","","","",""
"","html-keyboard-response","141","1140371","0.0-10.0-2.0","5o940q51gu","many_one","0","direct_first","1","ch07er25","1","28","1","0","3","1","Manchmal war die Zeit recht kurz, dadurch schwierig zu sehen/erkennen was abgebildet wurde. ","0","1","0","null","","","<img src = 'targets/10.png' width = '100%;'>","null","","","","","","","","","",""
"","html-keyboard-response","142","1148360","0.0-10.0-3.0","5o940q51gu","many_one","0","direct_first","1","ch07er25","1","28","1","0","3","1","Manchmal war die Zeit recht kurz, dadurch schwierig zu sehen/erkennen was abgebildet wurde. ","0","1","0","7988","","","<img src = 'targets/mask.png' width = '100%;'>","75","neg","CS","CS","4","category4/CS1.png","","targets/10.png","indirect","1","0"
"","html-keyboard-response","143","1149891","0.0-10.0-0.1","5o940q51gu","many_one","0","direct_first","1","ch07er25","1","28","1","0","3","1","Manchmal war die Zeit recht kurz, dadurch schwierig zu sehen/erkennen was abgebildet wurde. ","0","1","0","null","","","<div style=""font-size:60px;"">+</div>","null","","","","","","","","","",""
"","html-keyboard-response","144","1149991","0.0-10.0-1.1","5o940q51gu","many_one","0","direct_first","1","ch07er25","1","28","1","0","3","1","Manchmal war die Zeit recht kurz, dadurch schwierig zu sehen/erkennen was abgebildet wurde. ","0","1","0","null","","","<img src = 'category3/CS5.png' width = '100%;'>","null","","","","","","","","","",""
"","html-keyboard-response","145","1150270","0.0-10.0-2.1","5o940q51gu","many_one","0","direct_first","1","ch07er25","1","28","1","0","3","1","Manchmal war die Zeit recht kurz, dadurch schwierig zu sehen/erkennen was abgebildet wurde. ","0","1","0","null","","","<img src = 'targets/30.png' width = '100%;'>","null","","","","","","","","","",""
"","html-keyboard-response","146","1159657","0.0-10.0-3.1","5o940q51gu","many_one","0","direct_first","1","ch07er25","1","28","1","0","3","1","Manchmal war die Zeit recht kurz, dadurch schwierig zu sehen/erkennen was abgebildet wurde. ","0","1","0","9385","","","<img src = 'targets/mask.png' width = '100%;'>","68","pos","CS","CS","3","category3/CS5.png","","targets/30.png","indirect","0","1"
"","html-keyboard-response","147","1161181","0.0-10.0-0.2","5o940q51gu","many_one","0","direct_first","1","ch07er25","1","28","1","0","3","1","Manchmal war die Zeit recht kurz, dadurch schwierig zu sehen/erkennen was abgebildet wurde. ","0","1","0","null","","","<div style=""font-size:60px;"">+</div>","null","","","","","","","","","",""
"","html-keyboard-response","148","1161281","0.0-10.0-1.2","5o940q51gu","many_one","0","direct_first","1","ch07er25","1","28","1","0","3","1","Manchmal war die Zeit recht kurz, dadurch schwierig zu sehen/erkennen was abgebildet wurde. ","0","1","0","null","","","<img src = 'category3/CS6.png' width = '100%;'>","null","","","","","","","","","",""
"","html-keyboard-response","149","1161561","0.0-10.0-2.2","5o940q51gu","many_one","0","direct_first","1","ch07er25","1","28","1","0","3","1","Manchmal war die Zeit recht kurz, dadurch schwierig zu sehen/erkennen was abgebildet wurde. ","0","1","0","null","","","<img src = 'targets/28.png' width = '100%;'>","null","","","","","","","","","",""
"","html-keyboard-response","150","1163024","0.0-10.0-3.2","5o940q51gu","many_one","0","direct_first","1","ch07er25","1","28","1","0","3","1","Manchmal war die Zeit recht kurz, dadurch schwierig zu sehen/erkennen was abgebildet wurde. ","0","1","0","1463","","","<img src = 'targets/mask.png' width = '100%;'>","75","pos","GS","GSold","3","category3/CS6.png","","targets/28.png","indirect","1","2"
"","html-keyboard-response","151","1164541","0.0-10.0-0.3","5o940q51gu","many_one","0","direct_first","1","ch07er25","1","28","1","0","3","1","Manchmal war die Zeit recht kurz, dadurch schwierig zu sehen/erkennen was abgebildet wurde. ","0","1","0","null","","","<div style=""font-size:60px;"">+</div>","null","","","","","","","","","",""
"","html-keyboard-response","152","1164641","0.0-10.0-1.3","5o940q51gu","many_one","0","direct_first","1","ch07er25","1","28","1","0","3","1","Manchmal war die Zeit recht kurz, dadurch schwierig zu sehen/erkennen was abgebildet wurde. ","0","1","0","null","","","<img src = 'category2/CS3.png' width = '100%;'>","null","","","","","","","","","",""
"","html-keyboard-response","153","1164918","0.0-10.0-2.3","5o940q51gu","many_one","0","direct_first","1","ch07er25","1","28","1","0","3","1","Manchmal war die Zeit recht kurz, dadurch schwierig zu sehen/erkennen was abgebildet wurde. ","0","1","0","null","","","<img src = 'targets/43.png' width = '100%;'>","null","","","","","","","","","",""
"","html-keyboard-response","154","1166216","0.0-10.0-3.3","5o940q51gu","many_one","0","direct_first","1","ch07er25","1","28","1","0","3","1","Manchmal war die Zeit recht kurz, dadurch schwierig zu sehen/erkennen was abgebildet wurde. ","0","1","0","1298","","","<img src = 'targets/mask.png' width = '100%;'>","68","pos","CS","CS","2","category2/CS3.png","","targets/43.png","indirect","0","3"
"","html-keyboard-response","155","1167741","0.0-10.0-0.4","5o940q51gu","many_one","0","direct_first","1","ch07er25","1","28","1","0","3","1","Manchmal war die Zeit recht kurz, dadurch schwierig zu sehen/erkennen was abgebildet wurde. ","0","1","0","null","","","<div style=""font-size:60px;"">+</div>","null","","","","","","","","","",""
"","html-keyboard-response","156","1167841","0.0-10.0-1.4","5o940q51gu","many_one","0","direct_first","1","ch07er25","1","28","1","0","3","1","Manchmal war die Zeit recht kurz, dadurch schwierig zu sehen/erkennen was abgebildet wurde. ","0","1","0","null","","","<img src = 'category3/CS10.png' width = '100%;'>","null","","","","","","","","","",""
"","html-keyboard-response","157","1168121","0.0-10.0-2.4","5o940q51gu","many_one","0","direct_first","1","ch07er25","1","28","1","0","3","1","Manchmal war die Zeit recht kurz, dadurch schwierig zu sehen/erkennen was abgebildet wurde. ","0","1","0","null","","","<img src = 'targets/41.png' width = '100%;'>","null","","","","","","","","","",""
"","html-keyboard-response","158","1172792","0.0-10.0-3.4","5o940q51gu","many_one","0","direct_first","1","ch07er25","1","28","1","0","3","1","Manchmal war die Zeit recht kurz, dadurch schwierig zu sehen/erkennen was abgebildet wurde. ","0","1","0","4671","","","<img src = 'targets/mask.png' width = '100%;'>","68","pos","CS","CS","3","category3/CS10.png","","targets/41.png","indirect","0","4"
"","html-keyboard-response","159","1174321","0.0-10.0-0.5","5o940q51gu","many_one","0","direct_first","1","ch07er25","1","28","1","0","3","1","Manchmal war die Zeit recht kurz, dadurch schwierig zu sehen/erkennen was abgebildet wurde. ","0","1","0","null","","","<div style=""font-size:60px;"">+</div>","null","","","","","","","","","",""
"","html-keyboard-response","160","1174421","0.0-10.0-1.5","5o940q51gu","many_one","0","direct_first","1","ch07er25","1","28","1","0","3","1","Manchmal war die Zeit recht kurz, dadurch schwierig zu sehen/erkennen was abgebildet wurde. ","0","1","0","null","","","<img src = 'category4/CS4.png' width = '100%;'>","null","","","","","","","","","",""
"","html-keyboard-response","161","1174701","0.0-10.0-2.5","5o940q51gu","many_one","0","direct_first","1","ch07er25","1","28","1","0","3","1","Manchmal war die Zeit recht kurz, dadurch schwierig zu sehen/erkennen was abgebildet wurde. ","0","1","0","null","","","<img src = 'targets/23.png' width = '100%;'>","null","","","","","","","","","",""
"","html-keyboard-response","162","1176112","0.0-10.0-3.5","5o940q51gu","many_one","0","direct_first","1","ch07er25","1","28","1","0","3","1","Manchmal war die Zeit recht kurz, dadurch schwierig zu sehen/erkennen was abgebildet wurde. ","0","1","0","1410","","","<img src = 'targets/mask.png' width = '100%;'>","75","neg","GS","GSold","4","category4/CS4.png","","targets/23.png","indirect","1","5"
"","html-keyboard-response","163","1177641","0.0-10.0-0.6","5o940q51gu","many_one","0","direct_first","1","ch07er25","1","28","1","0","3","1","Manchmal war die Zeit recht kurz, dadurch schwierig zu sehen/erkennen was abgebildet wurde. ","0","1","0","null","","","<div style=""font-size:60px;"">+</div>","null","","","","","","","","","",""
"","html-keyboard-response","164","1177741","0.0-10.0-1.6","5o940q51gu","many_one","0","direct_first","1","ch07er25","1","28","1","0","3","1","Manchmal war die Zeit recht kurz, dadurch schwierig zu sehen/erkennen was abgebildet wurde. ","0","1","0","null","","","<img src = 'category1/CS6.png' width = '100%;'>","null","","","","","","","","","",""
"","html-keyboard-response","165","1178021","0.0-10.0-2.6","5o940q51gu","many_one","0","direct_first","1","ch07er25","1","28","1","0","3","1","Manchmal war die Zeit recht kurz, dadurch schwierig zu sehen/erkennen was abgebildet wurde. ","0","1","0","null","","","<img src = 'targets/7.png' width = '100%;'>","null","","","","","","","","","",""
"","html-keyboard-response","166","1179520","0.0-10.0-3.6","5o940q51gu","many_one","0","direct_first","1","ch07er25","1","28","1","0","3","1","Manchmal war die Zeit recht kurz, dadurch schwierig zu sehen/erkennen was abgebildet wurde. ","0","1","0","1499","","","<img src = 'targets/mask.png' width = '100%;'>","75","neg","CS","CS","1","category1/CS6.png","","targets/7.png","indirect","1","6"
"","html-keyboard-response","167","1181041","0.0-10.0-0.7","5o940q51gu","many_one","0","direct_first","1","ch07er25","1","28","1","0","3","1","Manchmal war die Zeit recht kurz, dadurch schwierig zu sehen/erkennen was abgebildet wurde. ","0","1","0","null","","","<div style=""font-size:60px;"">+</div>","null","","","","","","","","","",""
"","html-keyboard-response","168","1181141","0.0-10.0-1.7","5o940q51gu","many_one","0","direct_first","1","ch07er25","1","28","1","0","3","1","Manchmal war die Zeit recht kurz, dadurch schwierig zu sehen/erkennen was abgebildet wurde. ","0","1","0","null","","","<img src = 'category3/CS2.png' width = '100%;'>","null","","","","","","","","","",""
"","html-keyboard-response","169","1181421","0.0-10.0-2.7","5o940q51gu","many_one","0","direct_first","1","ch07er25","1","28","1","0","3","1","Manchmal war die Zeit recht kurz, dadurch schwierig zu sehen/erkennen was abgebildet wurde. ","0","1","0","null","","","<img src = 'targets/2.png' width = '100%;'>","null","","","","","","","","","",""
"","html-keyboard-response","170","1182792","0.0-10.0-3.7","5o940q51gu","many_one","0","direct_first","1","ch07er25","1","28","1","0","3","1","Manchmal war die Zeit recht kurz, dadurch schwierig zu sehen/erkennen was abgebildet wurde. ","0","1","0","1369","","","<img src = 'targets/mask.png' width = '100%;'>","68","pos","CS","CS","3","category3/CS2.png","","targets/2.png","indirect","0","7"
"","html-keyboard-response","171","1184301","0.0-10.0-0.8","5o940q51gu","many_one","0","direct_first","1","ch07er25","1","28","1","0","3","1","Manchmal war die Zeit recht kurz, dadurch schwierig zu sehen/erkennen was abgebildet wurde. ","0","1","0","null","","","<div style=""font-size:60px;"">+</div>","null","","","","","","","","","",""
"","html-keyboard-response","172","1184401","0.0-10.0-1.8","5o940q51gu","many_one","0","direct_first","1","ch07er25","1","28","1","0","3","1","Manchmal war die Zeit recht kurz, dadurch schwierig zu sehen/erkennen was abgebildet wurde. ","0","1","0","null","","","<img src = 'category1/CS5.png' width = '100%;'>","null","","","","","","","","","",""
"","html-keyboard-response","173","1184681","0.0-10.0-2.8","5o940q51gu","many_one","0","direct_first","1","ch07er25","1","28","1","0","3","1","Manchmal war die Zeit recht kurz, dadurch schwierig zu sehen/erkennen was abgebildet wurde. ","0","1","0","null","","","<img src = 'targets/26.png' width = '100%;'>","null","","","","","","","","","",""
"","html-keyboard-response","174","1187104","0.0-10.0-3.8","5o940q51gu","many_one","0","direct_first","1","ch07er25","1","28","1","0","3","1","Manchmal war die Zeit recht kurz, dadurch schwierig zu sehen/erkennen was abgebildet wurde. ","0","1","0","2423","","","<img src = 'targets/mask.png' width = '100%;'>","75","neg","CS","CS","1","category1/CS5.png","","targets/26.png","indirect","1","8"
"","html-keyboard-response","175","1188621","0.0-10.0-0.9","5o940q51gu","many_one","0","direct_first","1","ch07er25","1","28","1","0","3","1","Manchmal war die Zeit recht kurz, dadurch schwierig zu sehen/erkennen was abgebildet wurde. ","0","1","0","null","","","<div style=""font-size:60px;"">+</div>","null","","","","","","","","","",""
"","html-keyboard-response","176","1188721","0.0-10.0-1.9","5o940q51gu","many_one","0","direct_first","1","ch07er25","1","28","1","0","3","1","Manchmal war die Zeit recht kurz, dadurch schwierig zu sehen/erkennen was abgebildet wurde. ","0","1","0","null","","","<img src = 'category4/CS3.png' width = '100%;'>","null","","","","","","","","","",""
"","html-keyboard-response","177","1189001","0.0-10.0-2.9","5o940q51gu","many_one","0","direct_first","1","ch07er25","1","28","1","0","3","1","Manchmal war die Zeit recht kurz, dadurch schwierig zu sehen/erkennen was abgebildet wurde. ","0","1","0","null","","","<img src = 'targets/33.png' width = '100%;'>","null","","","","","","","","","",""
"","html-keyboard-response","178","1190521","0.0-10.0-3.9","5o940q51gu","many_one","0","direct_first","1","ch07er25","1","28","1","0","3","1","Manchmal war die Zeit recht kurz, dadurch schwierig zu sehen/erkennen was abgebildet wurde. ","0","1","0","1519","","","<img src = 'targets/mask.png' width = '100%;'>","75","neg","CS","CS","4","category4/CS3.png","","targets/33.png","indirect","1","9"
"","html-keyboard-response","179","1192041","0.0-10.0-0.10","5o940q51gu","many_one","0","direct_first","1","ch07er25","1","28","1","0","3","1","Manchmal war die Zeit recht kurz, dadurch schwierig zu sehen/erkennen was abgebildet wurde. ","0","1","0","null","","","<div style=""font-size:60px;"">+</div>","null","","","","","","","","","",""
"","html-keyboard-response","180","1192141","0.0-10.0-1.10","5o940q51gu","many_one","0","direct_first","1","ch07er25","1","28","1","0","3","1","Manchmal war die Zeit recht kurz, dadurch schwierig zu sehen/erkennen was abgebildet wurde. ","0","1","0","null","","","<img src = 'category3/CS7.png' width = '100%;'>","null","","","","","","","","","",""
"","html-keyboard-response","181","1192421","0.0-10.0-2.10","5o940q51gu","many_one","0","direct_first","1","ch07er25","1","28","1","0","3","1","Manchmal war die Zeit recht kurz, dadurch schwierig zu sehen/erkennen was abgebildet wurde. ","0","1","0","null","","","<img src = 'targets/31.png' width = '100%;'>","null","","","","","","","","","",""
"","html-keyboard-response","182","1193504","0.0-10.0-3.10","5o940q51gu","many_one","0","direct_first","1","ch07er25","1","28","1","0","3","1","Manchmal war die Zeit recht kurz, dadurch schwierig zu sehen/erkennen was abgebildet wurde. ","0","1","0","1084","","","<img src = 'targets/mask.png' width = '100%;'>","68","pos","CS","CS","3","category3/CS7.png","","targets/31.png","indirect","0","10"
"","html-keyboard-response","183","1195041","0.0-10.0-0.11","5o940q51gu","many_one","0","direct_first","1","ch07er25","1","28","1","0","3","1","Manchmal war die Zeit recht kurz, dadurch schwierig zu sehen/erkennen was abgebildet wurde. ","0","1","0","null","","","<div style=""font-size:60px;"">+</div>","null","","","","","","","","","",""
"","html-keyboard-response","184","1195141","0.0-10.0-1.11","5o940q51gu","many_one","0","direct_first","1","ch07er25","1","28","1","0","3","1","Manchmal war die Zeit recht kurz, dadurch schwierig zu sehen/erkennen was abgebildet wurde. ","0","1","0","null","","","<img src = 'category4/CS10.png' width = '100%;'>","null","","","","","","","","","",""
"","html-keyboard-response","185","1195420","0.0-10.0-2.11","5o940q51gu","many_one","0","direct_first","1","ch07er25","1","28","1","0","3","1","Manchmal war die Zeit recht kurz, dadurch schwierig zu sehen/erkennen was abgebildet wurde. ","0","1","0","null","","","<img src = 'targets/42.png' width = '100%;'>","null","","","","","","","","","",""
"","html-keyboard-response","186","1196447","0.0-10.0-3.11","5o940q51gu","many_one","0","direct_first","1","ch07er25","1","28","1","0","3","1","Manchmal war die Zeit recht kurz, dadurch schwierig zu sehen/erkennen was abgebildet wurde. ","0","1","0","1027","","","<img src = 'targets/mask.png' width = '100%;'>","68","neg","CS","CS","4","category4/CS10.png","","targets/42.png","indirect","0","11"
"","html-keyboard-response","187","1197981","0.0-10.0-0.12","5o940q51gu","many_one","0","direct_first","1","ch07er25","1","28","1","0","3","1","Manchmal war die Zeit recht kurz, dadurch schwierig zu sehen/erkennen was abgebildet wurde. ","0","1","0","null","","","<div style=""font-size:60px;"">+</div>","null","","","","","","","","","",""
"","html-keyboard-response","188","1198081","0.0-10.0-1.12","5o940q51gu","many_one","0","direct_first","1","ch07er25","1","28","1","0","3","1","Manchmal war die Zeit recht kurz, dadurch schwierig zu sehen/erkennen was abgebildet wurde. ","0","1","0","null","","","<img src = 'category3/CS8.png' width = '100%;'>","null","","","","","","","","","",""
"","html-keyboard-response","189","1198361","0.0-10.0-2.12","5o940q51gu","many_one","0","direct_first","1","ch07er25","1","28","1","0","3","1","Manchmal war die Zeit recht kurz, dadurch schwierig zu sehen/erkennen was abgebildet wurde. ","0","1","0","null","","","<img src = 'targets/34.png' width = '100%;'>","null","","","","","","","","","",""
"","html-keyboard-response","190","1201225","0.0-10.0-3.12","5o940q51gu","many_one","0","direct_first","1","ch07er25","1","28","1","0","3","1","Manchmal war die Zeit recht kurz, dadurch schwierig zu sehen/erkennen was abgebildet wurde. ","0","1","0","2863","","","<img src = 'targets/mask.png' width = '100%;'>","68","pos","CS","CS","3","category3/CS8.png","","targets/34.png","indirect","0","12"
"","html-keyboard-response","191","1202741","0.0-10.0-0.13","5o940q51gu","many_one","0","direct_first","1","ch07er25","1","28","1","0","3","1","Manchmal war die Zeit recht kurz, dadurch schwierig zu sehen/erkennen was abgebildet wurde. ","0","1","0","null","","","<div style=""font-size:60px;"">+</div>","null","","","","","","","","","",""
"","html-keyboard-response","192","1202841","0.0-10.0-1.13","5o940q51gu","many_one","0","direct_first","1","ch07er25","1","28","1","0","3","1","Manchmal war die Zeit recht kurz, dadurch schwierig zu sehen/erkennen was abgebildet wurde. ","0","1","0","null","","","<img src = 'category2/CS9.png' width = '100%;'>","null","","","","","","","","","",""
"","html-keyboard-response","193","1203121","0.0-10.0-2.13","5o940q51gu","many_one","0","direct_first","1","ch07er25","1","28","1","0","3","1","Manchmal war die Zeit recht kurz, dadurch schwierig zu sehen/erkennen was abgebildet wurde. ","0","1","0","null","","","<img src = 'targets/19.png' width = '100%;'>","null","","","","","","","","","",""
"","html-keyboard-response","194","1206208","0.0-10.0-3.13","5o940q51gu","many_one","0","direct_first","1","ch07er25","1","28","1","0","3","1","Manchmal war die Zeit recht kurz, dadurch schwierig zu sehen/erkennen was abgebildet wurde. ","0","1","0","3085","","","<img src = 'targets/mask.png' width = '100%;'>","75","pos","CS","CS","2","category2/CS9.png","","targets/19.png","indirect","1","13"
"","html-keyboard-response","195","1207741","0.0-10.0-0.14","5o940q51gu","many_one","0","direct_first","1","ch07er25","1","28","1","0","3","1","Manchmal war die Zeit recht kurz, dadurch schwierig zu sehen/erkennen was abgebildet wurde. ","0","1","0","null","","","<div style=""font-size:60px;"">+</div>","null","","","","","","","","","",""
"","html-keyboard-response","196","1207842","0.0-10.0-1.14","5o940q51gu","many_one","0","direct_first","1","ch07er25","1","28","1","0","3","1","Manchmal war die Zeit recht kurz, dadurch schwierig zu sehen/erkennen was abgebildet wurde. ","0","1","0","null","","","<img src = 'category4/CS5.png' width = '100%;'>","null","","","","","","","","","",""
"","html-keyboard-response","197","1208120","0.0-10.0-2.14","5o940q51gu","many_one","0","direct_first","1","ch07er25","1","28","1","0","3","1","Manchmal war die Zeit recht kurz, dadurch schwierig zu sehen/erkennen was abgebildet wurde. ","0","1","0","null","","","<img src = 'targets/17.png' width = '100%;'>","null","","","","","","","","","",""
"","html-keyboard-response","198","1209648","0.0-10.0-3.14","5o940q51gu","many_one","0","direct_first","1","ch07er25","1","28","1","0","3","1","Manchmal war die Zeit recht kurz, dadurch schwierig zu sehen/erkennen was abgebildet wurde. ","0","1","0","1527","","","<img src = 'targets/mask.png' width = '100%;'>","75","neg","CS","CS","4","category4/CS5.png","","targets/17.png","indirect","1","14"
"","html-keyboard-response","199","1211161","0.0-10.0-0.15","5o940q51gu","many_one","0","direct_first","1","ch07er25","1","28","1","0","3","1","Manchmal war die Zeit recht kurz, dadurch schwierig zu sehen/erkennen was abgebildet wurde. ","0","1","0","null","","","<div style=""font-size:60px;"">+</div>","null","","","","","","","","","",""
"","html-keyboard-response","200","1211262","0.0-10.0-1.15","5o940q51gu","many_one","0","direct_first","1","ch07er25","1","28","1","0","3","1","Manchmal war die Zeit recht kurz, dadurch schwierig zu sehen/erkennen was abgebildet wurde. ","0","1","0","null","","","<img src = 'category4/CS6.png' width = '100%;'>","null","","","","","","","","","",""
"","html-keyboard-response","201","1211541","0.0-10.0-2.15","5o940q51gu","many_one","0","direct_first","1","ch07er25","1","28","1","0","3","1","Manchmal war die Zeit recht kurz, dadurch schwierig zu sehen/erkennen was abgebildet wurde. ","0","1","0","null","","","<img src = 'targets/13.png' width = '100%;'>","null","","","","","","","","","",""
"","html-keyboard-response","202","1214927","0.0-10.0-3.15","5o940q51gu","many_one","0","direct_first","1","ch07er25","1","28","1","0","3","1","Manchmal war die Zeit recht kurz, dadurch schwierig zu sehen/erkennen was abgebildet wurde. ","0","1","0","3387","","","<img src = 'targets/mask.png' width = '100%;'>","75","neg","GS","GSold","4","category4/CS6.png","","targets/13.png","indirect","1","15"
"","html-keyboard-response","203","1216451","0.0-10.0-0.16","5o940q51gu","many_one","0","direct_first","1","ch07er25","1","28","1","0","3","1","Manchmal war die Zeit recht kurz, dadurch schwierig zu sehen/erkennen was abgebildet wurde. ","0","1","0","null","","","<div style=""font-size:60px;"">+</div>","null","","","","","","","","","",""
"","html-keyboard-response","204","1216551","0.0-10.0-1.16","5o940q51gu","many_one","0","direct_first","1","ch07er25","1","28","1","0","3","1","Manchmal war die Zeit recht kurz, dadurch schwierig zu sehen/erkennen was abgebildet wurde. ","0","1","0","null","","","<img src = 'category2/CS4.png' width = '100%;'>","null","","","","","","","","","",""
"","html-keyboard-response","205","1216831","0.0-10.0-2.16","5o940q51gu","many_one","0","direct_first","1","ch07er25","1","28","1","0","3","1","Manchmal war die Zeit recht kurz, dadurch schwierig zu sehen/erkennen was abgebildet wurde. ","0","1","0","null","","","<img src = 'targets/46.png' width = '100%;'>","null","","","","","","","","","",""
"","html-keyboard-response","206","1217792","0.0-10.0-3.16","5o940q51gu","many_one","0","direct_first","1","ch07er25","1","28","1","0","3","1","Manchmal war die Zeit recht kurz, dadurch schwierig zu sehen/erkennen was abgebildet wurde. ","0","1","0","961","","","<img src = 'targets/mask.png' width = '100%;'>","75","pos","CS","CS","2","category2/CS4.png","","targets/46.png","indirect","1","16"
"","html-keyboard-response","207","1219331","0.0-10.0-0.17","5o940q51gu","many_one","0","direct_first","1","ch07er25","1","28","1","0","3","1","Manchmal war die Zeit recht kurz, dadurch schwierig zu sehen/erkennen was abgebildet wurde. ","0","1","0","null","","","<div style=""font-size:60px;"">+</div>","null","","","","","","","","","",""
"","html-keyboard-response","208","1219431","0.0-10.0-1.17","5o940q51gu","many_one","0","direct_first","1","ch07er25","1","28","1","0","3","1","Manchmal war die Zeit recht kurz, dadurch schwierig zu sehen/erkennen was abgebildet wurde. ","0","1","0","null","","","<img src = 'category1/CS9.png' width = '100%;'>","null","","","","","","","","","",""
"","html-keyboard-response","209","1219711","0.0-10.0-2.17","5o940q51gu","many_one","0","direct_first","1","ch07er25","1","28","1","0","3","1","Manchmal war die Zeit recht kurz, dadurch schwierig zu sehen/erkennen was abgebildet wurde. ","0","1","0","null","","","<img src = 'targets/4.png' width = '100%;'>","null","","","","","","","","","",""
"","html-keyboard-response","210","1220432","0.0-10.0-3.17","5o940q51gu","many_one","0","direct_first","1","ch07er25","1","28","1","0","3","1","Manchmal war die Zeit recht kurz, dadurch schwierig zu sehen/erkennen was abgebildet wurde. ","0","1","0","720","","","<img src = 'targets/mask.png' width = '100%;'>","68","neg","CS","CS","1","category1/CS9.png","","targets/4.png","indirect","0","17"
"","html-keyboard-response","211","1221949","0.0-10.0-0.18","5o940q51gu","many_one","0","direct_first","1","ch07er25","1","28","1","0","3","1","Manchmal war die Zeit recht kurz, dadurch schwierig zu sehen/erkennen was abgebildet wurde. ","0","1","0","null","","","<div style=""font-size:60px;"">+</div>","null","","","","","","","","","",""
"","html-keyboard-response","212","1222050","0.0-10.0-1.18","5o940q51gu","many_one","0","direct_first","1","ch07er25","1","28","1","0","3","1","Manchmal war die Zeit recht kurz, dadurch schwierig zu sehen/erkennen was abgebildet wurde. ","0","1","0","null","","","<img src = 'category2/CS8.png' width = '100%;'>","null","","","","","","","","","",""
"","html-keyboard-response","213","1222331","0.0-10.0-2.18","5o940q51gu","many_one","0","direct_first","1","ch07er25","1","28","1","0","3","1","Manchmal war die Zeit recht kurz, dadurch schwierig zu sehen/erkennen was abgebildet wurde. ","0","1","0","null","","","<img src = 'targets/29.png' width = '100%;'>","null","","","","","","","","","",""
"","html-keyboard-response","214","1224144","0.0-10.0-3.18","5o940q51gu","many_one","0","direct_first","1","ch07er25","1","28","1","0","3","1","Manchmal war die Zeit recht kurz, dadurch schwierig zu sehen/erkennen was abgebildet wurde. ","0","1","0","1812","","","<img src = 'targets/mask.png' width = '100%;'>","75","pos","CS","CS","2","category2/CS8.png","","targets/29.png","indirect","1","18"
"","html-keyboard-response","215","1225671","0.0-10.0-0.19","5o940q51gu","many_one","0","direct_first","1","ch07er25","1","28","1","0","3","1","Manchmal war die Zeit recht kurz, dadurch schwierig zu sehen/erkennen was abgebildet wurde. ","0","1","0","null","","","<div style=""font-size:60px;"">+</div>","null","","","","","","","","","",""
"","html-keyboard-response","216","1225771","0.0-10.0-1.19","5o940q51gu","many_one","0","direct_first","1","ch07er25","1","28","1","0","3","1","Manchmal war die Zeit recht kurz, dadurch schwierig zu sehen/erkennen was abgebildet wurde. ","0","1","0","null","","","<img src = 'category4/CS2.png' width = '100%;'>","null","","","","","","","","","",""
"","html-keyboard-response","217","1226050","0.0-10.0-2.19","5o940q51gu","many_one","0","direct_first","1","ch07er25","1","28","1","0","3","1","Manchmal war die Zeit recht kurz, dadurch schwierig zu sehen/erkennen was abgebildet wurde. ","0","1","0","null","","","<img src = 'targets/39.png' width = '100%;'>","null","","","","","","","","","",""
"","html-keyboard-response","218","1228768","0.0-10.0-3.19","5o940q51gu","many_one","0","direct_first","1","ch07er25","1","28","1","0","3","1","Manchmal war die Zeit recht kurz, dadurch schwierig zu sehen/erkennen was abgebildet wurde. ","0","1","0","2717","","","<img src = 'targets/mask.png' width = '100%;'>","68","neg","CS","CS","4","category4/CS2.png","","targets/39.png","indirect","0","19"
"","html-keyboard-response","219","1230291","0.0-10.0-0.20","5o940q51gu","many_one","0","direct_first","1","ch07er25","1","28","1","0","3","1","Manchmal war die Zeit recht kurz, dadurch schwierig zu sehen/erkennen was abgebildet wurde. ","0","1","0","null","","","<div style=""font-size:60px;"">+</div>","null","","","","","","","","","",""
"","html-keyboard-response","220","1230391","0.0-10.0-1.20","5o940q51gu","many_one","0","direct_first","1","ch07er25","1","28","1","0","3","1","Manchmal war die Zeit recht kurz, dadurch schwierig zu sehen/erkennen was abgebildet wurde. ","0","1","0","null","","","<img src = 'category1/CS1.png' width = '100%;'>","null","","","","","","","","","",""
"","html-keyboard-response","221","1230671","0.0-10.0-2.20","5o940q51gu","many_one","0","direct_first","1","ch07er25","1","28","1","0","3","1","Manchmal war die Zeit recht kurz, dadurch schwierig zu sehen/erkennen was abgebildet wurde. ","0","1","0","null","","","<img src = 'targets/37.png' width = '100%;'>","null","","","","","","","","","",""
"","html-keyboard-response","222","1231936","0.0-10.0-3.20","5o940q51gu","many_one","0","direct_first","1","ch07er25","1","28","1","0","3","1","Manchmal war die Zeit recht kurz, dadurch schwierig zu sehen/erkennen was abgebildet wurde. ","0","1","0","1265","","","<img src = 'targets/mask.png' width = '100%;'>","68","neg","CS","CS","1","category1/CS1.png","","targets/37.png","indirect","0","20"
"","html-keyboard-response","223","1233471","0.0-10.0-0.21","5o940q51gu","many_one","0","direct_first","1","ch07er25","1","28","1","0","3","1","Manchmal war die Zeit recht kurz, dadurch schwierig zu sehen/erkennen was abgebildet wurde. ","0","1","0","null","","","<div style=""font-size:60px;"">+</div>","null","","","","","","","","","",""
"","html-keyboard-response","224","1233571","0.0-10.0-1.21","5o940q51gu","many_one","0","direct_first","1","ch07er25","1","28","1","0","3","1","Manchmal war die Zeit recht kurz, dadurch schwierig zu sehen/erkennen was abgebildet wurde. ","0","1","0","null","","","<img src = 'category2/CS6.png' width = '100%;'>","null","","","","","","","","","",""
"","html-keyboard-response","225","1233850","0.0-10.0-2.21","5o940q51gu","many_one","0","direct_first","1","ch07er25","1","28","1","0","3","1","Manchmal war die Zeit recht kurz, dadurch schwierig zu sehen/erkennen was abgebildet wurde. ","0","1","0","null","","","<img src = 'targets/8.png' width = '100%;'>","null","","","","","","","","","",""
"","html-keyboard-response","226","1234840","0.0-10.0-3.21","5o940q51gu","many_one","0","direct_first","1","ch07er25","1","28","1","0","3","1","Manchmal war die Zeit recht kurz, dadurch schwierig zu sehen/erkennen was abgebildet wurde. ","0","1","0","989","","","<img src = 'targets/mask.png' width = '100%;'>","68","pos","CS","CS","2","category2/CS6.png","","targets/8.png","indirect","0","21"
"","html-keyboard-response","227","1236361","0.0-10.0-0.22","5o940q51gu","many_one","0","direct_first","1","ch07er25","1","28","1","0","3","1","Manchmal war die Zeit recht kurz, dadurch schwierig zu sehen/erkennen was abgebildet wurde. ","0","1","0","null","","","<div style=""font-size:60px;"">+</div>","null","","","","","","","","","",""
"","html-keyboard-response","228","1236461","0.0-10.0-1.22","5o940q51gu","many_one","0","direct_first","1","ch07er25","1","28","1","0","3","1","Manchmal war die Zeit recht kurz, dadurch schwierig zu sehen/erkennen was abgebildet wurde. ","0","1","0","null","","","<img src = 'category4/CS7.png' width = '100%;'>","null","","","","","","","","","",""
"","html-keyboard-response","229","1236741","0.0-10.0-2.22","5o940q51gu","many_one","0","direct_first","1","ch07er25","1","28","1","0","3","1","Manchmal war die Zeit recht kurz, dadurch schwierig zu sehen/erkennen was abgebildet wurde. ","0","1","0","null","","","<img src = 'targets/9.png' width = '100%;'>","null","","","","","","","","","",""
"","html-keyboard-response","230","1238056","0.0-10.0-3.22","5o940q51gu","many_one","0","direct_first","1","ch07er25","1","28","1","0","3","1","Manchmal war die Zeit recht kurz, dadurch schwierig zu sehen/erkennen was abgebildet wurde. ","0","1","0","1314","","","<img src = 'targets/mask.png' width = '100%;'>","68","neg","GS","GSold","4","category4/CS7.png","","targets/9.png","indirect","0","22"
"","html-keyboard-response","231","1239561","0.0-10.0-0.23","5o940q51gu","many_one","0","direct_first","1","ch07er25","1","28","1","0","3","1","Manchmal war die Zeit recht kurz, dadurch schwierig zu sehen/erkennen was abgebildet wurde. ","0","1","0","null","","","<div style=""font-size:60px;"">+</div>","null","","","","","","","","","",""
"","html-keyboard-response","232","1239660","0.0-10.0-1.23","5o940q51gu","many_one","0","direct_first","1","ch07er25","1","28","1","0","3","1","Manchmal war die Zeit recht kurz, dadurch schwierig zu sehen/erkennen was abgebildet wurde. ","0","1","0","null","","","<img src = 'category1/CS3.png' width = '100%;'>","null","","","","","","","","","",""
"","html-keyboard-response","233","1239941","0.0-10.0-2.23","5o940q51gu","many_one","0","direct_first","1","ch07er25","1","28","1","0","3","1","Manchmal war die Zeit recht kurz, dadurch schwierig zu sehen/erkennen was abgebildet wurde. ","0","1","0","null","","","<img src = 'targets/3.png' width = '100%;'>","null","","","","","","","","","",""
"","html-keyboard-response","234","1241592","0.0-10.0-3.23","5o940q51gu","many_one","0","direct_first","1","ch07er25","1","28","1","0","3","1","Manchmal war die Zeit recht kurz, dadurch schwierig zu sehen/erkennen was abgebildet wurde. ","0","1","0","1651","","","<img src = 'targets/mask.png' width = '100%;'>","75","neg","CS","CS","1","category1/CS3.png","","targets/3.png","indirect","1","23"
"","survey-html-form","235","1245705","0.0-11.0","5o940q51gu","many_one","0","direct_first","1","ch07er25","1","28","1","0","3","1","Manchmal war die Zeit recht kurz, dadurch schwierig zu sehen/erkennen was abgebildet wurde. ","0","1","0","3603","","{}","","","","","","","","","","","",""
"","html-keyboard-response","236","1248732","0.0-12.0-0.0","5o940q51gu","many_one","0","direct_first","1","ch07er25","1","28","1","0","3","1","Manchmal war die Zeit recht kurz, dadurch schwierig zu sehen/erkennen was abgebildet wurde. ","0","1","0","null","","","<div style=""font-size:60px;"">+</div>","null","","","","","","","","","",""
"","html-keyboard-response","237","1248831","0.0-12.0-1.0","5o940q51gu","many_one","0","direct_first","1","ch07er25","1","28","1","0","3","1","Manchmal war die Zeit recht kurz, dadurch schwierig zu sehen/erkennen was abgebildet wurde. ","0","1","0","null","","","<img src = 'category1/ma.png' width = '100%;'>","null","","","","","","","","","",""
"","html-keyboard-response","238","1249111","0.0-12.0-2.0","5o940q51gu","many_one","0","direct_first","1","ch07er25","1","28","1","0","3","1","Manchmal war die Zeit recht kurz, dadurch schwierig zu sehen/erkennen was abgebildet wurde. ","0","1","0","null","","","<img src = 'targets/36.png' width = '100%;'>","null","","","","","","","","","",""
"","html-keyboard-response","239","1251440","0.0-12.0-3.0","5o940q51gu","many_one","0","direct_first","1","ch07er25","1","28","1","0","3","1","Manchmal war die Zeit recht kurz, dadurch schwierig zu sehen/erkennen was abgebildet wurde. ","0","1","0","2329","","","<img src = 'targets/mask.png' width = '100%;'>","68","neg","GS","abstract","1","category1/ma.png","","targets/36.png","indirect","0","24"
"","html-keyboard-response","240","1252961","0.0-12.0-0.1","5o940q51gu","many_one","0","direct_first","1","ch07er25","1","28","1","0","3","1","Manchmal war die Zeit recht kurz, dadurch schwierig zu sehen/erkennen was abgebildet wurde. ","0","1","0","null","","","<div style=""font-size:60px;"">+</div>","null","","","","","","","","","",""
"","html-keyboard-response","241","1253061","0.0-12.0-1.1","5o940q51gu","many_one","0","direct_first","1","ch07er25","1","28","1","0","3","1","Manchmal war die Zeit recht kurz, dadurch schwierig zu sehen/erkennen was abgebildet wurde. ","0","1","0","null","","","<img src = 'category3/GS3.png' width = '100%;'>","null","","","","","","","","","",""
"","html-keyboard-response","242","1253340","0.0-12.0-2.1","5o940q51gu","many_one","0","direct_first","1","ch07er25","1","28","1","0","3","1","Manchmal war die Zeit recht kurz, dadurch schwierig zu sehen/erkennen was abgebildet wurde. ","0","1","0","null","","","<img src = 'targets/11.png' width = '100%;'>","null","","","","","","","","","",""
"","html-keyboard-response","243","1254631","0.0-12.0-3.1","5o940q51gu","many_one","0","direct_first","1","ch07er25","1","28","1","0","3","1","Manchmal war die Zeit recht kurz, dadurch schwierig zu sehen/erkennen was abgebildet wurde. ","0","1","0","1291","","","<img src = 'targets/mask.png' width = '100%;'>","68","pos","GS","GSnew","3","category3/GS3.png","","targets/11.png","indirect","0","25"
"","html-keyboard-response","244","1256141","0.0-12.0-0.2","5o940q51gu","many_one","0","direct_first","1","ch07er25","1","28","1","0","3","1","Manchmal war die Zeit recht kurz, dadurch schwierig zu sehen/erkennen was abgebildet wurde. ","0","1","0","null","","","<div style=""font-size:60px;"">+</div>","null","","","","","","","","","",""
"","html-keyboard-response","245","1256241","0.0-12.0-1.2","5o940q51gu","many_one","0","direct_first","1","ch07er25","1","28","1","0","3","1","Manchmal war die Zeit recht kurz, dadurch schwierig zu sehen/erkennen was abgebildet wurde. ","0","1","0","null","","","<img src = 'category1/GS3.png' width = '100%;'>","null","","","","","","","","","",""
"","html-keyboard-response","246","1256521","0.0-12.0-2.2","5o940q51gu","many_one","0","direct_first","1","ch07er25","1","28","1","0","3","1","Manchmal war die Zeit recht kurz, dadurch schwierig zu sehen/erkennen was abgebildet wurde. ","0","1","0","null","","","<img src = 'targets/14.png' width = '100%;'>","null","","","","","","","","","",""
