"success","trial_type","trial_index","time_elapsed","internal_node_id","subject","condition","condition_code","measure","measure_code","codeword","gender","age","education","chinese","fach","handedness","comment","hinschauen","ablenkung","gewissenhaft","rt","url","responses","stimulus","key_press","val","type","type_specific","category","cs_selected","response","target","task","indirect","nr_pres"
"true","fullscreen","0","30054","0.0-0.0","kqgyocaz4y","many_one","0","direct_first","1","IC06AN15","0","19","1","1","3","1","","0","1","0","","","","","","","","","","","","","","",""
"","external-html","1","78195","0.0-1.0","kqgyocaz4y","many_one","0","direct_first","1","IC06AN15","0","19","1","1","3","1","","0","1","0","48068","text/information.html","","","","","","","","","","","","",""
"","external-html","2","89844","0.0-2.0","kqgyocaz4y","many_one","0","direct_first","1","IC06AN15","0","19","1","1","3","1","","0","1","0","11590","text/consent.html","","","","","","","","","","","","",""
"","survey-html-form","3","126851","0.0-3.0","kqgyocaz4y","many_one","0","direct_first","1","IC06AN15","0","19","1","1","3","1","","0","1","0","37004","","{""codeword_enter"":""IC06AN15""}","","","","","","","","","","","",""
"","survey-html-form","4","153520","0.0-4.0","kqgyocaz4y","many_one","0","direct_first","1","IC06AN15","0","19","1","1","3","1","","0","1","0","26666","","{""age"":""19"",""education"":""1"",""subject"":""3"",""gender"":""0"",""handedness"":""1"",""chinese"":""1""}","","","","","","","","","","","",""
"","survey-html-form","5","161868","0.0-5.0","kqgyocaz4y","many_one","0","direct_first","1","IC06AN15","0","19","1","1","3","1","","0","1","0","8347","","{}","","","","","","","","","","","",""
"","html-keyboard-response","6","165893","0.0-6.0-0.0-0.0","kqgyocaz4y","many_one","0","direct_first","1","IC06AN15","0","19","1","1","3","1","","0","1","0","null","","","<div class = 'row'><div class = 'column'><img src = 'usneg/9560.bmp' width = '100%;'></div><div class = 'column'><img src = 'category2/CS3.png' width = '70%;'></div></div>","null","neg","CS","CS","2","category2/CS3.png","","","","",""
"","html-keyboard-response","7","168433","0.0-6.0-0.0-0.1","kqgyocaz4y","many_one","0","direct_first","1","IC06AN15","0","19","1","1","3","1","","0","1","0","null","","","<div class = 'row'><div class = 'column'><img src = 'category1/CS3.png' width = '70%;'></div><div class = 'column'><img src = 'uspos/5470.bmp' width = '100%;'></div></div>","null","pos","CS","CS","1","category1/CS3.png","","","","",""
"","html-keyboard-response","8","170972","0.0-6.0-0.0-0.2","kqgyocaz4y","many_one","0","direct_first","1","IC06AN15","0","19","1","1","3","1","","0","1","0","null","","","<div class = 'row'><div class = 'column'><img src = 'usneg/3300.bmp' width = '100%;'></div><div class = 'column'><img src = 'category3/CS10.png' width = '70%;'></div></div>","null","neg","CS","CS","3","category3/CS10.png","","","","",""
"","html-keyboard-response","9","173512","0.0-6.0-0.0-0.3","kqgyocaz4y","many_one","0","direct_first","1","IC06AN15","0","19","1","1","3","1","","0","1","0","null","","","<div class = 'row'><div class = 'column'><img src = 'uspos/8461.bmp' width = '100%;'></div><div class = 'column'><img src = 'category4/CS1.png' width = '70%;'></div></div>","null","pos","CS","CS","4","category4/CS1.png","","","","",""
"","html-keyboard-response","10","176052","0.0-6.0-0.0-0.4","kqgyocaz4y","many_one","0","direct_first","1","IC06AN15","0","19","1","1","3","1","","0","1","0","null","","","<div class = 'row'><div class = 'column'><img src = 'usneg/9342.bmp' width = '100%;'></div><div class = 'column'><img src = 'category3/CS4.png' width = '70%;'></div></div>","null","neg","CS","CS","3","category3/CS4.png","","","","",""
"","html-keyboard-response","11","178591","0.0-6.0-0.0-0.5","kqgyocaz4y","many_one","0","direct_first","1","IC06AN15","0","19","1","1","3","1","","0","1","0","null","","","<div class = 'row'><div class = 'column'><img src = 'uspos/7580.bmp' width = '100%;'></div><div class = 'column'><img src = 'category1/CS1.png' width = '70%;'></div></div>","null","pos","CS","CS","1","category1/CS1.png","","","","",""
"","html-keyboard-response","12","181132","0.0-6.0-0.0-0.6","kqgyocaz4y","many_one","0","direct_first","1","IC06AN15","0","19","1","1","3","1","","0","1","0","null","","","<div class = 'row'><div class = 'column'><img src = 'uspos/8350.bmp' width = '100%;'></div><div class = 'column'><img src = 'category1/CS8.png' width = '70%;'></div></div>","null","pos","CS","CS","1","category1/CS8.png","","","","",""
"","html-keyboard-response","13","183669","0.0-6.0-0.0-0.7","kqgyocaz4y","many_one","0","direct_first","1","IC06AN15","0","19","1","1","3","1","","0","1","0","null","","","<div class = 'row'><div class = 'column'><img src = 'category2/CS7.png' width = '70%;'></div><div class = 'column'><img src = 'usneg/9421.bmp' width = '100%;'></div></div>","null","neg","CS","CS","2","category2/CS7.png","","","","",""
"","html-keyboard-response","14","186192","0.0-6.0-0.0-0.8","kqgyocaz4y","many_one","0","direct_first","1","IC06AN15","0","19","1","1","3","1","","0","1","0","null","","","<div class = 'row'><div class = 'column'><img src = 'usneg/8485.bmp' width = '100%;'></div><div class = 'column'><img src = 'category2/CS8.png' width = '70%;'></div></div>","null","neg","CS","CS","2","category2/CS8.png","","","","",""
"","html-keyboard-response","15","188732","0.0-6.0-0.0-0.9","kqgyocaz4y","many_one","0","direct_first","1","IC06AN15","0","19","1","1","3","1","","0","1","0","null","","","<div class = 'row'><div class = 'column'><img src = 'category1/CS9.png' width = '70%;'></div><div class = 'column'><img src = 'uspos/2311.bmp' width = '100%;'></div></div>","null","pos","CS","CS","1","category1/CS9.png","","","","",""
"","html-keyboard-response","16","191272","0.0-6.0-0.0-0.10","kqgyocaz4y","many_one","0","direct_first","1","IC06AN15","0","19","1","1","3","1","","0","1","0","null","","","<div class = 'row'><div class = 'column'><img src = 'category1/CS5.png' width = '70%;'></div><div class = 'column'><img src = 'uspos/2058.bmp' width = '100%;'></div></div>","null","pos","CS","CS","1","category1/CS5.png","","","","",""
"","html-keyboard-response","17","193793","0.0-6.0-0.0-0.11","kqgyocaz4y","many_one","0","direct_first","1","IC06AN15","0","19","1","1","3","1","","0","1","0","null","","","<div class = 'row'><div class = 'column'><img src = 'uspos/2341.bmp' width = '100%;'></div><div class = 'column'><img src = 'category4/CS9.png' width = '70%;'></div></div>","null","pos","CS","CS","4","category4/CS9.png","","","","",""
"","html-keyboard-response","18","196332","0.0-6.0-0.0-0.12","kqgyocaz4y","many_one","0","direct_first","1","IC06AN15","0","19","1","1","3","1","","0","1","0","null","","","<div class = 'row'><div class = 'column'><img src = 'uspos/8490.bmp' width = '100%;'></div><div class = 'column'><img src = 'category4/CS10.png' width = '70%;'></div></div>","null","pos","CS","CS","4","category4/CS10.png","","","","",""
"","html-keyboard-response","19","198872","0.0-6.0-0.0-0.13","kqgyocaz4y","many_one","0","direct_first","1","IC06AN15","0","19","1","1","3","1","","0","1","0","null","","","<div class = 'row'><div class = 'column'><img src = 'category3/CS6.png' width = '70%;'></div><div class = 'column'><img src = 'usneg/1280.bmp' width = '100%;'></div></div>","null","neg","CS","CS","3","category3/CS6.png","","","","",""
"","html-keyboard-response","20","201411","0.0-6.0-0.0-0.14","kqgyocaz4y","many_one","0","direct_first","1","IC06AN15","0","19","1","1","3","1","","0","1","0","null","","","<div class = 'row'><div class = 'column'><img src = 'category2/CS4.png' width = '70%;'></div><div class = 'column'><img src = 'usneg/9050.bmp' width = '100%;'></div></div>","null","neg","CS","CS","2","category2/CS4.png","","","","",""
"","html-keyboard-response","21","203952","0.0-6.0-0.0-0.15","kqgyocaz4y","many_one","0","direct_first","1","IC06AN15","0","19","1","1","3","1","","0","1","0","null","","","<div class = 'row'><div class = 'column'><img src = 'category4/CS8.png' width = '70%;'></div><div class = 'column'><img src = 'uspos/2160.bmp' width = '100%;'></div></div>","null","pos","CS","CS","4","category4/CS8.png","","","","",""
"","html-keyboard-response","22","206492","0.0-6.0-0.0-0.16","kqgyocaz4y","many_one","0","direct_first","1","IC06AN15","0","19","1","1","3","1","","0","1","0","null","","","<div class = 'row'><div class = 'column'><img src = 'category3/CS1.png' width = '70%;'></div><div class = 'column'><img src = 'usneg/2141.bmp' width = '100%;'></div></div>","null","neg","CS","CS","3","category3/CS1.png","","","","",""
"","html-keyboard-response","23","209032","0.0-6.0-0.0-0.17","kqgyocaz4y","many_one","0","direct_first","1","IC06AN15","0","19","1","1","3","1","","0","1","0","null","","","<div class = 'row'><div class = 'column'><img src = 'category2/CS10.png' width = '70%;'></div><div class = 'column'><img src = 'usneg/9561.bmp' width = '100%;'></div></div>","null","neg","CS","CS","2","category2/CS10.png","","","","",""
"","html-keyboard-response","24","211573","0.0-6.0-0.0-0.18","kqgyocaz4y","many_one","0","direct_first","1","IC06AN15","0","19","1","1","3","1","","0","1","0","null","","","<div class = 'row'><div class = 'column'><img src = 'uspos/2165.bmp' width = '100%;'></div><div class = 'column'><img src = 'category4/CS2.png' width = '70%;'></div></div>","null","pos","CS","CS","4","category4/CS2.png","","","","",""
"","html-keyboard-response","25","214112","0.0-6.0-0.0-0.19","kqgyocaz4y","many_one","0","direct_first","1","IC06AN15","0","19","1","1","3","1","","0","1","0","null","","","<div class = 'row'><div class = 'column'><img src = 'category3/CS8.png' width = '70%;'></div><div class = 'column'><img src = 'usneg/9330.bmp' width = '100%;'></div></div>","null","neg","CS","CS","3","category3/CS8.png","","","","",""
"","survey-html-form","26","216128","0.0-6.0-1.0","kqgyocaz4y","many_one","0","direct_first","1","IC06AN15","0","19","1","1","3","1","","0","1","0","1495","","{}","","","","","","","","","","","",""
"","html-keyboard-response","27","220152","0.0-6.0-2.0-0.0","kqgyocaz4y","many_one","0","direct_first","1","IC06AN15","0","19","1","1","3","1","","0","1","0","null","","","<div class = 'row'><div class = 'column'><img src = 'category3/CS10.png' width = '70%;'></div><div class = 'column'><img src = 'usneg/3300.bmp' width = '100%;'></div></div>","null","neg","CS","CS","3","category3/CS10.png","","","","",""
"","html-keyboard-response","28","222672","0.0-6.0-2.0-0.1","kqgyocaz4y","many_one","0","direct_first","1","IC06AN15","0","19","1","1","3","1","","0","1","0","null","","","<div class = 'row'><div class = 'column'><img src = 'usneg/9342.bmp' width = '100%;'></div><div class = 'column'><img src = 'category3/CS4.png' width = '70%;'></div></div>","null","neg","CS","CS","3","category3/CS4.png","","","","",""
"","html-keyboard-response","29","225213","0.0-6.0-2.0-0.2","kqgyocaz4y","many_one","0","direct_first","1","IC06AN15","0","19","1","1","3","1","","0","1","0","null","","","<div class = 'row'><div class = 'column'><img src = 'category2/CS4.png' width = '70%;'></div><div class = 'column'><img src = 'usneg/9050.bmp' width = '100%;'></div></div>","null","neg","CS","CS","2","category2/CS4.png","","","","",""
"","html-keyboard-response","30","227752","0.0-6.0-2.0-0.3","kqgyocaz4y","many_one","0","direct_first","1","IC06AN15","0","19","1","1","3","1","","0","1","0","null","","","<div class = 'row'><div class = 'column'><img src = 'category1/CS5.png' width = '70%;'></div><div class = 'column'><img src = 'uspos/2058.bmp' width = '100%;'></div></div>","null","pos","CS","CS","1","category1/CS5.png","","","","",""
"","html-keyboard-response","31","230274","0.0-6.0-2.0-0.4","kqgyocaz4y","many_one","0","direct_first","1","IC06AN15","0","19","1","1","3","1","","0","1","0","null","","","<div class = 'row'><div class = 'column'><img src = 'category4/CS8.png' width = '70%;'></div><div class = 'column'><img src = 'uspos/2160.bmp' width = '100%;'></div></div>","null","pos","CS","CS","4","category4/CS8.png","","","","",""
"","html-keyboard-response","32","232791","0.0-6.0-2.0-0.5","kqgyocaz4y","many_one","0","direct_first","1","IC06AN15","0","19","1","1","3","1","","0","1","0","null","","","<div class = 'row'><div class = 'column'><img src = 'usneg/2141.bmp' width = '100%;'></div><div class = 'column'><img src = 'category3/CS1.png' width = '70%;'></div></div>","null","neg","CS","CS","3","category3/CS1.png","","","","",""
"","html-keyboard-response","33","235332","0.0-6.0-2.0-0.6","kqgyocaz4y","many_one","0","direct_first","1","IC06AN15","0","19","1","1","3","1","","0","1","0","null","","","<div class = 'row'><div class = 'column'><img src = 'usneg/8485.bmp' width = '100%;'></div><div class = 'column'><img src = 'category2/CS8.png' width = '70%;'></div></div>","null","neg","CS","CS","2","category2/CS8.png","","","","",""
"","html-keyboard-response","34","237872","0.0-6.0-2.0-0.7","kqgyocaz4y","many_one","0","direct_first","1","IC06AN15","0","19","1","1","3","1","","0","1","0","null","","","<div class = 'row'><div class = 'column'><img src = 'category1/CS9.png' width = '70%;'></div><div class = 'column'><img src = 'uspos/2311.bmp' width = '100%;'></div></div>","null","pos","CS","CS","1","category1/CS9.png","","","","",""
"","html-keyboard-response","35","240412","0.0-6.0-2.0-0.8","kqgyocaz4y","many_one","0","direct_first","1","IC06AN15","0","19","1","1","3","1","","0","1","0","null","","","<div class = 'row'><div class = 'column'><img src = 'category2/CS7.png' width = '70%;'></div><div class = 'column'><img src = 'usneg/9421.bmp' width = '100%;'></div></div>","null","neg","CS","CS","2","category2/CS7.png","","","","",""
"","html-keyboard-response","36","242952","0.0-6.0-2.0-0.9","kqgyocaz4y","many_one","0","direct_first","1","IC06AN15","0","19","1","1","3","1","","0","1","0","null","","","<div class = 'row'><div class = 'column'><img src = 'usneg/9561.bmp' width = '100%;'></div><div class = 'column'><img src = 'category2/CS10.png' width = '70%;'></div></div>","null","neg","CS","CS","2","category2/CS10.png","","","","",""
"","html-keyboard-response","37","245492","0.0-6.0-2.0-0.10","kqgyocaz4y","many_one","0","direct_first","1","IC06AN15","0","19","1","1","3","1","","0","1","0","null","","","<div class = 'row'><div class = 'column'><img src = 'usneg/1280.bmp' width = '100%;'></div><div class = 'column'><img src = 'category3/CS6.png' width = '70%;'></div></div>","null","neg","CS","CS","3","category3/CS6.png","","","","",""
"","html-keyboard-response","38","248032","0.0-6.0-2.0-0.11","kqgyocaz4y","many_one","0","direct_first","1","IC06AN15","0","19","1","1","3","1","","0","1","0","null","","","<div class = 'row'><div class = 'column'><img src = 'uspos/8461.bmp' width = '100%;'></div><div class = 'column'><img src = 'category4/CS1.png' width = '70%;'></div></div>","null","pos","CS","CS","4","category4/CS1.png","","","","",""
"","html-keyboard-response","39","250562","0.0-6.0-2.0-0.12","kqgyocaz4y","many_one","0","direct_first","1","IC06AN15","0","19","1","1","3","1","","0","1","0","null","","","<div class = 'row'><div class = 'column'><img src = 'uspos/2165.bmp' width = '100%;'></div><div class = 'column'><img src = 'category4/CS2.png' width = '70%;'></div></div>","null","pos","CS","CS","4","category4/CS2.png","","","","",""
"","html-keyboard-response","40","253092","0.0-6.0-2.0-0.13","kqgyocaz4y","many_one","0","direct_first","1","IC06AN15","0","19","1","1","3","1","","0","1","0","null","","","<div class = 'row'><div class = 'column'><img src = 'uspos/8350.bmp' width = '100%;'></div><div class = 'column'><img src = 'category1/CS8.png' width = '70%;'></div></div>","null","pos","CS","CS","1","category1/CS8.png","","","","",""
"","html-keyboard-response","41","255632","0.0-6.0-2.0-0.14","kqgyocaz4y","many_one","0","direct_first","1","IC06AN15","0","19","1","1","3","1","","0","1","0","null","","","<div class = 'row'><div class = 'column'><img src = 'category2/CS3.png' width = '70%;'></div><div class = 'column'><img src = 'usneg/9560.bmp' width = '100%;'></div></div>","null","neg","CS","CS","2","category2/CS3.png","","","","",""
"","html-keyboard-response","42","258154","0.0-6.0-2.0-0.15","kqgyocaz4y","many_one","0","direct_first","1","IC06AN15","0","19","1","1","3","1","","0","1","0","null","","","<div class = 'row'><div class = 'column'><img src = 'category3/CS8.png' width = '70%;'></div><div class = 'column'><img src = 'usneg/9330.bmp' width = '100%;'></div></div>","null","neg","CS","CS","3","category3/CS8.png","","","","",""
"","html-keyboard-response","43","260672","0.0-6.0-2.0-0.16","kqgyocaz4y","many_one","0","direct_first","1","IC06AN15","0","19","1","1","3","1","","0","1","0","null","","","<div class = 'row'><div class = 'column'><img src = 'category1/CS1.png' width = '70%;'></div><div class = 'column'><img src = 'uspos/7580.bmp' width = '100%;'></div></div>","null","pos","CS","CS","1","category1/CS1.png","","","","",""
"","html-keyboard-response","44","263212","0.0-6.0-2.0-0.17","kqgyocaz4y","many_one","0","direct_first","1","IC06AN15","0","19","1","1","3","1","","0","1","0","null","","","<div class = 'row'><div class = 'column'><img src = 'category1/CS3.png' width = '70%;'></div><div class = 'column'><img src = 'uspos/5470.bmp' width = '100%;'></div></div>","null","pos","CS","CS","1","category1/CS3.png","","","","",""
"","html-keyboard-response","45","265752","0.0-6.0-2.0-0.18","kqgyocaz4y","many_one","0","direct_first","1","IC06AN15","0","19","1","1","3","1","","0","1","0","null","","","<div class = 'row'><div class = 'column'><img src = 'uspos/2341.bmp' width = '100%;'></div><div class = 'column'><img src = 'category4/CS9.png' width = '70%;'></div></div>","null","pos","CS","CS","4","category4/CS9.png","","","","",""
"","html-keyboard-response","46","268272","0.0-6.0-2.0-0.19","kqgyocaz4y","many_one","0","direct_first","1","IC06AN15","0","19","1","1","3","1","","0","1","0","null","","","<div class = 'row'><div class = 'column'><img src = 'uspos/8490.bmp' width = '100%;'></div><div class = 'column'><img src = 'category4/CS10.png' width = '70%;'></div></div>","null","pos","CS","CS","4","category4/CS10.png","","","","",""
"","survey-html-form","47","270959","0.0-6.0-3.0","kqgyocaz4y","many_one","0","direct_first","1","IC06AN15","0","19","1","1","3","1","","0","1","0","2167","","{}","","","","","","","","","","","",""
"","html-keyboard-response","48","274993","0.0-6.0-4.0-0.0","kqgyocaz4y","many_one","0","direct_first","1","IC06AN15","0","19","1","1","3","1","","0","1","0","null","","","<div class = 'row'><div class = 'column'><img src = 'uspos/2058.bmp' width = '100%;'></div><div class = 'column'><img src = 'category1/CS5.png' width = '70%;'></div></div>","null","pos","CS","CS","1","category1/CS5.png","","","","",""
"","html-keyboard-response","49","277532","0.0-6.0-4.0-0.1","kqgyocaz4y","many_one","0","direct_first","1","IC06AN15","0","19","1","1","3","1","","0","1","0","null","","","<div class = 'row'><div class = 'column'><img src = 'usneg/9330.bmp' width = '100%;'></div><div class = 'column'><img src = 'category3/CS8.png' width = '70%;'></div></div>","null","neg","CS","CS","3","category3/CS8.png","","","","",""
"","html-keyboard-response","50","280053","0.0-6.0-4.0-0.2","kqgyocaz4y","many_one","0","direct_first","1","IC06AN15","0","19","1","1","3","1","","0","1","0","null","","","<div class = 'row'><div class = 'column'><img src = 'category4/CS9.png' width = '70%;'></div><div class = 'column'><img src = 'uspos/2341.bmp' width = '100%;'></div></div>","null","pos","CS","CS","4","category4/CS9.png","","","","",""
"","html-keyboard-response","51","282592","0.0-6.0-4.0-0.3","kqgyocaz4y","many_one","0","direct_first","1","IC06AN15","0","19","1","1","3","1","","0","1","0","null","","","<div class = 'row'><div class = 'column'><img src = 'category2/CS4.png' width = '70%;'></div><div class = 'column'><img src = 'usneg/9050.bmp' width = '100%;'></div></div>","null","neg","CS","CS","2","category2/CS4.png","","","","",""
"","html-keyboard-response","52","285131","0.0-6.0-4.0-0.4","kqgyocaz4y","many_one","0","direct_first","1","IC06AN15","0","19","1","1","3","1","","0","1","0","null","","","<div class = 'row'><div class = 'column'><img src = 'category2/CS8.png' width = '70%;'></div><div class = 'column'><img src = 'usneg/8485.bmp' width = '100%;'></div></div>","null","neg","CS","CS","2","category2/CS8.png","","","","",""
"","html-keyboard-response","53","287672","0.0-6.0-4.0-0.5","kqgyocaz4y","many_one","0","direct_first","1","IC06AN15","0","19","1","1","3","1","","0","1","0","null","","","<div class = 'row'><div class = 'column'><img src = 'usneg/9561.bmp' width = '100%;'></div><div class = 'column'><img src = 'category2/CS10.png' width = '70%;'></div></div>","null","neg","CS","CS","2","category2/CS10.png","","","","",""
"","html-keyboard-response","54","290201","0.0-6.0-4.0-0.6","kqgyocaz4y","many_one","0","direct_first","1","IC06AN15","0","19","1","1","3","1","","0","1","0","null","","","<div class = 'row'><div class = 'column'><img src = 'category1/CS1.png' width = '70%;'></div><div class = 'column'><img src = 'uspos/7580.bmp' width = '100%;'></div></div>","null","pos","CS","CS","1","category1/CS1.png","","","","",""
"","html-keyboard-response","55","292732","0.0-6.0-4.0-0.7","kqgyocaz4y","many_one","0","direct_first","1","IC06AN15","0","19","1","1","3","1","","0","1","0","null","","","<div class = 'row'><div class = 'column'><img src = 'category4/CS10.png' width = '70%;'></div><div class = 'column'><img src = 'uspos/8490.bmp' width = '100%;'></div></div>","null","pos","CS","CS","4","category4/CS10.png","","","","",""
"","html-keyboard-response","56","295272","0.0-6.0-4.0-0.8","kqgyocaz4y","many_one","0","direct_first","1","IC06AN15","0","19","1","1","3","1","","0","1","0","null","","","<div class = 'row'><div class = 'column'><img src = 'category2/CS3.png' width = '70%;'></div><div class = 'column'><img src = 'usneg/9560.bmp' width = '100%;'></div></div>","null","neg","CS","CS","2","category2/CS3.png","","","","",""
"","html-keyboard-response","57","297812","0.0-6.0-4.0-0.9","kqgyocaz4y","many_one","0","direct_first","1","IC06AN15","0","19","1","1","3","1","","0","1","0","null","","","<div class = 'row'><div class = 'column'><img src = 'usneg/9342.bmp' width = '100%;'></div><div class = 'column'><img src = 'category3/CS4.png' width = '70%;'></div></div>","null","neg","CS","CS","3","category3/CS4.png","","","","",""
"","html-keyboard-response","58","300352","0.0-6.0-4.0-0.10","kqgyocaz4y","many_one","0","direct_first","1","IC06AN15","0","19","1","1","3","1","","0","1","0","null","","","<div class = 'row'><div class = 'column'><img src = 'category4/CS8.png' width = '70%;'></div><div class = 'column'><img src = 'uspos/2160.bmp' width = '100%;'></div></div>","null","pos","CS","CS","4","category4/CS8.png","","","","",""
"","html-keyboard-response","59","302871","0.0-6.0-4.0-0.11","kqgyocaz4y","many_one","0","direct_first","1","IC06AN15","0","19","1","1","3","1","","0","1","0","null","","","<div class = 'row'><div class = 'column'><img src = 'category1/CS8.png' width = '70%;'></div><div class = 'column'><img src = 'uspos/8350.bmp' width = '100%;'></div></div>","null","pos","CS","CS","1","category1/CS8.png","","","","",""
"","html-keyboard-response","60","305412","0.0-6.0-4.0-0.12","kqgyocaz4y","many_one","0","direct_first","1","IC06AN15","0","19","1","1","3","1","","0","1","0","null","","","<div class = 'row'><div class = 'column'><img src = 'usneg/9421.bmp' width = '100%;'></div><div class = 'column'><img src = 'category2/CS7.png' width = '70%;'></div></div>","null","neg","CS","CS","2","category2/CS7.png","","","","",""
"","html-keyboard-response","61","307952","0.0-6.0-4.0-0.13","kqgyocaz4y","many_one","0","direct_first","1","IC06AN15","0","19","1","1","3","1","","0","1","0","null","","","<div class = 'row'><div class = 'column'><img src = 'uspos/5470.bmp' width = '100%;'></div><div class = 'column'><img src = 'category1/CS3.png' width = '70%;'></div></div>","null","pos","CS","CS","1","category1/CS3.png","","","","",""
"","html-keyboard-response","62","310491","0.0-6.0-4.0-0.14","kqgyocaz4y","many_one","0","direct_first","1","IC06AN15","0","19","1","1","3","1","","0","1","0","null","","","<div class = 'row'><div class = 'column'><img src = 'category3/CS6.png' width = '70%;'></div><div class = 'column'><img src = 'usneg/1280.bmp' width = '100%;'></div></div>","null","neg","CS","CS","3","category3/CS6.png","","","","",""
"","html-keyboard-response","63","313032","0.0-6.0-4.0-0.15","kqgyocaz4y","many_one","0","direct_first","1","IC06AN15","0","19","1","1","3","1","","0","1","0","null","","","<div class = 'row'><div class = 'column'><img src = 'usneg/2141.bmp' width = '100%;'></div><div class = 'column'><img src = 'category3/CS1.png' width = '70%;'></div></div>","null","neg","CS","CS","3","category3/CS1.png","","","","",""
"","html-keyboard-response","64","315572","0.0-6.0-4.0-0.16","kqgyocaz4y","many_one","0","direct_first","1","IC06AN15","0","19","1","1","3","1","","0","1","0","null","","","<div class = 'row'><div class = 'column'><img src = 'uspos/8461.bmp' width = '100%;'></div><div class = 'column'><img src = 'category4/CS1.png' width = '70%;'></div></div>","null","pos","CS","CS","4","category4/CS1.png","","","","",""
"","html-keyboard-response","65","318112","0.0-6.0-4.0-0.17","kqgyocaz4y","many_one","0","direct_first","1","IC06AN15","0","19","1","1","3","1","","0","1","0","null","","","<div class = 'row'><div class = 'column'><img src = 'usneg/3300.bmp' width = '100%;'></div><div class = 'column'><img src = 'category3/CS10.png' width = '70%;'></div></div>","null","neg","CS","CS","3","category3/CS10.png","","","","",""
"","html-keyboard-response","66","320652","0.0-6.0-4.0-0.18","kqgyocaz4y","many_one","0","direct_first","1","IC06AN15","0","19","1","1","3","1","","0","1","0","null","","","<div class = 'row'><div class = 'column'><img src = 'category4/CS2.png' width = '70%;'></div><div class = 'column'><img src = 'uspos/2165.bmp' width = '100%;'></div></div>","null","pos","CS","CS","4","category4/CS2.png","","","","",""
"","html-keyboard-response","67","323192","0.0-6.0-4.0-0.19","kqgyocaz4y","many_one","0","direct_first","1","IC06AN15","0","19","1","1","3","1","","0","1","0","null","","","<div class = 'row'><div class = 'column'><img src = 'uspos/2311.bmp' width = '100%;'></div><div class = 'column'><img src = 'category1/CS9.png' width = '70%;'></div></div>","null","pos","CS","CS","1","category1/CS9.png","","","","",""
"","survey-html-form","68","325082","0.0-6.0-5.0","kqgyocaz4y","many_one","0","direct_first","1","IC06AN15","0","19","1","1","3","1","","0","1","0","1389","","{}","","","","","","","","","","","",""
"","html-keyboard-response","69","329112","0.0-6.0-6.0-0.0","kqgyocaz4y","many_one","0","direct_first","1","IC06AN15","0","19","1","1","3","1","","0","1","0","null","","","<div class = 'row'><div class = 'column'><img src = 'usneg/3300.bmp' width = '100%;'></div><div class = 'column'><img src = 'category3/CS10.png' width = '70%;'></div></div>","null","neg","CS","CS","3","category3/CS10.png","","","","",""
"","html-keyboard-response","70","331652","0.0-6.0-6.0-0.1","kqgyocaz4y","many_one","0","direct_first","1","IC06AN15","0","19","1","1","3","1","","0","1","0","null","","","<div class = 'row'><div class = 'column'><img src = 'category2/CS3.png' width = '70%;'></div><div class = 'column'><img src = 'usneg/9560.bmp' width = '100%;'></div></div>","null","neg","CS","CS","2","category2/CS3.png","","","","",""
"","html-keyboard-response","71","334182","0.0-6.0-6.0-0.2","kqgyocaz4y","many_one","0","direct_first","1","IC06AN15","0","19","1","1","3","1","","0","1","0","null","","","<div class = 'row'><div class = 'column'><img src = 'category4/CS9.png' width = '70%;'></div><div class = 'column'><img src = 'uspos/2341.bmp' width = '100%;'></div></div>","null","pos","CS","CS","4","category4/CS9.png","","","","",""
"","html-keyboard-response","72","336713","0.0-6.0-6.0-0.3","kqgyocaz4y","many_one","0","direct_first","1","IC06AN15","0","19","1","1","3","1","","0","1","0","null","","","<div class = 'row'><div class = 'column'><img src = 'uspos/8350.bmp' width = '100%;'></div><div class = 'column'><img src = 'category1/CS8.png' width = '70%;'></div></div>","null","pos","CS","CS","1","category1/CS8.png","","","","",""
"","html-keyboard-response","73","339250","0.0-6.0-6.0-0.4","kqgyocaz4y","many_one","0","direct_first","1","IC06AN15","0","19","1","1","3","1","","0","1","0","null","","","<div class = 'row'><div class = 'column'><img src = 'category1/CS3.png' width = '70%;'></div><div class = 'column'><img src = 'uspos/5470.bmp' width = '100%;'></div></div>","null","pos","CS","CS","1","category1/CS3.png","","","","",""
"","html-keyboard-response","74","341774","0.0-6.0-6.0-0.5","kqgyocaz4y","many_one","0","direct_first","1","IC06AN15","0","19","1","1","3","1","","0","1","0","null","","","<div class = 'row'><div class = 'column'><img src = 'category3/CS6.png' width = '70%;'></div><div class = 'column'><img src = 'usneg/1280.bmp' width = '100%;'></div></div>","null","neg","CS","CS","3","category3/CS6.png","","","","",""
"","html-keyboard-response","75","344312","0.0-6.0-6.0-0.6","kqgyocaz4y","many_one","0","direct_first","1","IC06AN15","0","19","1","1","3","1","","0","1","0","null","","","<div class = 'row'><div class = 'column'><img src = 'usneg/8485.bmp' width = '100%;'></div><div class = 'column'><img src = 'category2/CS8.png' width = '70%;'></div></div>","null","neg","CS","CS","2","category2/CS8.png","","","","",""
"","html-keyboard-response","76","346842","0.0-6.0-6.0-0.7","kqgyocaz4y","many_one","0","direct_first","1","IC06AN15","0","19","1","1","3","1","","0","1","0","null","","","<div class = 'row'><div class = 'column'><img src = 'usneg/9050.bmp' width = '100%;'></div><div class = 'column'><img src = 'category2/CS4.png' width = '70%;'></div></div>","null","neg","CS","CS","2","category2/CS4.png","","","","",""
"","html-keyboard-response","77","349372","0.0-6.0-6.0-0.8","kqgyocaz4y","many_one","0","direct_first","1","IC06AN15","0","19","1","1","3","1","","0","1","0","null","","","<div class = 'row'><div class = 'column'><img src = 'usneg/9561.bmp' width = '100%;'></div><div class = 'column'><img src = 'category2/CS10.png' width = '70%;'></div></div>","null","neg","CS","CS","2","category2/CS10.png","","","","",""
"","html-keyboard-response","78","351911","0.0-6.0-6.0-0.9","kqgyocaz4y","many_one","0","direct_first","1","IC06AN15","0","19","1","1","3","1","","0","1","0","null","","","<div class = 'row'><div class = 'column'><img src = 'category3/CS1.png' width = '70%;'></div><div class = 'column'><img src = 'usneg/2141.bmp' width = '100%;'></div></div>","null","neg","CS","CS","3","category3/CS1.png","","","","",""
"","html-keyboard-response","79","354451","0.0-6.0-6.0-0.10","kqgyocaz4y","many_one","0","direct_first","1","IC06AN15","0","19","1","1","3","1","","0","1","0","null","","","<div class = 'row'><div class = 'column'><img src = 'category1/CS1.png' width = '70%;'></div><div class = 'column'><img src = 'uspos/7580.bmp' width = '100%;'></div></div>","null","pos","CS","CS","1","category1/CS1.png","","","","",""
"","html-keyboard-response","80","356991","0.0-6.0-6.0-0.11","kqgyocaz4y","many_one","0","direct_first","1","IC06AN15","0","19","1","1","3","1","","0","1","0","null","","","<div class = 'row'><div class = 'column'><img src = 'usneg/9330.bmp' width = '100%;'></div><div class = 'column'><img src = 'category3/CS8.png' width = '70%;'></div></div>","null","neg","CS","CS","3","category3/CS8.png","","","","",""
"","html-keyboard-response","81","359532","0.0-6.0-6.0-0.12","kqgyocaz4y","many_one","0","direct_first","1","IC06AN15","0","19","1","1","3","1","","0","1","0","null","","","<div class = 'row'><div class = 'column'><img src = 'category4/CS2.png' width = '70%;'></div><div class = 'column'><img src = 'uspos/2165.bmp' width = '100%;'></div></div>","null","pos","CS","CS","4","category4/CS2.png","","","","",""
"","html-keyboard-response","82","362071","0.0-6.0-6.0-0.13","kqgyocaz4y","many_one","0","direct_first","1","IC06AN15","0","19","1","1","3","1","","0","1","0","null","","","<div class = 'row'><div class = 'column'><img src = 'uspos/2160.bmp' width = '100%;'></div><div class = 'column'><img src = 'category4/CS8.png' width = '70%;'></div></div>","null","pos","CS","CS","4","category4/CS8.png","","","","",""
"","html-keyboard-response","83","364610","0.0-6.0-6.0-0.14","kqgyocaz4y","many_one","0","direct_first","1","IC06AN15","0","19","1","1","3","1","","0","1","0","null","","","<div class = 'row'><div class = 'column'><img src = 'usneg/9342.bmp' width = '100%;'></div><div class = 'column'><img src = 'category3/CS4.png' width = '70%;'></div></div>","null","neg","CS","CS","3","category3/CS4.png","","","","",""
"","html-keyboard-response","84","367132","0.0-6.0-6.0-0.15","kqgyocaz4y","many_one","0","direct_first","1","IC06AN15","0","19","1","1","3","1","","0","1","0","null","","","<div class = 'row'><div class = 'column'><img src = 'uspos/2058.bmp' width = '100%;'></div><div class = 'column'><img src = 'category1/CS5.png' width = '70%;'></div></div>","null","pos","CS","CS","1","category1/CS5.png","","","","",""
"","html-keyboard-response","85","369672","0.0-6.0-6.0-0.16","kqgyocaz4y","many_one","0","direct_first","1","IC06AN15","0","19","1","1","3","1","","0","1","0","null","","","<div class = 'row'><div class = 'column'><img src = 'category4/CS10.png' width = '70%;'></div><div class = 'column'><img src = 'uspos/8490.bmp' width = '100%;'></div></div>","null","pos","CS","CS","4","category4/CS10.png","","","","",""
"","html-keyboard-response","86","372212","0.0-6.0-6.0-0.17","kqgyocaz4y","many_one","0","direct_first","1","IC06AN15","0","19","1","1","3","1","","0","1","0","null","","","<div class = 'row'><div class = 'column'><img src = 'uspos/8461.bmp' width = '100%;'></div><div class = 'column'><img src = 'category4/CS1.png' width = '70%;'></div></div>","null","pos","CS","CS","4","category4/CS1.png","","","","",""
"","html-keyboard-response","87","374732","0.0-6.0-6.0-0.18","kqgyocaz4y","many_one","0","direct_first","1","IC06AN15","0","19","1","1","3","1","","0","1","0","null","","","<div class = 'row'><div class = 'column'><img src = 'usneg/9421.bmp' width = '100%;'></div><div class = 'column'><img src = 'category2/CS7.png' width = '70%;'></div></div>","null","neg","CS","CS","2","category2/CS7.png","","","","",""
"","html-keyboard-response","88","377234","0.0-6.0-6.0-0.19","kqgyocaz4y","many_one","0","direct_first","1","IC06AN15","0","19","1","1","3","1","","0","1","0","null","","","<div class = 'row'><div class = 'column'><img src = 'uspos/2311.bmp' width = '100%;'></div><div class = 'column'><img src = 'category1/CS9.png' width = '70%;'></div></div>","null","pos","CS","CS","1","category1/CS9.png","","","","",""
"","survey-html-form","89","390340","0.0-7.0","kqgyocaz4y","many_one","0","direct_first","1","IC06AN15","0","19","1","1","3","1","","0","1","0","12589","","{}","","","","","","","","","","","",""
"","image-slider-response","90","396747","0.0-8.0-0.0","kqgyocaz4y","many_one","0","direct_first","1","IC06AN15","0","19","1","1","3","1","","0","1","0","4385","","","","","neg","CS","CS","2","category2/CS3.png","-20","targets/11.png","direct","",""
"","image-slider-response","91","400970","0.0-8.0-0.1","kqgyocaz4y","many_one","0","direct_first","1","IC06AN15","0","19","1","1","3","1","","0","1","0","4220","","","","","neg","GS","GSold","3","category3/CS7.png","-93","targets/42.png","direct","",""
"","image-slider-response","92","403833","0.0-8.0-0.2","kqgyocaz4y","many_one","0","direct_first","1","IC06AN15","0","19","1","1","3","1","","0","1","0","2861","","","","","pos","GS","GSold","4","category4/CS7.png","37","targets/17.png","direct","",""
"","image-slider-response","93","407521","0.0-8.0-0.3","kqgyocaz4y","many_one","0","direct_first","1","IC06AN15","0","19","1","1","3","1","","0","1","0","3685","","","","","pos","GS","GSold","1","category1/CS7.png","25","targets/18.png","direct","",""
"","image-slider-response","94","410646","0.0-8.0-0.4","kqgyocaz4y","many_one","0","direct_first","1","IC06AN15","0","19","1","1","3","1","","0","1","0","3122","","","","","neg","CS","CS","3","category3/CS10.png","-81","targets/36.png","direct","",""
"","image-slider-response","95","414219","0.0-8.0-0.5","kqgyocaz4y","many_one","0","direct_first","1","IC06AN15","0","19","1","1","3","1","","0","1","0","3569","","","","","pos","GS","GSnew","1","category1/GS3.png","13","targets/24.png","direct","",""
"","image-slider-response","96","417092","0.0-8.0-0.6","kqgyocaz4y","many_one","0","direct_first","1","IC06AN15","0","19","1","1","3","1","","0","1","0","2869","","","","","pos","GS","GSold","4","category4/CS5.png","30","targets/22.png","direct","",""
"","image-slider-response","97","421333","0.0-8.0-0.7","kqgyocaz4y","many_one","0","direct_first","1","IC06AN15","0","19","1","1","3","1","","0","1","0","4239","","","","","neg","GS","GSold","2","category2/CS9.png","-15","targets/26.png","direct","",""
"","image-slider-response","98","424419","0.0-8.0-0.8","kqgyocaz4y","many_one","0","direct_first","1","IC06AN15","0","19","1","1","3","1","","0","1","0","3083","","","","","neg","CS","CS","3","category3/CS4.png","-74","targets/47.png","direct","",""
"","image-slider-response","99","427564","0.0-8.0-0.9","kqgyocaz4y","many_one","0","direct_first","1","IC06AN15","0","19","1","1","3","1","","0","1","0","3142","","","","","neg","CS","CS","2","category2/CS7.png","-25","targets/4.png","direct","",""
"","image-slider-response","100","430776","0.0-8.0-0.10","kqgyocaz4y","many_one","0","direct_first","1","IC06AN15","0","19","1","1","3","1","","0","1","0","3210","","","","","neg","GS","GSnew","2","category2/GS1.png","-17","targets/3.png","direct","",""
"","image-slider-response","101","435240","0.0-8.0-0.11","kqgyocaz4y","many_one","0","direct_first","1","IC06AN15","0","19","1","1","3","1","","0","1","0","4461","","","","","pos","GS","GSnew","1","category1/GS2.png","13","targets/38.png","direct","",""
"","image-slider-response","102","439074","0.0-8.0-0.12","kqgyocaz4y","many_one","0","direct_first","1","IC06AN15","0","19","1","1","3","1","","0","1","0","3830","","","","","pos","GS","GSold","4","category4/CS6.png","100","targets/16.png","direct","",""
"","image-slider-response","103","442558","0.0-8.0-0.13","kqgyocaz4y","many_one","0","direct_first","1","IC06AN15","0","19","1","1","3","1","","0","1","0","3482","","","","","neg","GS","GSold","3","category3/CS3.png","-84","targets/7.png","direct","",""
"","image-slider-response","104","445557","0.0-8.0-0.14","kqgyocaz4y","many_one","0","direct_first","1","IC06AN15","0","19","1","1","3","1","","0","1","0","2996","","","","","pos","CS","CS","1","category1/CS1.png","-24","targets/43.png","direct","",""
"","image-slider-response","105","448701","0.0-8.0-0.15","kqgyocaz4y","many_one","0","direct_first","1","IC06AN15","0","19","1","1","3","1","","0","1","0","3142","","","","","pos","CS","CS","4","category4/CS1.png","31","targets/41.png","direct","",""
"","image-slider-response","106","452855","0.0-8.0-0.16","kqgyocaz4y","many_one","0","direct_first","1","IC06AN15","0","19","1","1","3","1","","0","1","0","4151","","","","","neg","GS","GSnew","3","category3/GS3.png","-20","targets/46.png","direct","",""
"","image-slider-response","107","455971","0.0-8.0-0.17","kqgyocaz4y","many_one","0","direct_first","1","IC06AN15","0","19","1","1","3","1","","0","1","0","3113","","","","","neg","GS","GSold","3","category3/CS5.png","-61","targets/8.png","direct","",""
"","image-slider-response","108","459910","0.0-8.0-0.18","kqgyocaz4y","many_one","0","direct_first","1","IC06AN15","0","19","1","1","3","1","","0","1","0","3937","","","","","pos","CS","CS","1","category1/CS9.png","22","targets/6.png","direct","",""
"","image-slider-response","109","463307","0.0-8.0-0.19","kqgyocaz4y","many_one","0","direct_first","1","IC06AN15","0","19","1","1","3","1","","0","1","0","3395","","","","","neg","CS","CS","2","category2/CS8.png","-20","targets/29.png","direct","",""
"","image-slider-response","110","467752","0.0-8.0-0.20","kqgyocaz4y","many_one","0","direct_first","1","IC06AN15","0","19","1","1","3","1","","0","1","0","4442","","","","","neg","GS","GSold","2","category2/CS2.png","4","targets/20.png","direct","",""
"","image-slider-response","111","471303","0.0-8.0-0.21","kqgyocaz4y","many_one","0","direct_first","1","IC06AN15","0","19","1","1","3","1","","0","1","0","3550","","","","","neg","CS","CS","3","category3/CS8.png","-100","targets/40.png","direct","",""
"","image-slider-response","112","474486","0.0-8.0-0.22","kqgyocaz4y","many_one","0","direct_first","1","IC06AN15","0","19","1","1","3","1","","0","1","0","3180","","","","","neg","CS","CS","3","category3/CS1.png","-98","targets/5.png","direct","",""
"","image-slider-response","113","478650","0.0-8.0-0.23","kqgyocaz4y","many_one","0","direct_first","1","IC06AN15","0","19","1","1","3","1","","0","1","0","4161","","","","","pos","GS","GSold","1","category1/CS10.png","9","targets/37.png","direct","",""
"","image-slider-response","114","481261","0.0-8.0-0.24","kqgyocaz4y","many_one","0","direct_first","1","IC06AN15","0","19","1","1","3","1","","0","1","0","2608","","","","","pos","GS","GSnew","4","category4/GS2.png","-23","targets/12.png","direct","",""
"","image-slider-response","115","485064","0.0-8.0-0.25","kqgyocaz4y","many_one","0","direct_first","1","IC06AN15","0","19","1","1","3","1","","0","1","0","3801","","","","","pos","GS","abstract","4","category4/lin.png","47","targets/45.png","direct","",""
"","image-slider-response","116","488198","0.0-8.0-0.26","kqgyocaz4y","many_one","0","direct_first","1","IC06AN15","0","19","1","1","3","1","","0","1","0","3132","","","","","pos","CS","CS","1","category1/CS8.png","-10","targets/34.png","direct","",""
"","image-slider-response","117","491691","0.0-8.0-0.27","kqgyocaz4y","many_one","0","direct_first","1","IC06AN15","0","19","1","1","3","1","","0","1","0","3491","","","","","neg","CS","CS","3","category3/CS6.png","-100","targets/10.png","direct","",""
"","image-slider-response","118","496377","0.0-8.0-0.28","kqgyocaz4y","many_one","0","direct_first","1","IC06AN15","0","19","1","1","3","1","","0","1","0","4684","","","","","pos","CS","CS","1","category1/CS5.png","8","targets/27.png","direct","",""
"","image-slider-response","119","500793","0.0-8.0-0.29","kqgyocaz4y","many_one","0","direct_first","1","IC06AN15","0","19","1","1","3","1","","0","1","0","4413","","","","","neg","GS","GSnew","2","category2/GS3.png","24","targets/32.png","direct","",""
"","image-slider-response","120","504227","0.0-8.0-0.30","kqgyocaz4y","many_one","0","direct_first","1","IC06AN15","0","19","1","1","3","1","","0","1","0","3433","","","","","pos","GS","GSnew","4","category4/GS1.png","11","targets/44.png","direct","",""
"","image-slider-response","121","509175","0.0-8.0-0.31","kqgyocaz4y","many_one","0","direct_first","1","IC06AN15","0","19","1","1","3","1","","0","1","0","4947","","","","","neg","GS","abstract","3","category3/wang.png","-69","targets/13.png","direct","",""
"","image-slider-response","122","512716","0.0-8.0-0.32","kqgyocaz4y","many_one","0","direct_first","1","IC06AN15","0","19","1","1","3","1","","0","1","0","3539","","","","","pos","GS","GSnew","1","category1/GS1.png","12","targets/14.png","direct","",""
"","image-slider-response","123","516675","0.0-8.0-0.33","kqgyocaz4y","many_one","0","direct_first","1","IC06AN15","0","19","1","1","3","1","","0","1","0","3956","","","","","neg","GS","abstract","2","category2/men.png","7","targets/1.png","direct","",""
"","image-slider-response","124","521370","0.0-8.0-0.34","kqgyocaz4y","many_one","0","direct_first","1","IC06AN15","0","19","1","1","3","1","","0","1","0","4694","","","","","pos","CS","CS","4","category4/CS8.png","35","targets/15.png","direct","",""
"","image-slider-response","125","524233","0.0-8.0-0.35","kqgyocaz4y","many_one","0","direct_first","1","IC06AN15","0","19","1","1","3","1","","0","1","0","2859","","","","","neg","GS","GSold","2","category2/CS1.png","-14","targets/21.png","direct","",""
"","image-slider-response","126","527221","0.0-8.0-0.36","kqgyocaz4y","many_one","0","direct_first","1","IC06AN15","0","19","1","1","3","1","","0","1","0","2984","","","","","pos","GS","abstract","1","category1/ma.png","9","targets/35.png","direct","",""
"","image-slider-response","127","530634","0.0-8.0-0.37","kqgyocaz4y","many_one","0","direct_first","1","IC06AN15","0","19","1","1","3","1","","0","1","0","3412","","","","","neg","GS","GSnew","3","category3/GS1.png","-92","targets/23.png","direct","",""
"","image-slider-response","128","533506","0.0-8.0-0.38","kqgyocaz4y","many_one","0","direct_first","1","IC06AN15","0","19","1","1","3","1","","0","1","0","2869","","","","","pos","GS","GSold","1","category1/CS4.png","5","targets/48.png","direct","",""
"","image-slider-response","129","537009","0.0-8.0-0.39","kqgyocaz4y","many_one","0","direct_first","1","IC06AN15","0","19","1","1","3","1","","0","1","0","3501","","","","","neg","CS","CS","2","category2/CS10.png","-59","targets/25.png","direct","",""
"","image-slider-response","130","541101","0.0-8.0-0.40","kqgyocaz4y","many_one","0","direct_first","1","IC06AN15","0","19","1","1","3","1","","0","1","0","4092","","","","","neg","GS","GSnew","2","category2/GS2.png","-13","targets/9.png","direct","",""
"","image-slider-response","131","543838","0.0-8.0-0.41","kqgyocaz4y","many_one","0","direct_first","1","IC06AN15","0","19","1","1","3","1","","0","1","0","2733","","","","","pos","CS","CS","1","category1/CS3.png","-15","targets/30.png","direct","",""
"","image-slider-response","132","546826","0.0-8.0-0.42","kqgyocaz4y","many_one","0","direct_first","1","IC06AN15","0","19","1","1","3","1","","0","1","0","2986","","","","","neg","GS","GSnew","3","category3/GS2.png","-70","targets/31.png","direct","",""
"","image-slider-response","133","549289","0.0-8.0-0.43","kqgyocaz4y","many_one","0","direct_first","1","IC06AN15","0","19","1","1","3","1","","0","1","0","2462","","","","","pos","CS","CS","4","category4/CS9.png","26","targets/39.png","direct","",""
"","image-slider-response","134","552035","0.0-8.0-0.44","kqgyocaz4y","many_one","0","direct_first","1","IC06AN15","0","19","1","1","3","1","","0","1","0","2744","","","","","pos","CS","CS","4","category4/CS2.png","42","targets/33.png","direct","",""
"","image-slider-response","135","555712","0.0-8.0-0.45","kqgyocaz4y","many_one","0","direct_first","1","IC06AN15","0","19","1","1","3","1","","0","1","0","3675","","","","","pos","GS","GSnew","4","category4/GS3.png","45","targets/2.png","direct","",""
"","image-slider-response","136","558312","0.0-8.0-0.46","kqgyocaz4y","many_one","0","direct_first","1","IC06AN15","0","19","1","1","3","1","","0","1","0","2597","","","","","pos","CS","CS","4","category4/CS10.png","10","targets/28.png","direct","",""
"","image-slider-response","137","561416","0.0-8.0-0.47","kqgyocaz4y","many_one","0","direct_first","1","IC06AN15","0","19","1","1","3","1","","0","1","0","3101","","","","","neg","CS","CS","2","category2/CS4.png","-19","targets/19.png","direct","",""
"","html-keyboard-response","138","586302","0.0-9.0","kqgyocaz4y","many_one","0","direct_first","1","IC06AN15","0","19","1","1","3","1","","0","1","0","24883","","","<p>Sie sehen nun die chinesischen Zeichen nur ganz kurz. Danach sehen Sie die jeweilige Aussprache der Zeichen als Silbe auf dem Bildschrim. Ihre Aufgabe ist es, für jede Silbe anzugeben, ob diese etwas angenehmes, oder unangenehmes bedeuten könnte. Verlassen Sie sich hier vor allem auf Ihre Intuition.<br><br>Die Zeichen werden nur zur Orientierung dargestellt, beachten Sie sie deshalb nicht. Konzentrieren Sie sich vor allem auf die Silben. <br>Reagieren Sie mit folgenden zwei Tasten: <br><br><b>'D' </b> wenn die Silbe etwas <b>unangenehmes</b> bedeuten könnte. <br><b>'K'</b> wenn die Silbe etwas <b>angenehmes</b> bedeuten könnte. <br><br>Bitte legen Sie nun den Zeigefinger der linken Hand auf die Taste 'D' und den Zeigefinger der rechten Hand auf die Taste 'K'. <br>Reagieren Sie auf jede Silbe so schnell wie möglich. Uns interessiert Ihre spontane Reaktion. <br> <br> <br>Drücken Sie 'D' oder 'K', um die nächste Aufgabe zu starten. </p>","68","","","","","","","","","",""
"","html-keyboard-response","139","589332","0.0-10.0-0.0","kqgyocaz4y","many_one","0","direct_first","1","IC06AN15","0","19","1","1","3","1","","0","1","0","null","","","<div style=""font-size:60px;"">+</div>","null","","","","","","","","","",""
"","html-keyboard-response","140","589432","0.0-10.0-1.0","kqgyocaz4y","many_one","0","direct_first","1","IC06AN15","0","19","1","1","3","1","","0","1","0","null","","","<img src = 'category4/CS9.png' width = '100%;'>","null","","","","","","","","","",""
"","html-keyboard-response","141","589712","0.0-10.0-2.0","kqgyocaz4y","many_one","0","direct_first","1","IC06AN15","0","19","1","1","3","1","","0","1","0","null","","","<img src = 'targets/39.png' width = '100%;'>","null","","","","","","","","","",""
"","html-keyboard-response","142","594913","0.0-10.0-3.0","kqgyocaz4y","many_one","0","direct_first","1","IC06AN15","0","19","1","1","3","1","","0","1","0","5198","","","<img src = 'targets/mask.png' width = '100%;'>","68","pos","CS","CS","4","category4/CS9.png","","targets/39.png","indirect","0","0"
"","html-keyboard-response","143","596431","0.0-10.0-0.1","kqgyocaz4y","many_one","0","direct_first","1","IC06AN15","0","19","1","1","3","1","","0","1","0","null","","","<div style=""font-size:60px;"">+</div>","null","","","","","","","","","",""
"","html-keyboard-response","144","596531","0.0-10.0-1.1","kqgyocaz4y","many_one","0","direct_first","1","IC06AN15","0","19","1","1","3","1","","0","1","0","null","","","<img src = 'category1/CS3.png' width = '100%;'>","null","","","","","","","","","",""
"","html-keyboard-response","145","596812","0.0-10.0-2.1","kqgyocaz4y","many_one","0","direct_first","1","IC06AN15","0","19","1","1","3","1","","0","1","0","null","","","<img src = 'targets/30.png' width = '100%;'>","null","","","","","","","","","",""
"","html-keyboard-response","146","600074","0.0-10.0-3.1","kqgyocaz4y","many_one","0","direct_first","1","IC06AN15","0","19","1","1","3","1","","0","1","0","3260","","","<img src = 'targets/mask.png' width = '100%;'>","75","pos","CS","CS","1","category1/CS3.png","","targets/30.png","indirect","1","1"
"","html-keyboard-response","147","601612","0.0-10.0-0.2","kqgyocaz4y","many_one","0","direct_first","1","IC06AN15","0","19","1","1","3","1","","0","1","0","null","","","<div style=""font-size:60px;"">+</div>","null","","","","","","","","","",""
"","html-keyboard-response","148","601713","0.0-10.0-1.2","kqgyocaz4y","many_one","0","direct_first","1","IC06AN15","0","19","1","1","3","1","","0","1","0","null","","","<img src = 'category2/CS10.png' width = '100%;'>","null","","","","","","","","","",""
"","html-keyboard-response","149","601992","0.0-10.0-2.2","kqgyocaz4y","many_one","0","direct_first","1","IC06AN15","0","19","1","1","3","1","","0","1","0","null","","","<img src = 'targets/25.png' width = '100%;'>","null","","","","","","","","","",""
"","html-keyboard-response","150","604565","0.0-10.0-3.2","kqgyocaz4y","many_one","0","direct_first","1","IC06AN15","0","19","1","1","3","1","","0","1","0","2572","","","<img src = 'targets/mask.png' width = '100%;'>","75","neg","CS","CS","2","category2/CS10.png","","targets/25.png","indirect","1","2"
"","html-keyboard-response","151","606087","0.0-10.0-0.3","kqgyocaz4y","many_one","0","direct_first","1","IC06AN15","0","19","1","1","3","1","","0","1","0","null","","","<div style=""font-size:60px;"">+</div>","null","","","","","","","","","",""
"","html-keyboard-response","152","606182","0.0-10.0-1.3","kqgyocaz4y","many_one","0","direct_first","1","IC06AN15","0","19","1","1","3","1","","0","1","0","null","","","<img src = 'category3/CS8.png' width = '100%;'>","null","","","","","","","","","",""
"","html-keyboard-response","153","606452","0.0-10.0-2.3","kqgyocaz4y","many_one","0","direct_first","1","IC06AN15","0","19","1","1","3","1","","0","1","0","null","","","<img src = 'targets/40.png' width = '100%;'>","null","","","","","","","","","",""
"","html-keyboard-response","154","607683","0.0-10.0-3.3","kqgyocaz4y","many_one","0","direct_first","1","IC06AN15","0","19","1","1","3","1","","0","1","0","1230","","","<img src = 'targets/mask.png' width = '100%;'>","68","neg","CS","CS","3","category3/CS8.png","","targets/40.png","indirect","0","3"
"","html-keyboard-response","155","609212","0.0-10.0-0.4","kqgyocaz4y","many_one","0","direct_first","1","IC06AN15","0","19","1","1","3","1","","0","1","0","null","","","<div style=""font-size:60px;"">+</div>","null","","","","","","","","","",""
"","html-keyboard-response","156","609312","0.0-10.0-1.4","kqgyocaz4y","many_one","0","direct_first","1","IC06AN15","0","19","1","1","3","1","","0","1","0","null","","","<img src = 'category3/CS1.png' width = '100%;'>","null","","","","","","","","","",""
"","html-keyboard-response","157","609591","0.0-10.0-2.4","kqgyocaz4y","many_one","0","direct_first","1","IC06AN15","0","19","1","1","3","1","","0","1","0","null","","","<img src = 'targets/5.png' width = '100%;'>","null","","","","","","","","","",""
"","html-keyboard-response","158","610361","0.0-10.0-3.4","kqgyocaz4y","many_one","0","direct_first","1","IC06AN15","0","19","1","1","3","1","","0","1","0","768","","","<img src = 'targets/mask.png' width = '100%;'>","68","neg","CS","CS","3","category3/CS1.png","","targets/5.png","indirect","0","4"
"","html-keyboard-response","159","611872","0.0-10.0-0.5","kqgyocaz4y","many_one","0","direct_first","1","IC06AN15","0","19","1","1","3","1","","0","1","0","null","","","<div style=""font-size:60px;"">+</div>","null","","","","","","","","","",""
"","html-keyboard-response","160","611972","0.0-10.0-1.5","kqgyocaz4y","many_one","0","direct_first","1","IC06AN15","0","19","1","1","3","1","","0","1","0","null","","","<img src = 'category2/CS3.png' width = '100%;'>","null","","","","","","","","","",""
"","html-keyboard-response","161","612251","0.0-10.0-2.5","kqgyocaz4y","many_one","0","direct_first","1","IC06AN15","0","19","1","1","3","1","","0","1","0","null","","","<img src = 'targets/11.png' width = '100%;'>","null","","","","","","","","","",""
"","html-keyboard-response","162","613481","0.0-10.0-3.5","kqgyocaz4y","many_one","0","direct_first","1","IC06AN15","0","19","1","1","3","1","","0","1","0","1228","","","<img src = 'targets/mask.png' width = '100%;'>","68","neg","CS","CS","2","category2/CS3.png","","targets/11.png","indirect","0","5"
"","html-keyboard-response","163","615009","0.0-10.0-0.6","kqgyocaz4y","many_one","0","direct_first","1","IC06AN15","0","19","1","1","3","1","","0","1","0","null","","","<div style=""font-size:60px;"">+</div>","null","","","","","","","","","",""
"","html-keyboard-response","164","615110","0.0-10.0-1.6","kqgyocaz4y","many_one","0","direct_first","1","IC06AN15","0","19","1","1","3","1","","0","1","0","null","","","<img src = 'category3/CS10.png' width = '100%;'>","null","","","","","","","","","",""
"","html-keyboard-response","165","615391","0.0-10.0-2.6","kqgyocaz4y","many_one","0","direct_first","1","IC06AN15","0","19","1","1","3","1","","0","1","0","null","","","<img src = 'targets/36.png' width = '100%;'>","null","","","","","","","","","",""
"","html-keyboard-response","166","616466","0.0-10.0-3.6","kqgyocaz4y","many_one","0","direct_first","1","IC06AN15","0","19","1","1","3","1","","0","1","0","1072","","","<img src = 'targets/mask.png' width = '100%;'>","75","neg","CS","CS","3","category3/CS10.png","","targets/36.png","indirect","1","6"
"","html-keyboard-response","167","617991","0.0-10.0-0.7","kqgyocaz4y","many_one","0","direct_first","1","IC06AN15","0","19","1","1","3","1","","0","1","0","null","","","<div style=""font-size:60px;"">+</div>","null","","","","","","","","","",""
"","html-keyboard-response","168","618091","0.0-10.0-1.7","kqgyocaz4y","many_one","0","direct_first","1","IC06AN15","0","19","1","1","3","1","","0","1","0","null","","","<img src = 'category4/CS2.png' width = '100%;'>","null","","","","","","","","","",""
"","html-keyboard-response","169","618371","0.0-10.0-2.7","kqgyocaz4y","many_one","0","direct_first","1","IC06AN15","0","19","1","1","3","1","","0","1","0","null","","","<img src = 'targets/33.png' width = '100%;'>","null","","","","","","","","","",""
"","html-keyboard-response","170","620435","0.0-10.0-3.7","kqgyocaz4y","many_one","0","direct_first","1","IC06AN15","0","19","1","1","3","1","","0","1","0","2062","","","<img src = 'targets/mask.png' width = '100%;'>","68","pos","CS","CS","4","category4/CS2.png","","targets/33.png","indirect","0","7"
"","html-keyboard-response","171","621972","0.0-10.0-0.8","kqgyocaz4y","many_one","0","direct_first","1","IC06AN15","0","19","1","1","3","1","","0","1","0","null","","","<div style=""font-size:60px;"">+</div>","null","","","","","","","","","",""
"","html-keyboard-response","172","622072","0.0-10.0-1.8","kqgyocaz4y","many_one","0","direct_first","1","IC06AN15","0","19","1","1","3","1","","0","1","0","null","","","<img src = 'category2/CS9.png' width = '100%;'>","null","","","","","","","","","",""
"","html-keyboard-response","173","622352","0.0-10.0-2.8","kqgyocaz4y","many_one","0","direct_first","1","IC06AN15","0","19","1","1","3","1","","0","1","0","null","","","<img src = 'targets/26.png' width = '100%;'>","null","","","","","","","","","",""
"","html-keyboard-response","174","624014","0.0-10.0-3.8","kqgyocaz4y","many_one","0","direct_first","1","IC06AN15","0","19","1","1","3","1","","0","1","0","1661","","","<img src = 'targets/mask.png' width = '100%;'>","75","neg","GS","GSold","2","category2/CS9.png","","targets/26.png","indirect","1","8"
"","html-keyboard-response","175","625551","0.0-10.0-0.9","kqgyocaz4y","many_one","0","direct_first","1","IC06AN15","0","19","1","1","3","1","","0","1","0","null","","","<div style=""font-size:60px;"">+</div>","null","","","","","","","","","",""
"","html-keyboard-response","176","625652","0.0-10.0-1.9","kqgyocaz4y","many_one","0","direct_first","1","IC06AN15","0","19","1","1","3","1","","0","1","0","null","","","<img src = 'category4/CS1.png' width = '100%;'>","null","","","","","","","","","",""
"","html-keyboard-response","177","625932","0.0-10.0-2.9","kqgyocaz4y","many_one","0","direct_first","1","IC06AN15","0","19","1","1","3","1","","0","1","0","null","","","<img src = 'targets/41.png' width = '100%;'>","null","","","","","","","","","",""
"","html-keyboard-response","178","626981","0.0-10.0-3.9","kqgyocaz4y","many_one","0","direct_first","1","IC06AN15","0","19","1","1","3","1","","0","1","0","1048","","","<img src = 'targets/mask.png' width = '100%;'>","75","pos","CS","CS","4","category4/CS1.png","","targets/41.png","indirect","1","9"
"","html-keyboard-response","179","628511","0.0-10.0-0.10","kqgyocaz4y","many_one","0","direct_first","1","IC06AN15","0","19","1","1","3","1","","0","1","0","null","","","<div style=""font-size:60px;"">+</div>","null","","","","","","","","","",""
"","html-keyboard-response","180","628612","0.0-10.0-1.10","kqgyocaz4y","many_one","0","direct_first","1","IC06AN15","0","19","1","1","3","1","","0","1","0","null","","","<img src = 'category1/CS1.png' width = '100%;'>","null","","","","","","","","","",""
"","html-keyboard-response","181","628892","0.0-10.0-2.10","kqgyocaz4y","many_one","0","direct_first","1","IC06AN15","0","19","1","1","3","1","","0","1","0","null","","","<img src = 'targets/43.png' width = '100%;'>","null","","","","","","","","","",""
"","html-keyboard-response","182","630805","0.0-10.0-3.10","kqgyocaz4y","many_one","0","direct_first","1","IC06AN15","0","19","1","1","3","1","","0","1","0","1913","","","<img src = 'targets/mask.png' width = '100%;'>","68","pos","CS","CS","1","category1/CS1.png","","targets/43.png","indirect","0","10"
"","html-keyboard-response","183","632312","0.0-10.0-0.11","kqgyocaz4y","many_one","0","direct_first","1","IC06AN15","0","19","1","1","3","1","","0","1","0","null","","","<div style=""font-size:60px;"">+</div>","null","","","","","","","","","",""
"","html-keyboard-response","184","632412","0.0-10.0-1.11","kqgyocaz4y","many_one","0","direct_first","1","IC06AN15","0","19","1","1","3","1","","0","1","0","null","","","<img src = 'category4/CS8.png' width = '100%;'>","null","","","","","","","","","",""
"","html-keyboard-response","185","632692","0.0-10.0-2.11","kqgyocaz4y","many_one","0","direct_first","1","IC06AN15","0","19","1","1","3","1","","0","1","0","null","","","<img src = 'targets/15.png' width = '100%;'>","null","","","","","","","","","",""
"","html-keyboard-response","186","633973","0.0-10.0-3.11","kqgyocaz4y","many_one","0","direct_first","1","IC06AN15","0","19","1","1","3","1","","0","1","0","1280","","","<img src = 'targets/mask.png' width = '100%;'>","75","pos","CS","CS","4","category4/CS8.png","","targets/15.png","indirect","1","11"
"","html-keyboard-response","187","635492","0.0-10.0-0.12","kqgyocaz4y","many_one","0","direct_first","1","IC06AN15","0","19","1","1","3","1","","0","1","0","null","","","<div style=""font-size:60px;"">+</div>","null","","","","","","","","","",""
"","html-keyboard-response","188","635592","0.0-10.0-1.12","kqgyocaz4y","many_one","0","direct_first","1","IC06AN15","0","19","1","1","3","1","","0","1","0","null","","","<img src = 'category4/CS10.png' width = '100%;'>","null","","","","","","","","","",""
"","html-keyboard-response","189","635872","0.0-10.0-2.12","kqgyocaz4y","many_one","0","direct_first","1","IC06AN15","0","19","1","1","3","1","","0","1","0","null","","","<img src = 'targets/28.png' width = '100%;'>","null","","","","","","","","","",""
"","html-keyboard-response","190","636581","0.0-10.0-3.12","kqgyocaz4y","many_one","0","direct_first","1","IC06AN15","0","19","1","1","3","1","","0","1","0","708","","","<img src = 'targets/mask.png' width = '100%;'>","75","pos","CS","CS","4","category4/CS10.png","","targets/28.png","indirect","1","12"
"","html-keyboard-response","191","638112","0.0-10.0-0.13","kqgyocaz4y","many_one","0","direct_first","1","IC06AN15","0","19","1","1","3","1","","0","1","0","null","","","<div style=""font-size:60px;"">+</div>","null","","","","","","","","","",""
"","html-keyboard-response","192","638212","0.0-10.0-1.13","kqgyocaz4y","many_one","0","direct_first","1","IC06AN15","0","19","1","1","3","1","","0","1","0","null","","","<img src = 'category1/CS5.png' width = '100%;'>","null","","","","","","","","","",""
"","html-keyboard-response","193","638491","0.0-10.0-2.13","kqgyocaz4y","many_one","0","direct_first","1","IC06AN15","0","19","1","1","3","1","","0","1","0","null","","","<img src = 'targets/27.png' width = '100%;'>","null","","","","","","","","","",""
"","html-keyboard-response","194","639739","0.0-10.0-3.13","kqgyocaz4y","many_one","0","direct_first","1","IC06AN15","0","19","1","1","3","1","","0","1","0","1246","","","<img src = 'targets/mask.png' width = '100%;'>","68","pos","CS","CS","1","category1/CS5.png","","targets/27.png","indirect","0","13"
"","html-keyboard-response","195","641252","0.0-10.0-0.14","kqgyocaz4y","many_one","0","direct_first","1","IC06AN15","0","19","1","1","3","1","","0","1","0","null","","","<div style=""font-size:60px;"">+</div>","null","","","","","","","","","",""
"","html-keyboard-response","196","641352","0.0-10.0-1.14","kqgyocaz4y","many_one","0","direct_first","1","IC06AN15","0","19","1","1","3","1","","0","1","0","null","","","<img src = 'category1/CS8.png' width = '100%;'>","null","","","","","","","","","",""
"","html-keyboard-response","197","641631","0.0-10.0-2.14","kqgyocaz4y","many_one","0","direct_first","1","IC06AN15","0","19","1","1","3","1","","0","1","0","null","","","<img src = 'targets/34.png' width = '100%;'>","null","","","","","","","","","",""
"","html-keyboard-response","198","642288","0.0-10.0-3.14","kqgyocaz4y","many_one","0","direct_first","1","IC06AN15","0","19","1","1","3","1","","0","1","0","656","","","<img src = 'targets/mask.png' width = '100%;'>","68","pos","CS","CS","1","category1/CS8.png","","targets/34.png","indirect","0","14"
"","html-keyboard-response","199","643791","0.0-10.0-0.15","kqgyocaz4y","many_one","0","direct_first","1","IC06AN15","0","19","1","1","3","1","","0","1","0","null","","","<div style=""font-size:60px;"">+</div>","null","","","","","","","","","",""
"","html-keyboard-response","200","643893","0.0-10.0-1.15","kqgyocaz4y","many_one","0","direct_first","1","IC06AN15","0","19","1","1","3","1","","0","1","0","null","","","<img src = 'category3/CS6.png' width = '100%;'>","null","","","","","","","","","",""
"","html-keyboard-response","201","644172","0.0-10.0-2.15","kqgyocaz4y","many_one","0","direct_first","1","IC06AN15","0","19","1","1","3","1","","0","1","0","null","","","<img src = 'targets/10.png' width = '100%;'>","null","","","","","","","","","",""
"","html-keyboard-response","202","644662","0.0-10.0-3.15","kqgyocaz4y","many_one","0","direct_first","1","IC06AN15","0","19","1","1","3","1","","0","1","0","489","","","<img src = 'targets/mask.png' width = '100%;'>","68","neg","CS","CS","3","category3/CS6.png","","targets/10.png","indirect","0","15"
"","html-keyboard-response","203","646192","0.0-10.0-0.16","kqgyocaz4y","many_one","0","direct_first","1","IC06AN15","0","19","1","1","3","1","","0","1","0","null","","","<div style=""font-size:60px;"">+</div>","null","","","","","","","","","",""
"","html-keyboard-response","204","646292","0.0-10.0-1.16","kqgyocaz4y","many_one","0","direct_first","1","IC06AN15","0","19","1","1","3","1","","0","1","0","null","","","<img src = 'category1/CS9.png' width = '100%;'>","null","","","","","","","","","",""
"","html-keyboard-response","205","646572","0.0-10.0-2.16","kqgyocaz4y","many_one","0","direct_first","1","IC06AN15","0","19","1","1","3","1","","0","1","0","null","","","<img src = 'targets/6.png' width = '100%;'>","null","","","","","","","","","",""
"","html-keyboard-response","206","647517","0.0-10.0-3.16","kqgyocaz4y","many_one","0","direct_first","1","IC06AN15","0","19","1","1","3","1","","0","1","0","944","","","<img src = 'targets/mask.png' width = '100%;'>","68","pos","CS","CS","1","category1/CS9.png","","targets/6.png","indirect","0","16"
"","html-keyboard-response","207","649051","0.0-10.0-0.17","kqgyocaz4y","many_one","0","direct_first","1","IC06AN15","0","19","1","1","3","1","","0","1","0","null","","","<div style=""font-size:60px;"">+</div>","null","","","","","","","","","",""
"","html-keyboard-response","208","649152","0.0-10.0-1.17","kqgyocaz4y","many_one","0","direct_first","1","IC06AN15","0","19","1","1","3","1","","0","1","0","null","","","<img src = 'category2/CS8.png' width = '100%;'>","null","","","","","","","","","",""
"","html-keyboard-response","209","649433","0.0-10.0-2.17","kqgyocaz4y","many_one","0","direct_first","1","IC06AN15","0","19","1","1","3","1","","0","1","0","null","","","<img src = 'targets/29.png' width = '100%;'>","null","","","","","","","","","",""
"","html-keyboard-response","210","649996","0.0-10.0-3.17","kqgyocaz4y","many_one","0","direct_first","1","IC06AN15","0","19","1","1","3","1","","0","1","0","562","","","<img src = 'targets/mask.png' width = '100%;'>","75","neg","CS","CS","2","category2/CS8.png","","targets/29.png","indirect","1","17"
"","html-keyboard-response","211","651531","0.0-10.0-0.18","kqgyocaz4y","many_one","0","direct_first","1","IC06AN15","0","19","1","1","3","1","","0","1","0","null","","","<div style=""font-size:60px;"">+</div>","null","","","","","","","","","",""
"","html-keyboard-response","212","651631","0.0-10.0-1.18","kqgyocaz4y","many_one","0","direct_first","1","IC06AN15","0","19","1","1","3","1","","0","1","0","null","","","<img src = 'category2/CS4.png' width = '100%;'>","null","","","","","","","","","",""
"","html-keyboard-response","213","651912","0.0-10.0-2.18","kqgyocaz4y","many_one","0","direct_first","1","IC06AN15","0","19","1","1","3","1","","0","1","0","null","","","<img src = 'targets/19.png' width = '100%;'>","null","","","","","","","","","",""
"","html-keyboard-response","214","652402","0.0-10.0-3.18","kqgyocaz4y","many_one","0","direct_first","1","IC06AN15","0","19","1","1","3","1","","0","1","0","488","","","<img src = 'targets/mask.png' width = '100%;'>","75","neg","CS","CS","2","category2/CS4.png","","targets/19.png","indirect","1","18"
"","html-keyboard-response","215","653931","0.0-10.0-0.19","kqgyocaz4y","many_one","0","direct_first","1","IC06AN15","0","19","1","1","3","1","","0","1","0","null","","","<div style=""font-size:60px;"">+</div>","null","","","","","","","","","",""
"","html-keyboard-response","216","654032","0.0-10.0-1.19","kqgyocaz4y","many_one","0","direct_first","1","IC06AN15","0","19","1","1","3","1","","0","1","0","null","","","<img src = 'category2/CS7.png' width = '100%;'>","null","","","","","","","","","",""
"","html-keyboard-response","217","654311","0.0-10.0-2.19","kqgyocaz4y","many_one","0","direct_first","1","IC06AN15","0","19","1","1","3","1","","0","1","0","null","","","<img src = 'targets/4.png' width = '100%;'>","null","","","","","","","","","",""
"","html-keyboard-response","218","655191","0.0-10.0-3.19","kqgyocaz4y","many_one","0","direct_first","1","IC06AN15","0","19","1","1","3","1","","0","1","0","878","","","<img src = 'targets/mask.png' width = '100%;'>","68","neg","CS","CS","2","category2/CS7.png","","targets/4.png","indirect","0","19"
"","html-keyboard-response","219","656732","0.0-10.0-0.20","kqgyocaz4y","many_one","0","direct_first","1","IC06AN15","0","19","1","1","3","1","","0","1","0","null","","","<div style=""font-size:60px;"">+</div>","null","","","","","","","","","",""
"","html-keyboard-response","220","656831","0.0-10.0-1.20","kqgyocaz4y","many_one","0","direct_first","1","IC06AN15","0","19","1","1","3","1","","0","1","0","null","","","<img src = 'category4/CS5.png' width = '100%;'>","null","","","","","","","","","",""
"","html-keyboard-response","221","657111","0.0-10.0-2.20","kqgyocaz4y","many_one","0","direct_first","1","IC06AN15","0","19","1","1","3","1","","0","1","0","null","","","<img src = 'targets/22.png' width = '100%;'>","null","","","","","","","","","",""
"","html-keyboard-response","222","660207","0.0-10.0-3.20","kqgyocaz4y","many_one","0","direct_first","1","IC06AN15","0","19","1","1","3","1","","0","1","0","3093","","","<img src = 'targets/mask.png' width = '100%;'>","75","pos","GS","GSold","4","category4/CS5.png","","targets/22.png","indirect","1","20"
"","html-keyboard-response","223","661732","0.0-10.0-0.21","kqgyocaz4y","many_one","0","direct_first","1","IC06AN15","0","19","1","1","3","1","","0","1","0","null","","","<div style=""font-size:60px;"">+</div>","null","","","","","","","","","",""
"","html-keyboard-response","224","661832","0.0-10.0-1.21","kqgyocaz4y","many_one","0","direct_first","1","IC06AN15","0","19","1","1","3","1","","0","1","0","null","","","<img src = 'category2/CS2.png' width = '100%;'>","null","","","","","","","","","",""
"","html-keyboard-response","225","662112","0.0-10.0-2.21","kqgyocaz4y","many_one","0","direct_first","1","IC06AN15","0","19","1","1","3","1","","0","1","0","null","","","<img src = 'targets/20.png' width = '100%;'>","null","","","","","","","","","",""
"","html-keyboard-response","226","662916","0.0-10.0-3.21","kqgyocaz4y","many_one","0","direct_first","1","IC06AN15","0","19","1","1","3","1","","0","1","0","802","","","<img src = 'targets/mask.png' width = '100%;'>","68","neg","GS","GSold","2","category2/CS2.png","","targets/20.png","indirect","0","21"
"","html-keyboard-response","227","664452","0.0-10.0-0.22","kqgyocaz4y","many_one","0","direct_first","1","IC06AN15","0","19","1","1","3","1","","0","1","0","null","","","<div style=""font-size:60px;"">+</div>","null","","","","","","","","","",""
"","html-keyboard-response","228","664552","0.0-10.0-1.22","kqgyocaz4y","many_one","0","direct_first","1","IC06AN15","0","19","1","1","3","1","","0","1","0","null","","","<img src = 'category3/CS4.png' width = '100%;'>","null","","","","","","","","","",""
"","html-keyboard-response","229","664832","0.0-10.0-2.22","kqgyocaz4y","many_one","0","direct_first","1","IC06AN15","0","19","1","1","3","1","","0","1","0","null","","","<img src = 'targets/47.png' width = '100%;'>","null","","","","","","","","","",""
"","html-keyboard-response","230","666196","0.0-10.0-3.22","kqgyocaz4y","many_one","0","direct_first","1","IC06AN15","0","19","1","1","3","1","","0","1","0","1362","","","<img src = 'targets/mask.png' width = '100%;'>","68","neg","CS","CS","3","category3/CS4.png","","targets/47.png","indirect","0","22"
"","html-keyboard-response","231","667733","0.0-10.0-0.23","kqgyocaz4y","many_one","0","direct_first","1","IC06AN15","0","19","1","1","3","1","","0","1","0","null","","","<div style=""font-size:60px;"">+</div>","null","","","","","","","","","",""
"","html-keyboard-response","232","667831","0.0-10.0-1.23","kqgyocaz4y","many_one","0","direct_first","1","IC06AN15","0","19","1","1","3","1","","0","1","0","null","","","<img src = 'category2/CS1.png' width = '100%;'>","null","","","","","","","","","",""
"","html-keyboard-response","233","668112","0.0-10.0-2.23","kqgyocaz4y","many_one","0","direct_first","1","IC06AN15","0","19","1","1","3","1","","0","1","0","null","","","<img src = 'targets/21.png' width = '100%;'>","null","","","","","","","","","",""
"","html-keyboard-response","234","668668","0.0-10.0-3.23","kqgyocaz4y","many_one","0","direct_first","1","IC06AN15","0","19","1","1","3","1","","0","1","0","554","","","<img src = 'targets/mask.png' width = '100%;'>","75","neg","GS","GSold","2","category2/CS1.png","","targets/21.png","indirect","1","23"
"","survey-html-form","235","672300","0.0-11.0","kqgyocaz4y","many_one","0","direct_first","1","IC06AN15","0","19","1","1","3","1","","0","1","0","3128","","{}","","","","","","","","","","","",""
"","html-keyboard-response","236","675332","0.0-12.0-0.0","kqgyocaz4y","many_one","0","direct_first","1","IC06AN15","0","19","1","1","3","1","","0","1","0","null","","","<div style=""font-size:60px;"">+</div>","null","","","","","","","","","",""
"","html-keyboard-response","237","675431","0.0-12.0-1.0","kqgyocaz4y","many_one","0","direct_first","1","IC06AN15","0","19","1","1","3","1","","0","1","0","null","","","<img src = 'category2/GS2.png' width = '100%;'>","null","","","","","","","","","",""
"","html-keyboard-response","238","675691","0.0-12.0-2.0","kqgyocaz4y","many_one","0","direct_first","1","IC06AN15","0","19","1","1","3","1","","0","1","0","null","","","<img src = 'targets/9.png' width = '100%;'>","null","","","","","","","","","",""
"","html-keyboard-response","239","676353","0.0-12.0-3.0","kqgyocaz4y","many_one","0","direct_first","1","IC06AN15","0","19","1","1","3","1","","0","1","0","659","","","<img src = 'targets/mask.png' width = '100%;'>","75","neg","GS","GSnew","2","category2/GS2.png","","targets/9.png","indirect","1","24"
"","html-keyboard-response","240","677891","0.0-12.0-0.1","kqgyocaz4y","many_one","0","direct_first","1","IC06AN15","0","19","1","1","3","1","","0","1","0","null","","","<div style=""font-size:60px;"">+</div>","null","","","","","","","","","",""
"","html-keyboard-response","241","677991","0.0-12.0-1.1","kqgyocaz4y","many_one","0","direct_first","1","IC06AN15","0","19","1","1","3","1","","0","1","0","null","","","<img src = 'category1/CS4.png' width = '100%;'>","null","","","","","","","","","",""
"","html-keyboard-response","242","678271","0.0-12.0-2.1","kqgyocaz4y","many_one","0","direct_first","1","IC06AN15","0","19","1","1","3","1","","0","1","0","null","","","<img src = 'targets/48.png' width = '100%;'>","null","","","","","","","","","",""
"","html-keyboard-response","243","680603","0.0-12.0-3.1","kqgyocaz4y","many_one","0","direct_first","1","IC06AN15","0","19","1","1","3","1","","0","1","0","2329","","","<img src = 'targets/mask.png' width = '100%;'>","68","pos","GS","GSold","1","category1/CS4.png","","targets/48.png","indirect","0","25"
"","html-keyboard-response","244","682112","0.0-12.0-0.2","kqgyocaz4y","many_one","0","direct_first","1","IC06AN15","0","19","1","1","3","1","","0","1","0","null","","","<div style=""font-size:60px;"">+</div>","null","","","","","","","","","",""
"","html-keyboard-response","245","682211","0.0-12.0-1.2","kqgyocaz4y","many_one","0","direct_first","1","IC06AN15","0","19","1","1","3","1","","0","1","0","null","","","<img src = 'category2/GS3.png' width = '100%;'>","null","","","","","","","","","",""
"","html-keyboard-response","246","682491","0.0-12.0-2.2","kqgyocaz4y","many_one","0","direct_first","1","IC06AN15","0","19","1","1","3","1","","0","1","0","null","","","<img src = 'targets/32.png' width = '100%;'>","null","","","","","","","","","",""
"","html-keyboard-response","247","683242","0.0-12.0-3.2","kqgyocaz4y","many_one","0","direct_first","1","IC06AN15","0","19","1","1","3","1","","0","1","0","748","","","<img src = 'targets/mask.png' width = '100%;'>","75","neg","GS","GSnew","2","category2/GS3.png","","targets/32.png","indirect","1","26"
"","html-keyboard-response","248","684771","0.0-12.0-0.3","kqgyocaz4y","many_one","0","direct_first","1","IC06AN15","0","19","1","1","3","1","","0","1","0","null","","","<div style=""font-size:60px;"">+</div>","null","","","","","","","","","",""
"","html-keyboard-response","249","684871","0.0-12.0-1.3","kqgyocaz4y","many_one","0","direct_first","1","IC06AN15","0","19","1","1","3","1","","0","1","0","null","","","<img src = 'category3/CS5.png' width = '100%;'>","null","","","","","","","","","",""
"","html-keyboard-response","250","685131","0.0-12.0-2.3","kqgyocaz4y","many_one","0","direct_first","1","IC06AN15","0","19","1","1","3","1","","0","1","0","null","","","<img src = 'targets/8.png' width = '100%;'>","null","","","","","","","","","",""
"","html-keyboard-response","251","685637","0.0-12.0-3.3","kqgyocaz4y","many_one","0","direct_first","1","IC06AN15","0","19","1","1","3","1","","0","1","0","505","","","<img src = 'targets/mask.png' width = '100%;'>","68","neg","GS","GSold","3","category3/CS5.png","","targets/8.png","indirect","0","27"
"","html-keyboard-response","252","687172","0.0-12.0-0.4","kqgyocaz4y","many_one","0","direct_first","1","IC06AN15","0","19","1","1","3","1","","0","1","0","null","","","<div style=""font-size:60px;"">+</div>","null","","","","","","","","","",""
"","html-keyboard-response","253","687272","0.0-12.0-1.4","kqgyocaz4y","many_one","0","direct_first","1","IC06AN15","0","19","1","1","3","1","","0","1","0","null","","","<img src = 'category1/CS10.png' width = '100%;'>","null","","","","","","","","","",""
"","html-keyboard-response","254","687552","0.0-12.0-2.4","kqgyocaz4y","many_one","0","direct_first","1","IC06AN15","0","19","1","1","3","1","","0","1","0","null","","","<img src = 'targets/37.png' width = '100%;'>","null","","","","","","","","","",""
"","html-keyboard-response","255","688292","0.0-12.0-3.4","kqgyocaz4y","many_one","0","direct_first","1","IC06AN15","0","19","1","1","3","1","","0","1","0","740","","","<img src = 'targets/mask.png' width = '100%;'>","68","pos","GS","GSold","1","category1/CS10.png","","targets/37.png","indirect","0","28"
"","html-keyboard-response","256","689831","0.0-12.0-0.5","kqgyocaz4y","many_one","0","direct_first","1","IC06AN15","0","19","1","1","3","1","","0","1","0","null","","","<div style=""font-size:60px;"">+</div>","null","","","","","","","","","",""
"","html-keyboard-response","257","689931","0.0-12.0-1.5","kqgyocaz4y","many_one","0","direct_first","1","IC06AN15","0","19","1","1","3","1","","0","1","0","null","","","<img src = 'category4/CS6.png' width = '100%;'>","null","","","","","","","","","",""
"","html-keyboard-response","258","690212","0.0-12.0-2.5","kqgyocaz4y","many_one","0","direct_first","1","IC06AN15","0","19","1","1","3","1","","0","1","0","null","","","<img src = 'targets/16.png' width = '100%;'>","null","","","","","","","","","",""
"","html-keyboard-response","259","690874","0.0-12.0-3.5","kqgyocaz4y","many_one","0","direct_first","1","IC06AN15","0","19","1","1","3","1","","0","1","0","660","","","<img src = 'targets/mask.png' width = '100%;'>","68","pos","GS","GSold","4","category4/CS6.png","","targets/16.png","indirect","0","29"
"","html-keyboard-response","260","692412","0.0-12.0-0.6","kqgyocaz4y","many_one","0","direct_first","1","IC06AN15","0","19","1","1","3","1","","0","1","0","null","","","<div style=""font-size:60px;"">+</div>","null","","","","","","","","","",""
"","html-keyboard-response","261","692512","0.0-12.0-1.6","kqgyocaz4y","many_one","0","direct_first","1","IC06AN15","0","19","1","1","3","1","","0","1","0","null","","","<img src = 'category4/CS7.png' width = '100%;'>","null","","","","","","","","","",""
"","html-keyboard-response","262","692791","0.0-12.0-2.6","kqgyocaz4y","many_one","0","direct_first","1","IC06AN15","0","19","1","1","3","1","","0","1","0","null","","","<img src = 'targets/17.png' width = '100%;'>","null","","","","","","","","","",""
"","html-keyboard-response","263","693314","0.0-12.0-3.6","kqgyocaz4y","many_one","0","direct_first","1","IC06AN15","0","19","1","1","3","1","","0","1","0","519","","","<img src = 'targets/mask.png' width = '100%;'>","75","pos","GS","GSold","4","category4/CS7.png","","targets/17.png","indirect","1","30"
"","html-keyboard-response","264","694851","0.0-12.0-0.7","kqgyocaz4y","many_one","0","direct_first","1","IC06AN15","0","19","1","1","3","1","","0","1","0","null","","","<div style=""font-size:60px;"">+</div>","null","","","","","","","","","",""
"","html-keyboard-response","265","694952","0.0-12.0-1.7","kqgyocaz4y","many_one","0","direct_first","1","IC06AN15","0","19","1","1","3","1","","0","1","0","null","","","<img src = 'category4/GS3.png' width = '100%;'>","null","","","","","","","","","",""
"","html-keyboard-response","266","695219","0.0-12.0-2.7","kqgyocaz4y","many_one","0","direct_first","1","IC06AN15","0","19","1","1","3","1","","0","1","0","null","","","<img src = 'targets/2.png' width = '100%;'>","null","","","","","","","","","",""
"","html-keyboard-response","267","695672","0.0-12.0-3.7","kqgyocaz4y","many_one","0","direct_first","1","IC06AN15","0","19","1","1","3","1","","0","1","0","450","","","<img src = 'targets/mask.png' width = '100%;'>","75","pos","GS","GSnew","4","category4/GS3.png","","targets/2.png","indirect","1","31"
"","html-keyboard-response","268","697212","0.0-12.0-0.8","kqgyocaz4y","many_one","0","direct_first","1","IC06AN15","0","19","1","1","3","1","","0","1","0","null","","","<div style=""font-size:60px;"">+</div>","null","","","","","","","","","",""
"","html-keyboard-response","269","697322","0.0-12.0-1.8","kqgyocaz4y","many_one","0","direct_first","1","IC06AN15","0","19","1","1","3","1","","0","1","0","null","","","<img src = 'category3/GS2.png' width = '100%;'>","null","","","","","","","","","",""
"","html-keyboard-response","270","697601","0.0-12.0-2.8","kqgyocaz4y","many_one","0","direct_first","1","IC06AN15","0","19","1","1","3","1","","0","1","0","null","","","<img src = 'targets/31.png' width = '100%;'>","null","","","","","","","","","",""
"","html-keyboard-response","271","698027","0.0-12.0-3.8","kqgyocaz4y","many_one","0","direct_first","1","IC06AN15","0","19","1","1","3","1","","0","1","0","425","","","<img src = 'targets/mask.png' width = '100%;'>","68","neg","GS","GSnew","3","category3/GS2.png","","targets/31.png","indirect","0","32"
"","html-keyboard-response","272","699532","0.0-12.0-0.9","kqgyocaz4y","many_one","0","direct_first","1","IC06AN15","0","19","1","1","3","1","","0","1","0","null","","","<div style=""font-size:60px;"">+</div>","null","","","","","","","","","",""
"","html-keyboard-response","273","699632","0.0-12.0-1.9","kqgyocaz4y","many_one","0","direct_first","1","IC06AN15","0","19","1","1","3","1","","0","1","0","null","","","<img src = 'category2/GS1.png' width = '100%;'>","null","","","","","","","","","",""
"","html-keyboard-response","274","699901","0.0-12.0-2.9","kqgyocaz4y","many_one","0","direct_first","1","IC06AN15","0","19","1","1","3","1","","0","1","0","null","","","<img src = 'targets/3.png' width = '100%;'>","null","","","","","","","","","",""
"","html-keyboard-response","275","700530","0.0-12.0-3.9","kqgyocaz4y","many_one","0","direct_first","1","IC06AN15","0","19","1","1","3","1","","0","1","0","627","","","<img src = 'targets/mask.png' width = '100%;'>","75","neg","GS","GSnew","2","category2/GS1.png","","targets/3.png","indirect","1","33"
"","html-keyboard-response","276","702071","0.0-12.0-0.10","kqgyocaz4y","many_one","0","direct_first","1","IC06AN15","0","19","1","1","3","1","","0","1","0","null","","","<div style=""font-size:60px;"">+</div>","null","","","","","","","","","",""
"","html-keyboard-response","277","702172","0.0-12.0-1.10","kqgyocaz4y","many_one","0","direct_first","1","IC06AN15","0","19","1","1","3","1","","0","1","0","null","","","<img src = 'category1/GS1.png' width = '100%;'>","null","","","","","","","","","",""
"","html-keyboard-response","278","702452","0.0-12.0-2.10","kqgyocaz4y","many_one","0","direct_first","1","IC06AN15","0","19","1","1","3","1","","0","1","0","null","","","<img src = 'targets/14.png' width = '100%;'>","null","","","","","","","","","",""
"","html-keyboard-response","279","702854","0.0-12.0-3.10","kqgyocaz4y","many_one","0","direct_first","1","IC06AN15","0","19","1","1","3","1","","0","1","0","402","","","<img src = 'targets/mask.png' width = '100%;'>","68","pos","GS","GSnew","1","category1/GS1.png","","targets/14.png","indirect","0","34"
"","html-keyboard-response","280","704392","0.0-12.0-0.11","kqgyocaz4y","many_one","0","direct_first","1","IC06AN15","0","19","1","1","3","1","","0","1","0","null","","","<div style=""font-size:60px;"">+</div>","null","","","","","","","","","",""
"","html-keyboard-response","281","704492","0.0-12.0-1.11","kqgyocaz4y","many_one","0","direct_first","1","IC06AN15","0","19","1","1","3","1","","0","1","0","null","","","<img src = 'category4/GS1.png' width = '100%;'>","null","","","","","","","","","",""
"","html-keyboard-response","282","704772","0.0-12.0-2.11","kqgyocaz4y","many_one","0","direct_first","1","IC06AN15","0","19","1","1","3","1","","0","1","0","null","","","<img src = 'targets/44.png' width = '100%;'>","null","","","","","","","","","",""
"","html-keyboard-response","283","705285","0.0-12.0-3.11","kqgyocaz4y","many_one","0","direct_first","1","IC06AN15","0","19","1","1","3","1","","0","1","0","512","","","<img src = 'targets/mask.png' width = '100%;'>","75","pos","GS","GSnew","4","category4/GS1.png","","targets/44.png","indirect","1","35"
"","html-keyboard-response","284","706811","0.0-12.0-0.12","kqgyocaz4y","many_one","0","direct_first","1","IC06AN15","0","19","1","1","3","1","","0","1","0","null","","","<div style=""font-size:60px;"">+</div>","null","","","","","","","","","",""
"","html-keyboard-response","285","706922","0.0-12.0-1.12","kqgyocaz4y","many_one","0","direct_first","1","IC06AN15","0","19","1","1","3","1","","0","1","0","null","","","<img src = 'category3/GS1.png' width = '100%;'>","null","","","","","","","","","",""
"","html-keyboard-response","286","707191","0.0-12.0-2.12","kqgyocaz4y","many_one","0","direct_first","1","IC06AN15","0","19","1","1","3","1","","0","1","0","null","","","<img src = 'targets/23.png' width = '100%;'>","null","","","","","","","","","",""
"","html-keyboard-response","287","707545","0.0-12.0-3.12","kqgyocaz4y","many_one","0","direct_first","1","IC06AN15","0","19","1","1","3","1","","0","1","0","353","","","<img src = 'targets/mask.png' width = '100%;'>","68","neg","GS","GSnew","3","category3/GS1.png","","targets/23.png","indirect","0","36"
"","html-keyboard-response","288","709052","0.0-12.0-0.13","kqgyocaz4y","many_one","0","direct_first","1","IC06AN15","0","19","1","1","3","1","","0","1","0","null","","","<div style=""font-size:60px;"">+</div>","null","","","","","","","","","",""
"","html-keyboard-response","289","709151","0.0-12.0-1.13","kqgyocaz4y","many_one","0","direct_first","1","IC06AN15","0","19","1","1","3","1","","0","1","0","null","","","<img src = 'category1/ma.png' width = '100%;'>","null","","","","","","","","","",""
"","html-keyboard-response","290","709432","0.0-12.0-2.13","kqgyocaz4y","many_one","0","direct_first","1","IC06AN15","0","19","1","1","3","1","","0","1","0","null","","","<img src = 'targets/35.png' width = '100%;'>","null","","","","","","","","","",""
"","html-keyboard-response","291","709945","0.0-12.0-3.13","kqgyocaz4y","many_one","0","direct_first","1","IC06AN15","0","19","1","1","3","1","","0","1","0","512","","","<img src = 'targets/mask.png' width = '100%;'>","75","pos","GS","abstract","1","category1/ma.png","","targets/35.png","indirect","1","37"
"","html-keyboard-response","292","711472","0.0-12.0-0.14","kqgyocaz4y","many_one","0","direct_first","1","IC06AN15","0","19","1","1","3","1","","0","1","0","null","","","<div style=""font-size:60px;"">+</div>","null","","","","","","","","","",""
"","html-keyboard-response","293","711572","0.0-12.0-1.14","kqgyocaz4y","many_one","0","direct_first","1","IC06AN15","0","19","1","1","3","1","","0","1","0","null","","","<img src = 'category1/GS2.png' width = '100%;'>","null","","","","","","","","","",""
"","html-keyboard-response","294","711851","0.0-12.0-2.14","kqgyocaz4y","many_one","0","direct_first","1","IC06AN15","0","19","1","1","3","1","","0","1","0","null","","","<img src = 'targets/38.png' width = '100%;'>","null","","","","","","","","","",""
"","html-keyboard-response","295","712365","0.0-12.0-3.14","kqgyocaz4y","many_one","0","direct_first","1","IC06AN15","0","19","1","1","3","1","","0","1","0","511","","","<img src = 'targets/mask.png' width = '100%;'>","68","pos","GS","GSnew","1","category1/GS2.png","","targets/38.png","indirect","0","38"
"","html-keyboard-response","296","713892","0.0-12.0-0.15","kqgyocaz4y","many_one","0","direct_first","1","IC06AN15","0","19","1","1","3","1","","0","1","0","null","","","<div style=""font-size:60px;"">+</div>","null","","","","","","","","","",""
"","html-keyboard-response","297","713992","0.0-12.0-1.15","kqgyocaz4y","many_one","0","direct_first","1","IC06AN15","0","19","1","1","3","1","","0","1","0","null","","","<img src = 'category1/GS3.png' width = '100%;'>","null","","","","","","","","","",""
"","html-keyboard-response","298","714272","0.0-12.0-2.15","kqgyocaz4y","many_one","0","direct_first","1","IC06AN15","0","19","1","1","3","1","","0","1","0","null","","","<img src = 'targets/24.png' width = '100%;'>","null","","","","","","","","","",""
"","html-keyboard-response","299","714699","0.0-12.0-3.15","kqgyocaz4y","many_one","0","direct_first","1","IC06AN15","0","19","1","1","3","1","","0","1","0","425","","","<img src = 'targets/mask.png' width = '100%;'>","68","pos","GS","GSnew","1","category1/GS3.png","","targets/24.png","indirect","0","39"
"","html-keyboard-response","300","716232","0.0-12.0-0.16","kqgyocaz4y","many_one","0","direct_first","1","IC06AN15","0","19","1","1","3","1","","0","1","0","null","","","<div style=""font-size:60px;"">+</div>","null","","","","","","","","","",""
"","html-keyboard-response","301","716323","0.0-12.0-1.16","kqgyocaz4y","many_one","0","direct_first","1","IC06AN15","0","19","1","1","3","1","","0","1","0","null","","","<img src = 'category2/men.png' width = '100%;'>","null","","","","","","","","","",""
"","html-keyboard-response","302","716579","0.0-12.0-2.16","kqgyocaz4y","many_one","0","direct_first","1","IC06AN15","0","19","1","1","3","1","","0","1","0","null","","","<img src = 'targets/1.png' width = '100%;'>","null","","","","","","","","","",""
"","html-keyboard-response","303","717042","0.0-12.0-3.16","kqgyocaz4y","many_one","0","direct_first","1","IC06AN15","0","19","1","1","3","1","","0","1","0","461","","","<img src = 'targets/mask.png' width = '100%;'>","75","neg","GS","abstract","2","category2/men.png","","targets/1.png","indirect","1","40"
"","html-keyboard-response","304","718552","0.0-12.0-0.17","kqgyocaz4y","many_one","0","direct_first","1","IC06AN15","0","19","1","1","3","1","","0","1","0","null","","","<div style=""font-size:60px;"">+</div>","null","","","","","","","","","",""
"","html-keyboard-response","305","718651","0.0-12.0-1.17","kqgyocaz4y","many_one","0","direct_first","1","IC06AN15","0","19","1","1","3","1","","0","1","0","null","","","<img src = 'category4/GS2.png' width = '100%;'>","null","","","","","","","","","",""
"","html-keyboard-response","306","718932","0.0-12.0-2.17","kqgyocaz4y","many_one","0","direct_first","1","IC06AN15","0","19","1","1","3","1","","0","1","0","null","","","<img src = 'targets/12.png' width = '100%;'>","null","","","","","","","","","",""
"","html-keyboard-response","307","719486","0.0-12.0-3.17","kqgyocaz4y","many_one","0","direct_first","1","IC06AN15","0","19","1","1","3","1","","0","1","0","552","","","<img src = 'targets/mask.png' width = '100%;'>","68","pos","GS","GSnew","4","category4/GS2.png","","targets/12.png","indirect","0","41"
"","html-keyboard-response","308","720994","0.0-12.0-0.18","kqgyocaz4y","many_one","0","direct_first","1","IC06AN15","0","19","1","1","3","1","","0","1","0","null","","","<div style=""font-size:60px;"">+</div>","null","","","","","","","","","",""
"","html-keyboard-response","309","721092","0.0-12.0-1.18","kqgyocaz4y","many_one","0","direct_first","1","IC06AN15","0","19","1","1","3","1","","0","1","0","null","","","<img src = 'category3/CS7.png' width = '100%;'>","null","","","","","","","","","",""
"","html-keyboard-response","310","721372","0.0-12.0-2.18","kqgyocaz4y","many_one","0","direct_first","1","IC06AN15","0","19","1","1","3","1","","0","1","0","null","","","<img src = 'targets/42.png' width = '100%;'>","null","","","","","","","","","",""
"","html-keyboard-response","311","721787","0.0-12.0-3.18","kqgyocaz4y","many_one","0","direct_first","1","IC06AN15","0","19","1","1","3","1","","0","1","0","414","","","<img src = 'targets/mask.png' width = '100%;'>","68","neg","GS","GSold","3","category3/CS7.png","","targets/42.png","indirect","0","42"
"","html-keyboard-response","312","723312","0.0-12.0-0.19","kqgyocaz4y","many_one","0","direct_first","1","IC06AN15","0","19","1","1","3","1","","0","1","0","null","","","<div style=""font-size:60px;"">+</div>","null","","","","","","","","","",""
"","html-keyboard-response","313","723412","0.0-12.0-1.19","kqgyocaz4y","many_one","0","direct_first","1","IC06AN15","0","19","1","1","3","1","","0","1","0","null","","","<img src = 'category3/GS3.png' width = '100%;'>","null","","","","","","","","","",""
"","html-keyboard-response","314","723691","0.0-12.0-2.19","kqgyocaz4y","many_one","0","direct_first","1","IC06AN15","0","19","1","1","3","1","","0","1","0","null","","","<img src = 'targets/46.png' width = '100%;'>","null","","","","","","","","","",""
"","html-keyboard-response","315","723953","0.0-12.0-3.19","kqgyocaz4y","many_one","0","direct_first","1","IC06AN15","0","19","1","1","3","1","","0","1","0","256","","","<img src = 'targets/mask.png' width = '100%;'>","68","neg","GS","GSnew","3","category3/GS3.png","","targets/46.png","indirect","0","43"
"","html-keyboard-response","316","725482","0.0-12.0-0.20","kqgyocaz4y","many_one","0","direct_first","1","IC06AN15","0","19","1","1","3","1","","0","1","0","null","","","<div style=""font-size:60px;"">+</div>","null","","","","","","","","","",""
"","html-keyboard-response","317","725591","0.0-12.0-1.20","kqgyocaz4y","many_one","0","direct_first","1","IC06AN15","0","19","1","1","3","1","","0","1","0","null","","","<img src = 'category3/CS3.png' width = '100%;'>","null","","","","","","","","","",""
"","html-keyboard-response","318","725872","0.0-12.0-2.20","kqgyocaz4y","many_one","0","direct_first","1","IC06AN15","0","19","1","1","3","1","","0","1","0","null","","","<img src = 'targets/7.png' width = '100%;'>","null","","","","","","","","","",""
"","html-keyboard-response","319","726206","0.0-12.0-3.20","kqgyocaz4y","many_one","0","direct_first","1","IC06AN15","0","19","1","1","3","1","","0","1","0","332","","","<img src = 'targets/mask.png' width = '100%;'>","68","neg","GS","GSold","3","category3/CS3.png","","targets/7.png","indirect","0","44"
"","html-keyboard-response","320","727731","0.0-12.0-0.21","kqgyocaz4y","many_one","0","direct_first","1","IC06AN15","0","19","1","1","3","1","","0","1","0","null","","","<div style=""font-size:60px;"">+</div>","null","","","","","","","","","",""
"","html-keyboard-response","321","727832","0.0-12.0-1.21","kqgyocaz4y","many_one","0","direct_first","1","IC06AN15","0","19","1","1","3","1","","0","1","0","null","","","<img src = 'category4/lin.png' width = '100%;'>","null","","","","","","","","","",""
"","html-keyboard-response","322","728111","0.0-12.0-2.21","kqgyocaz4y","many_one","0","direct_first","1","IC06AN15","0","19","1","1","3","1","","0","1","0","null","","","<img src = 'targets/45.png' width = '100%;'>","null","","","","","","","","","",""
"","html-keyboard-response","323","728428","0.0-12.0-3.21","kqgyocaz4y","many_one","0","direct_first","1","IC06AN15","0","19","1","1","3","1","","0","1","0","315","","","<img src = 'targets/mask.png' width = '100%;'>","75","pos","GS","abstract","4","category4/lin.png","","targets/45.png","indirect","1","45"
"","html-keyboard-response","324","729931","0.0-12.0-0.22","kqgyocaz4y","many_one","0","direct_first","1","IC06AN15","0","19","1","1","3","1","","0","1","0","null","","","<div style=""font-size:60px;"">+</div>","null","","","","","","","","","",""
"","html-keyboard-response","325","730032","0.0-12.0-1.22","kqgyocaz4y","many_one","0","direct_first","1","IC06AN15","0","19","1","1","3","1","","0","1","0","null","","","<img src = 'category3/wang.png' width = '100%;'>","null","","","","","","","","","",""
"","html-keyboard-response","326","730312","0.0-12.0-2.22","kqgyocaz4y","many_one","0","direct_first","1","IC06AN15","0","19","1","1","3","1","","0","1","0","null","","","<img src = 'targets/13.png' width = '100%;'>","null","","","","","","","","","",""
"","html-keyboard-response","327","730648","0.0-12.0-3.22","kqgyocaz4y","many_one","0","direct_first","1","IC06AN15","0","19","1","1","3","1","","0","1","0","335","","","<img src = 'targets/mask.png' width = '100%;'>","68","neg","GS","abstract","3","category3/wang.png","","targets/13.png","indirect","0","46"
"","html-keyboard-response","328","732172","0.0-12.0-0.23","kqgyocaz4y","many_one","0","direct_first","1","IC06AN15","0","19","1","1","3","1","","0","1","0","null","","","<div style=""font-size:60px;"">+</div>","null","","","","","","","","","",""
"","html-keyboard-response","329","732271","0.0-12.0-1.23","kqgyocaz4y","many_one","0","direct_first","1","IC06AN15","0","19","1","1","3","1","","0","1","0","null","","","<img src = 'category1/CS7.png' width = '100%;'>","null","","","","","","","","","",""
"","html-keyboard-response","330","732532","0.0-12.0-2.23","kqgyocaz4y","many_one","0","direct_first","1","IC06AN15","0","19","1","1","3","1","","0","1","0","null","","","<img src = 'targets/18.png' width = '100%;'>","null","","","","","","","","","",""
"","html-keyboard-response","331","733005","0.0-12.0-3.23","kqgyocaz4y","many_one","0","direct_first","1","IC06AN15","0","19","1","1","3","1","","0","1","0","471","","","<img src = 'targets/mask.png' width = '100%;'>","68","pos","GS","GSold","1","category1/CS7.png","","targets/18.png","indirect","0","47"
"","survey-html-form","332","738494","0.0-13.0","kqgyocaz4y","many_one","0","direct_first","1","IC06AN15","0","19","1","1","3","1","","0","1","0","4982","","{}","","","","","","","","","","","",""
