"success","trial_type","trial_index","time_elapsed","internal_node_id","subject","condition","condition_code","measure","measure_code","codeword","gender","age","education","chinese","fach","handedness","comment","hinschauen","ablenkung","gewissenhaft","rt","url","responses","stimulus","key_press","val","type","type_specific","category","cs_selected","target","indirect","task","nr_pres","response"
"true","fullscreen","0","2995","0.0-0.0","f9hes9jnq2","one_one","1","indirect_first","0","hs07as22","0","19","1","1","3","1","","0","1","0","","","","","","","","","","","","","","",""
"","external-html","1","5993","0.0-1.0","f9hes9jnq2","one_one","1","indirect_first","0","hs07as22","0","19","1","1","3","1","","0","1","0","2950","text/information.html","","","","","","","","","","","","",""
"","external-html","2","14793","0.0-2.0","f9hes9jnq2","one_one","1","indirect_first","0","hs07as22","0","19","1","1","3","1","","0","1","0","8662","text/consent.html","","","","","","","","","","","","",""
"","survey-html-form","3","30654","0.0-3.0","f9hes9jnq2","one_one","1","indirect_first","0","hs07as22","0","19","1","1","3","1","","0","1","0","15850","","{""codeword_enter"":""hs07as22""}","","","","","","","","","","","",""
"","survey-html-form","4","45180","0.0-4.0","f9hes9jnq2","one_one","1","indirect_first","0","hs07as22","0","19","1","1","3","1","","0","1","0","14524","","{""age"":""19"",""education"":""1"",""subject"":""3"",""gender"":""0"",""handedness"":""1"",""chinese"":""1""}","","","","","","","","","","","",""
"","survey-html-form","5","46887","0.0-5.0","f9hes9jnq2","one_one","1","indirect_first","0","hs07as22","0","19","1","1","3","1","","0","1","0","1704","","{}","","","","","","","","","","","",""
"","html-keyboard-response","6","50892","0.0-6.0-0.0-0.0","f9hes9jnq2","one_one","1","indirect_first","0","hs07as22","0","19","1","1","3","1","","0","1","0","null","","","<div class = 'row'><div class = 'column'><img src = 'category4/CS5.png' width = '70%;'></div><div class = 'column'><img src = 'uspos/2341.bmp' width = '100%;'></div></div>","null","pos","CS","CS","4","category4/CS5.png","","","","",""
"","html-keyboard-response","7","53396","0.0-6.0-0.0-0.1","f9hes9jnq2","one_one","1","indirect_first","0","hs07as22","0","19","1","1","3","1","","0","1","0","null","","","<div class = 'row'><div class = 'column'><img src = 'uspos/1463.bmp' width = '100%;'></div><div class = 'column'><img src = 'category3/CS2.png' width = '70%;'></div></div>","null","pos","CS","CS","3","category3/CS2.png","","","","",""
"","html-keyboard-response","8","55900","0.0-6.0-0.0-0.2","f9hes9jnq2","one_one","1","indirect_first","0","hs07as22","0","19","1","1","3","1","","0","1","0","null","","","<div class = 'row'><div class = 'column'><img src = 'uspos/2341.bmp' width = '100%;'></div><div class = 'column'><img src = 'category4/CS5.png' width = '70%;'></div></div>","null","pos","CS","CS","4","category4/CS5.png","","","","",""
"","html-keyboard-response","9","58404","0.0-6.0-0.0-0.3","f9hes9jnq2","one_one","1","indirect_first","0","hs07as22","0","19","1","1","3","1","","0","1","0","null","","","<div class = 'row'><div class = 'column'><img src = 'usneg/9520.bmp' width = '100%;'></div><div class = 'column'><img src = 'category1/CS5.png' width = '70%;'></div></div>","null","neg","CS","CS","1","category1/CS5.png","","","","",""
"","html-keyboard-response","10","60907","0.0-6.0-0.0-0.4","f9hes9jnq2","one_one","1","indirect_first","0","hs07as22","0","19","1","1","3","1","","0","1","0","null","","","<div class = 'row'><div class = 'column'><img src = 'category2/CS9.png' width = '70%;'></div><div class = 'column'><img src = 'usneg/9290.bmp' width = '100%;'></div></div>","null","neg","CS","CS","2","category2/CS9.png","","","","",""
"","html-keyboard-response","11","63411","0.0-6.0-0.0-0.5","f9hes9jnq2","one_one","1","indirect_first","0","hs07as22","0","19","1","1","3","1","","0","1","0","null","","","<div class = 'row'><div class = 'column'><img src = 'uspos/2341.bmp' width = '100%;'></div><div class = 'column'><img src = 'category4/CS5.png' width = '70%;'></div></div>","null","pos","CS","CS","4","category4/CS5.png","","","","",""
"","html-keyboard-response","12","65915","0.0-6.0-0.0-0.6","f9hes9jnq2","one_one","1","indirect_first","0","hs07as22","0","19","1","1","3","1","","0","1","0","null","","","<div class = 'row'><div class = 'column'><img src = 'usneg/9520.bmp' width = '100%;'></div><div class = 'column'><img src = 'category1/CS5.png' width = '70%;'></div></div>","null","neg","CS","CS","1","category1/CS5.png","","","","",""
"","html-keyboard-response","13","68419","0.0-6.0-0.0-0.7","f9hes9jnq2","one_one","1","indirect_first","0","hs07as22","0","19","1","1","3","1","","0","1","0","null","","","<div class = 'row'><div class = 'column'><img src = 'uspos/1463.bmp' width = '100%;'></div><div class = 'column'><img src = 'category3/CS2.png' width = '70%;'></div></div>","null","pos","CS","CS","3","category3/CS2.png","","","","",""
"","html-keyboard-response","14","70922","0.0-6.0-0.0-0.8","f9hes9jnq2","one_one","1","indirect_first","0","hs07as22","0","19","1","1","3","1","","0","1","0","null","","","<div class = 'row'><div class = 'column'><img src = 'usneg/9520.bmp' width = '100%;'></div><div class = 'column'><img src = 'category1/CS5.png' width = '70%;'></div></div>","null","neg","CS","CS","1","category1/CS5.png","","","","",""
"","html-keyboard-response","15","73426","0.0-6.0-0.0-0.9","f9hes9jnq2","one_one","1","indirect_first","0","hs07as22","0","19","1","1","3","1","","0","1","0","null","","","<div class = 'row'><div class = 'column'><img src = 'usneg/9290.bmp' width = '100%;'></div><div class = 'column'><img src = 'category2/CS9.png' width = '70%;'></div></div>","null","neg","CS","CS","2","category2/CS9.png","","","","",""
"","html-keyboard-response","16","75930","0.0-6.0-0.0-0.10","f9hes9jnq2","one_one","1","indirect_first","0","hs07as22","0","19","1","1","3","1","","0","1","0","null","","","<div class = 'row'><div class = 'column'><img src = 'usneg/9520.bmp' width = '100%;'></div><div class = 'column'><img src = 'category1/CS5.png' width = '70%;'></div></div>","null","neg","CS","CS","1","category1/CS5.png","","","","",""
"","html-keyboard-response","17","78434","0.0-6.0-0.0-0.11","f9hes9jnq2","one_one","1","indirect_first","0","hs07as22","0","19","1","1","3","1","","0","1","0","null","","","<div class = 'row'><div class = 'column'><img src = 'usneg/9290.bmp' width = '100%;'></div><div class = 'column'><img src = 'category2/CS9.png' width = '70%;'></div></div>","null","neg","CS","CS","2","category2/CS9.png","","","","",""
"","html-keyboard-response","18","80937","0.0-6.0-0.0-0.12","f9hes9jnq2","one_one","1","indirect_first","0","hs07as22","0","19","1","1","3","1","","0","1","0","null","","","<div class = 'row'><div class = 'column'><img src = 'usneg/9520.bmp' width = '100%;'></div><div class = 'column'><img src = 'category1/CS5.png' width = '70%;'></div></div>","null","neg","CS","CS","1","category1/CS5.png","","","","",""
"","html-keyboard-response","19","83441","0.0-6.0-0.0-0.13","f9hes9jnq2","one_one","1","indirect_first","0","hs07as22","0","19","1","1","3","1","","0","1","0","null","","","<div class = 'row'><div class = 'column'><img src = 'category3/CS2.png' width = '70%;'></div><div class = 'column'><img src = 'uspos/1463.bmp' width = '100%;'></div></div>","null","pos","CS","CS","3","category3/CS2.png","","","","",""
"","html-keyboard-response","20","85945","0.0-6.0-0.0-0.14","f9hes9jnq2","one_one","1","indirect_first","0","hs07as22","0","19","1","1","3","1","","0","1","0","null","","","<div class = 'row'><div class = 'column'><img src = 'uspos/2341.bmp' width = '100%;'></div><div class = 'column'><img src = 'category4/CS5.png' width = '70%;'></div></div>","null","pos","CS","CS","4","category4/CS5.png","","","","",""
"","html-keyboard-response","21","88449","0.0-6.0-0.0-0.15","f9hes9jnq2","one_one","1","indirect_first","0","hs07as22","0","19","1","1","3","1","","0","1","0","null","","","<div class = 'row'><div class = 'column'><img src = 'usneg/9290.bmp' width = '100%;'></div><div class = 'column'><img src = 'category2/CS9.png' width = '70%;'></div></div>","null","neg","CS","CS","2","category2/CS9.png","","","","",""
"","html-keyboard-response","22","90952","0.0-6.0-0.0-0.16","f9hes9jnq2","one_one","1","indirect_first","0","hs07as22","0","19","1","1","3","1","","0","1","0","null","","","<div class = 'row'><div class = 'column'><img src = 'category3/CS2.png' width = '70%;'></div><div class = 'column'><img src = 'uspos/1463.bmp' width = '100%;'></div></div>","null","pos","CS","CS","3","category3/CS2.png","","","","",""
"","html-keyboard-response","23","93456","0.0-6.0-0.0-0.17","f9hes9jnq2","one_one","1","indirect_first","0","hs07as22","0","19","1","1","3","1","","0","1","0","null","","","<div class = 'row'><div class = 'column'><img src = 'uspos/2341.bmp' width = '100%;'></div><div class = 'column'><img src = 'category4/CS5.png' width = '70%;'></div></div>","null","pos","CS","CS","4","category4/CS5.png","","","","",""
"","html-keyboard-response","24","95960","0.0-6.0-0.0-0.18","f9hes9jnq2","one_one","1","indirect_first","0","hs07as22","0","19","1","1","3","1","","0","1","0","null","","","<div class = 'row'><div class = 'column'><img src = 'uspos/1463.bmp' width = '100%;'></div><div class = 'column'><img src = 'category3/CS2.png' width = '70%;'></div></div>","null","pos","CS","CS","3","category3/CS2.png","","","","",""
"","html-keyboard-response","25","98464","0.0-6.0-0.0-0.19","f9hes9jnq2","one_one","1","indirect_first","0","hs07as22","0","19","1","1","3","1","","0","1","0","null","","","<div class = 'row'><div class = 'column'><img src = 'usneg/9290.bmp' width = '100%;'></div><div class = 'column'><img src = 'category2/CS9.png' width = '70%;'></div></div>","null","neg","CS","CS","2","category2/CS9.png","","","","",""
"","survey-html-form","26","101535","0.0-6.0-1.0","f9hes9jnq2","one_one","1","indirect_first","0","hs07as22","0","19","1","1","3","1","","0","1","0","2569","","{}","","","","","","","","","","","",""
"","html-keyboard-response","27","105538","0.0-6.0-2.0-0.0","f9hes9jnq2","one_one","1","indirect_first","0","hs07as22","0","19","1","1","3","1","","0","1","0","null","","","<div class = 'row'><div class = 'column'><img src = 'category3/CS2.png' width = '70%;'></div><div class = 'column'><img src = 'uspos/1463.bmp' width = '100%;'></div></div>","null","pos","CS","CS","3","category3/CS2.png","","","","",""
"","html-keyboard-response","28","108042","0.0-6.0-2.0-0.1","f9hes9jnq2","one_one","1","indirect_first","0","hs07as22","0","19","1","1","3","1","","0","1","0","null","","","<div class = 'row'><div class = 'column'><img src = 'category1/CS5.png' width = '70%;'></div><div class = 'column'><img src = 'usneg/9520.bmp' width = '100%;'></div></div>","null","neg","CS","CS","1","category1/CS5.png","","","","",""
"","html-keyboard-response","29","110545","0.0-6.0-2.0-0.2","f9hes9jnq2","one_one","1","indirect_first","0","hs07as22","0","19","1","1","3","1","","0","1","0","null","","","<div class = 'row'><div class = 'column'><img src = 'uspos/1463.bmp' width = '100%;'></div><div class = 'column'><img src = 'category3/CS2.png' width = '70%;'></div></div>","null","pos","CS","CS","3","category3/CS2.png","","","","",""
"","html-keyboard-response","30","113048","0.0-6.0-2.0-0.3","f9hes9jnq2","one_one","1","indirect_first","0","hs07as22","0","19","1","1","3","1","","0","1","0","null","","","<div class = 'row'><div class = 'column'><img src = 'uspos/2341.bmp' width = '100%;'></div><div class = 'column'><img src = 'category4/CS5.png' width = '70%;'></div></div>","null","pos","CS","CS","4","category4/CS5.png","","","","",""
"","html-keyboard-response","31","115552","0.0-6.0-2.0-0.4","f9hes9jnq2","one_one","1","indirect_first","0","hs07as22","0","19","1","1","3","1","","0","1","0","null","","","<div class = 'row'><div class = 'column'><img src = 'usneg/9290.bmp' width = '100%;'></div><div class = 'column'><img src = 'category2/CS9.png' width = '70%;'></div></div>","null","neg","CS","CS","2","category2/CS9.png","","","","",""
"","html-keyboard-response","32","118056","0.0-6.0-2.0-0.5","f9hes9jnq2","one_one","1","indirect_first","0","hs07as22","0","19","1","1","3","1","","0","1","0","null","","","<div class = 'row'><div class = 'column'><img src = 'uspos/1463.bmp' width = '100%;'></div><div class = 'column'><img src = 'category3/CS2.png' width = '70%;'></div></div>","null","pos","CS","CS","3","category3/CS2.png","","","","",""
"","html-keyboard-response","33","120560","0.0-6.0-2.0-0.6","f9hes9jnq2","one_one","1","indirect_first","0","hs07as22","0","19","1","1","3","1","","0","1","0","null","","","<div class = 'row'><div class = 'column'><img src = 'category2/CS9.png' width = '70%;'></div><div class = 'column'><img src = 'usneg/9290.bmp' width = '100%;'></div></div>","null","neg","CS","CS","2","category2/CS9.png","","","","",""
"","html-keyboard-response","34","123063","0.0-6.0-2.0-0.7","f9hes9jnq2","one_one","1","indirect_first","0","hs07as22","0","19","1","1","3","1","","0","1","0","null","","","<div class = 'row'><div class = 'column'><img src = 'usneg/9520.bmp' width = '100%;'></div><div class = 'column'><img src = 'category1/CS5.png' width = '70%;'></div></div>","null","neg","CS","CS","1","category1/CS5.png","","","","",""
"","html-keyboard-response","35","125567","0.0-6.0-2.0-0.8","f9hes9jnq2","one_one","1","indirect_first","0","hs07as22","0","19","1","1","3","1","","0","1","0","null","","","<div class = 'row'><div class = 'column'><img src = 'category2/CS9.png' width = '70%;'></div><div class = 'column'><img src = 'usneg/9290.bmp' width = '100%;'></div></div>","null","neg","CS","CS","2","category2/CS9.png","","","","",""
"","html-keyboard-response","36","128070","0.0-6.0-2.0-0.9","f9hes9jnq2","one_one","1","indirect_first","0","hs07as22","0","19","1","1","3","1","","0","1","0","null","","","<div class = 'row'><div class = 'column'><img src = 'usneg/9520.bmp' width = '100%;'></div><div class = 'column'><img src = 'category1/CS5.png' width = '70%;'></div></div>","null","neg","CS","CS","1","category1/CS5.png","","","","",""
"","html-keyboard-response","37","130574","0.0-6.0-2.0-0.10","f9hes9jnq2","one_one","1","indirect_first","0","hs07as22","0","19","1","1","3","1","","0","1","0","null","","","<div class = 'row'><div class = 'column'><img src = 'uspos/2341.bmp' width = '100%;'></div><div class = 'column'><img src = 'category4/CS5.png' width = '70%;'></div></div>","null","pos","CS","CS","4","category4/CS5.png","","","","",""
"","html-keyboard-response","38","133077","0.0-6.0-2.0-0.11","f9hes9jnq2","one_one","1","indirect_first","0","hs07as22","0","19","1","1","3","1","","0","1","0","null","","","<div class = 'row'><div class = 'column'><img src = 'usneg/9290.bmp' width = '100%;'></div><div class = 'column'><img src = 'category2/CS9.png' width = '70%;'></div></div>","null","neg","CS","CS","2","category2/CS9.png","","","","",""
"","html-keyboard-response","39","135581","0.0-6.0-2.0-0.12","f9hes9jnq2","one_one","1","indirect_first","0","hs07as22","0","19","1","1","3","1","","0","1","0","null","","","<div class = 'row'><div class = 'column'><img src = 'uspos/2341.bmp' width = '100%;'></div><div class = 'column'><img src = 'category4/CS5.png' width = '70%;'></div></div>","null","pos","CS","CS","4","category4/CS5.png","","","","",""
"","html-keyboard-response","40","138085","0.0-6.0-2.0-0.13","f9hes9jnq2","one_one","1","indirect_first","0","hs07as22","0","19","1","1","3","1","","0","1","0","null","","","<div class = 'row'><div class = 'column'><img src = 'usneg/9520.bmp' width = '100%;'></div><div class = 'column'><img src = 'category1/CS5.png' width = '70%;'></div></div>","null","neg","CS","CS","1","category1/CS5.png","","","","",""
"","html-keyboard-response","41","140589","0.0-6.0-2.0-0.14","f9hes9jnq2","one_one","1","indirect_first","0","hs07as22","0","19","1","1","3","1","","0","1","0","null","","","<div class = 'row'><div class = 'column'><img src = 'uspos/1463.bmp' width = '100%;'></div><div class = 'column'><img src = 'category3/CS2.png' width = '70%;'></div></div>","null","pos","CS","CS","3","category3/CS2.png","","","","",""
"","html-keyboard-response","42","143093","0.0-6.0-2.0-0.15","f9hes9jnq2","one_one","1","indirect_first","0","hs07as22","0","19","1","1","3","1","","0","1","0","null","","","<div class = 'row'><div class = 'column'><img src = 'category4/CS5.png' width = '70%;'></div><div class = 'column'><img src = 'uspos/2341.bmp' width = '100%;'></div></div>","null","pos","CS","CS","4","category4/CS5.png","","","","",""
"","html-keyboard-response","43","145596","0.0-6.0-2.0-0.16","f9hes9jnq2","one_one","1","indirect_first","0","hs07as22","0","19","1","1","3","1","","0","1","0","null","","","<div class = 'row'><div class = 'column'><img src = 'category3/CS2.png' width = '70%;'></div><div class = 'column'><img src = 'uspos/1463.bmp' width = '100%;'></div></div>","null","pos","CS","CS","3","category3/CS2.png","","","","",""
"","html-keyboard-response","44","148100","0.0-6.0-2.0-0.17","f9hes9jnq2","one_one","1","indirect_first","0","hs07as22","0","19","1","1","3","1","","0","1","0","null","","","<div class = 'row'><div class = 'column'><img src = 'usneg/9520.bmp' width = '100%;'></div><div class = 'column'><img src = 'category1/CS5.png' width = '70%;'></div></div>","null","neg","CS","CS","1","category1/CS5.png","","","","",""
"","html-keyboard-response","45","150604","0.0-6.0-2.0-0.18","f9hes9jnq2","one_one","1","indirect_first","0","hs07as22","0","19","1","1","3","1","","0","1","0","null","","","<div class = 'row'><div class = 'column'><img src = 'category2/CS9.png' width = '70%;'></div><div class = 'column'><img src = 'usneg/9290.bmp' width = '100%;'></div></div>","null","neg","CS","CS","2","category2/CS9.png","","","","",""
"","html-keyboard-response","46","153108","0.0-6.0-2.0-0.19","f9hes9jnq2","one_one","1","indirect_first","0","hs07as22","0","19","1","1","3","1","","0","1","0","null","","","<div class = 'row'><div class = 'column'><img src = 'category4/CS5.png' width = '70%;'></div><div class = 'column'><img src = 'uspos/2341.bmp' width = '100%;'></div></div>","null","pos","CS","CS","4","category4/CS5.png","","","","",""
"","survey-html-form","47","156458","0.0-6.0-3.0","f9hes9jnq2","one_one","1","indirect_first","0","hs07as22","0","19","1","1","3","1","","0","1","0","2849","","{}","","","","","","","","","","","",""
"","html-keyboard-response","48","160462","0.0-6.0-4.0-0.0","f9hes9jnq2","one_one","1","indirect_first","0","hs07as22","0","19","1","1","3","1","","0","1","0","null","","","<div class = 'row'><div class = 'column'><img src = 'usneg/9290.bmp' width = '100%;'></div><div class = 'column'><img src = 'category2/CS9.png' width = '70%;'></div></div>","null","neg","CS","CS","2","category2/CS9.png","","","","",""
"","html-keyboard-response","49","162966","0.0-6.0-4.0-0.1","f9hes9jnq2","one_one","1","indirect_first","0","hs07as22","0","19","1","1","3","1","","0","1","0","null","","","<div class = 'row'><div class = 'column'><img src = 'category1/CS5.png' width = '70%;'></div><div class = 'column'><img src = 'usneg/9520.bmp' width = '100%;'></div></div>","null","neg","CS","CS","1","category1/CS5.png","","","","",""
"","html-keyboard-response","50","165470","0.0-6.0-4.0-0.2","f9hes9jnq2","one_one","1","indirect_first","0","hs07as22","0","19","1","1","3","1","","0","1","0","null","","","<div class = 'row'><div class = 'column'><img src = 'category2/CS9.png' width = '70%;'></div><div class = 'column'><img src = 'usneg/9290.bmp' width = '100%;'></div></div>","null","neg","CS","CS","2","category2/CS9.png","","","","",""
"","html-keyboard-response","51","167974","0.0-6.0-4.0-0.3","f9hes9jnq2","one_one","1","indirect_first","0","hs07as22","0","19","1","1","3","1","","0","1","0","null","","","<div class = 'row'><div class = 'column'><img src = 'usneg/9520.bmp' width = '100%;'></div><div class = 'column'><img src = 'category1/CS5.png' width = '70%;'></div></div>","null","neg","CS","CS","1","category1/CS5.png","","","","",""
"","html-keyboard-response","52","170477","0.0-6.0-4.0-0.4","f9hes9jnq2","one_one","1","indirect_first","0","hs07as22","0","19","1","1","3","1","","0","1","0","null","","","<div class = 'row'><div class = 'column'><img src = 'uspos/2341.bmp' width = '100%;'></div><div class = 'column'><img src = 'category4/CS5.png' width = '70%;'></div></div>","null","pos","CS","CS","4","category4/CS5.png","","","","",""
"","html-keyboard-response","53","172981","0.0-6.0-4.0-0.5","f9hes9jnq2","one_one","1","indirect_first","0","hs07as22","0","19","1","1","3","1","","0","1","0","null","","","<div class = 'row'><div class = 'column'><img src = 'uspos/1463.bmp' width = '100%;'></div><div class = 'column'><img src = 'category3/CS2.png' width = '70%;'></div></div>","null","pos","CS","CS","3","category3/CS2.png","","","","",""
"","html-keyboard-response","54","175485","0.0-6.0-4.0-0.6","f9hes9jnq2","one_one","1","indirect_first","0","hs07as22","0","19","1","1","3","1","","0","1","0","null","","","<div class = 'row'><div class = 'column'><img src = 'category4/CS5.png' width = '70%;'></div><div class = 'column'><img src = 'uspos/2341.bmp' width = '100%;'></div></div>","null","pos","CS","CS","4","category4/CS5.png","","","","",""
"","html-keyboard-response","55","177989","0.0-6.0-4.0-0.7","f9hes9jnq2","one_one","1","indirect_first","0","hs07as22","0","19","1","1","3","1","","0","1","0","null","","","<div class = 'row'><div class = 'column'><img src = 'category2/CS9.png' width = '70%;'></div><div class = 'column'><img src = 'usneg/9290.bmp' width = '100%;'></div></div>","null","neg","CS","CS","2","category2/CS9.png","","","","",""
"","html-keyboard-response","56","180492","0.0-6.0-4.0-0.8","f9hes9jnq2","one_one","1","indirect_first","0","hs07as22","0","19","1","1","3","1","","0","1","0","null","","","<div class = 'row'><div class = 'column'><img src = 'category3/CS2.png' width = '70%;'></div><div class = 'column'><img src = 'uspos/1463.bmp' width = '100%;'></div></div>","null","pos","CS","CS","3","category3/CS2.png","","","","",""
"","html-keyboard-response","57","182996","0.0-6.0-4.0-0.9","f9hes9jnq2","one_one","1","indirect_first","0","hs07as22","0","19","1","1","3","1","","0","1","0","null","","","<div class = 'row'><div class = 'column'><img src = 'category4/CS5.png' width = '70%;'></div><div class = 'column'><img src = 'uspos/2341.bmp' width = '100%;'></div></div>","null","pos","CS","CS","4","category4/CS5.png","","","","",""
"","html-keyboard-response","58","185500","0.0-6.0-4.0-0.10","f9hes9jnq2","one_one","1","indirect_first","0","hs07as22","0","19","1","1","3","1","","0","1","0","null","","","<div class = 'row'><div class = 'column'><img src = 'category3/CS2.png' width = '70%;'></div><div class = 'column'><img src = 'uspos/1463.bmp' width = '100%;'></div></div>","null","pos","CS","CS","3","category3/CS2.png","","","","",""
"","html-keyboard-response","59","188003","0.0-6.0-4.0-0.11","f9hes9jnq2","one_one","1","indirect_first","0","hs07as22","0","19","1","1","3","1","","0","1","0","null","","","<div class = 'row'><div class = 'column'><img src = 'category1/CS5.png' width = '70%;'></div><div class = 'column'><img src = 'usneg/9520.bmp' width = '100%;'></div></div>","null","neg","CS","CS","1","category1/CS5.png","","","","",""
"","html-keyboard-response","60","190507","0.0-6.0-4.0-0.12","f9hes9jnq2","one_one","1","indirect_first","0","hs07as22","0","19","1","1","3","1","","0","1","0","null","","","<div class = 'row'><div class = 'column'><img src = 'category4/CS5.png' width = '70%;'></div><div class = 'column'><img src = 'uspos/2341.bmp' width = '100%;'></div></div>","null","pos","CS","CS","4","category4/CS5.png","","","","",""
"","html-keyboard-response","61","193011","0.0-6.0-4.0-0.13","f9hes9jnq2","one_one","1","indirect_first","0","hs07as22","0","19","1","1","3","1","","0","1","0","null","","","<div class = 'row'><div class = 'column'><img src = 'uspos/1463.bmp' width = '100%;'></div><div class = 'column'><img src = 'category3/CS2.png' width = '70%;'></div></div>","null","pos","CS","CS","3","category3/CS2.png","","","","",""
"","html-keyboard-response","62","195515","0.0-6.0-4.0-0.14","f9hes9jnq2","one_one","1","indirect_first","0","hs07as22","0","19","1","1","3","1","","0","1","0","null","","","<div class = 'row'><div class = 'column'><img src = 'category1/CS5.png' width = '70%;'></div><div class = 'column'><img src = 'usneg/9520.bmp' width = '100%;'></div></div>","null","neg","CS","CS","1","category1/CS5.png","","","","",""
"","html-keyboard-response","63","198018","0.0-6.0-4.0-0.15","f9hes9jnq2","one_one","1","indirect_first","0","hs07as22","0","19","1","1","3","1","","0","1","0","null","","","<div class = 'row'><div class = 'column'><img src = 'category2/CS9.png' width = '70%;'></div><div class = 'column'><img src = 'usneg/9290.bmp' width = '100%;'></div></div>","null","neg","CS","CS","2","category2/CS9.png","","","","",""
"","html-keyboard-response","64","200522","0.0-6.0-4.0-0.16","f9hes9jnq2","one_one","1","indirect_first","0","hs07as22","0","19","1","1","3","1","","0","1","0","null","","","<div class = 'row'><div class = 'column'><img src = 'uspos/1463.bmp' width = '100%;'></div><div class = 'column'><img src = 'category3/CS2.png' width = '70%;'></div></div>","null","pos","CS","CS","3","category3/CS2.png","","","","",""
"","html-keyboard-response","65","203026","0.0-6.0-4.0-0.17","f9hes9jnq2","one_one","1","indirect_first","0","hs07as22","0","19","1","1","3","1","","0","1","0","null","","","<div class = 'row'><div class = 'column'><img src = 'category4/CS5.png' width = '70%;'></div><div class = 'column'><img src = 'uspos/2341.bmp' width = '100%;'></div></div>","null","pos","CS","CS","4","category4/CS5.png","","","","",""
"","html-keyboard-response","66","205529","0.0-6.0-4.0-0.18","f9hes9jnq2","one_one","1","indirect_first","0","hs07as22","0","19","1","1","3","1","","0","1","0","null","","","<div class = 'row'><div class = 'column'><img src = 'category2/CS9.png' width = '70%;'></div><div class = 'column'><img src = 'usneg/9290.bmp' width = '100%;'></div></div>","null","neg","CS","CS","2","category2/CS9.png","","","","",""
"","html-keyboard-response","67","208033","0.0-6.0-4.0-0.19","f9hes9jnq2","one_one","1","indirect_first","0","hs07as22","0","19","1","1","3","1","","0","1","0","null","","","<div class = 'row'><div class = 'column'><img src = 'category1/CS5.png' width = '70%;'></div><div class = 'column'><img src = 'usneg/9520.bmp' width = '100%;'></div></div>","null","neg","CS","CS","1","category1/CS5.png","","","","",""
"","survey-html-form","68","210587","0.0-6.0-5.0","f9hes9jnq2","one_one","1","indirect_first","0","hs07as22","0","19","1","1","3","1","","0","1","0","2052","","{}","","","","","","","","","","","",""
"","html-keyboard-response","69","214590","0.0-6.0-6.0-0.0","f9hes9jnq2","one_one","1","indirect_first","0","hs07as22","0","19","1","1","3","1","","0","1","0","null","","","<div class = 'row'><div class = 'column'><img src = 'uspos/2341.bmp' width = '100%;'></div><div class = 'column'><img src = 'category4/CS5.png' width = '70%;'></div></div>","null","pos","CS","CS","4","category4/CS5.png","","","","",""
"","html-keyboard-response","70","217094","0.0-6.0-6.0-0.1","f9hes9jnq2","one_one","1","indirect_first","0","hs07as22","0","19","1","1","3","1","","0","1","0","null","","","<div class = 'row'><div class = 'column'><img src = 'uspos/1463.bmp' width = '100%;'></div><div class = 'column'><img src = 'category3/CS2.png' width = '70%;'></div></div>","null","pos","CS","CS","3","category3/CS2.png","","","","",""
"","html-keyboard-response","71","219597","0.0-6.0-6.0-0.2","f9hes9jnq2","one_one","1","indirect_first","0","hs07as22","0","19","1","1","3","1","","0","1","0","null","","","<div class = 'row'><div class = 'column'><img src = 'uspos/2341.bmp' width = '100%;'></div><div class = 'column'><img src = 'category4/CS5.png' width = '70%;'></div></div>","null","pos","CS","CS","4","category4/CS5.png","","","","",""
"","html-keyboard-response","72","222101","0.0-6.0-6.0-0.3","f9hes9jnq2","one_one","1","indirect_first","0","hs07as22","0","19","1","1","3","1","","0","1","0","null","","","<div class = 'row'><div class = 'column'><img src = 'category2/CS9.png' width = '70%;'></div><div class = 'column'><img src = 'usneg/9290.bmp' width = '100%;'></div></div>","null","neg","CS","CS","2","category2/CS9.png","","","","",""
"","html-keyboard-response","73","224604","0.0-6.0-6.0-0.4","f9hes9jnq2","one_one","1","indirect_first","0","hs07as22","0","19","1","1","3","1","","0","1","0","null","","","<div class = 'row'><div class = 'column'><img src = 'category3/CS2.png' width = '70%;'></div><div class = 'column'><img src = 'uspos/1463.bmp' width = '100%;'></div></div>","null","pos","CS","CS","3","category3/CS2.png","","","","",""
"","html-keyboard-response","74","227108","0.0-6.0-6.0-0.5","f9hes9jnq2","one_one","1","indirect_first","0","hs07as22","0","19","1","1","3","1","","0","1","0","null","","","<div class = 'row'><div class = 'column'><img src = 'usneg/9290.bmp' width = '100%;'></div><div class = 'column'><img src = 'category2/CS9.png' width = '70%;'></div></div>","null","neg","CS","CS","2","category2/CS9.png","","","","",""
"","html-keyboard-response","75","229610","0.0-6.0-6.0-0.6","f9hes9jnq2","one_one","1","indirect_first","0","hs07as22","0","19","1","1","3","1","","0","1","0","null","","","<div class = 'row'><div class = 'column'><img src = 'category1/CS5.png' width = '70%;'></div><div class = 'column'><img src = 'usneg/9520.bmp' width = '100%;'></div></div>","null","neg","CS","CS","1","category1/CS5.png","","","","",""
"","html-keyboard-response","76","232114","0.0-6.0-6.0-0.7","f9hes9jnq2","one_one","1","indirect_first","0","hs07as22","0","19","1","1","3","1","","0","1","0","null","","","<div class = 'row'><div class = 'column'><img src = 'category2/CS9.png' width = '70%;'></div><div class = 'column'><img src = 'usneg/9290.bmp' width = '100%;'></div></div>","null","neg","CS","CS","2","category2/CS9.png","","","","",""
"","html-keyboard-response","77","234617","0.0-6.0-6.0-0.8","f9hes9jnq2","one_one","1","indirect_first","0","hs07as22","0","19","1","1","3","1","","0","1","0","null","","","<div class = 'row'><div class = 'column'><img src = 'category1/CS5.png' width = '70%;'></div><div class = 'column'><img src = 'usneg/9520.bmp' width = '100%;'></div></div>","null","neg","CS","CS","1","category1/CS5.png","","","","",""
"","html-keyboard-response","78","237121","0.0-6.0-6.0-0.9","f9hes9jnq2","one_one","1","indirect_first","0","hs07as22","0","19","1","1","3","1","","0","1","0","null","","","<div class = 'row'><div class = 'column'><img src = 'category3/CS2.png' width = '70%;'></div><div class = 'column'><img src = 'uspos/1463.bmp' width = '100%;'></div></div>","null","pos","CS","CS","3","category3/CS2.png","","","","",""
"","html-keyboard-response","79","239625","0.0-6.0-6.0-0.10","f9hes9jnq2","one_one","1","indirect_first","0","hs07as22","0","19","1","1","3","1","","0","1","0","null","","","<div class = 'row'><div class = 'column'><img src = 'category2/CS9.png' width = '70%;'></div><div class = 'column'><img src = 'usneg/9290.bmp' width = '100%;'></div></div>","null","neg","CS","CS","2","category2/CS9.png","","","","",""
"","html-keyboard-response","80","242128","0.0-6.0-6.0-0.11","f9hes9jnq2","one_one","1","indirect_first","0","hs07as22","0","19","1","1","3","1","","0","1","0","null","","","<div class = 'row'><div class = 'column'><img src = 'category3/CS2.png' width = '70%;'></div><div class = 'column'><img src = 'uspos/1463.bmp' width = '100%;'></div></div>","null","pos","CS","CS","3","category3/CS2.png","","","","",""
"","html-keyboard-response","81","244632","0.0-6.0-6.0-0.12","f9hes9jnq2","one_one","1","indirect_first","0","hs07as22","0","19","1","1","3","1","","0","1","0","null","","","<div class = 'row'><div class = 'column'><img src = 'usneg/9520.bmp' width = '100%;'></div><div class = 'column'><img src = 'category1/CS5.png' width = '70%;'></div></div>","null","neg","CS","CS","1","category1/CS5.png","","","","",""
"","html-keyboard-response","82","247136","0.0-6.0-6.0-0.13","f9hes9jnq2","one_one","1","indirect_first","0","hs07as22","0","19","1","1","3","1","","0","1","0","null","","","<div class = 'row'><div class = 'column'><img src = 'category4/CS5.png' width = '70%;'></div><div class = 'column'><img src = 'uspos/2341.bmp' width = '100%;'></div></div>","null","pos","CS","CS","4","category4/CS5.png","","","","",""
"","html-keyboard-response","83","249639","0.0-6.0-6.0-0.14","f9hes9jnq2","one_one","1","indirect_first","0","hs07as22","0","19","1","1","3","1","","0","1","0","null","","","<div class = 'row'><div class = 'column'><img src = 'category3/CS2.png' width = '70%;'></div><div class = 'column'><img src = 'uspos/1463.bmp' width = '100%;'></div></div>","null","pos","CS","CS","3","category3/CS2.png","","","","",""
"","html-keyboard-response","84","252143","0.0-6.0-6.0-0.15","f9hes9jnq2","one_one","1","indirect_first","0","hs07as22","0","19","1","1","3","1","","0","1","0","null","","","<div class = 'row'><div class = 'column'><img src = 'usneg/9520.bmp' width = '100%;'></div><div class = 'column'><img src = 'category1/CS5.png' width = '70%;'></div></div>","null","neg","CS","CS","1","category1/CS5.png","","","","",""
"","html-keyboard-response","85","254647","0.0-6.0-6.0-0.16","f9hes9jnq2","one_one","1","indirect_first","0","hs07as22","0","19","1","1","3","1","","0","1","0","null","","","<div class = 'row'><div class = 'column'><img src = 'category4/CS5.png' width = '70%;'></div><div class = 'column'><img src = 'uspos/2341.bmp' width = '100%;'></div></div>","null","pos","CS","CS","4","category4/CS5.png","","","","",""
"","html-keyboard-response","86","257150","0.0-6.0-6.0-0.17","f9hes9jnq2","one_one","1","indirect_first","0","hs07as22","0","19","1","1","3","1","","0","1","0","null","","","<div class = 'row'><div class = 'column'><img src = 'category1/CS5.png' width = '70%;'></div><div class = 'column'><img src = 'usneg/9520.bmp' width = '100%;'></div></div>","null","neg","CS","CS","1","category1/CS5.png","","","","",""
"","html-keyboard-response","87","259654","0.0-6.0-6.0-0.18","f9hes9jnq2","one_one","1","indirect_first","0","hs07as22","0","19","1","1","3","1","","0","1","0","null","","","<div class = 'row'><div class = 'column'><img src = 'category2/CS9.png' width = '70%;'></div><div class = 'column'><img src = 'usneg/9290.bmp' width = '100%;'></div></div>","null","neg","CS","CS","2","category2/CS9.png","","","","",""
"","html-keyboard-response","88","262157","0.0-6.0-6.0-0.19","f9hes9jnq2","one_one","1","indirect_first","0","hs07as22","0","19","1","1","3","1","","0","1","0","null","","","<div class = 'row'><div class = 'column'><img src = 'category4/CS5.png' width = '70%;'></div><div class = 'column'><img src = 'uspos/2341.bmp' width = '100%;'></div></div>","null","pos","CS","CS","4","category4/CS5.png","","","","",""
"","html-keyboard-response","89","269458","0.0-7.0","f9hes9jnq2","one_one","1","indirect_first","0","hs07as22","0","19","1","1","3","1","","0","1","0","6798","","","<p>Sie sehen nun die chinesischen Zeichen nur ganz kurz. Danach sehen Sie die jeweilige Aussprache der Zeichen als Silbe auf dem Bildschrim. Ihre Aufgabe ist es, für jede Silbe anzugeben, ob diese etwas angenehmes, oder unangenehmes bedeuten könnte. Verlassen Sie sich hier vor allem auf Ihre Intuition.<br><br>Die Zeichen werden nur zur Orientierung dargestellt, beachten Sie sie deshalb nicht. Konzentrieren Sie sich vor allem auf die Silben. <br>Reagieren Sie mit folgenden zwei Tasten: <br><br><b>'D' </b> wenn die Silbe etwas <b>unangenehmes</b> bedeuten könnte. <br><b>'K'</b> wenn die Silbe etwas <b>angenehmes</b> bedeuten könnte. <br><br>Bitte legen Sie nun den Zeigefinger der linken Hand auf die Taste 'D' und den Zeigefinger der rechten Hand auf die Taste 'K'. <br>Reagieren Sie auf jede Silbe so schnell wie möglich. Uns interessiert Ihre spontane Reaktion. <br> <br> <br>Drücken Sie 'D' oder 'K', um die nächste Aufgabe zu starten. </p>","75","","","","","","","","","",""
"","html-keyboard-response","90","272461","0.0-8.0-0.0","f9hes9jnq2","one_one","1","indirect_first","0","hs07as22","0","19","1","1","3","1","","0","1","0","null","","","<div style=""font-size:60px;"">+</div>","null","","","","","","","","","",""
"","html-keyboard-response","91","272553","0.0-8.0-1.0","f9hes9jnq2","one_one","1","indirect_first","0","hs07as22","0","19","1","1","3","1","","0","1","0","null","","","<img src = 'category1/CS6.png' width = '100%;'>","null","","","","","","","","","",""
"","html-keyboard-response","92","272807","0.0-8.0-2.0","f9hes9jnq2","one_one","1","indirect_first","0","hs07as22","0","19","1","1","3","1","","0","1","0","null","","","<img src = 'targets/25.png' width = '100%;'>","null","","","","","","","","","",""
"","html-keyboard-response","93","278225","0.0-8.0-3.0","f9hes9jnq2","one_one","1","indirect_first","0","hs07as22","0","19","1","1","3","1","","0","1","0","5416","","","<img src = 'targets/mask.png' width = '100%;'>","75","neg","GS","GSold","1","category1/CS6.png","targets/25.png","1","indirect","0",""
"","html-keyboard-response","94","279729","0.0-8.0-0.1","f9hes9jnq2","one_one","1","indirect_first","0","hs07as22","0","19","1","1","3","1","","0","1","0","null","","","<div style=""font-size:60px;"">+</div>","null","","","","","","","","","",""
"","html-keyboard-response","95","279821","0.0-8.0-1.1","f9hes9jnq2","one_one","1","indirect_first","0","hs07as22","0","19","1","1","3","1","","0","1","0","null","","","<img src = 'category3/CS3.png' width = '100%;'>","null","","","","","","","","","",""
"","html-keyboard-response","96","280075","0.0-8.0-2.1","f9hes9jnq2","one_one","1","indirect_first","0","hs07as22","0","19","1","1","3","1","","0","1","0","null","","","<img src = 'targets/31.png' width = '100%;'>","null","","","","","","","","","",""
"","html-keyboard-response","97","282853","0.0-8.0-3.1","f9hes9jnq2","one_one","1","indirect_first","0","hs07as22","0","19","1","1","3","1","","0","1","0","2777","","","<img src = 'targets/mask.png' width = '100%;'>","75","pos","GS","GSold","3","category3/CS3.png","targets/31.png","1","indirect","1",""
"","html-keyboard-response","98","284356","0.0-8.0-0.2","f9hes9jnq2","one_one","1","indirect_first","0","hs07as22","0","19","1","1","3","1","","0","1","0","null","","","<div style=""font-size:60px;"">+</div>","null","","","","","","","","","",""
"","html-keyboard-response","99","284448","0.0-8.0-1.2","f9hes9jnq2","one_one","1","indirect_first","0","hs07as22","0","19","1","1","3","1","","0","1","0","null","","","<img src = 'category2/CS1.png' width = '100%;'>","null","","","","","","","","","",""
"","html-keyboard-response","100","284702","0.0-8.0-2.2","f9hes9jnq2","one_one","1","indirect_first","0","hs07as22","0","19","1","1","3","1","","0","1","0","null","","","<img src = 'targets/20.png' width = '100%;'>","null","","","","","","","","","",""
"","html-keyboard-response","101","286282","0.0-8.0-3.2","f9hes9jnq2","one_one","1","indirect_first","0","hs07as22","0","19","1","1","3","1","","0","1","0","1580","","","<img src = 'targets/mask.png' width = '100%;'>","68","neg","GS","GSold","2","category2/CS1.png","targets/20.png","0","indirect","2",""
"","html-keyboard-response","102","287786","0.0-8.0-0.3","f9hes9jnq2","one_one","1","indirect_first","0","hs07as22","0","19","1","1","3","1","","0","1","0","null","","","<div style=""font-size:60px;"">+</div>","null","","","","","","","","","",""
"","html-keyboard-response","103","287879","0.0-8.0-1.3","f9hes9jnq2","one_one","1","indirect_first","0","hs07as22","0","19","1","1","3","1","","0","1","0","null","","","<img src = 'category4/CS5.png' width = '100%;'>","null","","","","","","","","","",""
"","html-keyboard-response","104","288132","0.0-8.0-2.3","f9hes9jnq2","one_one","1","indirect_first","0","hs07as22","0","19","1","1","3","1","","0","1","0","null","","","<img src = 'targets/9.png' width = '100%;'>","null","","","","","","","","","",""
"","html-keyboard-response","105","289425","0.0-8.0-3.3","f9hes9jnq2","one_one","1","indirect_first","0","hs07as22","0","19","1","1","3","1","","0","1","0","1291","","","<img src = 'targets/mask.png' width = '100%;'>","68","pos","CS","CS","4","category4/CS5.png","targets/9.png","0","indirect","3",""
"","html-keyboard-response","106","290929","0.0-8.0-0.4","f9hes9jnq2","one_one","1","indirect_first","0","hs07as22","0","19","1","1","3","1","","0","1","0","null","","","<div style=""font-size:60px;"">+</div>","null","","","","","","","","","",""
"","html-keyboard-response","107","291021","0.0-8.0-1.4","f9hes9jnq2","one_one","1","indirect_first","0","hs07as22","0","19","1","1","3","1","","0","1","0","null","","","<img src = 'category3/CS8.png' width = '100%;'>","null","","","","","","","","","",""
"","html-keyboard-response","108","291273","0.0-8.0-2.4","f9hes9jnq2","one_one","1","indirect_first","0","hs07as22","0","19","1","1","3","1","","0","1","0","null","","","<img src = 'targets/40.png' width = '100%;'>","null","","","","","","","","","",""
"","html-keyboard-response","109","293030","0.0-8.0-3.4","f9hes9jnq2","one_one","1","indirect_first","0","hs07as22","0","19","1","1","3","1","","0","1","0","1755","","","<img src = 'targets/mask.png' width = '100%;'>","75","pos","GS","GSold","3","category3/CS8.png","targets/40.png","1","indirect","4",""
"","html-keyboard-response","110","294534","0.0-8.0-0.5","f9hes9jnq2","one_one","1","indirect_first","0","hs07as22","0","19","1","1","3","1","","0","1","0","null","","","<div style=""font-size:60px;"">+</div>","null","","","","","","","","","",""
"","html-keyboard-response","111","294626","0.0-8.0-1.5","f9hes9jnq2","one_one","1","indirect_first","0","hs07as22","0","19","1","1","3","1","","0","1","0","null","","","<img src = 'category2/CS8.png' width = '100%;'>","null","","","","","","","","","",""
"","html-keyboard-response","112","294879","0.0-8.0-2.5","f9hes9jnq2","one_one","1","indirect_first","0","hs07as22","0","19","1","1","3","1","","0","1","0","null","","","<img src = 'targets/7.png' width = '100%;'>","null","","","","","","","","","",""
"","html-keyboard-response","113","296964","0.0-8.0-3.5","f9hes9jnq2","one_one","1","indirect_first","0","hs07as22","0","19","1","1","3","1","","0","1","0","2083","","","<img src = 'targets/mask.png' width = '100%;'>","68","neg","GS","GSold","2","category2/CS8.png","targets/7.png","0","indirect","5",""
"","html-keyboard-response","114","298467","0.0-8.0-0.6","f9hes9jnq2","one_one","1","indirect_first","0","hs07as22","0","19","1","1","3","1","","0","1","0","null","","","<div style=""font-size:60px;"">+</div>","null","","","","","","","","","",""
"","html-keyboard-response","115","298559","0.0-8.0-1.6","f9hes9jnq2","one_one","1","indirect_first","0","hs07as22","0","19","1","1","3","1","","0","1","0","null","","","<img src = 'category2/CS4.png' width = '100%;'>","null","","","","","","","","","",""
"","html-keyboard-response","116","298812","0.0-8.0-2.6","f9hes9jnq2","one_one","1","indirect_first","0","hs07as22","0","19","1","1","3","1","","0","1","0","null","","","<img src = 'targets/34.png' width = '100%;'>","null","","","","","","","","","",""
"","html-keyboard-response","117","299494","0.0-8.0-3.6","f9hes9jnq2","one_one","1","indirect_first","0","hs07as22","0","19","1","1","3","1","","0","1","0","680","","","<img src = 'targets/mask.png' width = '100%;'>","75","neg","GS","GSold","2","category2/CS4.png","targets/34.png","1","indirect","6",""
"","html-keyboard-response","118","300998","0.0-8.0-0.7","f9hes9jnq2","one_one","1","indirect_first","0","hs07as22","0","19","1","1","3","1","","0","1","0","null","","","<div style=""font-size:60px;"">+</div>","null","","","","","","","","","",""
"","html-keyboard-response","119","301090","0.0-8.0-1.7","f9hes9jnq2","one_one","1","indirect_first","0","hs07as22","0","19","1","1","3","1","","0","1","0","null","","","<img src = 'category3/CS9.png' width = '100%;'>","null","","","","","","","","","",""
"","html-keyboard-response","120","301343","0.0-8.0-2.7","f9hes9jnq2","one_one","1","indirect_first","0","hs07as22","0","19","1","1","3","1","","0","1","0","null","","","<img src = 'targets/46.png' width = '100%;'>","null","","","","","","","","","",""
"","html-keyboard-response","121","301980","0.0-8.0-3.7","f9hes9jnq2","one_one","1","indirect_first","0","hs07as22","0","19","1","1","3","1","","0","1","0","636","","","<img src = 'targets/mask.png' width = '100%;'>","75","pos","GS","GSold","3","category3/CS9.png","targets/46.png","1","indirect","7",""
"","html-keyboard-response","122","303483","0.0-8.0-0.8","f9hes9jnq2","one_one","1","indirect_first","0","hs07as22","0","19","1","1","3","1","","0","1","0","null","","","<div style=""font-size:60px;"">+</div>","null","","","","","","","","","",""
"","html-keyboard-response","123","303575","0.0-8.0-1.8","f9hes9jnq2","one_one","1","indirect_first","0","hs07as22","0","19","1","1","3","1","","0","1","0","null","","","<img src = 'category1/CS9.png' width = '100%;'>","null","","","","","","","","","",""
"","html-keyboard-response","124","303828","0.0-8.0-2.8","f9hes9jnq2","one_one","1","indirect_first","0","hs07as22","0","19","1","1","3","1","","0","1","0","null","","","<img src = 'targets/48.png' width = '100%;'>","null","","","","","","","","","",""
"","html-keyboard-response","125","304528","0.0-8.0-3.8","f9hes9jnq2","one_one","1","indirect_first","0","hs07as22","0","19","1","1","3","1","","0","1","0","699","","","<img src = 'targets/mask.png' width = '100%;'>","68","neg","GS","GSold","1","category1/CS9.png","targets/48.png","0","indirect","8",""
"","html-keyboard-response","126","306031","0.0-8.0-0.9","f9hes9jnq2","one_one","1","indirect_first","0","hs07as22","0","19","1","1","3","1","","0","1","0","null","","","<div style=""font-size:60px;"">+</div>","null","","","","","","","","","",""
"","html-keyboard-response","127","306124","0.0-8.0-1.9","f9hes9jnq2","one_one","1","indirect_first","0","hs07as22","0","19","1","1","3","1","","0","1","0","null","","","<img src = 'category1/CS10.png' width = '100%;'>","null","","","","","","","","","",""
"","html-keyboard-response","128","306377","0.0-8.0-2.9","f9hes9jnq2","one_one","1","indirect_first","0","hs07as22","0","19","1","1","3","1","","0","1","0","null","","","<img src = 'targets/4.png' width = '100%;'>","null","","","","","","","","","",""
"","html-keyboard-response","129","306843","0.0-8.0-3.9","f9hes9jnq2","one_one","1","indirect_first","0","hs07as22","0","19","1","1","3","1","","0","1","0","464.9999999999418","","","<img src = 'targets/mask.png' width = '100%;'>","75","neg","GS","GSold","1","category1/CS10.png","targets/4.png","1","indirect","9",""
"","html-keyboard-response","130","308347","0.0-8.0-0.10","f9hes9jnq2","one_one","1","indirect_first","0","hs07as22","0","19","1","1","3","1","","0","1","0","null","","","<div style=""font-size:60px;"">+</div>","null","","","","","","","","","",""
"","html-keyboard-response","131","308440","0.0-8.0-1.10","f9hes9jnq2","one_one","1","indirect_first","0","hs07as22","0","19","1","1","3","1","","0","1","0","null","","","<img src = 'category4/CS7.png' width = '100%;'>","null","","","","","","","","","",""
"","html-keyboard-response","132","308693","0.0-8.0-2.10","f9hes9jnq2","one_one","1","indirect_first","0","hs07as22","0","19","1","1","3","1","","0","1","0","null","","","<img src = 'targets/2.png' width = '100%;'>","null","","","","","","","","","",""
"","html-keyboard-response","133","309830","0.0-8.0-3.10","f9hes9jnq2","one_one","1","indirect_first","0","hs07as22","0","19","1","1","3","1","","0","1","0","1136.0000000000582","","","<img src = 'targets/mask.png' width = '100%;'>","68","pos","GS","GSold","4","category4/CS7.png","targets/2.png","0","indirect","10",""
"","html-keyboard-response","134","311334","0.0-8.0-0.11","f9hes9jnq2","one_one","1","indirect_first","0","hs07as22","0","19","1","1","3","1","","0","1","0","null","","","<div style=""font-size:60px;"">+</div>","null","","","","","","","","","",""
"","html-keyboard-response","135","311427","0.0-8.0-1.11","f9hes9jnq2","one_one","1","indirect_first","0","hs07as22","0","19","1","1","3","1","","0","1","0","null","","","<img src = 'category4/CS6.png' width = '100%;'>","null","","","","","","","","","",""
"","html-keyboard-response","136","311680","0.0-8.0-2.11","f9hes9jnq2","one_one","1","indirect_first","0","hs07as22","0","19","1","1","3","1","","0","1","0","null","","","<img src = 'targets/18.png' width = '100%;'>","null","","","","","","","","","",""
"","html-keyboard-response","137","312504","0.0-8.0-3.11","f9hes9jnq2","one_one","1","indirect_first","0","hs07as22","0","19","1","1","3","1","","0","1","0","822","","","<img src = 'targets/mask.png' width = '100%;'>","68","pos","GS","GSold","4","category4/CS6.png","targets/18.png","0","indirect","11",""
"","html-keyboard-response","138","314007","0.0-8.0-0.12","f9hes9jnq2","one_one","1","indirect_first","0","hs07as22","0","19","1","1","3","1","","0","1","0","null","","","<div style=""font-size:60px;"">+</div>","null","","","","","","","","","",""
"","html-keyboard-response","139","314099","0.0-8.0-1.12","f9hes9jnq2","one_one","1","indirect_first","0","hs07as22","0","19","1","1","3","1","","0","1","0","null","","","<img src = 'category1/CS5.png' width = '100%;'>","null","","","","","","","","","",""
"","html-keyboard-response","140","314352","0.0-8.0-2.12","f9hes9jnq2","one_one","1","indirect_first","0","hs07as22","0","19","1","1","3","1","","0","1","0","null","","","<img src = 'targets/13.png' width = '100%;'>","null","","","","","","","","","",""
"","html-keyboard-response","141","315777","0.0-8.0-3.12","f9hes9jnq2","one_one","1","indirect_first","0","hs07as22","0","19","1","1","3","1","","0","1","0","1425","","","<img src = 'targets/mask.png' width = '100%;'>","75","neg","CS","CS","1","category1/CS5.png","targets/13.png","1","indirect","12",""
"","html-keyboard-response","142","317281","0.0-8.0-0.13","f9hes9jnq2","one_one","1","indirect_first","0","hs07as22","0","19","1","1","3","1","","0","1","0","null","","","<div style=""font-size:60px;"">+</div>","null","","","","","","","","","",""
"","html-keyboard-response","143","317373","0.0-8.0-1.13","f9hes9jnq2","one_one","1","indirect_first","0","hs07as22","0","19","1","1","3","1","","0","1","0","null","","","<img src = 'category3/CS2.png' width = '100%;'>","null","","","","","","","","","",""
"","html-keyboard-response","144","317625","0.0-8.0-2.13","f9hes9jnq2","one_one","1","indirect_first","0","hs07as22","0","19","1","1","3","1","","0","1","0","null","","","<img src = 'targets/21.png' width = '100%;'>","null","","","","","","","","","",""
"","html-keyboard-response","145","319302","0.0-8.0-3.13","f9hes9jnq2","one_one","1","indirect_first","0","hs07as22","0","19","1","1","3","1","","0","1","0","1675","","","<img src = 'targets/mask.png' width = '100%;'>","68","pos","CS","CS","3","category3/CS2.png","targets/21.png","0","indirect","13",""
"","html-keyboard-response","146","320806","0.0-8.0-0.14","f9hes9jnq2","one_one","1","indirect_first","0","hs07as22","0","19","1","1","3","1","","0","1","0","null","","","<div style=""font-size:60px;"">+</div>","null","","","","","","","","","",""
"","html-keyboard-response","147","320898","0.0-8.0-1.14","f9hes9jnq2","one_one","1","indirect_first","0","hs07as22","0","19","1","1","3","1","","0","1","0","null","","","<img src = 'category2/CS9.png' width = '100%;'>","null","","","","","","","","","",""
"","html-keyboard-response","148","321151","0.0-8.0-2.14","f9hes9jnq2","one_one","1","indirect_first","0","hs07as22","0","19","1","1","3","1","","0","1","0","null","","","<img src = 'targets/1.png' width = '100%;'>","null","","","","","","","","","",""
"","html-keyboard-response","149","322478","0.0-8.0-3.14","f9hes9jnq2","one_one","1","indirect_first","0","hs07as22","0","19","1","1","3","1","","0","1","0","1325","","","<img src = 'targets/mask.png' width = '100%;'>","68","neg","CS","CS","2","category2/CS9.png","targets/1.png","0","indirect","14",""
"","html-keyboard-response","150","323981","0.0-8.0-0.15","f9hes9jnq2","one_one","1","indirect_first","0","hs07as22","0","19","1","1","3","1","","0","1","0","null","","","<div style=""font-size:60px;"">+</div>","null","","","","","","","","","",""
"","html-keyboard-response","151","324073","0.0-8.0-1.15","f9hes9jnq2","one_one","1","indirect_first","0","hs07as22","0","19","1","1","3","1","","0","1","0","null","","","<img src = 'category4/CS2.png' width = '100%;'>","null","","","","","","","","","",""
"","html-keyboard-response","152","324326","0.0-8.0-2.15","f9hes9jnq2","one_one","1","indirect_first","0","hs07as22","0","19","1","1","3","1","","0","1","0","null","","","<img src = 'targets/42.png' width = '100%;'>","null","","","","","","","","","",""
"","html-keyboard-response","153","327236","0.0-8.0-3.15","f9hes9jnq2","one_one","1","indirect_first","0","hs07as22","0","19","1","1","3","1","","0","1","0","2909","","","<img src = 'targets/mask.png' width = '100%;'>","75","pos","GS","GSold","4","category4/CS2.png","targets/42.png","1","indirect","15",""
"","survey-html-form","154","330429","0.0-9.0","f9hes9jnq2","one_one","1","indirect_first","0","hs07as22","0","19","1","1","3","1","","0","1","0","2691","","{}","","","","","","","","","","","",""
"","html-keyboard-response","155","333433","0.0-10.0-0.0","f9hes9jnq2","one_one","1","indirect_first","0","hs07as22","0","19","1","1","3","1","","0","1","0","null","","","<div style=""font-size:60px;"">+</div>","null","","","","","","","","","",""
"","html-keyboard-response","156","333525","0.0-10.0-1.0","f9hes9jnq2","one_one","1","indirect_first","0","hs07as22","0","19","1","1","3","1","","0","1","0","null","","","<img src = 'category3/GS1.png' width = '100%;'>","null","","","","","","","","","",""
"","html-keyboard-response","157","333777","0.0-10.0-2.0","f9hes9jnq2","one_one","1","indirect_first","0","hs07as22","0","19","1","1","3","1","","0","1","0","null","","","<img src = 'targets/45.png' width = '100%;'>","null","","","","","","","","","",""
"","html-keyboard-response","158","334510","0.0-10.0-3.0","f9hes9jnq2","one_one","1","indirect_first","0","hs07as22","0","19","1","1","3","1","","0","1","0","731.9999999999418","","","<img src = 'targets/mask.png' width = '100%;'>","75","pos","GS","GSnew","3","category3/GS1.png","targets/45.png","1","indirect","16",""
"","html-keyboard-response","159","336014","0.0-10.0-0.1","f9hes9jnq2","one_one","1","indirect_first","0","hs07as22","0","19","1","1","3","1","","0","1","0","null","","","<div style=""font-size:60px;"">+</div>","null","","","","","","","","","",""
"","html-keyboard-response","160","336106","0.0-10.0-1.1","f9hes9jnq2","one_one","1","indirect_first","0","hs07as22","0","19","1","1","3","1","","0","1","0","null","","","<img src = 'category1/ma.png' width = '100%;'>","null","","","","","","","","","",""
"","html-keyboard-response","161","336359","0.0-10.0-2.1","f9hes9jnq2","one_one","1","indirect_first","0","hs07as22","0","19","1","1","3","1","","0","1","0","null","","","<img src = 'targets/28.png' width = '100%;'>","null","","","","","","","","","",""
"","html-keyboard-response","162","337052","0.0-10.0-3.1","f9hes9jnq2","one_one","1","indirect_first","0","hs07as22","0","19","1","1","3","1","","0","1","0","692","","","<img src = 'targets/mask.png' width = '100%;'>","68","neg","GS","abstract","1","category1/ma.png","targets/28.png","0","indirect","17",""
"","html-keyboard-response","163","338555","0.0-10.0-0.2","f9hes9jnq2","one_one","1","indirect_first","0","hs07as22","0","19","1","1","3","1","","0","1","0","null","","","<div style=""font-size:60px;"">+</div>","null","","","","","","","","","",""
"","html-keyboard-response","164","338647","0.0-10.0-1.2","f9hes9jnq2","one_one","1","indirect_first","0","hs07as22","0","19","1","1","3","1","","0","1","0","null","","","<img src = 'category2/men.png' width = '100%;'>","null","","","","","","","","","",""
"","html-keyboard-response","165","338900","0.0-10.0-2.2","f9hes9jnq2","one_one","1","indirect_first","0","hs07as22","0","19","1","1","3","1","","0","1","0","null","","","<img src = 'targets/17.png' width = '100%;'>","null","","","","","","","","","",""
"","html-keyboard-response","166","339910","0.0-10.0-3.2","f9hes9jnq2","one_one","1","indirect_first","0","hs07as22","0","19","1","1","3","1","","0","1","0","1008","","","<img src = 'targets/mask.png' width = '100%;'>","75","neg","GS","abstract","2","category2/men.png","targets/17.png","1","indirect","18",""
"","html-keyboard-response","167","341414","0.0-10.0-0.3","f9hes9jnq2","one_one","1","indirect_first","0","hs07as22","0","19","1","1","3","1","","0","1","0","null","","","<div style=""font-size:60px;"">+</div>","null","","","","","","","","","",""
"","html-keyboard-response","168","341506","0.0-10.0-1.3","f9hes9jnq2","one_one","1","indirect_first","0","hs07as22","0","19","1","1","3","1","","0","1","0","null","","","<img src = 'category4/lin.png' width = '100%;'>","null","","","","","","","","","",""
"","html-keyboard-response","169","341759","0.0-10.0-2.3","f9hes9jnq2","one_one","1","indirect_first","0","hs07as22","0","19","1","1","3","1","","0","1","0","null","","","<img src = 'targets/23.png' width = '100%;'>","null","","","","","","","","","",""
"","html-keyboard-response","170","343881","0.0-10.0-3.3","f9hes9jnq2","one_one","1","indirect_first","0","hs07as22","0","19","1","1","3","1","","0","1","0","2121","","","<img src = 'targets/mask.png' width = '100%;'>","68","pos","GS","abstract","4","category4/lin.png","targets/23.png","0","indirect","19",""
"","html-keyboard-response","171","345385","0.0-10.0-0.4","f9hes9jnq2","one_one","1","indirect_first","0","hs07as22","0","19","1","1","3","1","","0","1","0","null","","","<div style=""font-size:60px;"">+</div>","null","","","","","","","","","",""
"","html-keyboard-response","172","345477","0.0-10.0-1.4","f9hes9jnq2","one_one","1","indirect_first","0","hs07as22","0","19","1","1","3","1","","0","1","0","null","","","<img src = 'category2/GS3.png' width = '100%;'>","null","","","","","","","","","",""
"","html-keyboard-response","173","345730","0.0-10.0-2.4","f9hes9jnq2","one_one","1","indirect_first","0","hs07as22","0","19","1","1","3","1","","0","1","0","null","","","<img src = 'targets/8.png' width = '100%;'>","null","","","","","","","","","",""
"","html-keyboard-response","174","346308","0.0-10.0-3.4","f9hes9jnq2","one_one","1","indirect_first","0","hs07as22","0","19","1","1","3","1","","0","1","0","576.0000000000582","","","<img src = 'targets/mask.png' width = '100%;'>","75","neg","GS","GSnew","2","category2/GS3.png","targets/8.png","1","indirect","20",""
"","html-keyboard-response","175","347811","0.0-10.0-0.5","f9hes9jnq2","one_one","1","indirect_first","0","hs07as22","0","19","1","1","3","1","","0","1","0","null","","","<div style=""font-size:60px;"">+</div>","null","","","","","","","","","",""
"","html-keyboard-response","176","347904","0.0-10.0-1.5","f9hes9jnq2","one_one","1","indirect_first","0","hs07as22","0","19","1","1","3","1","","0","1","0","null","","","<img src = 'category3/GS3.png' width = '100%;'>","null","","","","","","","","","",""
"","html-keyboard-response","177","348157","0.0-10.0-2.5","f9hes9jnq2","one_one","1","indirect_first","0","hs07as22","0","19","1","1","3","1","","0","1","0","null","","","<img src = 'targets/26.png' width = '100%;'>","null","","","","","","","","","",""
"","html-keyboard-response","178","349493","0.0-10.0-3.5","f9hes9jnq2","one_one","1","indirect_first","0","hs07as22","0","19","1","1","3","1","","0","1","0","1334","","","<img src = 'targets/mask.png' width = '100%;'>","68","pos","GS","GSnew","3","category3/GS3.png","targets/26.png","0","indirect","21",""
"","html-keyboard-response","179","350996","0.0-10.0-0.6","f9hes9jnq2","one_one","1","indirect_first","0","hs07as22","0","19","1","1","3","1","","0","1","0","null","","","<div style=""font-size:60px;"">+</div>","null","","","","","","","","","",""
"","html-keyboard-response","180","351088","0.0-10.0-1.6","f9hes9jnq2","one_one","1","indirect_first","0","hs07as22","0","19","1","1","3","1","","0","1","0","null","","","<img src = 'category1/GS2.png' width = '100%;'>","null","","","","","","","","","",""
"","html-keyboard-response","181","351342","0.0-10.0-2.6","f9hes9jnq2","one_one","1","indirect_first","0","hs07as22","0","19","1","1","3","1","","0","1","0","null","","","<img src = 'targets/14.png' width = '100%;'>","null","","","","","","","","","",""
"","html-keyboard-response","182","352269","0.0-10.0-3.6","f9hes9jnq2","one_one","1","indirect_first","0","hs07as22","0","19","1","1","3","1","","0","1","0","924.9999999999418","","","<img src = 'targets/mask.png' width = '100%;'>","68","neg","GS","GSnew","1","category1/GS2.png","targets/14.png","0","indirect","22",""
"","html-keyboard-response","183","353772","0.0-10.0-0.7","f9hes9jnq2","one_one","1","indirect_first","0","hs07as22","0","19","1","1","3","1","","0","1","0","null","","","<div style=""font-size:60px;"">+</div>","null","","","","","","","","","",""
"","html-keyboard-response","184","353864","0.0-10.0-1.7","f9hes9jnq2","one_one","1","indirect_first","0","hs07as22","0","19","1","1","3","1","","0","1","0","null","","","<img src = 'category1/GS1.png' width = '100%;'>","null","","","","","","","","","",""
"","html-keyboard-response","185","354117","0.0-10.0-2.7","f9hes9jnq2","one_one","1","indirect_first","0","hs07as22","0","19","1","1","3","1","","0","1","0","null","","","<img src = 'targets/15.png' width = '100%;'>","null","","","","","","","","","",""
"","html-keyboard-response","186","355623","0.0-10.0-3.7","f9hes9jnq2","one_one","1","indirect_first","0","hs07as22","0","19","1","1","3","1","","0","1","0","1505","","","<img src = 'targets/mask.png' width = '100%;'>","75","neg","GS","GSnew","1","category1/GS1.png","targets/15.png","1","indirect","23",""
"","html-keyboard-response","187","357126","0.0-10.0-0.8","f9hes9jnq2","one_one","1","indirect_first","0","hs07as22","0","19","1","1","3","1","","0","1","0","null","","","<div style=""font-size:60px;"">+</div>","null","","","","","","","","","",""
"","html-keyboard-response","188","357218","0.0-10.0-1.8","f9hes9jnq2","one_one","1","indirect_first","0","hs07as22","0","19","1","1","3","1","","0","1","0","null","","","<img src = 'category3/GS2.png' width = '100%;'>","null","","","","","","","","","",""
"","html-keyboard-response","189","357472","0.0-10.0-2.8","f9hes9jnq2","one_one","1","indirect_first","0","hs07as22","0","19","1","1","3","1","","0","1","0","null","","","<img src = 'targets/30.png' width = '100%;'>","null","","","","","","","","","",""
"","html-keyboard-response","190","358506","0.0-10.0-3.8","f9hes9jnq2","one_one","1","indirect_first","0","hs07as22","0","19","1","1","3","1","","0","1","0","1034","","","<img src = 'targets/mask.png' width = '100%;'>","68","pos","GS","GSnew","3","category3/GS2.png","targets/30.png","0","indirect","24",""
"","html-keyboard-response","191","360010","0.0-10.0-0.9","f9hes9jnq2","one_one","1","indirect_first","0","hs07as22","0","19","1","1","3","1","","0","1","0","null","","","<div style=""font-size:60px;"">+</div>","null","","","","","","","","","",""
"","html-keyboard-response","192","360102","0.0-10.0-1.9","f9hes9jnq2","one_one","1","indirect_first","0","hs07as22","0","19","1","1","3","1","","0","1","0","null","","","<img src = 'category4/GS1.png' width = '100%;'>","null","","","","","","","","","",""
"","html-keyboard-response","193","360356","0.0-10.0-2.9","f9hes9jnq2","one_one","1","indirect_first","0","hs07as22","0","19","1","1","3","1","","0","1","0","null","","","<img src = 'targets/41.png' width = '100%;'>","null","","","","","","","","","",""
"","html-keyboard-response","194","361365","0.0-10.0-3.9","f9hes9jnq2","one_one","1","indirect_first","0","hs07as22","0","19","1","1","3","1","","0","1","0","1009","","","<img src = 'targets/mask.png' width = '100%;'>","75","pos","GS","GSnew","4","category4/GS1.png","targets/41.png","1","indirect","25",""
"","html-keyboard-response","195","362869","0.0-10.0-0.10","f9hes9jnq2","one_one","1","indirect_first","0","hs07as22","0","19","1","1","3","1","","0","1","0","null","","","<div style=""font-size:60px;"">+</div>","null","","","","","","","","","",""
"","html-keyboard-response","196","362961","0.0-10.0-1.10","f9hes9jnq2","one_one","1","indirect_first","0","hs07as22","0","19","1","1","3","1","","0","1","0","null","","","<img src = 'category3/wang.png' width = '100%;'>","null","","","","","","","","","",""
"","html-keyboard-response","197","363215","0.0-10.0-2.10","f9hes9jnq2","one_one","1","indirect_first","0","hs07as22","0","19","1","1","3","1","","0","1","0","null","","","<img src = 'targets/33.png' width = '100%;'>","null","","","","","","","","","",""
"","html-keyboard-response","198","364447","0.0-10.0-3.10","f9hes9jnq2","one_one","1","indirect_first","0","hs07as22","0","19","1","1","3","1","","0","1","0","1231","","","<img src = 'targets/mask.png' width = '100%;'>","75","pos","GS","abstract","3","category3/wang.png","targets/33.png","1","indirect","26",""
"","html-keyboard-response","199","365951","0.0-10.0-0.11","f9hes9jnq2","one_one","1","indirect_first","0","hs07as22","0","19","1","1","3","1","","0","1","0","null","","","<div style=""font-size:60px;"">+</div>","null","","","","","","","","","",""
"","html-keyboard-response","200","366043","0.0-10.0-1.11","f9hes9jnq2","one_one","1","indirect_first","0","hs07as22","0","19","1","1","3","1","","0","1","0","null","","","<img src = 'category4/GS3.png' width = '100%;'>","null","","","","","","","","","",""
"","html-keyboard-response","201","366296","0.0-10.0-2.11","f9hes9jnq2","one_one","1","indirect_first","0","hs07as22","0","19","1","1","3","1","","0","1","0","null","","","<img src = 'targets/22.png' width = '100%;'>","null","","","","","","","","","",""
"","html-keyboard-response","202","366989","0.0-10.0-3.11","f9hes9jnq2","one_one","1","indirect_first","0","hs07as22","0","19","1","1","3","1","","0","1","0","691","","","<img src = 'targets/mask.png' width = '100%;'>","75","pos","GS","GSnew","4","category4/GS3.png","targets/22.png","1","indirect","27",""
"","html-keyboard-response","203","368493","0.0-10.0-0.12","f9hes9jnq2","one_one","1","indirect_first","0","hs07as22","0","19","1","1","3","1","","0","1","0","null","","","<div style=""font-size:60px;"">+</div>","null","","","","","","","","","",""
"","html-keyboard-response","204","368585","0.0-10.0-1.12","f9hes9jnq2","one_one","1","indirect_first","0","hs07as22","0","19","1","1","3","1","","0","1","0","null","","","<img src = 'category2/GS2.png' width = '100%;'>","null","","","","","","","","","",""
"","html-keyboard-response","205","368838","0.0-10.0-2.12","f9hes9jnq2","one_one","1","indirect_first","0","hs07as22","0","19","1","1","3","1","","0","1","0","null","","","<img src = 'targets/29.png' width = '100%;'>","null","","","","","","","","","",""
"","html-keyboard-response","206","369437","0.0-10.0-3.12","f9hes9jnq2","one_one","1","indirect_first","0","hs07as22","0","19","1","1","3","1","","0","1","0","598","","","<img src = 'targets/mask.png' width = '100%;'>","68","neg","GS","GSnew","2","category2/GS2.png","targets/29.png","0","indirect","28",""
"","html-keyboard-response","207","370941","0.0-10.0-0.13","f9hes9jnq2","one_one","1","indirect_first","0","hs07as22","0","19","1","1","3","1","","0","1","0","null","","","<div style=""font-size:60px;"">+</div>","null","","","","","","","","","",""
"","html-keyboard-response","208","371033","0.0-10.0-1.13","f9hes9jnq2","one_one","1","indirect_first","0","hs07as22","0","19","1","1","3","1","","0","1","0","null","","","<img src = 'category4/GS2.png' width = '100%;'>","null","","","","","","","","","",""
"","html-keyboard-response","209","371286","0.0-10.0-2.13","f9hes9jnq2","one_one","1","indirect_first","0","hs07as22","0","19","1","1","3","1","","0","1","0","null","","","<img src = 'targets/6.png' width = '100%;'>","null","","","","","","","","","",""
"","html-keyboard-response","210","371989","0.0-10.0-3.13","f9hes9jnq2","one_one","1","indirect_first","0","hs07as22","0","19","1","1","3","1","","0","1","0","702","","","<img src = 'targets/mask.png' width = '100%;'>","68","pos","GS","GSnew","4","category4/GS2.png","targets/6.png","0","indirect","29",""
"","html-keyboard-response","211","373493","0.0-10.0-0.14","f9hes9jnq2","one_one","1","indirect_first","0","hs07as22","0","19","1","1","3","1","","0","1","0","null","","","<div style=""font-size:60px;"">+</div>","null","","","","","","","","","",""
"","html-keyboard-response","212","373585","0.0-10.0-1.14","f9hes9jnq2","one_one","1","indirect_first","0","hs07as22","0","19","1","1","3","1","","0","1","0","null","","","<img src = 'category2/GS1.png' width = '100%;'>","null","","","","","","","","","",""
"","html-keyboard-response","213","373838","0.0-10.0-2.14","f9hes9jnq2","one_one","1","indirect_first","0","hs07as22","0","19","1","1","3","1","","0","1","0","null","","","<img src = 'targets/43.png' width = '100%;'>","null","","","","","","","","","",""
"","html-keyboard-response","214","375767","0.0-10.0-3.14","f9hes9jnq2","one_one","1","indirect_first","0","hs07as22","0","19","1","1","3","1","","0","1","0","1928.0000000000582","","","<img src = 'targets/mask.png' width = '100%;'>","75","neg","GS","GSnew","2","category2/GS1.png","targets/43.png","1","indirect","30",""
"","html-keyboard-response","215","377270","0.0-10.0-0.15","f9hes9jnq2","one_one","1","indirect_first","0","hs07as22","0","19","1","1","3","1","","0","1","0","null","","","<div style=""font-size:60px;"">+</div>","null","","","","","","","","","",""
"","html-keyboard-response","216","377362","0.0-10.0-1.15","f9hes9jnq2","one_one","1","indirect_first","0","hs07as22","0","19","1","1","3","1","","0","1","0","null","","","<img src = 'category1/GS3.png' width = '100%;'>","null","","","","","","","","","",""
"","html-keyboard-response","217","377616","0.0-10.0-2.15","f9hes9jnq2","one_one","1","indirect_first","0","hs07as22","0","19","1","1","3","1","","0","1","0","null","","","<img src = 'targets/36.png' width = '100%;'>","null","","","","","","","","","",""
"","html-keyboard-response","218","378826","0.0-10.0-3.15","f9hes9jnq2","one_one","1","indirect_first","0","hs07as22","0","19","1","1","3","1","","0","1","0","1209","","","<img src = 'targets/mask.png' width = '100%;'>","75","neg","GS","GSnew","1","category1/GS3.png","targets/36.png","1","indirect","31",""
"","survey-html-form","219","393169","0.0-11.0","f9hes9jnq2","one_one","1","indirect_first","0","hs07as22","0","19","1","1","3","1","","0","1","0","13839","","{}","","","","","","","","","","","",""
"","image-slider-response","220","400595","0.0-12.0-0.0","f9hes9jnq2","one_one","1","indirect_first","0","hs07as22","0","19","1","1","3","1","","0","1","0","5423.999999999942","","","","","pos","GS","GSnew","3","category3/GS3.png","targets/26.png","","direct","","39"
"","image-slider-response","221","403669","0.0-12.0-0.1","f9hes9jnq2","one_one","1","indirect_first","0","hs07as22","0","19","1","1","3","1","","0","1","0","3072","","","","","neg","GS","GSnew","2","category2/GS1.png","targets/43.png","","direct","","-49"
"","image-slider-response","222","407201","0.0-12.0-0.2","f9hes9jnq2","one_one","1","indirect_first","0","hs07as22","0","19","1","1","3","1","","0","1","0","3530","","","","","neg","GS","GSnew","2","category2/GS3.png","targets/8.png","","direct","","-17"
"","image-slider-response","223","410039","0.0-12.0-0.3","f9hes9jnq2","one_one","1","indirect_first","0","hs07as22","0","19","1","1","3","1","","0","1","0","2836","","","","","pos","CS","CS","4","category4/CS5.png","targets/9.png","","direct","","59"
"","image-slider-response","224","413428","0.0-12.0-0.4","f9hes9jnq2","one_one","1","indirect_first","0","hs07as22","0","19","1","1","3","1","","0","1","0","3387","","","","","neg","GS","GSold","2","category2/CS8.png","targets/7.png","","direct","","-81"
"","image-slider-response","225","416380","0.0-12.0-0.5","f9hes9jnq2","one_one","1","indirect_first","0","hs07as22","0","19","1","1","3","1","","0","1","0","2949","","","","","neg","GS","GSold","1","category1/CS6.png","targets/25.png","","direct","","-22"
"","image-slider-response","226","419587","0.0-12.0-0.6","f9hes9jnq2","one_one","1","indirect_first","0","hs07as22","0","19","1","1","3","1","","0","1","0","3205.999999999942","","","","","pos","GS","GSold","3","category3/CS8.png","targets/40.png","","direct","","55"
"","image-slider-response","227","422864","0.0-12.0-0.7","f9hes9jnq2","one_one","1","indirect_first","0","hs07as22","0","19","1","1","3","1","","0","1","0","3276","","","","","pos","GS","GSold","3","category3/CS3.png","targets/31.png","","direct","","31"
"","image-slider-response","228","426764","0.0-12.0-0.8","f9hes9jnq2","one_one","1","indirect_first","0","hs07as22","0","19","1","1","3","1","","0","1","0","3899","","","","","neg","GS","GSold","1","category1/CS10.png","targets/4.png","","direct","","9"
"","image-slider-response","229","429778","0.0-12.0-0.9","f9hes9jnq2","one_one","1","indirect_first","0","hs07as22","0","19","1","1","3","1","","0","1","0","3012","","","","","pos","GS","GSold","3","category3/CS9.png","targets/46.png","","direct","","-56"
"","image-slider-response","230","432692","0.0-12.0-0.10","f9hes9jnq2","one_one","1","indirect_first","0","hs07as22","0","19","1","1","3","1","","0","1","0","2911","","","","","neg","CS","CS","1","category1/CS5.png","targets/13.png","","direct","","28"
"","image-slider-response","231","437755","0.0-12.0-0.11","f9hes9jnq2","one_one","1","indirect_first","0","hs07as22","0","19","1","1","3","1","","0","1","0","5061","","","","","pos","GS","GSnew","4","category4/GS3.png","targets/22.png","","direct","","50"
"","image-slider-response","232","441007","0.0-12.0-0.12","f9hes9jnq2","one_one","1","indirect_first","0","hs07as22","0","19","1","1","3","1","","0","1","0","3251.000000000058","","","","","pos","GS","GSnew","3","category3/GS1.png","targets/45.png","","direct","","33"
"","image-slider-response","233","444216","0.0-12.0-0.13","f9hes9jnq2","one_one","1","indirect_first","0","hs07as22","0","19","1","1","3","1","","0","1","0","3208.000000000058","","","","","pos","GS","GSold","4","category4/CS6.png","targets/18.png","","direct","","-43"
"","image-slider-response","234","448052","0.0-12.0-0.14","f9hes9jnq2","one_one","1","indirect_first","0","hs07as22","0","19","1","1","3","1","","0","1","0","3835","","","","","neg","CS","CS","2","category2/CS9.png","targets/1.png","","direct","","-79"
"","image-slider-response","235","451767","0.0-12.0-0.15","f9hes9jnq2","one_one","1","indirect_first","0","hs07as22","0","19","1","1","3","1","","0","1","0","3712","","","","","pos","GS","GSnew","3","category3/GS2.png","targets/30.png","","direct","","-22"
"","image-slider-response","236","454584","0.0-12.0-0.16","f9hes9jnq2","one_one","1","indirect_first","0","hs07as22","0","19","1","1","3","1","","0","1","0","2815","","","","","neg","GS","GSnew","1","category1/GS1.png","targets/15.png","","direct","","32"
"","image-slider-response","237","457755","0.0-12.0-0.17","f9hes9jnq2","one_one","1","indirect_first","0","hs07as22","0","19","1","1","3","1","","0","1","0","3170","","","","","pos","GS","GSold","4","category4/CS7.png","targets/2.png","","direct","","38"
"","image-slider-response","238","460783","0.0-12.0-0.18","f9hes9jnq2","one_one","1","indirect_first","0","hs07as22","0","19","1","1","3","1","","0","1","0","3026","","","","","neg","GS","GSnew","2","category2/GS2.png","targets/29.png","","direct","","35"
"","image-slider-response","239","463488","0.0-12.0-0.19","f9hes9jnq2","one_one","1","indirect_first","0","hs07as22","0","19","1","1","3","1","","0","1","0","2704","","","","","pos","GS","abstract","3","category3/wang.png","targets/33.png","","direct","","-46"
"","image-slider-response","240","468665","0.0-12.0-0.20","f9hes9jnq2","one_one","1","indirect_first","0","hs07as22","0","19","1","1","3","1","","0","1","0","5175","","","","","pos","GS","GSnew","4","category4/GS1.png","targets/41.png","","direct","","55"
"","image-slider-response","241","471322","0.0-12.0-0.21","f9hes9jnq2","one_one","1","indirect_first","0","hs07as22","0","19","1","1","3","1","","0","1","0","2655","","","","","neg","GS","GSnew","1","category1/GS2.png","targets/14.png","","direct","","44"
"","image-slider-response","242","475469","0.0-12.0-0.22","f9hes9jnq2","one_one","1","indirect_first","0","hs07as22","0","19","1","1","3","1","","0","1","0","4145","","","","","pos","CS","CS","3","category3/CS2.png","targets/21.png","","direct","","-27"
"","image-slider-response","243","478073","0.0-12.0-0.23","f9hes9jnq2","one_one","1","indirect_first","0","hs07as22","0","19","1","1","3","1","","0","1","0","2602.000000000058","","","","","neg","GS","GSold","2","category2/CS4.png","targets/34.png","","direct","","-64"
"","image-slider-response","244","482671","0.0-12.0-0.24","f9hes9jnq2","one_one","1","indirect_first","0","hs07as22","0","19","1","1","3","1","","0","1","0","4596","","","","","pos","GS","GSold","4","category4/CS2.png","targets/42.png","","direct","","73"
"","image-slider-response","245","486211","0.0-12.0-0.25","f9hes9jnq2","one_one","1","indirect_first","0","hs07as22","0","19","1","1","3","1","","0","1","0","3538.000000000058","","","","","pos","GS","abstract","4","category4/lin.png","targets/23.png","","direct","","37"
"","image-slider-response","246","489332","0.0-12.0-0.26","f9hes9jnq2","one_one","1","indirect_first","0","hs07as22","0","19","1","1","3","1","","0","1","0","3120","","","","","neg","GS","GSold","1","category1/CS9.png","targets/48.png","","direct","","-57"
"","image-slider-response","247","492792","0.0-12.0-0.27","f9hes9jnq2","one_one","1","indirect_first","0","hs07as22","0","19","1","1","3","1","","0","1","0","3459","","","","","pos","GS","GSnew","4","category4/GS2.png","targets/6.png","","direct","","60"
"","image-slider-response","248","497350","0.0-12.0-0.28","f9hes9jnq2","one_one","1","indirect_first","0","hs07as22","0","19","1","1","3","1","","0","1","0","4554.999999999942","","","","","neg","GS","GSold","2","category2/CS1.png","targets/20.png","","direct","","-74"
"","image-slider-response","249","499988","0.0-12.0-0.29","f9hes9jnq2","one_one","1","indirect_first","0","hs07as22","0","19","1","1","3","1","","0","1","0","2636","","","","","neg","GS","abstract","2","category2/men.png","targets/17.png","","direct","","-67"
"","image-slider-response","250","502909","0.0-12.0-0.30","f9hes9jnq2","one_one","1","indirect_first","0","hs07as22","0","19","1","1","3","1","","0","1","0","2919","","","","","neg","GS","abstract","1","category1/ma.png","targets/28.png","","direct","","53"
"","image-slider-response","251","505446","0.0-12.0-0.31","f9hes9jnq2","one_one","1","indirect_first","0","hs07as22","0","19","1","1","3","1","","0","1","0","2535.0000000001164","","","","","neg","GS","GSnew","1","category1/GS3.png","targets/36.png","","direct","","43"
"","survey-html-form","252","511474","0.0-13.0","f9hes9jnq2","one_one","1","indirect_first","0","hs07as22","0","19","1","1","3","1","","0","1","0","6027.000000000058","","{}","","","","","","","","","","","",""
"","image-slider-response","253","515308","0.0-14.0-0.0","f9hes9jnq2","one_one","1","indirect_first","0","hs07as22","0","19","1","1","3","1","","0","1","0","2831","","","","","pos","All","all","4","category4/lin_all.png","","","all","","21"
"","image-slider-response","254","518657","0.0-14.0-0.1","f9hes9jnq2","one_one","1","indirect_first","0","hs07as22","0","19","1","1","3","1","","0","1","0","3347.0000000001164","","","","","neg","All","all","1","category1/ma_all.png","","","all","","-57"
"","image-slider-response","255","524511","0.0-14.0-0.2","f9hes9jnq2","one_one","1","indirect_first","0","hs07as22","0","19","1","1","3","1","","0","1","0","5852","","","","","neg","All","all","2","category2/men_all.png","","","all","","-71"
"","image-slider-response","256","529129","0.0-14.0-0.3","f9hes9jnq2","one_one","1","indirect_first","0","hs07as22","0","19","1","1","3","1","","0","1","0","4616","","","","","pos","All","all","3","category3/wang_all.png","","","all","","-27"
"","survey-text","257","533361","0.0-15.0","f9hes9jnq2","one_one","1","indirect_first","0","hs07as22","0","19","1","1","3","1","","0","1","0","4230","","{""comment"":""""}","","","","","","","","","","","",""
"","survey-html-form","258","549198","0.0-16.0","f9hes9jnq2","one_one","1","indirect_first","0","hs07as22","0","19","1","1","3","1","","0","1","0","15834","","{""hinschauen"":""0"",""ablenkung"":""1"",""gewissenhaft"":""0""}","","","","","","","","","","","",""
