"success","trial_type","trial_index","time_elapsed","internal_node_id","subject","condition","condition_code","measure","measure_code","codeword","gender","age","education","chinese","fach","handedness","comment","hinschauen","ablenkung","gewissenhaft","rt","url","responses","stimulus","key_press","val","type","type_specific","category","cs_selected","response","target","task","indirect","nr_pres"
"true","fullscreen","0","6402","0.0-0.0","661rb2wdn4","one_one","1","direct_first","1","rt06rk30","0","18","1","1","3","1","die Bewertung der Silben habe ich als sehr schwierig empfunden
Generell ist die Navigation durch die Studie sehr angenehm","0","1","0","","","","","","","","","","","","","","",""
"","external-html","1","95172","0.0-1.0","661rb2wdn4","one_one","1","direct_first","1","rt06rk30","0","18","1","1","3","1","die Bewertung der Silben habe ich als sehr schwierig empfunden
Generell ist die Navigation durch die Studie sehr angenehm","0","1","0","88690","text/information.html","","","","","","","","","","","","",""
"","external-html","2","113404","0.0-2.0","661rb2wdn4","one_one","1","direct_first","1","rt06rk30","0","18","1","1","3","1","die Bewertung der Silben habe ich als sehr schwierig empfunden
Generell ist die Navigation durch die Studie sehr angenehm","0","1","0","18094","text/consent.html","","","","","","","","","","","","",""
"","survey-html-form","3","184858","0.0-3.0","661rb2wdn4","one_one","1","direct_first","1","rt06rk30","0","18","1","1","3","1","die Bewertung der Silben habe ich als sehr schwierig empfunden
Generell ist die Navigation durch die Studie sehr angenehm","0","1","0","71443","","{""codeword_enter"":""rt06rk30""}","","","","","","","","","","","",""
"","survey-html-form","4","203618","0.0-4.0","661rb2wdn4","one_one","1","direct_first","1","rt06rk30","0","18","1","1","3","1","die Bewertung der Silben habe ich als sehr schwierig empfunden
Generell ist die Navigation durch die Studie sehr angenehm","0","1","0","18747","","{""age"":""18"",""education"":""1"",""subject"":""3"",""gender"":""0"",""handedness"":""1"",""chinese"":""1""}","","","","","","","","","","","",""
"","survey-html-form","5","214906","0.0-5.0","661rb2wdn4","one_one","1","direct_first","1","rt06rk30","0","18","1","1","3","1","die Bewertung der Silben habe ich als sehr schwierig empfunden
Generell ist die Navigation durch die Studie sehr angenehm","0","1","0","11277","","{}","","","","","","","","","","","",""
"","html-keyboard-response","6","218923","0.0-6.0-0.0-0.0","661rb2wdn4","one_one","1","direct_first","1","rt06rk30","0","18","1","1","3","1","die Bewertung der Silben habe ich als sehr schwierig empfunden
Generell ist die Navigation durch die Studie sehr angenehm","0","1","0","null","","","<div class = 'row'><div class = 'column'><img src = 'uspos/5700.bmp' width = '100%;'></div><div class = 'column'><img src = 'category3/CS1.png' width = '70%;'></div></div>","null","pos","CS","CS","3","category3/CS1.png","","","","",""
"","html-keyboard-response","7","221448","0.0-6.0-0.0-0.1","661rb2wdn4","one_one","1","direct_first","1","rt06rk30","0","18","1","1","3","1","die Bewertung der Silben habe ich als sehr schwierig empfunden
Generell ist die Navigation durch die Studie sehr angenehm","0","1","0","null","","","<div class = 'row'><div class = 'column'><img src = 'usneg/3300.bmp' width = '100%;'></div><div class = 'column'><img src = 'category4/CS5.png' width = '70%;'></div></div>","null","neg","CS","CS","4","category4/CS5.png","","","","",""
"","html-keyboard-response","8","223972","0.0-6.0-0.0-0.2","661rb2wdn4","one_one","1","direct_first","1","rt06rk30","0","18","1","1","3","1","die Bewertung der Silben habe ich als sehr schwierig empfunden
Generell ist die Navigation durch die Studie sehr angenehm","0","1","0","null","","","<div class = 'row'><div class = 'column'><img src = 'uspos/1463.bmp' width = '100%;'></div><div class = 'column'><img src = 'category2/CS1.png' width = '70%;'></div></div>","null","pos","CS","CS","2","category2/CS1.png","","","","",""
"","html-keyboard-response","9","226493","0.0-6.0-0.0-0.3","661rb2wdn4","one_one","1","direct_first","1","rt06rk30","0","18","1","1","3","1","die Bewertung der Silben habe ich als sehr schwierig empfunden
Generell ist die Navigation durch die Studie sehr angenehm","0","1","0","null","","","<div class = 'row'><div class = 'column'><img src = 'usneg/1280.bmp' width = '100%;'></div><div class = 'column'><img src = 'category1/CS8.png' width = '70%;'></div></div>","null","neg","CS","CS","1","category1/CS8.png","","","","",""
"","html-keyboard-response","10","229017","0.0-6.0-0.0-0.4","661rb2wdn4","one_one","1","direct_first","1","rt06rk30","0","18","1","1","3","1","die Bewertung der Silben habe ich als sehr schwierig empfunden
Generell ist die Navigation durch die Studie sehr angenehm","0","1","0","null","","","<div class = 'row'><div class = 'column'><img src = 'uspos/1463.bmp' width = '100%;'></div><div class = 'column'><img src = 'category2/CS1.png' width = '70%;'></div></div>","null","pos","CS","CS","2","category2/CS1.png","","","","",""
"","html-keyboard-response","11","231527","0.0-6.0-0.0-0.5","661rb2wdn4","one_one","1","direct_first","1","rt06rk30","0","18","1","1","3","1","die Bewertung der Silben habe ich als sehr schwierig empfunden
Generell ist die Navigation durch die Studie sehr angenehm","0","1","0","null","","","<div class = 'row'><div class = 'column'><img src = 'uspos/5700.bmp' width = '100%;'></div><div class = 'column'><img src = 'category3/CS1.png' width = '70%;'></div></div>","null","pos","CS","CS","3","category3/CS1.png","","","","",""
"","html-keyboard-response","12","234040","0.0-6.0-0.0-0.6","661rb2wdn4","one_one","1","direct_first","1","rt06rk30","0","18","1","1","3","1","die Bewertung der Silben habe ich als sehr schwierig empfunden
Generell ist die Navigation durch die Studie sehr angenehm","0","1","0","null","","","<div class = 'row'><div class = 'column'><img src = 'usneg/1280.bmp' width = '100%;'></div><div class = 'column'><img src = 'category1/CS8.png' width = '70%;'></div></div>","null","neg","CS","CS","1","category1/CS8.png","","","","",""
"","html-keyboard-response","13","236567","0.0-6.0-0.0-0.7","661rb2wdn4","one_one","1","direct_first","1","rt06rk30","0","18","1","1","3","1","die Bewertung der Silben habe ich als sehr schwierig empfunden
Generell ist die Navigation durch die Studie sehr angenehm","0","1","0","null","","","<div class = 'row'><div class = 'column'><img src = 'category3/CS1.png' width = '70%;'></div><div class = 'column'><img src = 'uspos/5700.bmp' width = '100%;'></div></div>","null","pos","CS","CS","3","category3/CS1.png","","","","",""
"","html-keyboard-response","14","239088","0.0-6.0-0.0-0.8","661rb2wdn4","one_one","1","direct_first","1","rt06rk30","0","18","1","1","3","1","die Bewertung der Silben habe ich als sehr schwierig empfunden
Generell ist die Navigation durch die Studie sehr angenehm","0","1","0","null","","","<div class = 'row'><div class = 'column'><img src = 'uspos/1463.bmp' width = '100%;'></div><div class = 'column'><img src = 'category2/CS1.png' width = '70%;'></div></div>","null","pos","CS","CS","2","category2/CS1.png","","","","",""
"","html-keyboard-response","15","241613","0.0-6.0-0.0-0.9","661rb2wdn4","one_one","1","direct_first","1","rt06rk30","0","18","1","1","3","1","die Bewertung der Silben habe ich als sehr schwierig empfunden
Generell ist die Navigation durch die Studie sehr angenehm","0","1","0","null","","","<div class = 'row'><div class = 'column'><img src = 'usneg/3300.bmp' width = '100%;'></div><div class = 'column'><img src = 'category4/CS5.png' width = '70%;'></div></div>","null","neg","CS","CS","4","category4/CS5.png","","","","",""
"","html-keyboard-response","16","244132","0.0-6.0-0.0-0.10","661rb2wdn4","one_one","1","direct_first","1","rt06rk30","0","18","1","1","3","1","die Bewertung der Silben habe ich als sehr schwierig empfunden
Generell ist die Navigation durch die Studie sehr angenehm","0","1","0","null","","","<div class = 'row'><div class = 'column'><img src = 'usneg/1280.bmp' width = '100%;'></div><div class = 'column'><img src = 'category1/CS8.png' width = '70%;'></div></div>","null","neg","CS","CS","1","category1/CS8.png","","","","",""
"","html-keyboard-response","17","246658","0.0-6.0-0.0-0.11","661rb2wdn4","one_one","1","direct_first","1","rt06rk30","0","18","1","1","3","1","die Bewertung der Silben habe ich als sehr schwierig empfunden
Generell ist die Navigation durch die Studie sehr angenehm","0","1","0","null","","","<div class = 'row'><div class = 'column'><img src = 'category3/CS1.png' width = '70%;'></div><div class = 'column'><img src = 'uspos/5700.bmp' width = '100%;'></div></div>","null","pos","CS","CS","3","category3/CS1.png","","","","",""
"","html-keyboard-response","18","249177","0.0-6.0-0.0-0.12","661rb2wdn4","one_one","1","direct_first","1","rt06rk30","0","18","1","1","3","1","die Bewertung der Silben habe ich als sehr schwierig empfunden
Generell ist die Navigation durch die Studie sehr angenehm","0","1","0","null","","","<div class = 'row'><div class = 'column'><img src = 'uspos/1463.bmp' width = '100%;'></div><div class = 'column'><img src = 'category2/CS1.png' width = '70%;'></div></div>","null","pos","CS","CS","2","category2/CS1.png","","","","",""
"","html-keyboard-response","19","251702","0.0-6.0-0.0-0.13","661rb2wdn4","one_one","1","direct_first","1","rt06rk30","0","18","1","1","3","1","die Bewertung der Silben habe ich als sehr schwierig empfunden
Generell ist die Navigation durch die Studie sehr angenehm","0","1","0","null","","","<div class = 'row'><div class = 'column'><img src = 'category1/CS8.png' width = '70%;'></div><div class = 'column'><img src = 'usneg/1280.bmp' width = '100%;'></div></div>","null","neg","CS","CS","1","category1/CS8.png","","","","",""
"","html-keyboard-response","20","254227","0.0-6.0-0.0-0.14","661rb2wdn4","one_one","1","direct_first","1","rt06rk30","0","18","1","1","3","1","die Bewertung der Silben habe ich als sehr schwierig empfunden
Generell ist die Navigation durch die Studie sehr angenehm","0","1","0","null","","","<div class = 'row'><div class = 'column'><img src = 'category2/CS1.png' width = '70%;'></div><div class = 'column'><img src = 'uspos/1463.bmp' width = '100%;'></div></div>","null","pos","CS","CS","2","category2/CS1.png","","","","",""
"","html-keyboard-response","21","256747","0.0-6.0-0.0-0.15","661rb2wdn4","one_one","1","direct_first","1","rt06rk30","0","18","1","1","3","1","die Bewertung der Silben habe ich als sehr schwierig empfunden
Generell ist die Navigation durch die Studie sehr angenehm","0","1","0","null","","","<div class = 'row'><div class = 'column'><img src = 'category4/CS5.png' width = '70%;'></div><div class = 'column'><img src = 'usneg/3300.bmp' width = '100%;'></div></div>","null","neg","CS","CS","4","category4/CS5.png","","","","",""
"","html-keyboard-response","22","259262","0.0-6.0-0.0-0.16","661rb2wdn4","one_one","1","direct_first","1","rt06rk30","0","18","1","1","3","1","die Bewertung der Silben habe ich als sehr schwierig empfunden
Generell ist die Navigation durch die Studie sehr angenehm","0","1","0","null","","","<div class = 'row'><div class = 'column'><img src = 'uspos/5700.bmp' width = '100%;'></div><div class = 'column'><img src = 'category3/CS1.png' width = '70%;'></div></div>","null","pos","CS","CS","3","category3/CS1.png","","","","",""
"","html-keyboard-response","23","261792","0.0-6.0-0.0-0.17","661rb2wdn4","one_one","1","direct_first","1","rt06rk30","0","18","1","1","3","1","die Bewertung der Silben habe ich als sehr schwierig empfunden
Generell ist die Navigation durch die Studie sehr angenehm","0","1","0","null","","","<div class = 'row'><div class = 'column'><img src = 'usneg/3300.bmp' width = '100%;'></div><div class = 'column'><img src = 'category4/CS5.png' width = '70%;'></div></div>","null","neg","CS","CS","4","category4/CS5.png","","","","",""
"","html-keyboard-response","24","264312","0.0-6.0-0.0-0.18","661rb2wdn4","one_one","1","direct_first","1","rt06rk30","0","18","1","1","3","1","die Bewertung der Silben habe ich als sehr schwierig empfunden
Generell ist die Navigation durch die Studie sehr angenehm","0","1","0","null","","","<div class = 'row'><div class = 'column'><img src = 'usneg/1280.bmp' width = '100%;'></div><div class = 'column'><img src = 'category1/CS8.png' width = '70%;'></div></div>","null","neg","CS","CS","1","category1/CS8.png","","","","",""
"","html-keyboard-response","25","266838","0.0-6.0-0.0-0.19","661rb2wdn4","one_one","1","direct_first","1","rt06rk30","0","18","1","1","3","1","die Bewertung der Silben habe ich als sehr schwierig empfunden
Generell ist die Navigation durch die Studie sehr angenehm","0","1","0","null","","","<div class = 'row'><div class = 'column'><img src = 'category4/CS5.png' width = '70%;'></div><div class = 'column'><img src = 'usneg/3300.bmp' width = '100%;'></div></div>","null","neg","CS","CS","4","category4/CS5.png","","","","",""
"","survey-html-form","26","272184","0.0-6.0-1.0","661rb2wdn4","one_one","1","direct_first","1","rt06rk30","0","18","1","1","3","1","die Bewertung der Silben habe ich als sehr schwierig empfunden
Generell ist die Navigation durch die Studie sehr angenehm","0","1","0","4841","","{}","","","","","","","","","","","",""
"","html-keyboard-response","27","276207","0.0-6.0-2.0-0.0","661rb2wdn4","one_one","1","direct_first","1","rt06rk30","0","18","1","1","3","1","die Bewertung der Silben habe ich als sehr schwierig empfunden
Generell ist die Navigation durch die Studie sehr angenehm","0","1","0","null","","","<div class = 'row'><div class = 'column'><img src = 'category1/CS8.png' width = '70%;'></div><div class = 'column'><img src = 'usneg/1280.bmp' width = '100%;'></div></div>","null","neg","CS","CS","1","category1/CS8.png","","","","",""
"","html-keyboard-response","28","278732","0.0-6.0-2.0-0.1","661rb2wdn4","one_one","1","direct_first","1","rt06rk30","0","18","1","1","3","1","die Bewertung der Silben habe ich als sehr schwierig empfunden
Generell ist die Navigation durch die Studie sehr angenehm","0","1","0","null","","","<div class = 'row'><div class = 'column'><img src = 'usneg/3300.bmp' width = '100%;'></div><div class = 'column'><img src = 'category4/CS5.png' width = '70%;'></div></div>","null","neg","CS","CS","4","category4/CS5.png","","","","",""
"","html-keyboard-response","29","281258","0.0-6.0-2.0-0.2","661rb2wdn4","one_one","1","direct_first","1","rt06rk30","0","18","1","1","3","1","die Bewertung der Silben habe ich als sehr schwierig empfunden
Generell ist die Navigation durch die Studie sehr angenehm","0","1","0","null","","","<div class = 'row'><div class = 'column'><img src = 'category1/CS8.png' width = '70%;'></div><div class = 'column'><img src = 'usneg/1280.bmp' width = '100%;'></div></div>","null","neg","CS","CS","1","category1/CS8.png","","","","",""
"","html-keyboard-response","30","283772","0.0-6.0-2.0-0.3","661rb2wdn4","one_one","1","direct_first","1","rt06rk30","0","18","1","1","3","1","die Bewertung der Silben habe ich als sehr schwierig empfunden
Generell ist die Navigation durch die Studie sehr angenehm","0","1","0","null","","","<div class = 'row'><div class = 'column'><img src = 'category3/CS1.png' width = '70%;'></div><div class = 'column'><img src = 'uspos/5700.bmp' width = '100%;'></div></div>","null","pos","CS","CS","3","category3/CS1.png","","","","",""
"","html-keyboard-response","31","286296","0.0-6.0-2.0-0.4","661rb2wdn4","one_one","1","direct_first","1","rt06rk30","0","18","1","1","3","1","die Bewertung der Silben habe ich als sehr schwierig empfunden
Generell ist die Navigation durch die Studie sehr angenehm","0","1","0","null","","","<div class = 'row'><div class = 'column'><img src = 'category2/CS1.png' width = '70%;'></div><div class = 'column'><img src = 'uspos/1463.bmp' width = '100%;'></div></div>","null","pos","CS","CS","2","category2/CS1.png","","","","",""
"","html-keyboard-response","32","288807","0.0-6.0-2.0-0.5","661rb2wdn4","one_one","1","direct_first","1","rt06rk30","0","18","1","1","3","1","die Bewertung der Silben habe ich als sehr schwierig empfunden
Generell ist die Navigation durch die Studie sehr angenehm","0","1","0","null","","","<div class = 'row'><div class = 'column'><img src = 'category4/CS5.png' width = '70%;'></div><div class = 'column'><img src = 'usneg/3300.bmp' width = '100%;'></div></div>","null","neg","CS","CS","4","category4/CS5.png","","","","",""
"","html-keyboard-response","33","291323","0.0-6.0-2.0-0.6","661rb2wdn4","one_one","1","direct_first","1","rt06rk30","0","18","1","1","3","1","die Bewertung der Silben habe ich als sehr schwierig empfunden
Generell ist die Navigation durch die Studie sehr angenehm","0","1","0","null","","","<div class = 'row'><div class = 'column'><img src = 'category2/CS1.png' width = '70%;'></div><div class = 'column'><img src = 'uspos/1463.bmp' width = '100%;'></div></div>","null","pos","CS","CS","2","category2/CS1.png","","","","",""
"","html-keyboard-response","34","293842","0.0-6.0-2.0-0.7","661rb2wdn4","one_one","1","direct_first","1","rt06rk30","0","18","1","1","3","1","die Bewertung der Silben habe ich als sehr schwierig empfunden
Generell ist die Navigation durch die Studie sehr angenehm","0","1","0","null","","","<div class = 'row'><div class = 'column'><img src = 'uspos/5700.bmp' width = '100%;'></div><div class = 'column'><img src = 'category3/CS1.png' width = '70%;'></div></div>","null","pos","CS","CS","3","category3/CS1.png","","","","",""
"","html-keyboard-response","35","296367","0.0-6.0-2.0-0.8","661rb2wdn4","one_one","1","direct_first","1","rt06rk30","0","18","1","1","3","1","die Bewertung der Silben habe ich als sehr schwierig empfunden
Generell ist die Navigation durch die Studie sehr angenehm","0","1","0","null","","","<div class = 'row'><div class = 'column'><img src = 'usneg/1280.bmp' width = '100%;'></div><div class = 'column'><img src = 'category1/CS8.png' width = '70%;'></div></div>","null","neg","CS","CS","1","category1/CS8.png","","","","",""
"","html-keyboard-response","36","298893","0.0-6.0-2.0-0.9","661rb2wdn4","one_one","1","direct_first","1","rt06rk30","0","18","1","1","3","1","die Bewertung der Silben habe ich als sehr schwierig empfunden
Generell ist die Navigation durch die Studie sehr angenehm","0","1","0","null","","","<div class = 'row'><div class = 'column'><img src = 'uspos/5700.bmp' width = '100%;'></div><div class = 'column'><img src = 'category3/CS1.png' width = '70%;'></div></div>","null","pos","CS","CS","3","category3/CS1.png","","","","",""
"","html-keyboard-response","37","301412","0.0-6.0-2.0-0.10","661rb2wdn4","one_one","1","direct_first","1","rt06rk30","0","18","1","1","3","1","die Bewertung der Silben habe ich als sehr schwierig empfunden
Generell ist die Navigation durch die Studie sehr angenehm","0","1","0","null","","","<div class = 'row'><div class = 'column'><img src = 'usneg/1280.bmp' width = '100%;'></div><div class = 'column'><img src = 'category1/CS8.png' width = '70%;'></div></div>","null","neg","CS","CS","1","category1/CS8.png","","","","",""
"","html-keyboard-response","38","303933","0.0-6.0-2.0-0.11","661rb2wdn4","one_one","1","direct_first","1","rt06rk30","0","18","1","1","3","1","die Bewertung der Silben habe ich als sehr schwierig empfunden
Generell ist die Navigation durch die Studie sehr angenehm","0","1","0","null","","","<div class = 'row'><div class = 'column'><img src = 'uspos/5700.bmp' width = '100%;'></div><div class = 'column'><img src = 'category3/CS1.png' width = '70%;'></div></div>","null","pos","CS","CS","3","category3/CS1.png","","","","",""
"","html-keyboard-response","39","306462","0.0-6.0-2.0-0.12","661rb2wdn4","one_one","1","direct_first","1","rt06rk30","0","18","1","1","3","1","die Bewertung der Silben habe ich als sehr schwierig empfunden
Generell ist die Navigation durch die Studie sehr angenehm","0","1","0","null","","","<div class = 'row'><div class = 'column'><img src = 'uspos/1463.bmp' width = '100%;'></div><div class = 'column'><img src = 'category2/CS1.png' width = '70%;'></div></div>","null","pos","CS","CS","2","category2/CS1.png","","","","",""
"","html-keyboard-response","40","308983","0.0-6.0-2.0-0.13","661rb2wdn4","one_one","1","direct_first","1","rt06rk30","0","18","1","1","3","1","die Bewertung der Silben habe ich als sehr schwierig empfunden
Generell ist die Navigation durch die Studie sehr angenehm","0","1","0","null","","","<div class = 'row'><div class = 'column'><img src = 'category1/CS8.png' width = '70%;'></div><div class = 'column'><img src = 'usneg/1280.bmp' width = '100%;'></div></div>","null","neg","CS","CS","1","category1/CS8.png","","","","",""
"","html-keyboard-response","41","311503","0.0-6.0-2.0-0.14","661rb2wdn4","one_one","1","direct_first","1","rt06rk30","0","18","1","1","3","1","die Bewertung der Silben habe ich als sehr schwierig empfunden
Generell ist die Navigation durch die Studie sehr angenehm","0","1","0","null","","","<div class = 'row'><div class = 'column'><img src = 'category4/CS5.png' width = '70%;'></div><div class = 'column'><img src = 'usneg/3300.bmp' width = '100%;'></div></div>","null","neg","CS","CS","4","category4/CS5.png","","","","",""
"","html-keyboard-response","42","314023","0.0-6.0-2.0-0.15","661rb2wdn4","one_one","1","direct_first","1","rt06rk30","0","18","1","1","3","1","die Bewertung der Silben habe ich als sehr schwierig empfunden
Generell ist die Navigation durch die Studie sehr angenehm","0","1","0","null","","","<div class = 'row'><div class = 'column'><img src = 'uspos/1463.bmp' width = '100%;'></div><div class = 'column'><img src = 'category2/CS1.png' width = '70%;'></div></div>","null","pos","CS","CS","2","category2/CS1.png","","","","",""
"","html-keyboard-response","43","316547","0.0-6.0-2.0-0.16","661rb2wdn4","one_one","1","direct_first","1","rt06rk30","0","18","1","1","3","1","die Bewertung der Silben habe ich als sehr schwierig empfunden
Generell ist die Navigation durch die Studie sehr angenehm","0","1","0","null","","","<div class = 'row'><div class = 'column'><img src = 'category4/CS5.png' width = '70%;'></div><div class = 'column'><img src = 'usneg/3300.bmp' width = '100%;'></div></div>","null","neg","CS","CS","4","category4/CS5.png","","","","",""
"","html-keyboard-response","44","319067","0.0-6.0-2.0-0.17","661rb2wdn4","one_one","1","direct_first","1","rt06rk30","0","18","1","1","3","1","die Bewertung der Silben habe ich als sehr schwierig empfunden
Generell ist die Navigation durch die Studie sehr angenehm","0","1","0","null","","","<div class = 'row'><div class = 'column'><img src = 'uspos/5700.bmp' width = '100%;'></div><div class = 'column'><img src = 'category3/CS1.png' width = '70%;'></div></div>","null","pos","CS","CS","3","category3/CS1.png","","","","",""
"","html-keyboard-response","45","321578","0.0-6.0-2.0-0.18","661rb2wdn4","one_one","1","direct_first","1","rt06rk30","0","18","1","1","3","1","die Bewertung der Silben habe ich als sehr schwierig empfunden
Generell ist die Navigation durch die Studie sehr angenehm","0","1","0","null","","","<div class = 'row'><div class = 'column'><img src = 'category4/CS5.png' width = '70%;'></div><div class = 'column'><img src = 'usneg/3300.bmp' width = '100%;'></div></div>","null","neg","CS","CS","4","category4/CS5.png","","","","",""
"","html-keyboard-response","46","324093","0.0-6.0-2.0-0.19","661rb2wdn4","one_one","1","direct_first","1","rt06rk30","0","18","1","1","3","1","die Bewertung der Silben habe ich als sehr schwierig empfunden
Generell ist die Navigation durch die Studie sehr angenehm","0","1","0","null","","","<div class = 'row'><div class = 'column'><img src = 'category2/CS1.png' width = '70%;'></div><div class = 'column'><img src = 'uspos/1463.bmp' width = '100%;'></div></div>","null","pos","CS","CS","2","category2/CS1.png","","","","",""
"","survey-html-form","47","329124","0.0-6.0-3.0","661rb2wdn4","one_one","1","direct_first","1","rt06rk30","0","18","1","1","3","1","die Bewertung der Silben habe ich als sehr schwierig empfunden
Generell ist die Navigation durch die Studie sehr angenehm","0","1","0","4521","","{}","","","","","","","","","","","",""
"","html-keyboard-response","48","333152","0.0-6.0-4.0-0.0","661rb2wdn4","one_one","1","direct_first","1","rt06rk30","0","18","1","1","3","1","die Bewertung der Silben habe ich als sehr schwierig empfunden
Generell ist die Navigation durch die Studie sehr angenehm","0","1","0","null","","","<div class = 'row'><div class = 'column'><img src = 'uspos/5700.bmp' width = '100%;'></div><div class = 'column'><img src = 'category3/CS1.png' width = '70%;'></div></div>","null","pos","CS","CS","3","category3/CS1.png","","","","",""
"","html-keyboard-response","49","335677","0.0-6.0-4.0-0.1","661rb2wdn4","one_one","1","direct_first","1","rt06rk30","0","18","1","1","3","1","die Bewertung der Silben habe ich als sehr schwierig empfunden
Generell ist die Navigation durch die Studie sehr angenehm","0","1","0","null","","","<div class = 'row'><div class = 'column'><img src = 'category4/CS5.png' width = '70%;'></div><div class = 'column'><img src = 'usneg/3300.bmp' width = '100%;'></div></div>","null","neg","CS","CS","4","category4/CS5.png","","","","",""
"","html-keyboard-response","50","338193","0.0-6.0-4.0-0.2","661rb2wdn4","one_one","1","direct_first","1","rt06rk30","0","18","1","1","3","1","die Bewertung der Silben habe ich als sehr schwierig empfunden
Generell ist die Navigation durch die Studie sehr angenehm","0","1","0","null","","","<div class = 'row'><div class = 'column'><img src = 'uspos/1463.bmp' width = '100%;'></div><div class = 'column'><img src = 'category2/CS1.png' width = '70%;'></div></div>","null","pos","CS","CS","2","category2/CS1.png","","","","",""
"","html-keyboard-response","51","340717","0.0-6.0-4.0-0.3","661rb2wdn4","one_one","1","direct_first","1","rt06rk30","0","18","1","1","3","1","die Bewertung der Silben habe ich als sehr schwierig empfunden
Generell ist die Navigation durch die Studie sehr angenehm","0","1","0","null","","","<div class = 'row'><div class = 'column'><img src = 'category4/CS5.png' width = '70%;'></div><div class = 'column'><img src = 'usneg/3300.bmp' width = '100%;'></div></div>","null","neg","CS","CS","4","category4/CS5.png","","","","",""
"","html-keyboard-response","52","343241","0.0-6.0-4.0-0.4","661rb2wdn4","one_one","1","direct_first","1","rt06rk30","0","18","1","1","3","1","die Bewertung der Silben habe ich als sehr schwierig empfunden
Generell ist die Navigation durch die Studie sehr angenehm","0","1","0","null","","","<div class = 'row'><div class = 'column'><img src = 'category2/CS1.png' width = '70%;'></div><div class = 'column'><img src = 'uspos/1463.bmp' width = '100%;'></div></div>","null","pos","CS","CS","2","category2/CS1.png","","","","",""
"","html-keyboard-response","53","345762","0.0-6.0-4.0-0.5","661rb2wdn4","one_one","1","direct_first","1","rt06rk30","0","18","1","1","3","1","die Bewertung der Silben habe ich als sehr schwierig empfunden
Generell ist die Navigation durch die Studie sehr angenehm","0","1","0","null","","","<div class = 'row'><div class = 'column'><img src = 'category3/CS1.png' width = '70%;'></div><div class = 'column'><img src = 'uspos/5700.bmp' width = '100%;'></div></div>","null","pos","CS","CS","3","category3/CS1.png","","","","",""
"","html-keyboard-response","54","348282","0.0-6.0-4.0-0.6","661rb2wdn4","one_one","1","direct_first","1","rt06rk30","0","18","1","1","3","1","die Bewertung der Silben habe ich als sehr schwierig empfunden
Generell ist die Navigation durch die Studie sehr angenehm","0","1","0","null","","","<div class = 'row'><div class = 'column'><img src = 'category1/CS8.png' width = '70%;'></div><div class = 'column'><img src = 'usneg/1280.bmp' width = '100%;'></div></div>","null","neg","CS","CS","1","category1/CS8.png","","","","",""
"","html-keyboard-response","55","350802","0.0-6.0-4.0-0.7","661rb2wdn4","one_one","1","direct_first","1","rt06rk30","0","18","1","1","3","1","die Bewertung der Silben habe ich als sehr schwierig empfunden
Generell ist die Navigation durch die Studie sehr angenehm","0","1","0","null","","","<div class = 'row'><div class = 'column'><img src = 'category3/CS1.png' width = '70%;'></div><div class = 'column'><img src = 'uspos/5700.bmp' width = '100%;'></div></div>","null","pos","CS","CS","3","category3/CS1.png","","","","",""
"","html-keyboard-response","56","353327","0.0-6.0-4.0-0.8","661rb2wdn4","one_one","1","direct_first","1","rt06rk30","0","18","1","1","3","1","die Bewertung der Silben habe ich als sehr schwierig empfunden
Generell ist die Navigation durch die Studie sehr angenehm","0","1","0","null","","","<div class = 'row'><div class = 'column'><img src = 'usneg/1280.bmp' width = '100%;'></div><div class = 'column'><img src = 'category1/CS8.png' width = '70%;'></div></div>","null","neg","CS","CS","1","category1/CS8.png","","","","",""
"","html-keyboard-response","57","355853","0.0-6.0-4.0-0.9","661rb2wdn4","one_one","1","direct_first","1","rt06rk30","0","18","1","1","3","1","die Bewertung der Silben habe ich als sehr schwierig empfunden
Generell ist die Navigation durch die Studie sehr angenehm","0","1","0","null","","","<div class = 'row'><div class = 'column'><img src = 'usneg/3300.bmp' width = '100%;'></div><div class = 'column'><img src = 'category4/CS5.png' width = '70%;'></div></div>","null","neg","CS","CS","4","category4/CS5.png","","","","",""
"","html-keyboard-response","58","358374","0.0-6.0-4.0-0.10","661rb2wdn4","one_one","1","direct_first","1","rt06rk30","0","18","1","1","3","1","die Bewertung der Silben habe ich als sehr schwierig empfunden
Generell ist die Navigation durch die Studie sehr angenehm","0","1","0","null","","","<div class = 'row'><div class = 'column'><img src = 'category3/CS1.png' width = '70%;'></div><div class = 'column'><img src = 'uspos/5700.bmp' width = '100%;'></div></div>","null","pos","CS","CS","3","category3/CS1.png","","","","",""
"","html-keyboard-response","59","360894","0.0-6.0-4.0-0.11","661rb2wdn4","one_one","1","direct_first","1","rt06rk30","0","18","1","1","3","1","die Bewertung der Silben habe ich als sehr schwierig empfunden
Generell ist die Navigation durch die Studie sehr angenehm","0","1","0","null","","","<div class = 'row'><div class = 'column'><img src = 'usneg/1280.bmp' width = '100%;'></div><div class = 'column'><img src = 'category1/CS8.png' width = '70%;'></div></div>","null","neg","CS","CS","1","category1/CS8.png","","","","",""
"","html-keyboard-response","60","363417","0.0-6.0-4.0-0.12","661rb2wdn4","one_one","1","direct_first","1","rt06rk30","0","18","1","1","3","1","die Bewertung der Silben habe ich als sehr schwierig empfunden
Generell ist die Navigation durch die Studie sehr angenehm","0","1","0","null","","","<div class = 'row'><div class = 'column'><img src = 'usneg/3300.bmp' width = '100%;'></div><div class = 'column'><img src = 'category4/CS5.png' width = '70%;'></div></div>","null","neg","CS","CS","4","category4/CS5.png","","","","",""
"","html-keyboard-response","61","365933","0.0-6.0-4.0-0.13","661rb2wdn4","one_one","1","direct_first","1","rt06rk30","0","18","1","1","3","1","die Bewertung der Silben habe ich als sehr schwierig empfunden
Generell ist die Navigation durch die Studie sehr angenehm","0","1","0","null","","","<div class = 'row'><div class = 'column'><img src = 'category1/CS8.png' width = '70%;'></div><div class = 'column'><img src = 'usneg/1280.bmp' width = '100%;'></div></div>","null","neg","CS","CS","1","category1/CS8.png","","","","",""
"","html-keyboard-response","62","368457","0.0-6.0-4.0-0.14","661rb2wdn4","one_one","1","direct_first","1","rt06rk30","0","18","1","1","3","1","die Bewertung der Silben habe ich als sehr schwierig empfunden
Generell ist die Navigation durch die Studie sehr angenehm","0","1","0","null","","","<div class = 'row'><div class = 'column'><img src = 'uspos/1463.bmp' width = '100%;'></div><div class = 'column'><img src = 'category2/CS1.png' width = '70%;'></div></div>","null","pos","CS","CS","2","category2/CS1.png","","","","",""
"","html-keyboard-response","63","370973","0.0-6.0-4.0-0.15","661rb2wdn4","one_one","1","direct_first","1","rt06rk30","0","18","1","1","3","1","die Bewertung der Silben habe ich als sehr schwierig empfunden
Generell ist die Navigation durch die Studie sehr angenehm","0","1","0","null","","","<div class = 'row'><div class = 'column'><img src = 'usneg/3300.bmp' width = '100%;'></div><div class = 'column'><img src = 'category4/CS5.png' width = '70%;'></div></div>","null","neg","CS","CS","4","category4/CS5.png","","","","",""
"","html-keyboard-response","64","373492","0.0-6.0-4.0-0.16","661rb2wdn4","one_one","1","direct_first","1","rt06rk30","0","18","1","1","3","1","die Bewertung der Silben habe ich als sehr schwierig empfunden
Generell ist die Navigation durch die Studie sehr angenehm","0","1","0","null","","","<div class = 'row'><div class = 'column'><img src = 'category3/CS1.png' width = '70%;'></div><div class = 'column'><img src = 'uspos/5700.bmp' width = '100%;'></div></div>","null","pos","CS","CS","3","category3/CS1.png","","","","",""
"","html-keyboard-response","65","376022","0.0-6.0-4.0-0.17","661rb2wdn4","one_one","1","direct_first","1","rt06rk30","0","18","1","1","3","1","die Bewertung der Silben habe ich als sehr schwierig empfunden
Generell ist die Navigation durch die Studie sehr angenehm","0","1","0","null","","","<div class = 'row'><div class = 'column'><img src = 'uspos/1463.bmp' width = '100%;'></div><div class = 'column'><img src = 'category2/CS1.png' width = '70%;'></div></div>","null","pos","CS","CS","2","category2/CS1.png","","","","",""
"","html-keyboard-response","66","378542","0.0-6.0-4.0-0.18","661rb2wdn4","one_one","1","direct_first","1","rt06rk30","0","18","1","1","3","1","die Bewertung der Silben habe ich als sehr schwierig empfunden
Generell ist die Navigation durch die Studie sehr angenehm","0","1","0","null","","","<div class = 'row'><div class = 'column'><img src = 'usneg/1280.bmp' width = '100%;'></div><div class = 'column'><img src = 'category1/CS8.png' width = '70%;'></div></div>","null","neg","CS","CS","1","category1/CS8.png","","","","",""
"","html-keyboard-response","67","381063","0.0-6.0-4.0-0.19","661rb2wdn4","one_one","1","direct_first","1","rt06rk30","0","18","1","1","3","1","die Bewertung der Silben habe ich als sehr schwierig empfunden
Generell ist die Navigation durch die Studie sehr angenehm","0","1","0","null","","","<div class = 'row'><div class = 'column'><img src = 'category2/CS1.png' width = '70%;'></div><div class = 'column'><img src = 'uspos/1463.bmp' width = '100%;'></div></div>","null","pos","CS","CS","2","category2/CS1.png","","","","",""
"","survey-html-form","68","383377","0.0-6.0-5.0","661rb2wdn4","one_one","1","direct_first","1","rt06rk30","0","18","1","1","3","1","die Bewertung der Silben habe ich als sehr schwierig empfunden
Generell ist die Navigation durch die Studie sehr angenehm","0","1","0","1804","","{}","","","","","","","","","","","",""
"","html-keyboard-response","69","387408","0.0-6.0-6.0-0.0","661rb2wdn4","one_one","1","direct_first","1","rt06rk30","0","18","1","1","3","1","die Bewertung der Silben habe ich als sehr schwierig empfunden
Generell ist die Navigation durch die Studie sehr angenehm","0","1","0","null","","","<div class = 'row'><div class = 'column'><img src = 'category3/CS1.png' width = '70%;'></div><div class = 'column'><img src = 'uspos/5700.bmp' width = '100%;'></div></div>","null","pos","CS","CS","3","category3/CS1.png","","","","",""
"","html-keyboard-response","70","389933","0.0-6.0-6.0-0.1","661rb2wdn4","one_one","1","direct_first","1","rt06rk30","0","18","1","1","3","1","die Bewertung der Silben habe ich als sehr schwierig empfunden
Generell ist die Navigation durch die Studie sehr angenehm","0","1","0","null","","","<div class = 'row'><div class = 'column'><img src = 'usneg/3300.bmp' width = '100%;'></div><div class = 'column'><img src = 'category4/CS5.png' width = '70%;'></div></div>","null","neg","CS","CS","4","category4/CS5.png","","","","",""
"","html-keyboard-response","71","392453","0.0-6.0-6.0-0.2","661rb2wdn4","one_one","1","direct_first","1","rt06rk30","0","18","1","1","3","1","die Bewertung der Silben habe ich als sehr schwierig empfunden
Generell ist die Navigation durch die Studie sehr angenehm","0","1","0","null","","","<div class = 'row'><div class = 'column'><img src = 'category2/CS1.png' width = '70%;'></div><div class = 'column'><img src = 'uspos/1463.bmp' width = '100%;'></div></div>","null","pos","CS","CS","2","category2/CS1.png","","","","",""
"","html-keyboard-response","72","394972","0.0-6.0-6.0-0.3","661rb2wdn4","one_one","1","direct_first","1","rt06rk30","0","18","1","1","3","1","die Bewertung der Silben habe ich als sehr schwierig empfunden
Generell ist die Navigation durch die Studie sehr angenehm","0","1","0","null","","","<div class = 'row'><div class = 'column'><img src = 'usneg/1280.bmp' width = '100%;'></div><div class = 'column'><img src = 'category1/CS8.png' width = '70%;'></div></div>","null","neg","CS","CS","1","category1/CS8.png","","","","",""
"","html-keyboard-response","73","397493","0.0-6.0-6.0-0.4","661rb2wdn4","one_one","1","direct_first","1","rt06rk30","0","18","1","1","3","1","die Bewertung der Silben habe ich als sehr schwierig empfunden
Generell ist die Navigation durch die Studie sehr angenehm","0","1","0","null","","","<div class = 'row'><div class = 'column'><img src = 'category3/CS1.png' width = '70%;'></div><div class = 'column'><img src = 'uspos/5700.bmp' width = '100%;'></div></div>","null","pos","CS","CS","3","category3/CS1.png","","","","",""
"","html-keyboard-response","74","400022","0.0-6.0-6.0-0.5","661rb2wdn4","one_one","1","direct_first","1","rt06rk30","0","18","1","1","3","1","die Bewertung der Silben habe ich als sehr schwierig empfunden
Generell ist die Navigation durch die Studie sehr angenehm","0","1","0","null","","","<div class = 'row'><div class = 'column'><img src = 'category2/CS1.png' width = '70%;'></div><div class = 'column'><img src = 'uspos/1463.bmp' width = '100%;'></div></div>","null","pos","CS","CS","2","category2/CS1.png","","","","",""
"","html-keyboard-response","75","402542","0.0-6.0-6.0-0.6","661rb2wdn4","one_one","1","direct_first","1","rt06rk30","0","18","1","1","3","1","die Bewertung der Silben habe ich als sehr schwierig empfunden
Generell ist die Navigation durch die Studie sehr angenehm","0","1","0","null","","","<div class = 'row'><div class = 'column'><img src = 'category1/CS8.png' width = '70%;'></div><div class = 'column'><img src = 'usneg/1280.bmp' width = '100%;'></div></div>","null","neg","CS","CS","1","category1/CS8.png","","","","",""
"","html-keyboard-response","76","405063","0.0-6.0-6.0-0.7","661rb2wdn4","one_one","1","direct_first","1","rt06rk30","0","18","1","1","3","1","die Bewertung der Silben habe ich als sehr schwierig empfunden
Generell ist die Navigation durch die Studie sehr angenehm","0","1","0","null","","","<div class = 'row'><div class = 'column'><img src = 'uspos/1463.bmp' width = '100%;'></div><div class = 'column'><img src = 'category2/CS1.png' width = '70%;'></div></div>","null","pos","CS","CS","2","category2/CS1.png","","","","",""
"","html-keyboard-response","77","407587","0.0-6.0-6.0-0.8","661rb2wdn4","one_one","1","direct_first","1","rt06rk30","0","18","1","1","3","1","die Bewertung der Silben habe ich als sehr schwierig empfunden
Generell ist die Navigation durch die Studie sehr angenehm","0","1","0","null","","","<div class = 'row'><div class = 'column'><img src = 'usneg/1280.bmp' width = '100%;'></div><div class = 'column'><img src = 'category1/CS8.png' width = '70%;'></div></div>","null","neg","CS","CS","1","category1/CS8.png","","","","",""
"","html-keyboard-response","78","410112","0.0-6.0-6.0-0.9","661rb2wdn4","one_one","1","direct_first","1","rt06rk30","0","18","1","1","3","1","die Bewertung der Silben habe ich als sehr schwierig empfunden
Generell ist die Navigation durch die Studie sehr angenehm","0","1","0","null","","","<div class = 'row'><div class = 'column'><img src = 'usneg/3300.bmp' width = '100%;'></div><div class = 'column'><img src = 'category4/CS5.png' width = '70%;'></div></div>","null","neg","CS","CS","4","category4/CS5.png","","","","",""
"","html-keyboard-response","79","412633","0.0-6.0-6.0-0.10","661rb2wdn4","one_one","1","direct_first","1","rt06rk30","0","18","1","1","3","1","die Bewertung der Silben habe ich als sehr schwierig empfunden
Generell ist die Navigation durch die Studie sehr angenehm","0","1","0","null","","","<div class = 'row'><div class = 'column'><img src = 'category2/CS1.png' width = '70%;'></div><div class = 'column'><img src = 'uspos/1463.bmp' width = '100%;'></div></div>","null","pos","CS","CS","2","category2/CS1.png","","","","",""
"","html-keyboard-response","80","415152","0.0-6.0-6.0-0.11","661rb2wdn4","one_one","1","direct_first","1","rt06rk30","0","18","1","1","3","1","die Bewertung der Silben habe ich als sehr schwierig empfunden
Generell ist die Navigation durch die Studie sehr angenehm","0","1","0","null","","","<div class = 'row'><div class = 'column'><img src = 'usneg/3300.bmp' width = '100%;'></div><div class = 'column'><img src = 'category4/CS5.png' width = '70%;'></div></div>","null","neg","CS","CS","4","category4/CS5.png","","","","",""
"","html-keyboard-response","81","417673","0.0-6.0-6.0-0.12","661rb2wdn4","one_one","1","direct_first","1","rt06rk30","0","18","1","1","3","1","die Bewertung der Silben habe ich als sehr schwierig empfunden
Generell ist die Navigation durch die Studie sehr angenehm","0","1","0","null","","","<div class = 'row'><div class = 'column'><img src = 'category1/CS8.png' width = '70%;'></div><div class = 'column'><img src = 'usneg/1280.bmp' width = '100%;'></div></div>","null","neg","CS","CS","1","category1/CS8.png","","","","",""
"","html-keyboard-response","82","420192","0.0-6.0-6.0-0.13","661rb2wdn4","one_one","1","direct_first","1","rt06rk30","0","18","1","1","3","1","die Bewertung der Silben habe ich als sehr schwierig empfunden
Generell ist die Navigation durch die Studie sehr angenehm","0","1","0","null","","","<div class = 'row'><div class = 'column'><img src = 'uspos/5700.bmp' width = '100%;'></div><div class = 'column'><img src = 'category3/CS1.png' width = '70%;'></div></div>","null","pos","CS","CS","3","category3/CS1.png","","","","",""
"","html-keyboard-response","83","422707","0.0-6.0-6.0-0.14","661rb2wdn4","one_one","1","direct_first","1","rt06rk30","0","18","1","1","3","1","die Bewertung der Silben habe ich als sehr schwierig empfunden
Generell ist die Navigation durch die Studie sehr angenehm","0","1","0","null","","","<div class = 'row'><div class = 'column'><img src = 'category4/CS5.png' width = '70%;'></div><div class = 'column'><img src = 'usneg/3300.bmp' width = '100%;'></div></div>","null","neg","CS","CS","4","category4/CS5.png","","","","",""
"","html-keyboard-response","84","425222","0.0-6.0-6.0-0.15","661rb2wdn4","one_one","1","direct_first","1","rt06rk30","0","18","1","1","3","1","die Bewertung der Silben habe ich als sehr schwierig empfunden
Generell ist die Navigation durch die Studie sehr angenehm","0","1","0","null","","","<div class = 'row'><div class = 'column'><img src = 'category3/CS1.png' width = '70%;'></div><div class = 'column'><img src = 'uspos/5700.bmp' width = '100%;'></div></div>","null","pos","CS","CS","3","category3/CS1.png","","","","",""
"","html-keyboard-response","85","427742","0.0-6.0-6.0-0.16","661rb2wdn4","one_one","1","direct_first","1","rt06rk30","0","18","1","1","3","1","die Bewertung der Silben habe ich als sehr schwierig empfunden
Generell ist die Navigation durch die Studie sehr angenehm","0","1","0","null","","","<div class = 'row'><div class = 'column'><img src = 'usneg/3300.bmp' width = '100%;'></div><div class = 'column'><img src = 'category4/CS5.png' width = '70%;'></div></div>","null","neg","CS","CS","4","category4/CS5.png","","","","",""
"","html-keyboard-response","86","430272","0.0-6.0-6.0-0.17","661rb2wdn4","one_one","1","direct_first","1","rt06rk30","0","18","1","1","3","1","die Bewertung der Silben habe ich als sehr schwierig empfunden
Generell ist die Navigation durch die Studie sehr angenehm","0","1","0","null","","","<div class = 'row'><div class = 'column'><img src = 'category1/CS8.png' width = '70%;'></div><div class = 'column'><img src = 'usneg/1280.bmp' width = '100%;'></div></div>","null","neg","CS","CS","1","category1/CS8.png","","","","",""
"","html-keyboard-response","87","432812","0.0-6.0-6.0-0.18","661rb2wdn4","one_one","1","direct_first","1","rt06rk30","0","18","1","1","3","1","die Bewertung der Silben habe ich als sehr schwierig empfunden
Generell ist die Navigation durch die Studie sehr angenehm","0","1","0","null","","","<div class = 'row'><div class = 'column'><img src = 'uspos/5700.bmp' width = '100%;'></div><div class = 'column'><img src = 'category3/CS1.png' width = '70%;'></div></div>","null","pos","CS","CS","3","category3/CS1.png","","","","",""
"","html-keyboard-response","88","435352","0.0-6.0-6.0-0.19","661rb2wdn4","one_one","1","direct_first","1","rt06rk30","0","18","1","1","3","1","die Bewertung der Silben habe ich als sehr schwierig empfunden
Generell ist die Navigation durch die Studie sehr angenehm","0","1","0","null","","","<div class = 'row'><div class = 'column'><img src = 'uspos/1463.bmp' width = '100%;'></div><div class = 'column'><img src = 'category2/CS1.png' width = '70%;'></div></div>","null","pos","CS","CS","2","category2/CS1.png","","","","",""
"","survey-html-form","89","446976","0.0-7.0","661rb2wdn4","one_one","1","direct_first","1","rt06rk30","0","18","1","1","3","1","die Bewertung der Silben habe ich als sehr schwierig empfunden
Generell ist die Navigation durch die Studie sehr angenehm","0","1","0","11103","","{}","","","","","","","","","","","",""
"","image-slider-response","90","456087","0.0-8.0-0.0","661rb2wdn4","one_one","1","direct_first","1","rt06rk30","0","18","1","1","3","1","die Bewertung der Silben habe ich als sehr schwierig empfunden
Generell ist die Navigation durch die Studie sehr angenehm","0","1","0","7102","","","","","pos","CS","CS","2","category2/CS1.png","56","targets/8.png","direct","",""
"","image-slider-response","91","464159","0.0-8.0-0.1","661rb2wdn4","one_one","1","direct_first","1","rt06rk30","0","18","1","1","3","1","die Bewertung der Silben habe ich als sehr schwierig empfunden
Generell ist die Navigation durch die Studie sehr angenehm","0","1","0","8070","","","","","neg","GS","abstract","1","category1/ma.png","22","targets/17.png","direct","",""
"","image-slider-response","92","467339","0.0-8.0-0.2","661rb2wdn4","one_one","1","direct_first","1","rt06rk30","0","18","1","1","3","1","die Bewertung der Silben habe ich als sehr schwierig empfunden
Generell ist die Navigation durch die Studie sehr angenehm","0","1","0","3178","","","","","neg","GS","GSnew","4","category4/GS2.png","-93","targets/33.png","direct","",""
"","image-slider-response","93","470506","0.0-8.0-0.3","661rb2wdn4","one_one","1","direct_first","1","rt06rk30","0","18","1","1","3","1","die Bewertung der Silben habe ich als sehr schwierig empfunden
Generell ist die Navigation durch die Studie sehr angenehm","0","1","0","3165","","","","","neg","GS","GSold","4","category4/CS6.png","-67","targets/28.png","direct","",""
"","image-slider-response","94","476307","0.0-8.0-0.4","661rb2wdn4","one_one","1","direct_first","1","rt06rk30","0","18","1","1","3","1","die Bewertung der Silben habe ich als sehr schwierig empfunden
Generell ist die Navigation durch die Studie sehr angenehm","0","1","0","5800","","","","","neg","GS","GSold","1","category1/CS3.png","-21","targets/7.png","direct","",""
"","image-slider-response","95","480877","0.0-8.0-0.5","661rb2wdn4","one_one","1","direct_first","1","rt06rk30","0","18","1","1","3","1","die Bewertung der Silben habe ich als sehr schwierig empfunden
Generell ist die Navigation durch die Studie sehr angenehm","0","1","0","4567","","","","","neg","GS","GSnew","1","category1/GS1.png","-30","targets/14.png","direct","",""
"","image-slider-response","96","486510","0.0-8.0-0.6","661rb2wdn4","one_one","1","direct_first","1","rt06rk30","0","18","1","1","3","1","die Bewertung der Silben habe ich als sehr schwierig empfunden
Generell ist die Navigation durch die Studie sehr angenehm","0","1","0","5633","","","","","pos","GS","GSold","2","category2/CS4.png","33","targets/43.png","direct","",""
"","image-slider-response","97","490143","0.0-8.0-0.7","661rb2wdn4","one_one","1","direct_first","1","rt06rk30","0","18","1","1","3","1","die Bewertung der Silben habe ich als sehr schwierig empfunden
Generell ist die Navigation durch die Studie sehr angenehm","0","1","0","3630","","","","","pos","GS","abstract","2","category2/men.png","87","targets/5.png","direct","",""
"","image-slider-response","98","494555","0.0-8.0-0.8","661rb2wdn4","one_one","1","direct_first","1","rt06rk30","0","18","1","1","3","1","die Bewertung der Silben habe ich als sehr schwierig empfunden
Generell ist die Navigation durch die Studie sehr angenehm","0","1","0","4411","","","","","neg","GS","GSold","1","category1/CS5.png","-25","targets/45.png","direct","",""
"","image-slider-response","99","497139","0.0-8.0-0.9","661rb2wdn4","one_one","1","direct_first","1","rt06rk30","0","18","1","1","3","1","die Bewertung der Silben habe ich als sehr schwierig empfunden
Generell ist die Navigation durch die Studie sehr angenehm","0","1","0","2580","","","","","pos","GS","GSnew","2","category2/GS3.png","27","targets/9.png","direct","",""
"","image-slider-response","100","499805","0.0-8.0-0.10","661rb2wdn4","one_one","1","direct_first","1","rt06rk30","0","18","1","1","3","1","die Bewertung der Silben habe ich als sehr schwierig empfunden
Generell ist die Navigation durch die Studie sehr angenehm","0","1","0","2665","","","","","pos","GS","GSold","2","category2/CS9.png","56","targets/12.png","direct","",""
"","image-slider-response","101","503576","0.0-8.0-0.11","661rb2wdn4","one_one","1","direct_first","1","rt06rk30","0","18","1","1","3","1","die Bewertung der Silben habe ich als sehr schwierig empfunden
Generell ist die Navigation durch die Studie sehr angenehm","0","1","0","3769","","","","","pos","CS","CS","3","category3/CS1.png","61","targets/44.png","direct","",""
"","image-slider-response","102","506026","0.0-8.0-0.12","661rb2wdn4","one_one","1","direct_first","1","rt06rk30","0","18","1","1","3","1","die Bewertung der Silben habe ich als sehr schwierig empfunden
Generell ist die Navigation durch die Studie sehr angenehm","0","1","0","2448","","","","","neg","GS","GSnew","4","category4/GS1.png","-48","targets/13.png","direct","",""
"","image-slider-response","103","509315","0.0-8.0-0.13","661rb2wdn4","one_one","1","direct_first","1","rt06rk30","0","18","1","1","3","1","die Bewertung der Silben habe ich als sehr schwierig empfunden
Generell ist die Navigation durch die Studie sehr angenehm","0","1","0","3286","","","","","pos","GS","GSnew","2","category2/GS1.png","-37","targets/21.png","direct","",""
"","image-slider-response","104","512256","0.0-8.0-0.14","661rb2wdn4","one_one","1","direct_first","1","rt06rk30","0","18","1","1","3","1","die Bewertung der Silben habe ich als sehr schwierig empfunden
Generell ist die Navigation durch die Studie sehr angenehm","0","1","0","2940","","","","","pos","GS","GSold","2","category2/CS8.png","30","targets/16.png","direct","",""
"","image-slider-response","105","514993","0.0-8.0-0.15","661rb2wdn4","one_one","1","direct_first","1","rt06rk30","0","18","1","1","3","1","die Bewertung der Silben habe ich als sehr schwierig empfunden
Generell ist die Navigation durch die Studie sehr angenehm","0","1","0","2735","","","","","neg","GS","GSnew","4","category4/GS3.png","-100","targets/1.png","direct","",""
"","image-slider-response","106","517410","0.0-8.0-0.16","661rb2wdn4","one_one","1","direct_first","1","rt06rk30","0","18","1","1","3","1","die Bewertung der Silben habe ich als sehr schwierig empfunden
Generell ist die Navigation durch die Studie sehr angenehm","0","1","0","2415","","","","","pos","GS","abstract","3","category3/wang.png","100","targets/3.png","direct","",""
"","image-slider-response","107","519556","0.0-8.0-0.17","661rb2wdn4","one_one","1","direct_first","1","rt06rk30","0","18","1","1","3","1","die Bewertung der Silben habe ich als sehr schwierig empfunden
Generell ist die Navigation durch die Studie sehr angenehm","0","1","0","2143","","","","","pos","GS","GSold","3","category3/CS2.png","28","targets/19.png","direct","",""
"","image-slider-response","108","522759","0.0-8.0-0.18","661rb2wdn4","one_one","1","direct_first","1","rt06rk30","0","18","1","1","3","1","die Bewertung der Silben habe ich als sehr schwierig empfunden
Generell ist die Navigation durch die Studie sehr angenehm","0","1","0","3202","","","","","neg","CS","CS","4","category4/CS5.png","-100","targets/25.png","direct","",""
"","image-slider-response","109","524619","0.0-8.0-0.19","661rb2wdn4","one_one","1","direct_first","1","rt06rk30","0","18","1","1","3","1","die Bewertung der Silben habe ich als sehr schwierig empfunden
Generell ist die Navigation durch die Studie sehr angenehm","0","1","0","1857","","","","","neg","GS","GSold","1","category1/CS2.png","-54","targets/11.png","direct","",""
"","image-slider-response","110","526575","0.0-8.0-0.20","661rb2wdn4","one_one","1","direct_first","1","rt06rk30","0","18","1","1","3","1","die Bewertung der Silben habe ich als sehr schwierig empfunden
Generell ist die Navigation durch die Studie sehr angenehm","0","1","0","1954","","","","","neg","GS","GSnew","1","category1/GS3.png","-11","targets/37.png","direct","",""
"","image-slider-response","111","528474","0.0-8.0-0.21","661rb2wdn4","one_one","1","direct_first","1","rt06rk30","0","18","1","1","3","1","die Bewertung der Silben habe ich als sehr schwierig empfunden
Generell ist die Navigation durch die Studie sehr angenehm","0","1","0","1898","","","","","neg","GS","abstract","4","category4/lin.png","-34","targets/15.png","direct","",""
"","image-slider-response","112","530395","0.0-8.0-0.22","661rb2wdn4","one_one","1","direct_first","1","rt06rk30","0","18","1","1","3","1","die Bewertung der Silben habe ich als sehr schwierig empfunden
Generell ist die Navigation durch die Studie sehr angenehm","0","1","0","1919","","","","","pos","GS","GSnew","3","category3/GS3.png","41","targets/20.png","direct","",""
"","image-slider-response","113","532928","0.0-8.0-0.23","661rb2wdn4","one_one","1","direct_first","1","rt06rk30","0","18","1","1","3","1","die Bewertung der Silben habe ich als sehr schwierig empfunden
Generell ist die Navigation durch die Studie sehr angenehm","0","1","0","2530","","","","","neg","GS","GSold","4","category4/CS10.png","-15","targets/30.png","direct","",""
"","image-slider-response","114","535257","0.0-8.0-0.24","661rb2wdn4","one_one","1","direct_first","1","rt06rk30","0","18","1","1","3","1","die Bewertung der Silben habe ich als sehr schwierig empfunden
Generell ist die Navigation durch die Studie sehr angenehm","0","1","0","2328","","","","","neg","GS","GSold","4","category4/CS1.png","2","targets/6.png","direct","",""
"","image-slider-response","115","542211","0.0-8.0-0.25","661rb2wdn4","one_one","1","direct_first","1","rt06rk30","0","18","1","1","3","1","die Bewertung der Silben habe ich als sehr schwierig empfunden
Generell ist die Navigation durch die Studie sehr angenehm","0","1","0","6952","","","","","pos","GS","GSnew","3","category3/GS2.png","-20","targets/10.png","direct","",""
"","image-slider-response","116","544029","0.0-8.0-0.26","661rb2wdn4","one_one","1","direct_first","1","rt06rk30","0","18","1","1","3","1","die Bewertung der Silben habe ich als sehr schwierig empfunden
Generell ist die Navigation durch die Studie sehr angenehm","0","1","0","1815","","","","","pos","GS","GSnew","3","category3/GS1.png","30","targets/4.png","direct","",""
"","image-slider-response","117","546644","0.0-8.0-0.27","661rb2wdn4","one_one","1","direct_first","1","rt06rk30","0","18","1","1","3","1","die Bewertung der Silben habe ich als sehr schwierig empfunden
Generell ist die Navigation durch die Studie sehr angenehm","0","1","0","2613","","","","","pos","GS","GSnew","2","category2/GS2.png","14","targets/40.png","direct","",""
"","image-slider-response","118","549094","0.0-8.0-0.28","661rb2wdn4","one_one","1","direct_first","1","rt06rk30","0","18","1","1","3","1","die Bewertung der Silben habe ich als sehr schwierig empfunden
Generell ist die Navigation durch die Studie sehr angenehm","0","1","0","2448","","","","","neg","CS","CS","1","category1/CS8.png","-56","targets/32.png","direct","",""
"","image-slider-response","119","551377","0.0-8.0-0.29","661rb2wdn4","one_one","1","direct_first","1","rt06rk30","0","18","1","1","3","1","die Bewertung der Silben habe ich als sehr schwierig empfunden
Generell ist die Navigation durch die Studie sehr angenehm","0","1","0","2279","","","","","pos","GS","GSold","3","category3/CS10.png","-38","targets/2.png","direct","",""
"","image-slider-response","120","553305","0.0-8.0-0.30","661rb2wdn4","one_one","1","direct_first","1","rt06rk30","0","18","1","1","3","1","die Bewertung der Silben habe ich als sehr schwierig empfunden
Generell ist die Navigation durch die Studie sehr angenehm","0","1","0","1924","","","","","neg","GS","GSnew","1","category1/GS2.png","-15","targets/26.png","direct","",""
"","image-slider-response","121","555177","0.0-8.0-0.31","661rb2wdn4","one_one","1","direct_first","1","rt06rk30","0","18","1","1","3","1","die Bewertung der Silben habe ich als sehr schwierig empfunden
Generell ist die Navigation durch die Studie sehr angenehm","0","1","0","1868","","","","","pos","GS","GSold","3","category3/CS4.png","28","targets/34.png","direct","",""
"","html-keyboard-response","122","612637","0.0-9.0","661rb2wdn4","one_one","1","direct_first","1","rt06rk30","0","18","1","1","3","1","die Bewertung der Silben habe ich als sehr schwierig empfunden
Generell ist die Navigation durch die Studie sehr angenehm","0","1","0","57458","","","<p>Sie sehen nun die chinesischen Zeichen nur ganz kurz. Danach sehen Sie die jeweilige Aussprache der Zeichen als Silbe auf dem Bildschrim. Ihre Aufgabe ist es, fr jede Silbe anzugeben, ob diese etwas angenehmes, oder unangenehmes bedeuten knnte. Verlassen Sie sich hier vor allem auf Ihre Intuition.<br><br>Die Zeichen werden nur zur Orientierung dargestellt, beachten Sie sie deshalb nicht. Konzentrieren Sie sich vor allem auf die Silben. <br>Reagieren Sie mit folgenden zwei Tasten: <br><br><b>'D' </b> wenn die Silbe etwas <b>unangenehmes</b> bedeuten knnte. <br><b>'K'</b> wenn die Silbe etwas <b>angenehmes</b> bedeuten knnte. <br><br>Bitte legen Sie nun den Zeigefinger der linken Hand auf die Taste 'D' und den Zeigefinger der rechten Hand auf die Taste 'K'. <br>Reagieren Sie auf jede Silbe so schnell wie mglich. Uns interessiert Ihre spontane Reaktion. <br> <br> <br>Drcken Sie 'D' oder 'K', um die nchste Aufgabe zu starten. </p>","75","","","","","","","","","",""
"","html-keyboard-response","123","615654","0.0-10.0-0.0","661rb2wdn4","one_one","1","direct_first","1","rt06rk30","0","18","1","1","3","1","die Bewertung der Silben habe ich als sehr schwierig empfunden
Generell ist die Navigation durch die Studie sehr angenehm","0","1","0","null","","","<div style=""font-size:60px;"">+</div>","null","","","","","","","","","",""
"","html-keyboard-response","124","615753","0.0-10.0-1.0","661rb2wdn4","one_one","1","direct_first","1","rt06rk30","0","18","1","1","3","1","die Bewertung der Silben habe ich als sehr schwierig empfunden
Generell ist die Navigation durch die Studie sehr angenehm","0","1","0","null","","","<img src = 'category3/CS2.png' width = '100%;'>","null","","","","","","","","","",""
"","html-keyboard-response","125","616022","0.0-10.0-2.0","661rb2wdn4","one_one","1","direct_first","1","rt06rk30","0","18","1","1","3","1","die Bewertung der Silben habe ich als sehr schwierig empfunden
Generell ist die Navigation durch die Studie sehr angenehm","0","1","0","null","","","<img src = 'targets/19.png' width = '100%;'>","null","","","","","","","","","",""
"","html-keyboard-response","126","623199","0.0-10.0-3.0","661rb2wdn4","one_one","1","direct_first","1","rt06rk30","0","18","1","1","3","1","die Bewertung der Silben habe ich als sehr schwierig empfunden
Generell ist die Navigation durch die Studie sehr angenehm","0","1","0","7175","","","<img src = 'targets/mask.png' width = '100%;'>","75","pos","GS","GSold","3","category3/CS2.png","","targets/19.png","indirect","1","0"
"","html-keyboard-response","127","624717","0.0-10.0-0.1","661rb2wdn4","one_one","1","direct_first","1","rt06rk30","0","18","1","1","3","1","die Bewertung der Silben habe ich als sehr schwierig empfunden
Generell ist die Navigation durch die Studie sehr angenehm","0","1","0","null","","","<div style=""font-size:60px;"">+</div>","null","","","","","","","","","",""
"","html-keyboard-response","128","624812","0.0-10.0-1.1","661rb2wdn4","one_one","1","direct_first","1","rt06rk30","0","18","1","1","3","1","die Bewertung der Silben habe ich als sehr schwierig empfunden
Generell ist die Navigation durch die Studie sehr angenehm","0","1","0","null","","","<img src = 'category4/CS6.png' width = '100%;'>","null","","","","","","","","","",""
"","html-keyboard-response","129","625073","0.0-10.0-2.1","661rb2wdn4","one_one","1","direct_first","1","rt06rk30","0","18","1","1","3","1","die Bewertung der Silben habe ich als sehr schwierig empfunden
Generell ist die Navigation durch die Studie sehr angenehm","0","1","0","null","","","<img src = 'targets/28.png' width = '100%;'>","null","","","","","","","","","",""
"","html-keyboard-response","130","630105","0.0-10.0-3.1","661rb2wdn4","one_one","1","direct_first","1","rt06rk30","0","18","1","1","3","1","die Bewertung der Silben habe ich als sehr schwierig empfunden
Generell ist die Navigation durch die Studie sehr angenehm","0","1","0","5031","","","<img src = 'targets/mask.png' width = '100%;'>","68","neg","GS","GSold","4","category4/CS6.png","","targets/28.png","indirect","0","1"
"","html-keyboard-response","131","631627","0.0-10.0-0.2","661rb2wdn4","one_one","1","direct_first","1","rt06rk30","0","18","1","1","3","1","die Bewertung der Silben habe ich als sehr schwierig empfunden
Generell ist die Navigation durch die Studie sehr angenehm","0","1","0","null","","","<div style=""font-size:60px;"">+</div>","null","","","","","","","","","",""
"","html-keyboard-response","132","631732","0.0-10.0-1.2","661rb2wdn4","one_one","1","direct_first","1","rt06rk30","0","18","1","1","3","1","die Bewertung der Silben habe ich als sehr schwierig empfunden
Generell ist die Navigation durch die Studie sehr angenehm","0","1","0","null","","","<img src = 'category1/CS3.png' width = '100%;'>","null","","","","","","","","","",""
"","html-keyboard-response","133","632002","0.0-10.0-2.2","661rb2wdn4","one_one","1","direct_first","1","rt06rk30","0","18","1","1","3","1","die Bewertung der Silben habe ich als sehr schwierig empfunden
Generell ist die Navigation durch die Studie sehr angenehm","0","1","0","null","","","<img src = 'targets/7.png' width = '100%;'>","null","","","","","","","","","",""
"","html-keyboard-response","134","634414","0.0-10.0-3.2","661rb2wdn4","one_one","1","direct_first","1","rt06rk30","0","18","1","1","3","1","die Bewertung der Silben habe ich als sehr schwierig empfunden
Generell ist die Navigation durch die Studie sehr angenehm","0","1","0","2410","","","<img src = 'targets/mask.png' width = '100%;'>","75","neg","GS","GSold","1","category1/CS3.png","","targets/7.png","indirect","1","2"
"","html-keyboard-response","135","635939","0.0-10.0-0.3","661rb2wdn4","one_one","1","direct_first","1","rt06rk30","0","18","1","1","3","1","die Bewertung der Silben habe ich als sehr schwierig empfunden
Generell ist die Navigation durch die Studie sehr angenehm","0","1","0","null","","","<div style=""font-size:60px;"">+</div>","null","","","","","","","","","",""
"","html-keyboard-response","136","636039","0.0-10.0-1.3","661rb2wdn4","one_one","1","direct_first","1","rt06rk30","0","18","1","1","3","1","die Bewertung der Silben habe ich als sehr schwierig empfunden
Generell ist die Navigation durch die Studie sehr angenehm","0","1","0","null","","","<img src = 'category3/CS4.png' width = '100%;'>","null","","","","","","","","","",""
"","html-keyboard-response","137","636300","0.0-10.0-2.3","661rb2wdn4","one_one","1","direct_first","1","rt06rk30","0","18","1","1","3","1","die Bewertung der Silben habe ich als sehr schwierig empfunden
Generell ist die Navigation durch die Studie sehr angenehm","0","1","0","null","","","<img src = 'targets/34.png' width = '100%;'>","null","","","","","","","","","",""
"","html-keyboard-response","138","638634","0.0-10.0-3.3","661rb2wdn4","one_one","1","direct_first","1","rt06rk30","0","18","1","1","3","1","die Bewertung der Silben habe ich als sehr schwierig empfunden
Generell ist die Navigation durch die Studie sehr angenehm","0","1","0","2333","","","<img src = 'targets/mask.png' width = '100%;'>","75","pos","GS","GSold","3","category3/CS4.png","","targets/34.png","indirect","1","3"
"","html-keyboard-response","139","640172","0.0-10.0-0.4","661rb2wdn4","one_one","1","direct_first","1","rt06rk30","0","18","1","1","3","1","die Bewertung der Silben habe ich als sehr schwierig empfunden
Generell ist die Navigation durch die Studie sehr angenehm","0","1","0","null","","","<div style=""font-size:60px;"">+</div>","null","","","","","","","","","",""
"","html-keyboard-response","140","640283","0.0-10.0-1.4","661rb2wdn4","one_one","1","direct_first","1","rt06rk30","0","18","1","1","3","1","die Bewertung der Silben habe ich als sehr schwierig empfunden
Generell ist die Navigation durch die Studie sehr angenehm","0","1","0","null","","","<img src = 'category3/CS1.png' width = '100%;'>","null","","","","","","","","","",""
"","html-keyboard-response","141","640551","0.0-10.0-2.4","661rb2wdn4","one_one","1","direct_first","1","rt06rk30","0","18","1","1","3","1","die Bewertung der Silben habe ich als sehr schwierig empfunden
Generell ist die Navigation durch die Studie sehr angenehm","0","1","0","null","","","<img src = 'targets/44.png' width = '100%;'>","null","","","","","","","","","",""
"","html-keyboard-response","142","641613","0.0-10.0-3.4","661rb2wdn4","one_one","1","direct_first","1","rt06rk30","0","18","1","1","3","1","die Bewertung der Silben habe ich als sehr schwierig empfunden
Generell ist die Navigation durch die Studie sehr angenehm","0","1","0","1060","","","<img src = 'targets/mask.png' width = '100%;'>","75","pos","CS","CS","3","category3/CS1.png","","targets/44.png","indirect","1","4"
"","html-keyboard-response","143","643127","0.0-10.0-0.5","661rb2wdn4","one_one","1","direct_first","1","rt06rk30","0","18","1","1","3","1","die Bewertung der Silben habe ich als sehr schwierig empfunden
Generell ist die Navigation durch die Studie sehr angenehm","0","1","0","null","","","<div style=""font-size:60px;"">+</div>","null","","","","","","","","","",""
"","html-keyboard-response","144","643227","0.0-10.0-1.5","661rb2wdn4","one_one","1","direct_first","1","rt06rk30","0","18","1","1","3","1","die Bewertung der Silben habe ich als sehr schwierig empfunden
Generell ist die Navigation durch die Studie sehr angenehm","0","1","0","null","","","<img src = 'category2/CS9.png' width = '100%;'>","null","","","","","","","","","",""
"","html-keyboard-response","145","643507","0.0-10.0-2.5","661rb2wdn4","one_one","1","direct_first","1","rt06rk30","0","18","1","1","3","1","die Bewertung der Silben habe ich als sehr schwierig empfunden
Generell ist die Navigation durch die Studie sehr angenehm","0","1","0","null","","","<img src = 'targets/12.png' width = '100%;'>","null","","","","","","","","","",""
"","html-keyboard-response","146","648015","0.0-10.0-3.5","661rb2wdn4","one_one","1","direct_first","1","rt06rk30","0","18","1","1","3","1","die Bewertung der Silben habe ich als sehr schwierig empfunden
Generell ist die Navigation durch die Studie sehr angenehm","0","1","0","4507","","","<img src = 'targets/mask.png' width = '100%;'>","75","pos","GS","GSold","2","category2/CS9.png","","targets/12.png","indirect","1","5"
"","html-keyboard-response","147","649542","0.0-10.0-0.6","661rb2wdn4","one_one","1","direct_first","1","rt06rk30","0","18","1","1","3","1","die Bewertung der Silben habe ich als sehr schwierig empfunden
Generell ist die Navigation durch die Studie sehr angenehm","0","1","0","null","","","<div style=""font-size:60px;"">+</div>","null","","","","","","","","","",""
"","html-keyboard-response","148","649642","0.0-10.0-1.6","661rb2wdn4","one_one","1","direct_first","1","rt06rk30","0","18","1","1","3","1","die Bewertung der Silben habe ich als sehr schwierig empfunden
Generell ist die Navigation durch die Studie sehr angenehm","0","1","0","null","","","<img src = 'category1/CS2.png' width = '100%;'>","null","","","","","","","","","",""
"","html-keyboard-response","149","649903","0.0-10.0-2.6","661rb2wdn4","one_one","1","direct_first","1","rt06rk30","0","18","1","1","3","1","die Bewertung der Silben habe ich als sehr schwierig empfunden
Generell ist die Navigation durch die Studie sehr angenehm","0","1","0","null","","","<img src = 'targets/11.png' width = '100%;'>","null","","","","","","","","","",""
"","html-keyboard-response","150","651411","0.0-10.0-3.6","661rb2wdn4","one_one","1","direct_first","1","rt06rk30","0","18","1","1","3","1","die Bewertung der Silben habe ich als sehr schwierig empfunden
Generell ist die Navigation durch die Studie sehr angenehm","0","1","0","1507","","","<img src = 'targets/mask.png' width = '100%;'>","75","neg","GS","GSold","1","category1/CS2.png","","targets/11.png","indirect","1","6"
"","html-keyboard-response","151","652932","0.0-10.0-0.7","661rb2wdn4","one_one","1","direct_first","1","rt06rk30","0","18","1","1","3","1","die Bewertung der Silben habe ich als sehr schwierig empfunden
Generell ist die Navigation durch die Studie sehr angenehm","0","1","0","null","","","<div style=""font-size:60px;"">+</div>","null","","","","","","","","","",""
"","html-keyboard-response","152","653031","0.0-10.0-1.7","661rb2wdn4","one_one","1","direct_first","1","rt06rk30","0","18","1","1","3","1","die Bewertung der Silben habe ich als sehr schwierig empfunden
Generell ist die Navigation durch die Studie sehr angenehm","0","1","0","null","","","<img src = 'category2/CS4.png' width = '100%;'>","null","","","","","","","","","",""
"","html-keyboard-response","153","653296","0.0-10.0-2.7","661rb2wdn4","one_one","1","direct_first","1","rt06rk30","0","18","1","1","3","1","die Bewertung der Silben habe ich als sehr schwierig empfunden
Generell ist die Navigation durch die Studie sehr angenehm","0","1","0","null","","","<img src = 'targets/43.png' width = '100%;'>","null","","","","","","","","","",""
"","html-keyboard-response","154","654355","0.0-10.0-3.7","661rb2wdn4","one_one","1","direct_first","1","rt06rk30","0","18","1","1","3","1","die Bewertung der Silben habe ich als sehr schwierig empfunden
Generell ist die Navigation durch die Studie sehr angenehm","0","1","0","1058","","","<img src = 'targets/mask.png' width = '100%;'>","68","pos","GS","GSold","2","category2/CS4.png","","targets/43.png","indirect","0","7"
"","html-keyboard-response","155","655873","0.0-10.0-0.8","661rb2wdn4","one_one","1","direct_first","1","rt06rk30","0","18","1","1","3","1","die Bewertung der Silben habe ich als sehr schwierig empfunden
Generell ist die Navigation durch die Studie sehr angenehm","0","1","0","null","","","<div style=""font-size:60px;"">+</div>","null","","","","","","","","","",""
"","html-keyboard-response","156","655982","0.0-10.0-1.8","661rb2wdn4","one_one","1","direct_first","1","rt06rk30","0","18","1","1","3","1","die Bewertung der Silben habe ich als sehr schwierig empfunden
Generell ist die Navigation durch die Studie sehr angenehm","0","1","0","null","","","<img src = 'category4/CS5.png' width = '100%;'>","null","","","","","","","","","",""
"","html-keyboard-response","157","656243","0.0-10.0-2.8","661rb2wdn4","one_one","1","direct_first","1","rt06rk30","0","18","1","1","3","1","die Bewertung der Silben habe ich als sehr schwierig empfunden
Generell ist die Navigation durch die Studie sehr angenehm","0","1","0","null","","","<img src = 'targets/25.png' width = '100%;'>","null","","","","","","","","","",""
"","html-keyboard-response","158","657417","0.0-10.0-3.8","661rb2wdn4","one_one","1","direct_first","1","rt06rk30","0","18","1","1","3","1","die Bewertung der Silben habe ich als sehr schwierig empfunden
Generell ist die Navigation durch die Studie sehr angenehm","0","1","0","1173","","","<img src = 'targets/mask.png' width = '100%;'>","68","neg","CS","CS","4","category4/CS5.png","","targets/25.png","indirect","0","8"
"","html-keyboard-response","159","658941","0.0-10.0-0.9","661rb2wdn4","one_one","1","direct_first","1","rt06rk30","0","18","1","1","3","1","die Bewertung der Silben habe ich als sehr schwierig empfunden
Generell ist die Navigation durch die Studie sehr angenehm","0","1","0","null","","","<div style=""font-size:60px;"">+</div>","null","","","","","","","","","",""
"","html-keyboard-response","160","659052","0.0-10.0-1.9","661rb2wdn4","one_one","1","direct_first","1","rt06rk30","0","18","1","1","3","1","die Bewertung der Silben habe ich als sehr schwierig empfunden
Generell ist die Navigation durch die Studie sehr angenehm","0","1","0","null","","","<img src = 'category2/CS1.png' width = '100%;'>","null","","","","","","","","","",""
"","html-keyboard-response","161","659312","0.0-10.0-2.9","661rb2wdn4","one_one","1","direct_first","1","rt06rk30","0","18","1","1","3","1","die Bewertung der Silben habe ich als sehr schwierig empfunden
Generell ist die Navigation durch die Studie sehr angenehm","0","1","0","null","","","<img src = 'targets/8.png' width = '100%;'>","null","","","","","","","","","",""
"","html-keyboard-response","162","661294","0.0-10.0-3.9","661rb2wdn4","one_one","1","direct_first","1","rt06rk30","0","18","1","1","3","1","die Bewertung der Silben habe ich als sehr schwierig empfunden
Generell ist die Navigation durch die Studie sehr angenehm","0","1","0","1981","","","<img src = 'targets/mask.png' width = '100%;'>","75","pos","CS","CS","2","category2/CS1.png","","targets/8.png","indirect","1","9"
"","html-keyboard-response","163","662816","0.0-10.0-0.10","661rb2wdn4","one_one","1","direct_first","1","rt06rk30","0","18","1","1","3","1","die Bewertung der Silben habe ich als sehr schwierig empfunden
Generell ist die Navigation durch die Studie sehr angenehm","0","1","0","null","","","<div style=""font-size:60px;"">+</div>","null","","","","","","","","","",""
"","html-keyboard-response","164","662912","0.0-10.0-1.10","661rb2wdn4","one_one","1","direct_first","1","rt06rk30","0","18","1","1","3","1","die Bewertung der Silben habe ich als sehr schwierig empfunden
Generell ist die Navigation durch die Studie sehr angenehm","0","1","0","null","","","<img src = 'category3/CS10.png' width = '100%;'>","null","","","","","","","","","",""
"","html-keyboard-response","165","663173","0.0-10.0-2.10","661rb2wdn4","one_one","1","direct_first","1","rt06rk30","0","18","1","1","3","1","die Bewertung der Silben habe ich als sehr schwierig empfunden
Generell ist die Navigation durch die Studie sehr angenehm","0","1","0","null","","","<img src = 'targets/2.png' width = '100%;'>","null","","","","","","","","","",""
"","html-keyboard-response","166","664724","0.0-10.0-3.10","661rb2wdn4","one_one","1","direct_first","1","rt06rk30","0","18","1","1","3","1","die Bewertung der Silben habe ich als sehr schwierig empfunden
Generell ist die Navigation durch die Studie sehr angenehm","0","1","0","1550","","","<img src = 'targets/mask.png' width = '100%;'>","68","pos","GS","GSold","3","category3/CS10.png","","targets/2.png","indirect","0","10"
"","html-keyboard-response","167","666262","0.0-10.0-0.11","661rb2wdn4","one_one","1","direct_first","1","rt06rk30","0","18","1","1","3","1","die Bewertung der Silben habe ich als sehr schwierig empfunden
Generell ist die Navigation durch die Studie sehr angenehm","0","1","0","null","","","<div style=""font-size:60px;"">+</div>","null","","","","","","","","","",""
"","html-keyboard-response","168","666357","0.0-10.0-1.11","661rb2wdn4","one_one","1","direct_first","1","rt06rk30","0","18","1","1","3","1","die Bewertung der Silben habe ich als sehr schwierig empfunden
Generell ist die Navigation durch die Studie sehr angenehm","0","1","0","null","","","<img src = 'category1/CS5.png' width = '100%;'>","null","","","","","","","","","",""
"","html-keyboard-response","169","666621","0.0-10.0-2.11","661rb2wdn4","one_one","1","direct_first","1","rt06rk30","0","18","1","1","3","1","die Bewertung der Silben habe ich als sehr schwierig empfunden
Generell ist die Navigation durch die Studie sehr angenehm","0","1","0","null","","","<img src = 'targets/45.png' width = '100%;'>","null","","","","","","","","","",""
"","html-keyboard-response","170","668171","0.0-10.0-3.11","661rb2wdn4","one_one","1","direct_first","1","rt06rk30","0","18","1","1","3","1","die Bewertung der Silben habe ich als sehr schwierig empfunden
Generell ist die Navigation durch die Studie sehr angenehm","0","1","0","1548","","","<img src = 'targets/mask.png' width = '100%;'>","75","neg","GS","GSold","1","category1/CS5.png","","targets/45.png","indirect","1","11"
"","html-keyboard-response","171","669682","0.0-10.0-0.12","661rb2wdn4","one_one","1","direct_first","1","rt06rk30","0","18","1","1","3","1","die Bewertung der Silben habe ich als sehr schwierig empfunden
Generell ist die Navigation durch die Studie sehr angenehm","0","1","0","null","","","<div style=""font-size:60px;"">+</div>","null","","","","","","","","","",""
"","html-keyboard-response","172","669793","0.0-10.0-1.12","661rb2wdn4","one_one","1","direct_first","1","rt06rk30","0","18","1","1","3","1","die Bewertung der Silben habe ich als sehr schwierig empfunden
Generell ist die Navigation durch die Studie sehr angenehm","0","1","0","null","","","<img src = 'category1/CS8.png' width = '100%;'>","null","","","","","","","","","",""
"","html-keyboard-response","173","670054","0.0-10.0-2.12","661rb2wdn4","one_one","1","direct_first","1","rt06rk30","0","18","1","1","3","1","die Bewertung der Silben habe ich als sehr schwierig empfunden
Generell ist die Navigation durch die Studie sehr angenehm","0","1","0","null","","","<img src = 'targets/32.png' width = '100%;'>","null","","","","","","","","","",""
"","html-keyboard-response","174","671561","0.0-10.0-3.12","661rb2wdn4","one_one","1","direct_first","1","rt06rk30","0","18","1","1","3","1","die Bewertung der Silben habe ich als sehr schwierig empfunden
Generell ist die Navigation durch die Studie sehr angenehm","0","1","0","1506","","","<img src = 'targets/mask.png' width = '100%;'>","75","neg","CS","CS","1","category1/CS8.png","","targets/32.png","indirect","1","12"
"","html-keyboard-response","175","673082","0.0-10.0-0.13","661rb2wdn4","one_one","1","direct_first","1","rt06rk30","0","18","1","1","3","1","die Bewertung der Silben habe ich als sehr schwierig empfunden
Generell ist die Navigation durch die Studie sehr angenehm","0","1","0","null","","","<div style=""font-size:60px;"">+</div>","null","","","","","","","","","",""
"","html-keyboard-response","176","673181","0.0-10.0-1.13","661rb2wdn4","one_one","1","direct_first","1","rt06rk30","0","18","1","1","3","1","die Bewertung der Silben habe ich als sehr schwierig empfunden
Generell ist die Navigation durch die Studie sehr angenehm","0","1","0","null","","","<img src = 'category4/CS1.png' width = '100%;'>","null","","","","","","","","","",""
"","html-keyboard-response","177","673443","0.0-10.0-2.13","661rb2wdn4","one_one","1","direct_first","1","rt06rk30","0","18","1","1","3","1","die Bewertung der Silben habe ich als sehr schwierig empfunden
Generell ist die Navigation durch die Studie sehr angenehm","0","1","0","null","","","<img src = 'targets/6.png' width = '100%;'>","null","","","","","","","","","",""
"","html-keyboard-response","178","674305","0.0-10.0-3.13","661rb2wdn4","one_one","1","direct_first","1","rt06rk30","0","18","1","1","3","1","die Bewertung der Silben habe ich als sehr schwierig empfunden
Generell ist die Navigation durch die Studie sehr angenehm","0","1","0","862","","","<img src = 'targets/mask.png' width = '100%;'>","68","neg","GS","GSold","4","category4/CS1.png","","targets/6.png","indirect","0","13"
"","html-keyboard-response","179","675832","0.0-10.0-0.14","661rb2wdn4","one_one","1","direct_first","1","rt06rk30","0","18","1","1","3","1","die Bewertung der Silben habe ich als sehr schwierig empfunden
Generell ist die Navigation durch die Studie sehr angenehm","0","1","0","null","","","<div style=""font-size:60px;"">+</div>","null","","","","","","","","","",""
"","html-keyboard-response","180","675927","0.0-10.0-1.14","661rb2wdn4","one_one","1","direct_first","1","rt06rk30","0","18","1","1","3","1","die Bewertung der Silben habe ich als sehr schwierig empfunden
Generell ist die Navigation durch die Studie sehr angenehm","0","1","0","null","","","<img src = 'category2/CS8.png' width = '100%;'>","null","","","","","","","","","",""
"","html-keyboard-response","181","676197","0.0-10.0-2.14","661rb2wdn4","one_one","1","direct_first","1","rt06rk30","0","18","1","1","3","1","die Bewertung der Silben habe ich als sehr schwierig empfunden
Generell ist die Navigation durch die Studie sehr angenehm","0","1","0","null","","","<img src = 'targets/16.png' width = '100%;'>","null","","","","","","","","","",""
"","html-keyboard-response","182","677329","0.0-10.0-3.14","661rb2wdn4","one_one","1","direct_first","1","rt06rk30","0","18","1","1","3","1","die Bewertung der Silben habe ich als sehr schwierig empfunden
Generell ist die Navigation durch die Studie sehr angenehm","0","1","0","1130","","","<img src = 'targets/mask.png' width = '100%;'>","68","pos","GS","GSold","2","category2/CS8.png","","targets/16.png","indirect","0","14"
"","html-keyboard-response","183","678862","0.0-10.0-0.15","661rb2wdn4","one_one","1","direct_first","1","rt06rk30","0","18","1","1","3","1","die Bewertung der Silben habe ich als sehr schwierig empfunden
Generell ist die Navigation durch die Studie sehr angenehm","0","1","0","null","","","<div style=""font-size:60px;"">+</div>","null","","","","","","","","","",""
"","html-keyboard-response","184","678957","0.0-10.0-1.15","661rb2wdn4","one_one","1","direct_first","1","rt06rk30","0","18","1","1","3","1","die Bewertung der Silben habe ich als sehr schwierig empfunden
Generell ist die Navigation durch die Studie sehr angenehm","0","1","0","null","","","<img src = 'category4/CS10.png' width = '100%;'>","null","","","","","","","","","",""
"","html-keyboard-response","185","679228","0.0-10.0-2.15","661rb2wdn4","one_one","1","direct_first","1","rt06rk30","0","18","1","1","3","1","die Bewertung der Silben habe ich als sehr schwierig empfunden
Generell ist die Navigation durch die Studie sehr angenehm","0","1","0","null","","","<img src = 'targets/30.png' width = '100%;'>","null","","","","","","","","","",""
"","html-keyboard-response","186","680080","0.0-10.0-3.15","661rb2wdn4","one_one","1","direct_first","1","rt06rk30","0","18","1","1","3","1","die Bewertung der Silben habe ich als sehr schwierig empfunden
Generell ist die Navigation durch die Studie sehr angenehm","0","1","0","851","","","<img src = 'targets/mask.png' width = '100%;'>","75","neg","GS","GSold","4","category4/CS10.png","","targets/30.png","indirect","1","15"
"","survey-html-form","187","683066","0.0-11.0","661rb2wdn4","one_one","1","direct_first","1","rt06rk30","0","18","1","1","3","1","die Bewertung der Silben habe ich als sehr schwierig empfunden
Generell ist die Navigation durch die Studie sehr angenehm","0","1","0","2473","","{}","","","","","","","","","","","",""
"","html-keyboard-response","188","686092","0.0-12.0-0.0","661rb2wdn4","one_one","1","direct_first","1","rt06rk30","0","18","1","1","3","1","die Bewertung der Silben habe ich als sehr schwierig empfunden
Generell ist die Navigation durch die Studie sehr angenehm","0","1","0","null","","","<div style=""font-size:60px;"">+</div>","null","","","","","","","","","",""
"","html-keyboard-response","189","686203","0.0-12.0-1.0","661rb2wdn4","one_one","1","direct_first","1","rt06rk30","0","18","1","1","3","1","die Bewertung der Silben habe ich als sehr schwierig empfunden
Generell ist die Navigation durch die Studie sehr angenehm","0","1","0","null","","","<img src = 'category1/GS2.png' width = '100%;'>","null","","","","","","","","","",""
"","html-keyboard-response","190","686472","0.0-12.0-2.0","661rb2wdn4","one_one","1","direct_first","1","rt06rk30","0","18","1","1","3","1","die Bewertung der Silben habe ich als sehr schwierig empfunden
Generell ist die Navigation durch die Studie sehr angenehm","0","1","0","null","","","<img src = 'targets/26.png' width = '100%;'>","null","","","","","","","","","",""
"","html-keyboard-response","191","690515","0.0-12.0-3.0","661rb2wdn4","one_one","1","direct_first","1","rt06rk30","0","18","1","1","3","1","die Bewertung der Silben habe ich als sehr schwierig empfunden
Generell ist die Navigation durch die Studie sehr angenehm","0","1","0","4042","","","<img src = 'targets/mask.png' width = '100%;'>","75","neg","GS","GSnew","1","category1/GS2.png","","targets/26.png","indirect","1","16"
"","html-keyboard-response","192","692027","0.0-12.0-0.1","661rb2wdn4","one_one","1","direct_first","1","rt06rk30","0","18","1","1","3","1","die Bewertung der Silben habe ich als sehr schwierig empfunden
Generell ist die Navigation durch die Studie sehr angenehm","0","1","0","null","","","<div style=""font-size:60px;"">+</div>","null","","","","","","","","","",""
"","html-keyboard-response","193","692133","0.0-12.0-1.1","661rb2wdn4","one_one","1","direct_first","1","rt06rk30","0","18","1","1","3","1","die Bewertung der Silben habe ich als sehr schwierig empfunden
Generell ist die Navigation durch die Studie sehr angenehm","0","1","0","null","","","<img src = 'category3/wang.png' width = '100%;'>","null","","","","","","","","","",""
"","html-keyboard-response","194","692397","0.0-12.0-2.1","661rb2wdn4","one_one","1","direct_first","1","rt06rk30","0","18","1","1","3","1","die Bewertung der Silben habe ich als sehr schwierig empfunden
Generell ist die Navigation durch die Studie sehr angenehm","0","1","0","null","","","<img src = 'targets/3.png' width = '100%;'>","null","","","","","","","","","",""
"","html-keyboard-response","195","693041","0.0-12.0-3.1","661rb2wdn4","one_one","1","direct_first","1","rt06rk30","0","18","1","1","3","1","die Bewertung der Silben habe ich als sehr schwierig empfunden
Generell ist die Navigation durch die Studie sehr angenehm","0","1","0","643","","","<img src = 'targets/mask.png' width = '100%;'>","68","pos","GS","abstract","3","category3/wang.png","","targets/3.png","indirect","0","17"
"","html-keyboard-response","196","694563","0.0-12.0-0.2","661rb2wdn4","one_one","1","direct_first","1","rt06rk30","0","18","1","1","3","1","die Bewertung der Silben habe ich als sehr schwierig empfunden
Generell ist die Navigation durch die Studie sehr angenehm","0","1","0","null","","","<div style=""font-size:60px;"">+</div>","null","","","","","","","","","",""
"","html-keyboard-response","197","694657","0.0-12.0-1.2","661rb2wdn4","one_one","1","direct_first","1","rt06rk30","0","18","1","1","3","1","die Bewertung der Silben habe ich als sehr schwierig empfunden
Generell ist die Navigation durch die Studie sehr angenehm","0","1","0","null","","","<img src = 'category4/lin.png' width = '100%;'>","null","","","","","","","","","",""
"","html-keyboard-response","198","694922","0.0-12.0-2.2","661rb2wdn4","one_one","1","direct_first","1","rt06rk30","0","18","1","1","3","1","die Bewertung der Silben habe ich als sehr schwierig empfunden
Generell ist die Navigation durch die Studie sehr angenehm","0","1","0","null","","","<img src = 'targets/15.png' width = '100%;'>","null","","","","","","","","","",""
"","html-keyboard-response","199","695603","0.0-12.0-3.2","661rb2wdn4","one_one","1","direct_first","1","rt06rk30","0","18","1","1","3","1","die Bewertung der Silben habe ich als sehr schwierig empfunden
Generell ist die Navigation durch die Studie sehr angenehm","0","1","0","681","","","<img src = 'targets/mask.png' width = '100%;'>","68","neg","GS","abstract","4","category4/lin.png","","targets/15.png","indirect","0","18"
"","html-keyboard-response","200","697142","0.0-12.0-0.3","661rb2wdn4","one_one","1","direct_first","1","rt06rk30","0","18","1","1","3","1","die Bewertung der Silben habe ich als sehr schwierig empfunden
Generell ist die Navigation durch die Studie sehr angenehm","0","1","0","null","","","<div style=""font-size:60px;"">+</div>","null","","","","","","","","","",""
"","html-keyboard-response","201","697237","0.0-12.0-1.3","661rb2wdn4","one_one","1","direct_first","1","rt06rk30","0","18","1","1","3","1","die Bewertung der Silben habe ich als sehr schwierig empfunden
Generell ist die Navigation durch die Studie sehr angenehm","0","1","0","null","","","<img src = 'category3/GS2.png' width = '100%;'>","null","","","","","","","","","",""
"","html-keyboard-response","202","697512","0.0-12.0-2.3","661rb2wdn4","one_one","1","direct_first","1","rt06rk30","0","18","1","1","3","1","die Bewertung der Silben habe ich als sehr schwierig empfunden
Generell ist die Navigation durch die Studie sehr angenehm","0","1","0","null","","","<img src = 'targets/10.png' width = '100%;'>","null","","","","","","","","","",""
"","html-keyboard-response","203","699562","0.0-12.0-3.3","661rb2wdn4","one_one","1","direct_first","1","rt06rk30","0","18","1","1","3","1","die Bewertung der Silben habe ich als sehr schwierig empfunden
Generell ist die Navigation durch die Studie sehr angenehm","0","1","0","2049","","","<img src = 'targets/mask.png' width = '100%;'>","68","pos","GS","GSnew","3","category3/GS2.png","","targets/10.png","indirect","0","19"
"","html-keyboard-response","204","701092","0.0-12.0-0.4","661rb2wdn4","one_one","1","direct_first","1","rt06rk30","0","18","1","1","3","1","die Bewertung der Silben habe ich als sehr schwierig empfunden
Generell ist die Navigation durch die Studie sehr angenehm","0","1","0","null","","","<div style=""font-size:60px;"">+</div>","null","","","","","","","","","",""
"","html-keyboard-response","205","701192","0.0-12.0-1.4","661rb2wdn4","one_one","1","direct_first","1","rt06rk30","0","18","1","1","3","1","die Bewertung der Silben habe ich als sehr schwierig empfunden
Generell ist die Navigation durch die Studie sehr angenehm","0","1","0","null","","","<img src = 'category1/GS3.png' width = '100%;'>","null","","","","","","","","","",""
"","html-keyboard-response","206","701452","0.0-12.0-2.4","661rb2wdn4","one_one","1","direct_first","1","rt06rk30","0","18","1","1","3","1","die Bewertung der Silben habe ich als sehr schwierig empfunden
Generell ist die Navigation durch die Studie sehr angenehm","0","1","0","null","","","<img src = 'targets/37.png' width = '100%;'>","null","","","","","","","","","",""
"","html-keyboard-response","207","703374","0.0-12.0-3.4","661rb2wdn4","one_one","1","direct_first","1","rt06rk30","0","18","1","1","3","1","die Bewertung der Silben habe ich als sehr schwierig empfunden
Generell ist die Navigation durch die Studie sehr angenehm","0","1","0","1921","","","<img src = 'targets/mask.png' width = '100%;'>","68","neg","GS","GSnew","1","category1/GS3.png","","targets/37.png","indirect","0","20"
"","html-keyboard-response","208","704888","0.0-12.0-0.5","661rb2wdn4","one_one","1","direct_first","1","rt06rk30","0","18","1","1","3","1","die Bewertung der Silben habe ich als sehr schwierig empfunden
Generell ist die Navigation durch die Studie sehr angenehm","0","1","0","null","","","<div style=""font-size:60px;"">+</div>","null","","","","","","","","","",""
"","html-keyboard-response","209","704988","0.0-12.0-1.5","661rb2wdn4","one_one","1","direct_first","1","rt06rk30","0","18","1","1","3","1","die Bewertung der Silben habe ich als sehr schwierig empfunden
Generell ist die Navigation durch die Studie sehr angenehm","0","1","0","null","","","<img src = 'category2/GS1.png' width = '100%;'>","null","","","","","","","","","",""
"","html-keyboard-response","210","705257","0.0-12.0-2.5","661rb2wdn4","one_one","1","direct_first","1","rt06rk30","0","18","1","1","3","1","die Bewertung der Silben habe ich als sehr schwierig empfunden
Generell ist die Navigation durch die Studie sehr angenehm","0","1","0","null","","","<img src = 'targets/21.png' width = '100%;'>","null","","","","","","","","","",""
"","html-keyboard-response","211","706164","0.0-12.0-3.5","661rb2wdn4","one_one","1","direct_first","1","rt06rk30","0","18","1","1","3","1","die Bewertung der Silben habe ich als sehr schwierig empfunden
Generell ist die Navigation durch die Studie sehr angenehm","0","1","0","905","","","<img src = 'targets/mask.png' width = '100%;'>","75","pos","GS","GSnew","2","category2/GS1.png","","targets/21.png","indirect","1","21"
"","html-keyboard-response","212","707702","0.0-12.0-0.6","661rb2wdn4","one_one","1","direct_first","1","rt06rk30","0","18","1","1","3","1","die Bewertung der Silben habe ich als sehr schwierig empfunden
Generell ist die Navigation durch die Studie sehr angenehm","0","1","0","null","","","<div style=""font-size:60px;"">+</div>","null","","","","","","","","","",""
"","html-keyboard-response","213","707801","0.0-12.0-1.6","661rb2wdn4","one_one","1","direct_first","1","rt06rk30","0","18","1","1","3","1","die Bewertung der Silben habe ich als sehr schwierig empfunden
Generell ist die Navigation durch die Studie sehr angenehm","0","1","0","null","","","<img src = 'category2/men.png' width = '100%;'>","null","","","","","","","","","",""
"","html-keyboard-response","214","708062","0.0-12.0-2.6","661rb2wdn4","one_one","1","direct_first","1","rt06rk30","0","18","1","1","3","1","die Bewertung der Silben habe ich als sehr schwierig empfunden
Generell ist die Navigation durch die Studie sehr angenehm","0","1","0","null","","","<img src = 'targets/5.png' width = '100%;'>","null","","","","","","","","","",""
"","html-keyboard-response","215","709101","0.0-12.0-3.6","661rb2wdn4","one_one","1","direct_first","1","rt06rk30","0","18","1","1","3","1","die Bewertung der Silben habe ich als sehr schwierig empfunden
Generell ist die Navigation durch die Studie sehr angenehm","0","1","0","1037","","","<img src = 'targets/mask.png' width = '100%;'>","68","pos","GS","abstract","2","category2/men.png","","targets/5.png","indirect","0","22"
"","html-keyboard-response","216","710620","0.0-12.0-0.7","661rb2wdn4","one_one","1","direct_first","1","rt06rk30","0","18","1","1","3","1","die Bewertung der Silben habe ich als sehr schwierig empfunden
Generell ist die Navigation durch die Studie sehr angenehm","0","1","0","null","","","<div style=""font-size:60px;"">+</div>","null","","","","","","","","","",""
"","html-keyboard-response","217","710712","0.0-12.0-1.7","661rb2wdn4","one_one","1","direct_first","1","rt06rk30","0","18","1","1","3","1","die Bewertung der Silben habe ich als sehr schwierig empfunden
Generell ist die Navigation durch die Studie sehr angenehm","0","1","0","null","","","<img src = 'category1/ma.png' width = '100%;'>","null","","","","","","","","","",""
"","html-keyboard-response","218","710977","0.0-12.0-2.7","661rb2wdn4","one_one","1","direct_first","1","rt06rk30","0","18","1","1","3","1","die Bewertung der Silben habe ich als sehr schwierig empfunden
Generell ist die Navigation durch die Studie sehr angenehm","0","1","0","null","","","<img src = 'targets/17.png' width = '100%;'>","null","","","","","","","","","",""
"","html-keyboard-response","219","711628","0.0-12.0-3.7","661rb2wdn4","one_one","1","direct_first","1","rt06rk30","0","18","1","1","3","1","die Bewertung der Silben habe ich als sehr schwierig empfunden
Generell ist die Navigation durch die Studie sehr angenehm","0","1","0","649","","","<img src = 'targets/mask.png' width = '100%;'>","68","neg","GS","abstract","1","category1/ma.png","","targets/17.png","indirect","0","23"
"","html-keyboard-response","220","713143","0.0-12.0-0.8","661rb2wdn4","one_one","1","direct_first","1","rt06rk30","0","18","1","1","3","1","die Bewertung der Silben habe ich als sehr schwierig empfunden
Generell ist die Navigation durch die Studie sehr angenehm","0","1","0","null","","","<div style=""font-size:60px;"">+</div>","null","","","","","","","","","",""
"","html-keyboard-response","221","713242","0.0-12.0-1.8","661rb2wdn4","one_one","1","direct_first","1","rt06rk30","0","18","1","1","3","1","die Bewertung der Silben habe ich als sehr schwierig empfunden
Generell ist die Navigation durch die Studie sehr angenehm","0","1","0","null","","","<img src = 'category2/GS2.png' width = '100%;'>","null","","","","","","","","","",""
"","html-keyboard-response","222","713522","0.0-12.0-2.8","661rb2wdn4","one_one","1","direct_first","1","rt06rk30","0","18","1","1","3","1","die Bewertung der Silben habe ich als sehr schwierig empfunden
Generell ist die Navigation durch die Studie sehr angenehm","0","1","0","null","","","<img src = 'targets/40.png' width = '100%;'>","null","","","","","","","","","",""
"","html-keyboard-response","223","714243","0.0-12.0-3.8","661rb2wdn4","one_one","1","direct_first","1","rt06rk30","0","18","1","1","3","1","die Bewertung der Silben habe ich als sehr schwierig empfunden
Generell ist die Navigation durch die Studie sehr angenehm","0","1","0","721","","","<img src = 'targets/mask.png' width = '100%;'>","75","pos","GS","GSnew","2","category2/GS2.png","","targets/40.png","indirect","1","24"
"","html-keyboard-response","224","715772","0.0-12.0-0.9","661rb2wdn4","one_one","1","direct_first","1","rt06rk30","0","18","1","1","3","1","die Bewertung der Silben habe ich als sehr schwierig empfunden
Generell ist die Navigation durch die Studie sehr angenehm","0","1","0","null","","","<div style=""font-size:60px;"">+</div>","null","","","","","","","","","",""
"","html-keyboard-response","225","715872","0.0-12.0-1.9","661rb2wdn4","one_one","1","direct_first","1","rt06rk30","0","18","1","1","3","1","die Bewertung der Silben habe ich als sehr schwierig empfunden
Generell ist die Navigation durch die Studie sehr angenehm","0","1","0","null","","","<img src = 'category3/GS1.png' width = '100%;'>","null","","","","","","","","","",""
"","html-keyboard-response","226","716137","0.0-12.0-2.9","661rb2wdn4","one_one","1","direct_first","1","rt06rk30","0","18","1","1","3","1","die Bewertung der Silben habe ich als sehr schwierig empfunden
Generell ist die Navigation durch die Studie sehr angenehm","0","1","0","null","","","<img src = 'targets/4.png' width = '100%;'>","null","","","","","","","","","",""
"","html-keyboard-response","227","716809","0.0-12.0-3.9","661rb2wdn4","one_one","1","direct_first","1","rt06rk30","0","18","1","1","3","1","die Bewertung der Silben habe ich als sehr schwierig empfunden
Generell ist die Navigation durch die Studie sehr angenehm","0","1","0","671","","","<img src = 'targets/mask.png' width = '100%;'>","68","pos","GS","GSnew","3","category3/GS1.png","","targets/4.png","indirect","0","25"
"","html-keyboard-response","228","718336","0.0-12.0-0.10","661rb2wdn4","one_one","1","direct_first","1","rt06rk30","0","18","1","1","3","1","die Bewertung der Silben habe ich als sehr schwierig empfunden
Generell ist die Navigation durch die Studie sehr angenehm","0","1","0","null","","","<div style=""font-size:60px;"">+</div>","null","","","","","","","","","",""
