"success","trial_type","trial_index","time_elapsed","internal_node_id","subject","condition","condition_code","measure","measure_code","codeword","gender","age","education","chinese","fach","handedness","comment","hinschauen","ablenkung","gewissenhaft","rt","url","responses","stimulus","key_press","val","type","type_specific","category","cs_selected","target","indirect","task","nr_pres","response"
"true","fullscreen","0","4590","0.0-0.0","fqm7se37by","one_one","1","indirect_first","0","CK07EN07","1","24","1","1","3","1","Eine der seltsamsten Studien, an der ich je teilgenommen habe.","0","1","0","","","","","","","","","","","","","","",""
"","external-html","1","13142","0.0-1.0","fqm7se37by","one_one","1","indirect_first","0","CK07EN07","1","24","1","1","3","1","Eine der seltsamsten Studien, an der ich je teilgenommen habe.","0","1","0","8522","text/information.html","","","","","","","","","","","","",""
"","external-html","2","26965","0.0-2.0","fqm7se37by","one_one","1","indirect_first","0","CK07EN07","1","24","1","1","3","1","Eine der seltsamsten Studien, an der ich je teilgenommen habe.","0","1","0","13794","text/consent.html","","","","","","","","","","","","",""
"","survey-html-form","3","60194","0.0-3.0","fqm7se37by","one_one","1","indirect_first","0","CK07EN07","1","24","1","1","3","1","Eine der seltsamsten Studien, an der ich je teilgenommen habe.","0","1","0","33227.00000000001","","{""codeword_enter"":""CK07EN07""}","","","","","","","","","","","",""
"","survey-html-form","4","73575","0.0-4.0","fqm7se37by","one_one","1","indirect_first","0","CK07EN07","1","24","1","1","3","1","Eine der seltsamsten Studien, an der ich je teilgenommen habe.","0","1","0","13379","","{""age"":""24"",""education"":""1"",""subject"":""3"",""gender"":""1"",""handedness"":""1"",""chinese"":""1""}","","","","","","","","","","","",""
"","survey-html-form","5","77022","0.0-5.0","fqm7se37by","one_one","1","indirect_first","0","CK07EN07","1","24","1","1","3","1","Eine der seltsamsten Studien, an der ich je teilgenommen habe.","0","1","0","3445.0000000000146","","{}","","","","","","","","","","","",""
"","html-keyboard-response","6","81027","0.0-6.0-0.0-0.0","fqm7se37by","one_one","1","indirect_first","0","CK07EN07","1","24","1","1","3","1","Eine der seltsamsten Studien, an der ich je teilgenommen habe.","0","1","0","null","","","<div class = 'row'><div class = 'column'><img src = 'category4/CS3.png' width = '70%;'></div><div class = 'column'><img src = 'uspos/2057.bmp' width = '100%;'></div></div>","null","pos","CS","CS","4","category4/CS3.png","","","","",""
"","html-keyboard-response","7","83531","0.0-6.0-0.0-0.1","fqm7se37by","one_one","1","indirect_first","0","CK07EN07","1","24","1","1","3","1","Eine der seltsamsten Studien, an der ich je teilgenommen habe.","0","1","0","null","","","<div class = 'row'><div class = 'column'><img src = 'usneg/9330.bmp' width = '100%;'></div><div class = 'column'><img src = 'category1/CS7.png' width = '70%;'></div></div>","null","neg","CS","CS","1","category1/CS7.png","","","","",""
"","html-keyboard-response","8","86034","0.0-6.0-0.0-0.2","fqm7se37by","one_one","1","indirect_first","0","CK07EN07","1","24","1","1","3","1","Eine der seltsamsten Studien, an der ich je teilgenommen habe.","0","1","0","null","","","<div class = 'row'><div class = 'column'><img src = 'category4/CS3.png' width = '70%;'></div><div class = 'column'><img src = 'uspos/2057.bmp' width = '100%;'></div></div>","null","pos","CS","CS","4","category4/CS3.png","","","","",""
"","html-keyboard-response","9","88537","0.0-6.0-0.0-0.3","fqm7se37by","one_one","1","indirect_first","0","CK07EN07","1","24","1","1","3","1","Eine der seltsamsten Studien, an der ich je teilgenommen habe.","0","1","0","null","","","<div class = 'row'><div class = 'column'><img src = 'category3/CS7.png' width = '70%;'></div><div class = 'column'><img src = 'uspos/7580.bmp' width = '100%;'></div></div>","null","pos","CS","CS","3","category3/CS7.png","","","","",""
"","html-keyboard-response","10","91041","0.0-6.0-0.0-0.4","fqm7se37by","one_one","1","indirect_first","0","CK07EN07","1","24","1","1","3","1","Eine der seltsamsten Studien, an der ich je teilgenommen habe.","0","1","0","null","","","<div class = 'row'><div class = 'column'><img src = 'category2/CS1.png' width = '70%;'></div><div class = 'column'><img src = 'usneg/9050.bmp' width = '100%;'></div></div>","null","neg","CS","CS","2","category2/CS1.png","","","","",""
"","html-keyboard-response","11","93545","0.0-6.0-0.0-0.5","fqm7se37by","one_one","1","indirect_first","0","CK07EN07","1","24","1","1","3","1","Eine der seltsamsten Studien, an der ich je teilgenommen habe.","0","1","0","null","","","<div class = 'row'><div class = 'column'><img src = 'category3/CS7.png' width = '70%;'></div><div class = 'column'><img src = 'uspos/7580.bmp' width = '100%;'></div></div>","null","pos","CS","CS","3","category3/CS7.png","","","","",""
"","html-keyboard-response","12","96049","0.0-6.0-0.0-0.6","fqm7se37by","one_one","1","indirect_first","0","CK07EN07","1","24","1","1","3","1","Eine der seltsamsten Studien, an der ich je teilgenommen habe.","0","1","0","null","","","<div class = 'row'><div class = 'column'><img src = 'category4/CS3.png' width = '70%;'></div><div class = 'column'><img src = 'uspos/2057.bmp' width = '100%;'></div></div>","null","pos","CS","CS","4","category4/CS3.png","","","","",""
"","html-keyboard-response","13","98553","0.0-6.0-0.0-0.7","fqm7se37by","one_one","1","indirect_first","0","CK07EN07","1","24","1","1","3","1","Eine der seltsamsten Studien, an der ich je teilgenommen habe.","0","1","0","null","","","<div class = 'row'><div class = 'column'><img src = 'usneg/9330.bmp' width = '100%;'></div><div class = 'column'><img src = 'category1/CS7.png' width = '70%;'></div></div>","null","neg","CS","CS","1","category1/CS7.png","","","","",""
"","html-keyboard-response","14","101056","0.0-6.0-0.0-0.8","fqm7se37by","one_one","1","indirect_first","0","CK07EN07","1","24","1","1","3","1","Eine der seltsamsten Studien, an der ich je teilgenommen habe.","0","1","0","null","","","<div class = 'row'><div class = 'column'><img src = 'category2/CS1.png' width = '70%;'></div><div class = 'column'><img src = 'usneg/9050.bmp' width = '100%;'></div></div>","null","neg","CS","CS","2","category2/CS1.png","","","","",""
"","html-keyboard-response","15","103559","0.0-6.0-0.0-0.9","fqm7se37by","one_one","1","indirect_first","0","CK07EN07","1","24","1","1","3","1","Eine der seltsamsten Studien, an der ich je teilgenommen habe.","0","1","0","null","","","<div class = 'row'><div class = 'column'><img src = 'category1/CS7.png' width = '70%;'></div><div class = 'column'><img src = 'usneg/9330.bmp' width = '100%;'></div></div>","null","neg","CS","CS","1","category1/CS7.png","","","","",""
"","html-keyboard-response","16","106062","0.0-6.0-0.0-0.10","fqm7se37by","one_one","1","indirect_first","0","CK07EN07","1","24","1","1","3","1","Eine der seltsamsten Studien, an der ich je teilgenommen habe.","0","1","0","null","","","<div class = 'row'><div class = 'column'><img src = 'uspos/2057.bmp' width = '100%;'></div><div class = 'column'><img src = 'category4/CS3.png' width = '70%;'></div></div>","null","pos","CS","CS","4","category4/CS3.png","","","","",""
"","html-keyboard-response","17","108566","0.0-6.0-0.0-0.11","fqm7se37by","one_one","1","indirect_first","0","CK07EN07","1","24","1","1","3","1","Eine der seltsamsten Studien, an der ich je teilgenommen habe.","0","1","0","null","","","<div class = 'row'><div class = 'column'><img src = 'category1/CS7.png' width = '70%;'></div><div class = 'column'><img src = 'usneg/9330.bmp' width = '100%;'></div></div>","null","neg","CS","CS","1","category1/CS7.png","","","","",""
"","html-keyboard-response","18","111070","0.0-6.0-0.0-0.12","fqm7se37by","one_one","1","indirect_first","0","CK07EN07","1","24","1","1","3","1","Eine der seltsamsten Studien, an der ich je teilgenommen habe.","0","1","0","null","","","<div class = 'row'><div class = 'column'><img src = 'usneg/9050.bmp' width = '100%;'></div><div class = 'column'><img src = 'category2/CS1.png' width = '70%;'></div></div>","null","neg","CS","CS","2","category2/CS1.png","","","","",""
"","html-keyboard-response","19","113574","0.0-6.0-0.0-0.13","fqm7se37by","one_one","1","indirect_first","0","CK07EN07","1","24","1","1","3","1","Eine der seltsamsten Studien, an der ich je teilgenommen habe.","0","1","0","null","","","<div class = 'row'><div class = 'column'><img src = 'category3/CS7.png' width = '70%;'></div><div class = 'column'><img src = 'uspos/7580.bmp' width = '100%;'></div></div>","null","pos","CS","CS","3","category3/CS7.png","","","","",""
"","html-keyboard-response","20","116076","0.0-6.0-0.0-0.14","fqm7se37by","one_one","1","indirect_first","0","CK07EN07","1","24","1","1","3","1","Eine der seltsamsten Studien, an der ich je teilgenommen habe.","0","1","0","null","","","<div class = 'row'><div class = 'column'><img src = 'category2/CS1.png' width = '70%;'></div><div class = 'column'><img src = 'usneg/9050.bmp' width = '100%;'></div></div>","null","neg","CS","CS","2","category2/CS1.png","","","","",""
"","html-keyboard-response","21","118580","0.0-6.0-0.0-0.15","fqm7se37by","one_one","1","indirect_first","0","CK07EN07","1","24","1","1","3","1","Eine der seltsamsten Studien, an der ich je teilgenommen habe.","0","1","0","null","","","<div class = 'row'><div class = 'column'><img src = 'category1/CS7.png' width = '70%;'></div><div class = 'column'><img src = 'usneg/9330.bmp' width = '100%;'></div></div>","null","neg","CS","CS","1","category1/CS7.png","","","","",""
"","html-keyboard-response","22","121084","0.0-6.0-0.0-0.16","fqm7se37by","one_one","1","indirect_first","0","CK07EN07","1","24","1","1","3","1","Eine der seltsamsten Studien, an der ich je teilgenommen habe.","0","1","0","null","","","<div class = 'row'><div class = 'column'><img src = 'category3/CS7.png' width = '70%;'></div><div class = 'column'><img src = 'uspos/7580.bmp' width = '100%;'></div></div>","null","pos","CS","CS","3","category3/CS7.png","","","","",""
"","html-keyboard-response","23","123587","0.0-6.0-0.0-0.17","fqm7se37by","one_one","1","indirect_first","0","CK07EN07","1","24","1","1","3","1","Eine der seltsamsten Studien, an der ich je teilgenommen habe.","0","1","0","null","","","<div class = 'row'><div class = 'column'><img src = 'uspos/2057.bmp' width = '100%;'></div><div class = 'column'><img src = 'category4/CS3.png' width = '70%;'></div></div>","null","pos","CS","CS","4","category4/CS3.png","","","","",""
"","html-keyboard-response","24","126091","0.0-6.0-0.0-0.18","fqm7se37by","one_one","1","indirect_first","0","CK07EN07","1","24","1","1","3","1","Eine der seltsamsten Studien, an der ich je teilgenommen habe.","0","1","0","null","","","<div class = 'row'><div class = 'column'><img src = 'uspos/7580.bmp' width = '100%;'></div><div class = 'column'><img src = 'category3/CS7.png' width = '70%;'></div></div>","null","pos","CS","CS","3","category3/CS7.png","","","","",""
"","html-keyboard-response","25","128597","0.0-6.0-0.0-0.19","fqm7se37by","one_one","1","indirect_first","0","CK07EN07","1","24","1","1","3","1","Eine der seltsamsten Studien, an der ich je teilgenommen habe.","0","1","0","null","","","<div class = 'row'><div class = 'column'><img src = 'category2/CS1.png' width = '70%;'></div><div class = 'column'><img src = 'usneg/9050.bmp' width = '100%;'></div></div>","null","neg","CS","CS","2","category2/CS1.png","","","","",""
"","survey-html-form","26","130982","0.0-6.0-1.0","fqm7se37by","one_one","1","indirect_first","0","CK07EN07","1","24","1","1","3","1","Eine der seltsamsten Studien, an der ich je teilgenommen habe.","0","1","0","1883","","{}","","","","","","","","","","","",""
"","html-keyboard-response","27","134985","0.0-6.0-2.0-0.0","fqm7se37by","one_one","1","indirect_first","0","CK07EN07","1","24","1","1","3","1","Eine der seltsamsten Studien, an der ich je teilgenommen habe.","0","1","0","null","","","<div class = 'row'><div class = 'column'><img src = 'uspos/7580.bmp' width = '100%;'></div><div class = 'column'><img src = 'category3/CS7.png' width = '70%;'></div></div>","null","pos","CS","CS","3","category3/CS7.png","","","","",""
"","html-keyboard-response","28","137489","0.0-6.0-2.0-0.1","fqm7se37by","one_one","1","indirect_first","0","CK07EN07","1","24","1","1","3","1","Eine der seltsamsten Studien, an der ich je teilgenommen habe.","0","1","0","null","","","<div class = 'row'><div class = 'column'><img src = 'usneg/9050.bmp' width = '100%;'></div><div class = 'column'><img src = 'category2/CS1.png' width = '70%;'></div></div>","null","neg","CS","CS","2","category2/CS1.png","","","","",""
"","html-keyboard-response","29","139992","0.0-6.0-2.0-0.2","fqm7se37by","one_one","1","indirect_first","0","CK07EN07","1","24","1","1","3","1","Eine der seltsamsten Studien, an der ich je teilgenommen habe.","0","1","0","null","","","<div class = 'row'><div class = 'column'><img src = 'uspos/7580.bmp' width = '100%;'></div><div class = 'column'><img src = 'category3/CS7.png' width = '70%;'></div></div>","null","pos","CS","CS","3","category3/CS7.png","","","","",""
"","html-keyboard-response","30","142496","0.0-6.0-2.0-0.3","fqm7se37by","one_one","1","indirect_first","0","CK07EN07","1","24","1","1","3","1","Eine der seltsamsten Studien, an der ich je teilgenommen habe.","0","1","0","null","","","<div class = 'row'><div class = 'column'><img src = 'usneg/9330.bmp' width = '100%;'></div><div class = 'column'><img src = 'category1/CS7.png' width = '70%;'></div></div>","null","neg","CS","CS","1","category1/CS7.png","","","","",""
"","html-keyboard-response","31","145000","0.0-6.0-2.0-0.4","fqm7se37by","one_one","1","indirect_first","0","CK07EN07","1","24","1","1","3","1","Eine der seltsamsten Studien, an der ich je teilgenommen habe.","0","1","0","null","","","<div class = 'row'><div class = 'column'><img src = 'category4/CS3.png' width = '70%;'></div><div class = 'column'><img src = 'uspos/2057.bmp' width = '100%;'></div></div>","null","pos","CS","CS","4","category4/CS3.png","","","","",""
"","html-keyboard-response","32","147503","0.0-6.0-2.0-0.5","fqm7se37by","one_one","1","indirect_first","0","CK07EN07","1","24","1","1","3","1","Eine der seltsamsten Studien, an der ich je teilgenommen habe.","0","1","0","null","","","<div class = 'row'><div class = 'column'><img src = 'category3/CS7.png' width = '70%;'></div><div class = 'column'><img src = 'uspos/7580.bmp' width = '100%;'></div></div>","null","pos","CS","CS","3","category3/CS7.png","","","","",""
"","html-keyboard-response","33","150006","0.0-6.0-2.0-0.6","fqm7se37by","one_one","1","indirect_first","0","CK07EN07","1","24","1","1","3","1","Eine der seltsamsten Studien, an der ich je teilgenommen habe.","0","1","0","null","","","<div class = 'row'><div class = 'column'><img src = 'usneg/9330.bmp' width = '100%;'></div><div class = 'column'><img src = 'category1/CS7.png' width = '70%;'></div></div>","null","neg","CS","CS","1","category1/CS7.png","","","","",""
"","html-keyboard-response","34","152509","0.0-6.0-2.0-0.7","fqm7se37by","one_one","1","indirect_first","0","CK07EN07","1","24","1","1","3","1","Eine der seltsamsten Studien, an der ich je teilgenommen habe.","0","1","0","null","","","<div class = 'row'><div class = 'column'><img src = 'category3/CS7.png' width = '70%;'></div><div class = 'column'><img src = 'uspos/7580.bmp' width = '100%;'></div></div>","null","pos","CS","CS","3","category3/CS7.png","","","","",""
"","html-keyboard-response","35","155013","0.0-6.0-2.0-0.8","fqm7se37by","one_one","1","indirect_first","0","CK07EN07","1","24","1","1","3","1","Eine der seltsamsten Studien, an der ich je teilgenommen habe.","0","1","0","null","","","<div class = 'row'><div class = 'column'><img src = 'uspos/2057.bmp' width = '100%;'></div><div class = 'column'><img src = 'category4/CS3.png' width = '70%;'></div></div>","null","pos","CS","CS","4","category4/CS3.png","","","","",""
"","html-keyboard-response","36","157517","0.0-6.0-2.0-0.9","fqm7se37by","one_one","1","indirect_first","0","CK07EN07","1","24","1","1","3","1","Eine der seltsamsten Studien, an der ich je teilgenommen habe.","0","1","0","null","","","<div class = 'row'><div class = 'column'><img src = 'category2/CS1.png' width = '70%;'></div><div class = 'column'><img src = 'usneg/9050.bmp' width = '100%;'></div></div>","null","neg","CS","CS","2","category2/CS1.png","","","","",""
"","html-keyboard-response","37","160020","0.0-6.0-2.0-0.10","fqm7se37by","one_one","1","indirect_first","0","CK07EN07","1","24","1","1","3","1","Eine der seltsamsten Studien, an der ich je teilgenommen habe.","0","1","0","null","","","<div class = 'row'><div class = 'column'><img src = 'category1/CS7.png' width = '70%;'></div><div class = 'column'><img src = 'usneg/9330.bmp' width = '100%;'></div></div>","null","neg","CS","CS","1","category1/CS7.png","","","","",""
"","html-keyboard-response","38","162524","0.0-6.0-2.0-0.11","fqm7se37by","one_one","1","indirect_first","0","CK07EN07","1","24","1","1","3","1","Eine der seltsamsten Studien, an der ich je teilgenommen habe.","0","1","0","null","","","<div class = 'row'><div class = 'column'><img src = 'category3/CS7.png' width = '70%;'></div><div class = 'column'><img src = 'uspos/7580.bmp' width = '100%;'></div></div>","null","pos","CS","CS","3","category3/CS7.png","","","","",""
"","html-keyboard-response","39","165027","0.0-6.0-2.0-0.12","fqm7se37by","one_one","1","indirect_first","0","CK07EN07","1","24","1","1","3","1","Eine der seltsamsten Studien, an der ich je teilgenommen habe.","0","1","0","null","","","<div class = 'row'><div class = 'column'><img src = 'category4/CS3.png' width = '70%;'></div><div class = 'column'><img src = 'uspos/2057.bmp' width = '100%;'></div></div>","null","pos","CS","CS","4","category4/CS3.png","","","","",""
"","html-keyboard-response","40","167531","0.0-6.0-2.0-0.13","fqm7se37by","one_one","1","indirect_first","0","CK07EN07","1","24","1","1","3","1","Eine der seltsamsten Studien, an der ich je teilgenommen habe.","0","1","0","null","","","<div class = 'row'><div class = 'column'><img src = 'usneg/9050.bmp' width = '100%;'></div><div class = 'column'><img src = 'category2/CS1.png' width = '70%;'></div></div>","null","neg","CS","CS","2","category2/CS1.png","","","","",""
"","html-keyboard-response","41","170035","0.0-6.0-2.0-0.14","fqm7se37by","one_one","1","indirect_first","0","CK07EN07","1","24","1","1","3","1","Eine der seltsamsten Studien, an der ich je teilgenommen habe.","0","1","0","null","","","<div class = 'row'><div class = 'column'><img src = 'uspos/2057.bmp' width = '100%;'></div><div class = 'column'><img src = 'category4/CS3.png' width = '70%;'></div></div>","null","pos","CS","CS","4","category4/CS3.png","","","","",""
"","html-keyboard-response","42","172538","0.0-6.0-2.0-0.15","fqm7se37by","one_one","1","indirect_first","0","CK07EN07","1","24","1","1","3","1","Eine der seltsamsten Studien, an der ich je teilgenommen habe.","0","1","0","null","","","<div class = 'row'><div class = 'column'><img src = 'usneg/9050.bmp' width = '100%;'></div><div class = 'column'><img src = 'category2/CS1.png' width = '70%;'></div></div>","null","neg","CS","CS","2","category2/CS1.png","","","","",""
"","html-keyboard-response","43","175042","0.0-6.0-2.0-0.16","fqm7se37by","one_one","1","indirect_first","0","CK07EN07","1","24","1","1","3","1","Eine der seltsamsten Studien, an der ich je teilgenommen habe.","0","1","0","null","","","<div class = 'row'><div class = 'column'><img src = 'usneg/9330.bmp' width = '100%;'></div><div class = 'column'><img src = 'category1/CS7.png' width = '70%;'></div></div>","null","neg","CS","CS","1","category1/CS7.png","","","","",""
"","html-keyboard-response","44","177545","0.0-6.0-2.0-0.17","fqm7se37by","one_one","1","indirect_first","0","CK07EN07","1","24","1","1","3","1","Eine der seltsamsten Studien, an der ich je teilgenommen habe.","0","1","0","null","","","<div class = 'row'><div class = 'column'><img src = 'uspos/2057.bmp' width = '100%;'></div><div class = 'column'><img src = 'category4/CS3.png' width = '70%;'></div></div>","null","pos","CS","CS","4","category4/CS3.png","","","","",""
"","html-keyboard-response","45","180048","0.0-6.0-2.0-0.18","fqm7se37by","one_one","1","indirect_first","0","CK07EN07","1","24","1","1","3","1","Eine der seltsamsten Studien, an der ich je teilgenommen habe.","0","1","0","null","","","<div class = 'row'><div class = 'column'><img src = 'category2/CS1.png' width = '70%;'></div><div class = 'column'><img src = 'usneg/9050.bmp' width = '100%;'></div></div>","null","neg","CS","CS","2","category2/CS1.png","","","","",""
"","html-keyboard-response","46","182551","0.0-6.0-2.0-0.19","fqm7se37by","one_one","1","indirect_first","0","CK07EN07","1","24","1","1","3","1","Eine der seltsamsten Studien, an der ich je teilgenommen habe.","0","1","0","null","","","<div class = 'row'><div class = 'column'><img src = 'category1/CS7.png' width = '70%;'></div><div class = 'column'><img src = 'usneg/9330.bmp' width = '100%;'></div></div>","null","neg","CS","CS","1","category1/CS7.png","","","","",""
"","survey-html-form","47","184640","0.0-6.0-3.0","fqm7se37by","one_one","1","indirect_first","0","CK07EN07","1","24","1","1","3","1","Eine der seltsamsten Studien, an der ich je teilgenommen habe.","0","1","0","1588.000000000029","","{}","","","","","","","","","","","",""
"","html-keyboard-response","48","188643","0.0-6.0-4.0-0.0","fqm7se37by","one_one","1","indirect_first","0","CK07EN07","1","24","1","1","3","1","Eine der seltsamsten Studien, an der ich je teilgenommen habe.","0","1","0","null","","","<div class = 'row'><div class = 'column'><img src = 'uspos/2057.bmp' width = '100%;'></div><div class = 'column'><img src = 'category4/CS3.png' width = '70%;'></div></div>","null","pos","CS","CS","4","category4/CS3.png","","","","",""
"","html-keyboard-response","49","191145","0.0-6.0-4.0-0.1","fqm7se37by","one_one","1","indirect_first","0","CK07EN07","1","24","1","1","3","1","Eine der seltsamsten Studien, an der ich je teilgenommen habe.","0","1","0","null","","","<div class = 'row'><div class = 'column'><img src = 'uspos/7580.bmp' width = '100%;'></div><div class = 'column'><img src = 'category3/CS7.png' width = '70%;'></div></div>","null","pos","CS","CS","3","category3/CS7.png","","","","",""
"","html-keyboard-response","50","193649","0.0-6.0-4.0-0.2","fqm7se37by","one_one","1","indirect_first","0","CK07EN07","1","24","1","1","3","1","Eine der seltsamsten Studien, an der ich je teilgenommen habe.","0","1","0","null","","","<div class = 'row'><div class = 'column'><img src = 'category2/CS1.png' width = '70%;'></div><div class = 'column'><img src = 'usneg/9050.bmp' width = '100%;'></div></div>","null","neg","CS","CS","2","category2/CS1.png","","","","",""
"","html-keyboard-response","51","196151","0.0-6.0-4.0-0.3","fqm7se37by","one_one","1","indirect_first","0","CK07EN07","1","24","1","1","3","1","Eine der seltsamsten Studien, an der ich je teilgenommen habe.","0","1","0","null","","","<div class = 'row'><div class = 'column'><img src = 'usneg/9330.bmp' width = '100%;'></div><div class = 'column'><img src = 'category1/CS7.png' width = '70%;'></div></div>","null","neg","CS","CS","1","category1/CS7.png","","","","",""
"","html-keyboard-response","52","198653","0.0-6.0-4.0-0.4","fqm7se37by","one_one","1","indirect_first","0","CK07EN07","1","24","1","1","3","1","Eine der seltsamsten Studien, an der ich je teilgenommen habe.","0","1","0","null","","","<div class = 'row'><div class = 'column'><img src = 'usneg/9050.bmp' width = '100%;'></div><div class = 'column'><img src = 'category2/CS1.png' width = '70%;'></div></div>","null","neg","CS","CS","2","category2/CS1.png","","","","",""
"","html-keyboard-response","53","202643","0.0-6.0-4.0-0.5","fqm7se37by","one_one","1","indirect_first","0","CK07EN07","1","24","1","1","3","1","Eine der seltsamsten Studien, an der ich je teilgenommen habe.","0","1","0","null","","","<div class = 'row'><div class = 'column'><img src = 'usneg/9330.bmp' width = '100%;'></div><div class = 'column'><img src = 'category1/CS7.png' width = '70%;'></div></div>","null","neg","CS","CS","1","category1/CS7.png","","","","",""
"","html-keyboard-response","54","206643","0.0-6.0-4.0-0.6","fqm7se37by","one_one","1","indirect_first","0","CK07EN07","1","24","1","1","3","1","Eine der seltsamsten Studien, an der ich je teilgenommen habe.","0","1","0","null","","","<div class = 'row'><div class = 'column'><img src = 'uspos/2057.bmp' width = '100%;'></div><div class = 'column'><img src = 'category4/CS3.png' width = '70%;'></div></div>","null","pos","CS","CS","4","category4/CS3.png","","","","",""
"","html-keyboard-response","55","217702","0.0-6.0-4.0-0.7","fqm7se37by","one_one","1","indirect_first","0","CK07EN07","1","24","1","1","3","1","Eine der seltsamsten Studien, an der ich je teilgenommen habe.","0","1","0","null","","","<div class = 'row'><div class = 'column'><img src = 'category1/CS7.png' width = '70%;'></div><div class = 'column'><img src = 'usneg/9330.bmp' width = '100%;'></div></div>","null","neg","CS","CS","1","category1/CS7.png","","","","",""
"","html-keyboard-response","56","225180","0.0-6.0-4.0-0.8","fqm7se37by","one_one","1","indirect_first","0","CK07EN07","1","24","1","1","3","1","Eine der seltsamsten Studien, an der ich je teilgenommen habe.","0","1","0","null","","","<div class = 'row'><div class = 'column'><img src = 'category3/CS7.png' width = '70%;'></div><div class = 'column'><img src = 'uspos/7580.bmp' width = '100%;'></div></div>","null","pos","CS","CS","3","category3/CS7.png","","","","",""
"","html-keyboard-response","57","227684","0.0-6.0-4.0-0.9","fqm7se37by","one_one","1","indirect_first","0","CK07EN07","1","24","1","1","3","1","Eine der seltsamsten Studien, an der ich je teilgenommen habe.","0","1","0","null","","","<div class = 'row'><div class = 'column'><img src = 'category2/CS1.png' width = '70%;'></div><div class = 'column'><img src = 'usneg/9050.bmp' width = '100%;'></div></div>","null","neg","CS","CS","2","category2/CS1.png","","","","",""
"","html-keyboard-response","58","230187","0.0-6.0-4.0-0.10","fqm7se37by","one_one","1","indirect_first","0","CK07EN07","1","24","1","1","3","1","Eine der seltsamsten Studien, an der ich je teilgenommen habe.","0","1","0","null","","","<div class = 'row'><div class = 'column'><img src = 'uspos/7580.bmp' width = '100%;'></div><div class = 'column'><img src = 'category3/CS7.png' width = '70%;'></div></div>","null","pos","CS","CS","3","category3/CS7.png","","","","",""
"","html-keyboard-response","59","232694","0.0-6.0-4.0-0.11","fqm7se37by","one_one","1","indirect_first","0","CK07EN07","1","24","1","1","3","1","Eine der seltsamsten Studien, an der ich je teilgenommen habe.","0","1","0","null","","","<div class = 'row'><div class = 'column'><img src = 'category2/CS1.png' width = '70%;'></div><div class = 'column'><img src = 'usneg/9050.bmp' width = '100%;'></div></div>","null","neg","CS","CS","2","category2/CS1.png","","","","",""
"","html-keyboard-response","60","235198","0.0-6.0-4.0-0.12","fqm7se37by","one_one","1","indirect_first","0","CK07EN07","1","24","1","1","3","1","Eine der seltsamsten Studien, an der ich je teilgenommen habe.","0","1","0","null","","","<div class = 'row'><div class = 'column'><img src = 'category1/CS7.png' width = '70%;'></div><div class = 'column'><img src = 'usneg/9330.bmp' width = '100%;'></div></div>","null","neg","CS","CS","1","category1/CS7.png","","","","",""
"","html-keyboard-response","61","237702","0.0-6.0-4.0-0.13","fqm7se37by","one_one","1","indirect_first","0","CK07EN07","1","24","1","1","3","1","Eine der seltsamsten Studien, an der ich je teilgenommen habe.","0","1","0","null","","","<div class = 'row'><div class = 'column'><img src = 'uspos/7580.bmp' width = '100%;'></div><div class = 'column'><img src = 'category3/CS7.png' width = '70%;'></div></div>","null","pos","CS","CS","3","category3/CS7.png","","","","",""
"","html-keyboard-response","62","240206","0.0-6.0-4.0-0.14","fqm7se37by","one_one","1","indirect_first","0","CK07EN07","1","24","1","1","3","1","Eine der seltsamsten Studien, an der ich je teilgenommen habe.","0","1","0","null","","","<div class = 'row'><div class = 'column'><img src = 'usneg/9330.bmp' width = '100%;'></div><div class = 'column'><img src = 'category1/CS7.png' width = '70%;'></div></div>","null","neg","CS","CS","1","category1/CS7.png","","","","",""
"","html-keyboard-response","63","242709","0.0-6.0-4.0-0.15","fqm7se37by","one_one","1","indirect_first","0","CK07EN07","1","24","1","1","3","1","Eine der seltsamsten Studien, an der ich je teilgenommen habe.","0","1","0","null","","","<div class = 'row'><div class = 'column'><img src = 'uspos/2057.bmp' width = '100%;'></div><div class = 'column'><img src = 'category4/CS3.png' width = '70%;'></div></div>","null","pos","CS","CS","4","category4/CS3.png","","","","",""
"","html-keyboard-response","64","245213","0.0-6.0-4.0-0.16","fqm7se37by","one_one","1","indirect_first","0","CK07EN07","1","24","1","1","3","1","Eine der seltsamsten Studien, an der ich je teilgenommen habe.","0","1","0","null","","","<div class = 'row'><div class = 'column'><img src = 'category2/CS1.png' width = '70%;'></div><div class = 'column'><img src = 'usneg/9050.bmp' width = '100%;'></div></div>","null","neg","CS","CS","2","category2/CS1.png","","","","",""
"","html-keyboard-response","65","247716","0.0-6.0-4.0-0.17","fqm7se37by","one_one","1","indirect_first","0","CK07EN07","1","24","1","1","3","1","Eine der seltsamsten Studien, an der ich je teilgenommen habe.","0","1","0","null","","","<div class = 'row'><div class = 'column'><img src = 'category4/CS3.png' width = '70%;'></div><div class = 'column'><img src = 'uspos/2057.bmp' width = '100%;'></div></div>","null","pos","CS","CS","4","category4/CS3.png","","","","",""
"","html-keyboard-response","66","250223","0.0-6.0-4.0-0.18","fqm7se37by","one_one","1","indirect_first","0","CK07EN07","1","24","1","1","3","1","Eine der seltsamsten Studien, an der ich je teilgenommen habe.","0","1","0","null","","","<div class = 'row'><div class = 'column'><img src = 'category3/CS7.png' width = '70%;'></div><div class = 'column'><img src = 'uspos/7580.bmp' width = '100%;'></div></div>","null","pos","CS","CS","3","category3/CS7.png","","","","",""
"","html-keyboard-response","67","252726","0.0-6.0-4.0-0.19","fqm7se37by","one_one","1","indirect_first","0","CK07EN07","1","24","1","1","3","1","Eine der seltsamsten Studien, an der ich je teilgenommen habe.","0","1","0","null","","","<div class = 'row'><div class = 'column'><img src = 'uspos/2057.bmp' width = '100%;'></div><div class = 'column'><img src = 'category4/CS3.png' width = '70%;'></div></div>","null","pos","CS","CS","4","category4/CS3.png","","","","",""
"","survey-html-form","68","255120","0.0-6.0-5.0","fqm7se37by","one_one","1","indirect_first","0","CK07EN07","1","24","1","1","3","1","Eine der seltsamsten Studien, an der ich je teilgenommen habe.","0","1","0","1892.0000000000582","","{}","","","","","","","","","","","",""
"","html-keyboard-response","69","259123","0.0-6.0-6.0-0.0","fqm7se37by","one_one","1","indirect_first","0","CK07EN07","1","24","1","1","3","1","Eine der seltsamsten Studien, an der ich je teilgenommen habe.","0","1","0","null","","","<div class = 'row'><div class = 'column'><img src = 'usneg/9050.bmp' width = '100%;'></div><div class = 'column'><img src = 'category2/CS1.png' width = '70%;'></div></div>","null","neg","CS","CS","2","category2/CS1.png","","","","",""
"","html-keyboard-response","70","261627","0.0-6.0-6.0-0.1","fqm7se37by","one_one","1","indirect_first","0","CK07EN07","1","24","1","1","3","1","Eine der seltsamsten Studien, an der ich je teilgenommen habe.","0","1","0","null","","","<div class = 'row'><div class = 'column'><img src = 'uspos/2057.bmp' width = '100%;'></div><div class = 'column'><img src = 'category4/CS3.png' width = '70%;'></div></div>","null","pos","CS","CS","4","category4/CS3.png","","","","",""
"","html-keyboard-response","71","264129","0.0-6.0-6.0-0.2","fqm7se37by","one_one","1","indirect_first","0","CK07EN07","1","24","1","1","3","1","Eine der seltsamsten Studien, an der ich je teilgenommen habe.","0","1","0","null","","","<div class = 'row'><div class = 'column'><img src = 'usneg/9330.bmp' width = '100%;'></div><div class = 'column'><img src = 'category1/CS7.png' width = '70%;'></div></div>","null","neg","CS","CS","1","category1/CS7.png","","","","",""
"","html-keyboard-response","72","266632","0.0-6.0-6.0-0.3","fqm7se37by","one_one","1","indirect_first","0","CK07EN07","1","24","1","1","3","1","Eine der seltsamsten Studien, an der ich je teilgenommen habe.","0","1","0","null","","","<div class = 'row'><div class = 'column'><img src = 'category2/CS1.png' width = '70%;'></div><div class = 'column'><img src = 'usneg/9050.bmp' width = '100%;'></div></div>","null","neg","CS","CS","2","category2/CS1.png","","","","",""
"","html-keyboard-response","73","269136","0.0-6.0-6.0-0.4","fqm7se37by","one_one","1","indirect_first","0","CK07EN07","1","24","1","1","3","1","Eine der seltsamsten Studien, an der ich je teilgenommen habe.","0","1","0","null","","","<div class = 'row'><div class = 'column'><img src = 'category1/CS7.png' width = '70%;'></div><div class = 'column'><img src = 'usneg/9330.bmp' width = '100%;'></div></div>","null","neg","CS","CS","1","category1/CS7.png","","","","",""
"","html-keyboard-response","74","271638","0.0-6.0-6.0-0.5","fqm7se37by","one_one","1","indirect_first","0","CK07EN07","1","24","1","1","3","1","Eine der seltsamsten Studien, an der ich je teilgenommen habe.","0","1","0","null","","","<div class = 'row'><div class = 'column'><img src = 'usneg/9050.bmp' width = '100%;'></div><div class = 'column'><img src = 'category2/CS1.png' width = '70%;'></div></div>","null","neg","CS","CS","2","category2/CS1.png","","","","",""
"","html-keyboard-response","75","274143","0.0-6.0-6.0-0.6","fqm7se37by","one_one","1","indirect_first","0","CK07EN07","1","24","1","1","3","1","Eine der seltsamsten Studien, an der ich je teilgenommen habe.","0","1","0","null","","","<div class = 'row'><div class = 'column'><img src = 'uspos/2057.bmp' width = '100%;'></div><div class = 'column'><img src = 'category4/CS3.png' width = '70%;'></div></div>","null","pos","CS","CS","4","category4/CS3.png","","","","",""
"","html-keyboard-response","76","276646","0.0-6.0-6.0-0.7","fqm7se37by","one_one","1","indirect_first","0","CK07EN07","1","24","1","1","3","1","Eine der seltsamsten Studien, an der ich je teilgenommen habe.","0","1","0","null","","","<div class = 'row'><div class = 'column'><img src = 'category1/CS7.png' width = '70%;'></div><div class = 'column'><img src = 'usneg/9330.bmp' width = '100%;'></div></div>","null","neg","CS","CS","1","category1/CS7.png","","","","",""
"","html-keyboard-response","77","279149","0.0-6.0-6.0-0.8","fqm7se37by","one_one","1","indirect_first","0","CK07EN07","1","24","1","1","3","1","Eine der seltsamsten Studien, an der ich je teilgenommen habe.","0","1","0","null","","","<div class = 'row'><div class = 'column'><img src = 'uspos/7580.bmp' width = '100%;'></div><div class = 'column'><img src = 'category3/CS7.png' width = '70%;'></div></div>","null","pos","CS","CS","3","category3/CS7.png","","","","",""
"","html-keyboard-response","78","281652","0.0-6.0-6.0-0.9","fqm7se37by","one_one","1","indirect_first","0","CK07EN07","1","24","1","1","3","1","Eine der seltsamsten Studien, an der ich je teilgenommen habe.","0","1","0","null","","","<div class = 'row'><div class = 'column'><img src = 'category1/CS7.png' width = '70%;'></div><div class = 'column'><img src = 'usneg/9330.bmp' width = '100%;'></div></div>","null","neg","CS","CS","1","category1/CS7.png","","","","",""
"","html-keyboard-response","79","284157","0.0-6.0-6.0-0.10","fqm7se37by","one_one","1","indirect_first","0","CK07EN07","1","24","1","1","3","1","Eine der seltsamsten Studien, an der ich je teilgenommen habe.","0","1","0","null","","","<div class = 'row'><div class = 'column'><img src = 'uspos/7580.bmp' width = '100%;'></div><div class = 'column'><img src = 'category3/CS7.png' width = '70%;'></div></div>","null","pos","CS","CS","3","category3/CS7.png","","","","",""
"","html-keyboard-response","80","286661","0.0-6.0-6.0-0.11","fqm7se37by","one_one","1","indirect_first","0","CK07EN07","1","24","1","1","3","1","Eine der seltsamsten Studien, an der ich je teilgenommen habe.","0","1","0","null","","","<div class = 'row'><div class = 'column'><img src = 'uspos/2057.bmp' width = '100%;'></div><div class = 'column'><img src = 'category4/CS3.png' width = '70%;'></div></div>","null","pos","CS","CS","4","category4/CS3.png","","","","",""
"","html-keyboard-response","81","289165","0.0-6.0-6.0-0.12","fqm7se37by","one_one","1","indirect_first","0","CK07EN07","1","24","1","1","3","1","Eine der seltsamsten Studien, an der ich je teilgenommen habe.","0","1","0","null","","","<div class = 'row'><div class = 'column'><img src = 'usneg/9050.bmp' width = '100%;'></div><div class = 'column'><img src = 'category2/CS1.png' width = '70%;'></div></div>","null","neg","CS","CS","2","category2/CS1.png","","","","",""
"","html-keyboard-response","82","291669","0.0-6.0-6.0-0.13","fqm7se37by","one_one","1","indirect_first","0","CK07EN07","1","24","1","1","3","1","Eine der seltsamsten Studien, an der ich je teilgenommen habe.","0","1","0","null","","","<div class = 'row'><div class = 'column'><img src = 'uspos/7580.bmp' width = '100%;'></div><div class = 'column'><img src = 'category3/CS7.png' width = '70%;'></div></div>","null","pos","CS","CS","3","category3/CS7.png","","","","",""
"","html-keyboard-response","83","294173","0.0-6.0-6.0-0.14","fqm7se37by","one_one","1","indirect_first","0","CK07EN07","1","24","1","1","3","1","Eine der seltsamsten Studien, an der ich je teilgenommen habe.","0","1","0","null","","","<div class = 'row'><div class = 'column'><img src = 'uspos/2057.bmp' width = '100%;'></div><div class = 'column'><img src = 'category4/CS3.png' width = '70%;'></div></div>","null","pos","CS","CS","4","category4/CS3.png","","","","",""
"","html-keyboard-response","84","296674","0.0-6.0-6.0-0.15","fqm7se37by","one_one","1","indirect_first","0","CK07EN07","1","24","1","1","3","1","Eine der seltsamsten Studien, an der ich je teilgenommen habe.","0","1","0","null","","","<div class = 'row'><div class = 'column'><img src = 'category1/CS7.png' width = '70%;'></div><div class = 'column'><img src = 'usneg/9330.bmp' width = '100%;'></div></div>","null","neg","CS","CS","1","category1/CS7.png","","","","",""
"","html-keyboard-response","85","299178","0.0-6.0-6.0-0.16","fqm7se37by","one_one","1","indirect_first","0","CK07EN07","1","24","1","1","3","1","Eine der seltsamsten Studien, an der ich je teilgenommen habe.","0","1","0","null","","","<div class = 'row'><div class = 'column'><img src = 'uspos/7580.bmp' width = '100%;'></div><div class = 'column'><img src = 'category3/CS7.png' width = '70%;'></div></div>","null","pos","CS","CS","3","category3/CS7.png","","","","",""
"","html-keyboard-response","86","301684","0.0-6.0-6.0-0.17","fqm7se37by","one_one","1","indirect_first","0","CK07EN07","1","24","1","1","3","1","Eine der seltsamsten Studien, an der ich je teilgenommen habe.","0","1","0","null","","","<div class = 'row'><div class = 'column'><img src = 'uspos/2057.bmp' width = '100%;'></div><div class = 'column'><img src = 'category4/CS3.png' width = '70%;'></div></div>","null","pos","CS","CS","4","category4/CS3.png","","","","",""
"","html-keyboard-response","87","304192","0.0-6.0-6.0-0.18","fqm7se37by","one_one","1","indirect_first","0","CK07EN07","1","24","1","1","3","1","Eine der seltsamsten Studien, an der ich je teilgenommen habe.","0","1","0","null","","","<div class = 'row'><div class = 'column'><img src = 'category2/CS1.png' width = '70%;'></div><div class = 'column'><img src = 'usneg/9050.bmp' width = '100%;'></div></div>","null","neg","CS","CS","2","category2/CS1.png","","","","",""
"","html-keyboard-response","88","306696","0.0-6.0-6.0-0.19","fqm7se37by","one_one","1","indirect_first","0","CK07EN07","1","24","1","1","3","1","Eine der seltsamsten Studien, an der ich je teilgenommen habe.","0","1","0","null","","","<div class = 'row'><div class = 'column'><img src = 'category3/CS7.png' width = '70%;'></div><div class = 'column'><img src = 'uspos/7580.bmp' width = '100%;'></div></div>","null","pos","CS","CS","3","category3/CS7.png","","","","",""
"","html-keyboard-response","89","326049","0.0-7.0","fqm7se37by","one_one","1","indirect_first","0","CK07EN07","1","24","1","1","3","1","Eine der seltsamsten Studien, an der ich je teilgenommen habe.","0","1","0","18851","","","<p>Sie sehen nun die chinesischen Zeichen nur ganz kurz. Danach sehen Sie die jeweilige Aussprache der Zeichen als Silbe auf dem Bildschrim. Ihre Aufgabe ist es, für jede Silbe anzugeben, ob diese etwas angenehmes, oder unangenehmes bedeuten könnte. Verlassen Sie sich hier vor allem auf Ihre Intuition.<br><br>Die Zeichen werden nur zur Orientierung dargestellt, beachten Sie sie deshalb nicht. Konzentrieren Sie sich vor allem auf die Silben. <br>Reagieren Sie mit folgenden zwei Tasten: <br><br><b>'D' </b> wenn die Silbe etwas <b>unangenehmes</b> bedeuten könnte. <br><b>'K'</b> wenn die Silbe etwas <b>angenehmes</b> bedeuten könnte. <br><br>Bitte legen Sie nun den Zeigefinger der linken Hand auf die Taste 'D' und den Zeigefinger der rechten Hand auf die Taste 'K'. <br>Reagieren Sie auf jede Silbe so schnell wie möglich. Uns interessiert Ihre spontane Reaktion. <br> <br> <br>Drücken Sie 'D' oder 'K', um die nächste Aufgabe zu starten. </p>","68","","","","","","","","","",""
"","html-keyboard-response","90","329051","0.0-8.0-0.0","fqm7se37by","one_one","1","indirect_first","0","CK07EN07","1","24","1","1","3","1","Eine der seltsamsten Studien, an der ich je teilgenommen habe.","0","1","0","null","","","<div style=""font-size:60px;"">+</div>","null","","","","","","","","","",""
"","html-keyboard-response","91","329142","0.0-8.0-1.0","fqm7se37by","one_one","1","indirect_first","0","CK07EN07","1","24","1","1","3","1","Eine der seltsamsten Studien, an der ich je teilgenommen habe.","0","1","0","null","","","<img src = 'category2/CS1.png' width = '100%;'>","null","","","","","","","","","",""
"","html-keyboard-response","92","329396","0.0-8.0-2.0","fqm7se37by","one_one","1","indirect_first","0","CK07EN07","1","24","1","1","3","1","Eine der seltsamsten Studien, an der ich je teilgenommen habe.","0","1","0","null","","","<img src = 'targets/1.png' width = '100%;'>","null","","","","","","","","","",""
"","html-keyboard-response","93","335636","0.0-8.0-3.0","fqm7se37by","one_one","1","indirect_first","0","CK07EN07","1","24","1","1","3","1","Eine der seltsamsten Studien, an der ich je teilgenommen habe.","0","1","0","6239","","","<img src = 'targets/mask.png' width = '100%;'>","75","neg","CS","CS","2","category2/CS1.png","targets/1.png","1","indirect","0",""
"","html-keyboard-response","94","337140","0.0-8.0-0.1","fqm7se37by","one_one","1","indirect_first","0","CK07EN07","1","24","1","1","3","1","Eine der seltsamsten Studien, an der ich je teilgenommen habe.","0","1","0","null","","","<div style=""font-size:60px;"">+</div>","null","","","","","","","","","",""
"","html-keyboard-response","95","337232","0.0-8.0-1.1","fqm7se37by","one_one","1","indirect_first","0","CK07EN07","1","24","1","1","3","1","Eine der seltsamsten Studien, an der ich je teilgenommen habe.","0","1","0","null","","","<img src = 'category3/CS9.png' width = '100%;'>","null","","","","","","","","","",""
"","html-keyboard-response","96","337485","0.0-8.0-2.1","fqm7se37by","one_one","1","indirect_first","0","CK07EN07","1","24","1","1","3","1","Eine der seltsamsten Studien, an der ich je teilgenommen habe.","0","1","0","null","","","<img src = 'targets/23.png' width = '100%;'>","null","","","","","","","","","",""
"","html-keyboard-response","97","340614","0.0-8.0-3.1","fqm7se37by","one_one","1","indirect_first","0","CK07EN07","1","24","1","1","3","1","Eine der seltsamsten Studien, an der ich je teilgenommen habe.","0","1","0","3128","","","<img src = 'targets/mask.png' width = '100%;'>","75","pos","GS","GSold","3","category3/CS9.png","targets/23.png","1","indirect","1",""
"","html-keyboard-response","98","342116","0.0-8.0-0.2","fqm7se37by","one_one","1","indirect_first","0","CK07EN07","1","24","1","1","3","1","Eine der seltsamsten Studien, an der ich je teilgenommen habe.","0","1","0","null","","","<div style=""font-size:60px;"">+</div>","null","","","","","","","","","",""
"","html-keyboard-response","99","342208","0.0-8.0-1.2","fqm7se37by","one_one","1","indirect_first","0","CK07EN07","1","24","1","1","3","1","Eine der seltsamsten Studien, an der ich je teilgenommen habe.","0","1","0","null","","","<img src = 'category3/CS7.png' width = '100%;'>","null","","","","","","","","","",""
"","html-keyboard-response","100","342461","0.0-8.0-2.2","fqm7se37by","one_one","1","indirect_first","0","CK07EN07","1","24","1","1","3","1","Eine der seltsamsten Studien, an der ich je teilgenommen habe.","0","1","0","null","","","<img src = 'targets/39.png' width = '100%;'>","null","","","","","","","","","",""
"","html-keyboard-response","101","344173","0.0-8.0-3.2","fqm7se37by","one_one","1","indirect_first","0","CK07EN07","1","24","1","1","3","1","Eine der seltsamsten Studien, an der ich je teilgenommen habe.","0","1","0","1711","","","<img src = 'targets/mask.png' width = '100%;'>","75","pos","CS","CS","3","category3/CS7.png","targets/39.png","1","indirect","2",""
"","html-keyboard-response","102","345676","0.0-8.0-0.3","fqm7se37by","one_one","1","indirect_first","0","CK07EN07","1","24","1","1","3","1","Eine der seltsamsten Studien, an der ich je teilgenommen habe.","0","1","0","null","","","<div style=""font-size:60px;"">+</div>","null","","","","","","","","","",""
"","html-keyboard-response","103","345768","0.0-8.0-1.3","fqm7se37by","one_one","1","indirect_first","0","CK07EN07","1","24","1","1","3","1","Eine der seltsamsten Studien, an der ich je teilgenommen habe.","0","1","0","null","","","<img src = 'category2/CS6.png' width = '100%;'>","null","","","","","","","","","",""
"","html-keyboard-response","104","346020","0.0-8.0-2.3","fqm7se37by","one_one","1","indirect_first","0","CK07EN07","1","24","1","1","3","1","Eine der seltsamsten Studien, an der ich je teilgenommen habe.","0","1","0","null","","","<img src = 'targets/32.png' width = '100%;'>","null","","","","","","","","","",""
"","html-keyboard-response","105","348362","0.0-8.0-3.3","fqm7se37by","one_one","1","indirect_first","0","CK07EN07","1","24","1","1","3","1","Eine der seltsamsten Studien, an der ich je teilgenommen habe.","0","1","0","2341","","","<img src = 'targets/mask.png' width = '100%;'>","68","neg","GS","GSold","2","category2/CS6.png","targets/32.png","0","indirect","3",""
"","html-keyboard-response","106","349865","0.0-8.0-0.4","fqm7se37by","one_one","1","indirect_first","0","CK07EN07","1","24","1","1","3","1","Eine der seltsamsten Studien, an der ich je teilgenommen habe.","0","1","0","null","","","<div style=""font-size:60px;"">+</div>","null","","","","","","","","","",""
"","html-keyboard-response","107","349956","0.0-8.0-1.4","fqm7se37by","one_one","1","indirect_first","0","CK07EN07","1","24","1","1","3","1","Eine der seltsamsten Studien, an der ich je teilgenommen habe.","0","1","0","null","","","<img src = 'category2/CS5.png' width = '100%;'>","null","","","","","","","","","",""
"","html-keyboard-response","108","350210","0.0-8.0-2.4","fqm7se37by","one_one","1","indirect_first","0","CK07EN07","1","24","1","1","3","1","Eine der seltsamsten Studien, an der ich je teilgenommen habe.","0","1","0","null","","","<img src = 'targets/43.png' width = '100%;'>","null","","","","","","","","","",""
"","html-keyboard-response","109","351644","0.0-8.0-3.4","fqm7se37by","one_one","1","indirect_first","0","CK07EN07","1","24","1","1","3","1","Eine der seltsamsten Studien, an der ich je teilgenommen habe.","0","1","0","1433","","","<img src = 'targets/mask.png' width = '100%;'>","68","neg","GS","GSold","2","category2/CS5.png","targets/43.png","0","indirect","4",""
"","html-keyboard-response","110","353146","0.0-8.0-0.5","fqm7se37by","one_one","1","indirect_first","0","CK07EN07","1","24","1","1","3","1","Eine der seltsamsten Studien, an der ich je teilgenommen habe.","0","1","0","null","","","<div style=""font-size:60px;"">+</div>","null","","","","","","","","","",""
"","html-keyboard-response","111","353238","0.0-8.0-1.5","fqm7se37by","one_one","1","indirect_first","0","CK07EN07","1","24","1","1","3","1","Eine der seltsamsten Studien, an der ich je teilgenommen habe.","0","1","0","null","","","<img src = 'category4/CS3.png' width = '100%;'>","null","","","","","","","","","",""
"","html-keyboard-response","112","353492","0.0-8.0-2.5","fqm7se37by","one_one","1","indirect_first","0","CK07EN07","1","24","1","1","3","1","Eine der seltsamsten Studien, an der ich je teilgenommen habe.","0","1","0","null","","","<img src = 'targets/34.png' width = '100%;'>","null","","","","","","","","","",""
"","html-keyboard-response","113","354719","0.0-8.0-3.5","fqm7se37by","one_one","1","indirect_first","0","CK07EN07","1","24","1","1","3","1","Eine der seltsamsten Studien, an der ich je teilgenommen habe.","0","1","0","1225","","","<img src = 'targets/mask.png' width = '100%;'>","75","pos","CS","CS","4","category4/CS3.png","targets/34.png","1","indirect","5",""
"","html-keyboard-response","114","356221","0.0-8.0-0.6","fqm7se37by","one_one","1","indirect_first","0","CK07EN07","1","24","1","1","3","1","Eine der seltsamsten Studien, an der ich je teilgenommen habe.","0","1","0","null","","","<div style=""font-size:60px;"">+</div>","null","","","","","","","","","",""
"","html-keyboard-response","115","356313","0.0-8.0-1.6","fqm7se37by","one_one","1","indirect_first","0","CK07EN07","1","24","1","1","3","1","Eine der seltsamsten Studien, an der ich je teilgenommen habe.","0","1","0","null","","","<img src = 'category4/CS2.png' width = '100%;'>","null","","","","","","","","","",""
"","html-keyboard-response","116","356565","0.0-8.0-2.6","fqm7se37by","one_one","1","indirect_first","0","CK07EN07","1","24","1","1","3","1","Eine der seltsamsten Studien, an der ich je teilgenommen habe.","0","1","0","null","","","<img src = 'targets/16.png' width = '100%;'>","null","","","","","","","","","",""
"","html-keyboard-response","117","357914","0.0-8.0-3.6","fqm7se37by","one_one","1","indirect_first","0","CK07EN07","1","24","1","1","3","1","Eine der seltsamsten Studien, an der ich je teilgenommen habe.","0","1","0","1348","","","<img src = 'targets/mask.png' width = '100%;'>","75","pos","GS","GSold","4","category4/CS2.png","targets/16.png","1","indirect","6",""
"","html-keyboard-response","118","359417","0.0-8.0-0.7","fqm7se37by","one_one","1","indirect_first","0","CK07EN07","1","24","1","1","3","1","Eine der seltsamsten Studien, an der ich je teilgenommen habe.","0","1","0","null","","","<div style=""font-size:60px;"">+</div>","null","","","","","","","","","",""
"","html-keyboard-response","119","359509","0.0-8.0-1.7","fqm7se37by","one_one","1","indirect_first","0","CK07EN07","1","24","1","1","3","1","Eine der seltsamsten Studien, an der ich je teilgenommen habe.","0","1","0","null","","","<img src = 'category4/CS8.png' width = '100%;'>","null","","","","","","","","","",""
"","html-keyboard-response","120","359760","0.0-8.0-2.7","fqm7se37by","one_one","1","indirect_first","0","CK07EN07","1","24","1","1","3","1","Eine der seltsamsten Studien, an der ich je teilgenommen habe.","0","1","0","null","","","<img src = 'targets/11.png' width = '100%;'>","null","","","","","","","","","",""
"","html-keyboard-response","121","360132","0.0-8.0-3.7","fqm7se37by","one_one","1","indirect_first","0","CK07EN07","1","24","1","1","3","1","Eine der seltsamsten Studien, an der ich je teilgenommen habe.","0","1","0","371","","","<img src = 'targets/mask.png' width = '100%;'>","75","pos","GS","GSold","4","category4/CS8.png","targets/11.png","1","indirect","7",""
"","html-keyboard-response","122","361635","0.0-8.0-0.8","fqm7se37by","one_one","1","indirect_first","0","CK07EN07","1","24","1","1","3","1","Eine der seltsamsten Studien, an der ich je teilgenommen habe.","0","1","0","null","","","<div style=""font-size:60px;"">+</div>","null","","","","","","","","","",""
"","html-keyboard-response","123","361728","0.0-8.0-1.8","fqm7se37by","one_one","1","indirect_first","0","CK07EN07","1","24","1","1","3","1","Eine der seltsamsten Studien, an der ich je teilgenommen habe.","0","1","0","null","","","<img src = 'category1/CS8.png' width = '100%;'>","null","","","","","","","","","",""
"","html-keyboard-response","124","361980","0.0-8.0-2.8","fqm7se37by","one_one","1","indirect_first","0","CK07EN07","1","24","1","1","3","1","Eine der seltsamsten Studien, an der ich je teilgenommen habe.","0","1","0","null","","","<img src = 'targets/3.png' width = '100%;'>","null","","","","","","","","","",""
"","html-keyboard-response","125","362647","0.0-8.0-3.8","fqm7se37by","one_one","1","indirect_first","0","CK07EN07","1","24","1","1","3","1","Eine der seltsamsten Studien, an der ich je teilgenommen habe.","0","1","0","666","","","<img src = 'targets/mask.png' width = '100%;'>","75","neg","GS","GSold","1","category1/CS8.png","targets/3.png","1","indirect","8",""
"","html-keyboard-response","126","364151","0.0-8.0-0.9","fqm7se37by","one_one","1","indirect_first","0","CK07EN07","1","24","1","1","3","1","Eine der seltsamsten Studien, an der ich je teilgenommen habe.","0","1","0","null","","","<div style=""font-size:60px;"">+</div>","null","","","","","","","","","",""
"","html-keyboard-response","127","364243","0.0-8.0-1.9","fqm7se37by","one_one","1","indirect_first","0","CK07EN07","1","24","1","1","3","1","Eine der seltsamsten Studien, an der ich je teilgenommen habe.","0","1","0","null","","","<img src = 'category3/CS8.png' width = '100%;'>","null","","","","","","","","","",""
"","html-keyboard-response","128","364496","0.0-8.0-2.9","fqm7se37by","one_one","1","indirect_first","0","CK07EN07","1","24","1","1","3","1","Eine der seltsamsten Studien, an der ich je teilgenommen habe.","0","1","0","null","","","<img src = 'targets/5.png' width = '100%;'>","null","","","","","","","","","",""
"","html-keyboard-response","129","364823","0.0-8.0-3.9","fqm7se37by","one_one","1","indirect_first","0","CK07EN07","1","24","1","1","3","1","Eine der seltsamsten Studien, an der ich je teilgenommen habe.","0","1","0","326","","","<img src = 'targets/mask.png' width = '100%;'>","68","pos","GS","GSold","3","category3/CS8.png","targets/5.png","0","indirect","9",""
"","html-keyboard-response","130","366325","0.0-8.0-0.10","fqm7se37by","one_one","1","indirect_first","0","CK07EN07","1","24","1","1","3","1","Eine der seltsamsten Studien, an der ich je teilgenommen habe.","0","1","0","null","","","<div style=""font-size:60px;"">+</div>","null","","","","","","","","","",""
"","html-keyboard-response","131","366417","0.0-8.0-1.10","fqm7se37by","one_one","1","indirect_first","0","CK07EN07","1","24","1","1","3","1","Eine der seltsamsten Studien, an der ich je teilgenommen habe.","0","1","0","null","","","<img src = 'category1/CS7.png' width = '100%;'>","null","","","","","","","","","",""
"","html-keyboard-response","132","366669","0.0-8.0-2.10","fqm7se37by","one_one","1","indirect_first","0","CK07EN07","1","24","1","1","3","1","Eine der seltsamsten Studien, an der ich je teilgenommen habe.","0","1","0","null","","","<img src = 'targets/36.png' width = '100%;'>","null","","","","","","","","","",""
"","html-keyboard-response","133","366894","0.0-8.0-3.10","fqm7se37by","one_one","1","indirect_first","0","CK07EN07","1","24","1","1","3","1","Eine der seltsamsten Studien, an der ich je teilgenommen habe.","0","1","0","224","","","<img src = 'targets/mask.png' width = '100%;'>","68","neg","CS","CS","1","category1/CS7.png","targets/36.png","0","indirect","10",""
"","html-keyboard-response","134","368397","0.0-8.0-0.11","fqm7se37by","one_one","1","indirect_first","0","CK07EN07","1","24","1","1","3","1","Eine der seltsamsten Studien, an der ich je teilgenommen habe.","0","1","0","null","","","<div style=""font-size:60px;"">+</div>","null","","","","","","","","","",""
"","html-keyboard-response","135","368488","0.0-8.0-1.11","fqm7se37by","one_one","1","indirect_first","0","CK07EN07","1","24","1","1","3","1","Eine der seltsamsten Studien, an der ich je teilgenommen habe.","0","1","0","null","","","<img src = 'category4/CS10.png' width = '100%;'>","null","","","","","","","","","",""
"","html-keyboard-response","136","368741","0.0-8.0-2.11","fqm7se37by","one_one","1","indirect_first","0","CK07EN07","1","24","1","1","3","1","Eine der seltsamsten Studien, an der ich je teilgenommen habe.","0","1","0","null","","","<img src = 'targets/17.png' width = '100%;'>","null","","","","","","","","","",""
"","html-keyboard-response","137","368757","0.0-8.0-3.11","fqm7se37by","one_one","1","indirect_first","0","CK07EN07","1","24","1","1","3","1","Eine der seltsamsten Studien, an der ich je teilgenommen habe.","0","1","0","14","","","<img src = 'targets/mask.png' width = '100%;'>","68","pos","GS","GSold","4","category4/CS10.png","targets/17.png","0","indirect","11",""
"","html-keyboard-response","138","370260","0.0-8.0-0.12","fqm7se37by","one_one","1","indirect_first","0","CK07EN07","1","24","1","1","3","1","Eine der seltsamsten Studien, an der ich je teilgenommen habe.","0","1","0","null","","","<div style=""font-size:60px;"">+</div>","null","","","","","","","","","",""
"","html-keyboard-response","139","370352","0.0-8.0-1.12","fqm7se37by","one_one","1","indirect_first","0","CK07EN07","1","24","1","1","3","1","Eine der seltsamsten Studien, an der ich je teilgenommen habe.","0","1","0","null","","","<img src = 'category1/CS6.png' width = '100%;'>","null","","","","","","","","","",""
"","html-keyboard-response","140","370606","0.0-8.0-2.12","fqm7se37by","one_one","1","indirect_first","0","CK07EN07","1","24","1","1","3","1","Eine der seltsamsten Studien, an der ich je teilgenommen habe.","0","1","0","null","","","<img src = 'targets/22.png' width = '100%;'>","null","","","","","","","","","",""
"","html-keyboard-response","141","371089","0.0-8.0-3.12","fqm7se37by","one_one","1","indirect_first","0","CK07EN07","1","24","1","1","3","1","Eine der seltsamsten Studien, an der ich je teilgenommen habe.","0","1","0","479.9999999999418","","","<img src = 'targets/mask.png' width = '100%;'>","68","neg","GS","GSold","1","category1/CS6.png","targets/22.png","0","indirect","12",""
"","html-keyboard-response","142","372592","0.0-8.0-0.13","fqm7se37by","one_one","1","indirect_first","0","CK07EN07","1","24","1","1","3","1","Eine der seltsamsten Studien, an der ich je teilgenommen habe.","0","1","0","null","","","<div style=""font-size:60px;"">+</div>","null","","","","","","","","","",""
"","html-keyboard-response","143","372684","0.0-8.0-1.13","fqm7se37by","one_one","1","indirect_first","0","CK07EN07","1","24","1","1","3","1","Eine der seltsamsten Studien, an der ich je teilgenommen habe.","0","1","0","null","","","<img src = 'category3/CS3.png' width = '100%;'>","null","","","","","","","","","",""
"","html-keyboard-response","144","372937","0.0-8.0-2.13","fqm7se37by","one_one","1","indirect_first","0","CK07EN07","1","24","1","1","3","1","Eine der seltsamsten Studien, an der ich je teilgenommen habe.","0","1","0","null","","","<img src = 'targets/40.png' width = '100%;'>","null","","","","","","","","","",""
"","html-keyboard-response","145","373206","0.0-8.0-3.13","fqm7se37by","one_one","1","indirect_first","0","CK07EN07","1","24","1","1","3","1","Eine der seltsamsten Studien, an der ich je teilgenommen habe.","0","1","0","267.0000000000582","","","<img src = 'targets/mask.png' width = '100%;'>","68","pos","GS","GSold","3","category3/CS3.png","targets/40.png","0","indirect","13",""
"","html-keyboard-response","146","374709","0.0-8.0-0.14","fqm7se37by","one_one","1","indirect_first","0","CK07EN07","1","24","1","1","3","1","Eine der seltsamsten Studien, an der ich je teilgenommen habe.","0","1","0","null","","","<div style=""font-size:60px;"">+</div>","null","","","","","","","","","",""
"","html-keyboard-response","147","374801","0.0-8.0-1.14","fqm7se37by","one_one","1","indirect_first","0","CK07EN07","1","24","1","1","3","1","Eine der seltsamsten Studien, an der ich je teilgenommen habe.","0","1","0","null","","","<img src = 'category1/CS9.png' width = '100%;'>","null","","","","","","","","","",""
"","html-keyboard-response","148","375053","0.0-8.0-2.14","fqm7se37by","one_one","1","indirect_first","0","CK07EN07","1","24","1","1","3","1","Eine der seltsamsten Studien, an der ich je teilgenommen habe.","0","1","0","null","","","<img src = 'targets/28.png' width = '100%;'>","null","","","","","","","","","",""
"","html-keyboard-response","149","375371","0.0-8.0-3.14","fqm7se37by","one_one","1","indirect_first","0","CK07EN07","1","24","1","1","3","1","Eine der seltsamsten Studien, an der ich je teilgenommen habe.","0","1","0","317.0000000000582","","","<img src = 'targets/mask.png' width = '100%;'>","68","neg","GS","GSold","1","category1/CS9.png","targets/28.png","0","indirect","14",""
"","html-keyboard-response","150","376874","0.0-8.0-0.15","fqm7se37by","one_one","1","indirect_first","0","CK07EN07","1","24","1","1","3","1","Eine der seltsamsten Studien, an der ich je teilgenommen habe.","0","1","0","null","","","<div style=""font-size:60px;"">+</div>","null","","","","","","","","","",""
"","html-keyboard-response","151","376966","0.0-8.0-1.15","fqm7se37by","one_one","1","indirect_first","0","CK07EN07","1","24","1","1","3","1","Eine der seltsamsten Studien, an der ich je teilgenommen habe.","0","1","0","null","","","<img src = 'category2/CS9.png' width = '100%;'>","null","","","","","","","","","",""
"","html-keyboard-response","152","377219","0.0-8.0-2.15","fqm7se37by","one_one","1","indirect_first","0","CK07EN07","1","24","1","1","3","1","Eine der seltsamsten Studien, an der ich je teilgenommen habe.","0","1","0","null","","","<img src = 'targets/12.png' width = '100%;'>","null","","","","","","","","","",""
"","html-keyboard-response","153","377287","0.0-8.0-3.15","fqm7se37by","one_one","1","indirect_first","0","CK07EN07","1","24","1","1","3","1","Eine der seltsamsten Studien, an der ich je teilgenommen habe.","0","1","0","66","","","<img src = 'targets/mask.png' width = '100%;'>","68","neg","GS","GSold","2","category2/CS9.png","targets/12.png","0","indirect","15",""
"","survey-html-form","154","380612","0.0-9.0","fqm7se37by","one_one","1","indirect_first","0","CK07EN07","1","24","1","1","3","1","Eine der seltsamsten Studien, an der ich je teilgenommen habe.","0","1","0","2823","","{}","","","","","","","","","","","",""
"","html-keyboard-response","155","383617","0.0-10.0-0.0","fqm7se37by","one_one","1","indirect_first","0","CK07EN07","1","24","1","1","3","1","Eine der seltsamsten Studien, an der ich je teilgenommen habe.","0","1","0","null","","","<div style=""font-size:60px;"">+</div>","null","","","","","","","","","",""
"","html-keyboard-response","156","383709","0.0-10.0-1.0","fqm7se37by","one_one","1","indirect_first","0","CK07EN07","1","24","1","1","3","1","Eine der seltsamsten Studien, an der ich je teilgenommen habe.","0","1","0","null","","","<img src = 'category3/wang.png' width = '100%;'>","null","","","","","","","","","",""
"","html-keyboard-response","157","383963","0.0-10.0-2.0","fqm7se37by","one_one","1","indirect_first","0","CK07EN07","1","24","1","1","3","1","Eine der seltsamsten Studien, an der ich je teilgenommen habe.","0","1","0","null","","","<img src = 'targets/26.png' width = '100%;'>","null","","","","","","","","","",""
"","html-keyboard-response","158","384313","0.0-10.0-3.0","fqm7se37by","one_one","1","indirect_first","0","CK07EN07","1","24","1","1","3","1","Eine der seltsamsten Studien, an der ich je teilgenommen habe.","0","1","0","349","","","<img src = 'targets/mask.png' width = '100%;'>","75","pos","GS","abstract","3","category3/wang.png","targets/26.png","1","indirect","16",""
"","html-keyboard-response","159","385814","0.0-10.0-0.1","fqm7se37by","one_one","1","indirect_first","0","CK07EN07","1","24","1","1","3","1","Eine der seltsamsten Studien, an der ich je teilgenommen habe.","0","1","0","null","","","<div style=""font-size:60px;"">+</div>","null","","","","","","","","","",""
"","html-keyboard-response","160","385906","0.0-10.0-1.1","fqm7se37by","one_one","1","indirect_first","0","CK07EN07","1","24","1","1","3","1","Eine der seltsamsten Studien, an der ich je teilgenommen habe.","0","1","0","null","","","<img src = 'category4/GS3.png' width = '100%;'>","null","","","","","","","","","",""
"","html-keyboard-response","161","386158","0.0-10.0-2.1","fqm7se37by","one_one","1","indirect_first","0","CK07EN07","1","24","1","1","3","1","Eine der seltsamsten Studien, an der ich je teilgenommen habe.","0","1","0","null","","","<img src = 'targets/21.png' width = '100%;'>","null","","","","","","","","","",""
"","html-keyboard-response","162","386165","0.0-10.0-3.1","fqm7se37by","one_one","1","indirect_first","0","CK07EN07","1","24","1","1","3","1","Eine der seltsamsten Studien, an der ich je teilgenommen habe.","0","1","0","6","","","<img src = 'targets/mask.png' width = '100%;'>","75","pos","GS","GSnew","4","category4/GS3.png","targets/21.png","1","indirect","17",""
"","html-keyboard-response","163","387669","0.0-10.0-0.2","fqm7se37by","one_one","1","indirect_first","0","CK07EN07","1","24","1","1","3","1","Eine der seltsamsten Studien, an der ich je teilgenommen habe.","0","1","0","null","","","<div style=""font-size:60px;"">+</div>","null","","","","","","","","","",""
"","html-keyboard-response","164","387761","0.0-10.0-1.2","fqm7se37by","one_one","1","indirect_first","0","CK07EN07","1","24","1","1","3","1","Eine der seltsamsten Studien, an der ich je teilgenommen habe.","0","1","0","null","","","<img src = 'category2/GS1.png' width = '100%;'>","null","","","","","","","","","",""
"","html-keyboard-response","165","388013","0.0-10.0-2.2","fqm7se37by","one_one","1","indirect_first","0","CK07EN07","1","24","1","1","3","1","Eine der seltsamsten Studien, an der ich je teilgenommen habe.","0","1","0","null","","","<img src = 'targets/25.png' width = '100%;'>","null","","","","","","","","","",""
"","html-keyboard-response","166","390711","0.0-10.0-3.2","fqm7se37by","one_one","1","indirect_first","0","CK07EN07","1","24","1","1","3","1","Eine der seltsamsten Studien, an der ich je teilgenommen habe.","0","1","0","2697","","","<img src = 'targets/mask.png' width = '100%;'>","75","neg","GS","GSnew","2","category2/GS1.png","targets/25.png","1","indirect","18",""
"","html-keyboard-response","167","392214","0.0-10.0-0.3","fqm7se37by","one_one","1","indirect_first","0","CK07EN07","1","24","1","1","3","1","Eine der seltsamsten Studien, an der ich je teilgenommen habe.","0","1","0","null","","","<div style=""font-size:60px;"">+</div>","null","","","","","","","","","",""
"","html-keyboard-response","168","392306","0.0-10.0-1.3","fqm7se37by","one_one","1","indirect_first","0","CK07EN07","1","24","1","1","3","1","Eine der seltsamsten Studien, an der ich je teilgenommen habe.","0","1","0","null","","","<img src = 'category1/GS1.png' width = '100%;'>","null","","","","","","","","","",""
"","html-keyboard-response","169","392559","0.0-10.0-2.3","fqm7se37by","one_one","1","indirect_first","0","CK07EN07","1","24","1","1","3","1","Eine der seltsamsten Studien, an der ich je teilgenommen habe.","0","1","0","null","","","<img src = 'targets/10.png' width = '100%;'>","null","","","","","","","","","",""
"","html-keyboard-response","170","392886","0.0-10.0-3.3","fqm7se37by","one_one","1","indirect_first","0","CK07EN07","1","24","1","1","3","1","Eine der seltsamsten Studien, an der ich je teilgenommen habe.","0","1","0","327","","","<img src = 'targets/mask.png' width = '100%;'>","75","neg","GS","GSnew","1","category1/GS1.png","targets/10.png","1","indirect","19",""
"","html-keyboard-response","171","394390","0.0-10.0-0.4","fqm7se37by","one_one","1","indirect_first","0","CK07EN07","1","24","1","1","3","1","Eine der seltsamsten Studien, an der ich je teilgenommen habe.","0","1","0","null","","","<div style=""font-size:60px;"">+</div>","null","","","","","","","","","",""
"","html-keyboard-response","172","394482","0.0-10.0-1.4","fqm7se37by","one_one","1","indirect_first","0","CK07EN07","1","24","1","1","3","1","Eine der seltsamsten Studien, an der ich je teilgenommen habe.","0","1","0","null","","","<img src = 'category4/GS1.png' width = '100%;'>","null","","","","","","","","","",""
"","html-keyboard-response","173","394735","0.0-10.0-2.4","fqm7se37by","one_one","1","indirect_first","0","CK07EN07","1","24","1","1","3","1","Eine der seltsamsten Studien, an der ich je teilgenommen habe.","0","1","0","null","","","<img src = 'targets/4.png' width = '100%;'>","null","","","","","","","","","",""
"","html-keyboard-response","174","395162","0.0-10.0-3.4","fqm7se37by","one_one","1","indirect_first","0","CK07EN07","1","24","1","1","3","1","Eine der seltsamsten Studien, an der ich je teilgenommen habe.","0","1","0","426","","","<img src = 'targets/mask.png' width = '100%;'>","75","pos","GS","GSnew","4","category4/GS1.png","targets/4.png","1","indirect","20",""
"","html-keyboard-response","175","396664","0.0-10.0-0.5","fqm7se37by","one_one","1","indirect_first","0","CK07EN07","1","24","1","1","3","1","Eine der seltsamsten Studien, an der ich je teilgenommen habe.","0","1","0","null","","","<div style=""font-size:60px;"">+</div>","null","","","","","","","","","",""
"","html-keyboard-response","176","396756","0.0-10.0-1.5","fqm7se37by","one_one","1","indirect_first","0","CK07EN07","1","24","1","1","3","1","Eine der seltsamsten Studien, an der ich je teilgenommen habe.","0","1","0","null","","","<img src = 'category1/GS3.png' width = '100%;'>","null","","","","","","","","","",""
"","html-keyboard-response","177","397009","0.0-10.0-2.5","fqm7se37by","one_one","1","indirect_first","0","CK07EN07","1","24","1","1","3","1","Eine der seltsamsten Studien, an der ich je teilgenommen habe.","0","1","0","null","","","<img src = 'targets/20.png' width = '100%;'>","null","","","","","","","","","",""
"","html-keyboard-response","178","397502","0.0-10.0-3.5","fqm7se37by","one_one","1","indirect_first","0","CK07EN07","1","24","1","1","3","1","Eine der seltsamsten Studien, an der ich je teilgenommen habe.","0","1","0","492","","","<img src = 'targets/mask.png' width = '100%;'>","75","neg","GS","GSnew","1","category1/GS3.png","targets/20.png","1","indirect","21",""
"","html-keyboard-response","179","399005","0.0-10.0-0.6","fqm7se37by","one_one","1","indirect_first","0","CK07EN07","1","24","1","1","3","1","Eine der seltsamsten Studien, an der ich je teilgenommen habe.","0","1","0","null","","","<div style=""font-size:60px;"">+</div>","null","","","","","","","","","",""
"","html-keyboard-response","180","399097","0.0-10.0-1.6","fqm7se37by","one_one","1","indirect_first","0","CK07EN07","1","24","1","1","3","1","Eine der seltsamsten Studien, an der ich je teilgenommen habe.","0","1","0","null","","","<img src = 'category2/GS2.png' width = '100%;'>","null","","","","","","","","","",""
"","html-keyboard-response","181","399350","0.0-10.0-2.6","fqm7se37by","one_one","1","indirect_first","0","CK07EN07","1","24","1","1","3","1","Eine der seltsamsten Studien, an der ich je teilgenommen habe.","0","1","0","null","","","<img src = 'targets/31.png' width = '100%;'>","null","","","","","","","","","",""
"","html-keyboard-response","182","399714","0.0-10.0-3.6","fqm7se37by","one_one","1","indirect_first","0","CK07EN07","1","24","1","1","3","1","Eine der seltsamsten Studien, an der ich je teilgenommen habe.","0","1","0","362","","","<img src = 'targets/mask.png' width = '100%;'>","68","neg","GS","GSnew","2","category2/GS2.png","targets/31.png","0","indirect","22",""
"","html-keyboard-response","183","401217","0.0-10.0-0.7","fqm7se37by","one_one","1","indirect_first","0","CK07EN07","1","24","1","1","3","1","Eine der seltsamsten Studien, an der ich je teilgenommen habe.","0","1","0","null","","","<div style=""font-size:60px;"">+</div>","null","","","","","","","","","",""
"","html-keyboard-response","184","401309","0.0-10.0-1.7","fqm7se37by","one_one","1","indirect_first","0","CK07EN07","1","24","1","1","3","1","Eine der seltsamsten Studien, an der ich je teilgenommen habe.","0","1","0","null","","","<img src = 'category1/GS2.png' width = '100%;'>","null","","","","","","","","","",""
"","html-keyboard-response","185","401561","0.0-10.0-2.7","fqm7se37by","one_one","1","indirect_first","0","CK07EN07","1","24","1","1","3","1","Eine der seltsamsten Studien, an der ich je teilgenommen habe.","0","1","0","null","","","<img src = 'targets/46.png' width = '100%;'>","null","","","","","","","","","",""
"","html-keyboard-response","186","401616","0.0-10.0-3.7","fqm7se37by","one_one","1","indirect_first","0","CK07EN07","1","24","1","1","3","1","Eine der seltsamsten Studien, an der ich je teilgenommen habe.","0","1","0","53","","","<img src = 'targets/mask.png' width = '100%;'>","68","neg","GS","GSnew","1","category1/GS2.png","targets/46.png","0","indirect","23",""
"","html-keyboard-response","187","403119","0.0-10.0-0.8","fqm7se37by","one_one","1","indirect_first","0","CK07EN07","1","24","1","1","3","1","Eine der seltsamsten Studien, an der ich je teilgenommen habe.","0","1","0","null","","","<div style=""font-size:60px;"">+</div>","null","","","","","","","","","",""
"","html-keyboard-response","188","403210","0.0-10.0-1.8","fqm7se37by","one_one","1","indirect_first","0","CK07EN07","1","24","1","1","3","1","Eine der seltsamsten Studien, an der ich je teilgenommen habe.","0","1","0","null","","","<img src = 'category4/lin.png' width = '100%;'>","null","","","","","","","","","",""
"","html-keyboard-response","189","403463","0.0-10.0-2.8","fqm7se37by","one_one","1","indirect_first","0","CK07EN07","1","24","1","1","3","1","Eine der seltsamsten Studien, an der ich je teilgenommen habe.","0","1","0","null","","","<img src = 'targets/8.png' width = '100%;'>","null","","","","","","","","","",""
"","html-keyboard-response","190","403901","0.0-10.0-3.8","fqm7se37by","one_one","1","indirect_first","0","CK07EN07","1","24","1","1","3","1","Eine der seltsamsten Studien, an der ich je teilgenommen habe.","0","1","0","437","","","<img src = 'targets/mask.png' width = '100%;'>","68","pos","GS","abstract","4","category4/lin.png","targets/8.png","0","indirect","24",""
"","html-keyboard-response","191","405404","0.0-10.0-0.9","fqm7se37by","one_one","1","indirect_first","0","CK07EN07","1","24","1","1","3","1","Eine der seltsamsten Studien, an der ich je teilgenommen habe.","0","1","0","null","","","<div style=""font-size:60px;"">+</div>","null","","","","","","","","","",""
"","html-keyboard-response","192","405497","0.0-10.0-1.9","fqm7se37by","one_one","1","indirect_first","0","CK07EN07","1","24","1","1","3","1","Eine der seltsamsten Studien, an der ich je teilgenommen habe.","0","1","0","null","","","<img src = 'category1/ma.png' width = '100%;'>","null","","","","","","","","","",""
"","html-keyboard-response","193","405749","0.0-10.0-2.9","fqm7se37by","one_one","1","indirect_first","0","CK07EN07","1","24","1","1","3","1","Eine der seltsamsten Studien, an der ich je teilgenommen habe.","0","1","0","null","","","<img src = 'targets/45.png' width = '100%;'>","null","","","","","","","","","",""
"","html-keyboard-response","194","406088","0.0-10.0-3.9","fqm7se37by","one_one","1","indirect_first","0","CK07EN07","1","24","1","1","3","1","Eine der seltsamsten Studien, an der ich je teilgenommen habe.","0","1","0","337","","","<img src = 'targets/mask.png' width = '100%;'>","68","neg","GS","abstract","1","category1/ma.png","targets/45.png","0","indirect","25",""
"","html-keyboard-response","195","407591","0.0-10.0-0.10","fqm7se37by","one_one","1","indirect_first","0","CK07EN07","1","24","1","1","3","1","Eine der seltsamsten Studien, an der ich je teilgenommen habe.","0","1","0","null","","","<div style=""font-size:60px;"">+</div>","null","","","","","","","","","",""
"","html-keyboard-response","196","407684","0.0-10.0-1.10","fqm7se37by","one_one","1","indirect_first","0","CK07EN07","1","24","1","1","3","1","Eine der seltsamsten Studien, an der ich je teilgenommen habe.","0","1","0","null","","","<img src = 'category2/GS3.png' width = '100%;'>","null","","","","","","","","","",""
"","html-keyboard-response","197","407937","0.0-10.0-2.10","fqm7se37by","one_one","1","indirect_first","0","CK07EN07","1","24","1","1","3","1","Eine der seltsamsten Studien, an der ich je teilgenommen habe.","0","1","0","null","","","<img src = 'targets/35.png' width = '100%;'>","null","","","","","","","","","",""
"","html-keyboard-response","198","408654","0.0-10.0-3.10","fqm7se37by","one_one","1","indirect_first","0","CK07EN07","1","24","1","1","3","1","Eine der seltsamsten Studien, an der ich je teilgenommen habe.","0","1","0","715","","","<img src = 'targets/mask.png' width = '100%;'>","75","neg","GS","GSnew","2","category2/GS3.png","targets/35.png","1","indirect","26",""
"","html-keyboard-response","199","410157","0.0-10.0-0.11","fqm7se37by","one_one","1","indirect_first","0","CK07EN07","1","24","1","1","3","1","Eine der seltsamsten Studien, an der ich je teilgenommen habe.","0","1","0","null","","","<div style=""font-size:60px;"">+</div>","null","","","","","","","","","",""
"","html-keyboard-response","200","410249","0.0-10.0-1.11","fqm7se37by","one_one","1","indirect_first","0","CK07EN07","1","24","1","1","3","1","Eine der seltsamsten Studien, an der ich je teilgenommen habe.","0","1","0","null","","","<img src = 'category4/GS2.png' width = '100%;'>","null","","","","","","","","","",""
"","html-keyboard-response","201","410503","0.0-10.0-2.11","fqm7se37by","one_one","1","indirect_first","0","CK07EN07","1","24","1","1","3","1","Eine der seltsamsten Studien, an der ich je teilgenommen habe.","0","1","0","null","","","<img src = 'targets/13.png' width = '100%;'>","null","","","","","","","","","",""
"","html-keyboard-response","202","410946","0.0-10.0-3.11","fqm7se37by","one_one","1","indirect_first","0","CK07EN07","1","24","1","1","3","1","Eine der seltsamsten Studien, an der ich je teilgenommen habe.","0","1","0","441.9999999999418","","","<img src = 'targets/mask.png' width = '100%;'>","75","pos","GS","GSnew","4","category4/GS2.png","targets/13.png","1","indirect","27",""
"","html-keyboard-response","203","412448","0.0-10.0-0.12","fqm7se37by","one_one","1","indirect_first","0","CK07EN07","1","24","1","1","3","1","Eine der seltsamsten Studien, an der ich je teilgenommen habe.","0","1","0","null","","","<div style=""font-size:60px;"">+</div>","null","","","","","","","","","",""
"","html-keyboard-response","204","412541","0.0-10.0-1.12","fqm7se37by","one_one","1","indirect_first","0","CK07EN07","1","24","1","1","3","1","Eine der seltsamsten Studien, an der ich je teilgenommen habe.","0","1","0","null","","","<img src = 'category3/GS1.png' width = '100%;'>","null","","","","","","","","","",""
"","html-keyboard-response","205","412794","0.0-10.0-2.12","fqm7se37by","one_one","1","indirect_first","0","CK07EN07","1","24","1","1","3","1","Eine der seltsamsten Studien, an der ich je teilgenommen habe.","0","1","0","null","","","<img src = 'targets/29.png' width = '100%;'>","null","","","","","","","","","",""
"","html-keyboard-response","206","413271","0.0-10.0-3.12","fqm7se37by","one_one","1","indirect_first","0","CK07EN07","1","24","1","1","3","1","Eine der seltsamsten Studien, an der ich je teilgenommen habe.","0","1","0","476","","","<img src = 'targets/mask.png' width = '100%;'>","68","pos","GS","GSnew","3","category3/GS1.png","targets/29.png","0","indirect","28",""
"","html-keyboard-response","207","414774","0.0-10.0-0.13","fqm7se37by","one_one","1","indirect_first","0","CK07EN07","1","24","1","1","3","1","Eine der seltsamsten Studien, an der ich je teilgenommen habe.","0","1","0","null","","","<div style=""font-size:60px;"">+</div>","null","","","","","","","","","",""
"","html-keyboard-response","208","414866","0.0-10.0-1.13","fqm7se37by","one_one","1","indirect_first","0","CK07EN07","1","24","1","1","3","1","Eine der seltsamsten Studien, an der ich je teilgenommen habe.","0","1","0","null","","","<img src = 'category3/GS2.png' width = '100%;'>","null","","","","","","","","","",""
"","html-keyboard-response","209","415120","0.0-10.0-2.13","fqm7se37by","one_one","1","indirect_first","0","CK07EN07","1","24","1","1","3","1","Eine der seltsamsten Studien, an der ich je teilgenommen habe.","0","1","0","null","","","<img src = 'targets/2.png' width = '100%;'>","null","","","","","","","","","",""
"","html-keyboard-response","210","415473","0.0-10.0-3.13","fqm7se37by","one_one","1","indirect_first","0","CK07EN07","1","24","1","1","3","1","Eine der seltsamsten Studien, an der ich je teilgenommen habe.","0","1","0","353","","","<img src = 'targets/mask.png' width = '100%;'>","75","pos","GS","GSnew","3","category3/GS2.png","targets/2.png","1","indirect","29",""
"","html-keyboard-response","211","416977","0.0-10.0-0.14","fqm7se37by","one_one","1","indirect_first","0","CK07EN07","1","24","1","1","3","1","Eine der seltsamsten Studien, an der ich je teilgenommen habe.","0","1","0","null","","","<div style=""font-size:60px;"">+</div>","null","","","","","","","","","",""
"","html-keyboard-response","212","417069","0.0-10.0-1.14","fqm7se37by","one_one","1","indirect_first","0","CK07EN07","1","24","1","1","3","1","Eine der seltsamsten Studien, an der ich je teilgenommen habe.","0","1","0","null","","","<img src = 'category2/men.png' width = '100%;'>","null","","","","","","","","","",""
"","html-keyboard-response","213","417322","0.0-10.0-2.14","fqm7se37by","one_one","1","indirect_first","0","CK07EN07","1","24","1","1","3","1","Eine der seltsamsten Studien, an der ich je teilgenommen habe.","0","1","0","null","","","<img src = 'targets/37.png' width = '100%;'>","null","","","","","","","","","",""
"","html-keyboard-response","214","417589","0.0-10.0-3.14","fqm7se37by","one_one","1","indirect_first","0","CK07EN07","1","24","1","1","3","1","Eine der seltsamsten Studien, an der ich je teilgenommen habe.","0","1","0","267","","","<img src = 'targets/mask.png' width = '100%;'>","68","neg","GS","abstract","2","category2/men.png","targets/37.png","0","indirect","30",""
"","html-keyboard-response","215","419092","0.0-10.0-0.15","fqm7se37by","one_one","1","indirect_first","0","CK07EN07","1","24","1","1","3","1","Eine der seltsamsten Studien, an der ich je teilgenommen habe.","0","1","0","null","","","<div style=""font-size:60px;"">+</div>","null","","","","","","","","","",""
"","html-keyboard-response","216","419184","0.0-10.0-1.15","fqm7se37by","one_one","1","indirect_first","0","CK07EN07","1","24","1","1","3","1","Eine der seltsamsten Studien, an der ich je teilgenommen habe.","0","1","0","null","","","<img src = 'category3/GS3.png' width = '100%;'>","null","","","","","","","","","",""
"","html-keyboard-response","217","419437","0.0-10.0-2.15","fqm7se37by","one_one","1","indirect_first","0","CK07EN07","1","24","1","1","3","1","Eine der seltsamsten Studien, an der ich je teilgenommen habe.","0","1","0","null","","","<img src = 'targets/24.png' width = '100%;'>","null","","","","","","","","","",""
"","html-keyboard-response","218","419877","0.0-10.0-3.15","fqm7se37by","one_one","1","indirect_first","0","CK07EN07","1","24","1","1","3","1","Eine der seltsamsten Studien, an der ich je teilgenommen habe.","0","1","0","439","","","<img src = 'targets/mask.png' width = '100%;'>","75","pos","GS","GSnew","3","category3/GS3.png","targets/24.png","1","indirect","31",""
"","survey-html-form","219","426652","0.0-11.0","fqm7se37by","one_one","1","indirect_first","0","CK07EN07","1","24","1","1","3","1","Eine der seltsamsten Studien, an der ich je teilgenommen habe.","0","1","0","6273.000000000058","","{}","","","","","","","","","","","",""
"","image-slider-response","220","432385","0.0-12.0-0.0","fqm7se37by","one_one","1","indirect_first","0","CK07EN07","1","24","1","1","3","1","Eine der seltsamsten Studien, an der ich je teilgenommen habe.","0","1","0","3730","","","","","neg","GS","GSold","2","category2/CS9.png","targets/12.png","","direct","","-45"
"","image-slider-response","221","437792","0.0-12.0-0.1","fqm7se37by","one_one","1","indirect_first","0","CK07EN07","1","24","1","1","3","1","Eine der seltsamsten Studien, an der ich je teilgenommen habe.","0","1","0","5407","","","","","neg","GS","GSold","2","category2/CS5.png","targets/43.png","","direct","","-27"
"","image-slider-response","222","440342","0.0-12.0-0.2","fqm7se37by","one_one","1","indirect_first","0","CK07EN07","1","24","1","1","3","1","Eine der seltsamsten Studien, an der ich je teilgenommen habe.","0","1","0","2548","","","","","pos","CS","CS","3","category3/CS7.png","targets/39.png","","direct","","65"
"","image-slider-response","223","442451","0.0-12.0-0.3","fqm7se37by","one_one","1","indirect_first","0","CK07EN07","1","24","1","1","3","1","Eine der seltsamsten Studien, an der ich je teilgenommen habe.","0","1","0","2107.999999999942","","","","","neg","GS","GSnew","1","category1/GS3.png","targets/20.png","","direct","","21"
"","image-slider-response","224","444741","0.0-12.0-0.4","fqm7se37by","one_one","1","indirect_first","0","CK07EN07","1","24","1","1","3","1","Eine der seltsamsten Studien, an der ich je teilgenommen habe.","0","1","0","2289","","","","","pos","GS","GSnew","3","category3/GS3.png","targets/24.png","","direct","","38"
"","image-slider-response","225","448580","0.0-12.0-0.5","fqm7se37by","one_one","1","indirect_first","0","CK07EN07","1","24","1","1","3","1","Eine der seltsamsten Studien, an der ich je teilgenommen habe.","0","1","0","3837","","","","","pos","GS","GSnew","4","category4/GS3.png","targets/21.png","","direct","","-52"
"","image-slider-response","226","450613","0.0-12.0-0.6","fqm7se37by","one_one","1","indirect_first","0","CK07EN07","1","24","1","1","3","1","Eine der seltsamsten Studien, an der ich je teilgenommen habe.","0","1","0","2031.9999999999418","","","","","pos","GS","GSold","4","category4/CS8.png","targets/11.png","","direct","","-28"
"","image-slider-response","227","453556","0.0-12.0-0.7","fqm7se37by","one_one","1","indirect_first","0","CK07EN07","1","24","1","1","3","1","Eine der seltsamsten Studien, an der ich je teilgenommen habe.","0","1","0","2942","","","","","pos","GS","GSnew","4","category4/GS2.png","targets/13.png","","direct","","-30"
"","image-slider-response","228","456315","0.0-12.0-0.8","fqm7se37by","one_one","1","indirect_first","0","CK07EN07","1","24","1","1","3","1","Eine der seltsamsten Studien, an der ich je teilgenommen habe.","0","1","0","2757","","","","","neg","GS","GSnew","1","category1/GS1.png","targets/10.png","","direct","","21"
"","image-slider-response","229","459266","0.0-12.0-0.9","fqm7se37by","one_one","1","indirect_first","0","CK07EN07","1","24","1","1","3","1","Eine der seltsamsten Studien, an der ich je teilgenommen habe.","0","1","0","2950.000000000058","","","","","neg","GS","GSold","1","category1/CS8.png","targets/3.png","","direct","","-43"
"","image-slider-response","230","461169","0.0-12.0-0.10","fqm7se37by","one_one","1","indirect_first","0","CK07EN07","1","24","1","1","3","1","Eine der seltsamsten Studien, an der ich je teilgenommen habe.","0","1","0","1901","","","","","pos","GS","GSnew","4","category4/GS1.png","targets/4.png","","direct","","-34"
"","image-slider-response","231","464127","0.0-12.0-0.11","fqm7se37by","one_one","1","indirect_first","0","CK07EN07","1","24","1","1","3","1","Eine der seltsamsten Studien, an der ich je teilgenommen habe.","0","1","0","2956.999999999942","","","","","neg","GS","GSnew","2","category2/GS3.png","targets/35.png","","direct","","-38"
"","image-slider-response","232","466642","0.0-12.0-0.12","fqm7se37by","one_one","1","indirect_first","0","CK07EN07","1","24","1","1","3","1","Eine der seltsamsten Studien, an der ich je teilgenommen habe.","0","1","0","2514","","","","","pos","GS","abstract","4","category4/lin.png","targets/8.png","","direct","","32"
"","image-slider-response","233","468698","0.0-12.0-0.13","fqm7se37by","one_one","1","indirect_first","0","CK07EN07","1","24","1","1","3","1","Eine der seltsamsten Studien, an der ich je teilgenommen habe.","0","1","0","2055","","","","","neg","GS","GSold","1","category1/CS6.png","targets/22.png","","direct","","27"
"","image-slider-response","234","471505","0.0-12.0-0.14","fqm7se37by","one_one","1","indirect_first","0","CK07EN07","1","24","1","1","3","1","Eine der seltsamsten Studien, an der ich je teilgenommen habe.","0","1","0","2806","","","","","pos","GS","GSold","3","category3/CS3.png","targets/40.png","","direct","","28"
"","image-slider-response","235","473602","0.0-12.0-0.15","fqm7se37by","one_one","1","indirect_first","0","CK07EN07","1","24","1","1","3","1","Eine der seltsamsten Studien, an der ich je teilgenommen habe.","0","1","0","2096","","","","","neg","GS","GSold","2","category2/CS6.png","targets/32.png","","direct","","-30"
"","image-slider-response","236","476166","0.0-12.0-0.16","fqm7se37by","one_one","1","indirect_first","0","CK07EN07","1","24","1","1","3","1","Eine der seltsamsten Studien, an der ich je teilgenommen habe.","0","1","0","2563","","","","","neg","GS","abstract","1","category1/ma.png","targets/45.png","","direct","","-20"
"","image-slider-response","237","477998","0.0-12.0-0.17","fqm7se37by","one_one","1","indirect_first","0","CK07EN07","1","24","1","1","3","1","Eine der seltsamsten Studien, an der ich je teilgenommen habe.","0","1","0","1831","","","","","neg","GS","abstract","2","category2/men.png","targets/37.png","","direct","","-35"
"","image-slider-response","238","480079","0.0-12.0-0.18","fqm7se37by","one_one","1","indirect_first","0","CK07EN07","1","24","1","1","3","1","Eine der seltsamsten Studien, an der ich je teilgenommen habe.","0","1","0","2080","","","","","pos","GS","GSold","3","category3/CS9.png","targets/23.png","","direct","","46"
"","image-slider-response","239","481853","0.0-12.0-0.19","fqm7se37by","one_one","1","indirect_first","0","CK07EN07","1","24","1","1","3","1","Eine der seltsamsten Studien, an der ich je teilgenommen habe.","0","1","0","1773","","","","","pos","GS","GSold","4","category4/CS10.png","targets/17.png","","direct","","38"
"","image-slider-response","240","483668","0.0-12.0-0.20","fqm7se37by","one_one","1","indirect_first","0","CK07EN07","1","24","1","1","3","1","Eine der seltsamsten Studien, an der ich je teilgenommen habe.","0","1","0","1815","","","","","neg","GS","GSnew","1","category1/GS2.png","targets/46.png","","direct","","38"
"","image-slider-response","241","486621","0.0-12.0-0.21","fqm7se37by","one_one","1","indirect_first","0","CK07EN07","1","24","1","1","3","1","Eine der seltsamsten Studien, an der ich je teilgenommen habe.","0","1","0","2951","","","","","pos","GS","GSnew","3","category3/GS1.png","targets/29.png","","direct","","-27"
"","image-slider-response","242","490124","0.0-12.0-0.22","fqm7se37by","one_one","1","indirect_first","0","CK07EN07","1","24","1","1","3","1","Eine der seltsamsten Studien, an der ich je teilgenommen habe.","0","1","0","3503","","","","","pos","GS","GSold","3","category3/CS8.png","targets/5.png","","direct","","-59"
"","image-slider-response","243","492601","0.0-12.0-0.23","fqm7se37by","one_one","1","indirect_first","0","CK07EN07","1","24","1","1","3","1","Eine der seltsamsten Studien, an der ich je teilgenommen habe.","0","1","0","2476","","","","","pos","GS","GSold","4","category4/CS2.png","targets/16.png","","direct","","21"
"","image-slider-response","244","496365","0.0-12.0-0.24","fqm7se37by","one_one","1","indirect_first","0","CK07EN07","1","24","1","1","3","1","Eine der seltsamsten Studien, an der ich je teilgenommen habe.","0","1","0","3763","","","","","neg","GS","GSnew","2","category2/GS2.png","targets/31.png","","direct","","-28"
"","image-slider-response","245","498534","0.0-12.0-0.25","fqm7se37by","one_one","1","indirect_first","0","CK07EN07","1","24","1","1","3","1","Eine der seltsamsten Studien, an der ich je teilgenommen habe.","0","1","0","2168","","","","","pos","CS","CS","4","category4/CS3.png","targets/34.png","","direct","","33"
"","image-slider-response","246","500348","0.0-12.0-0.26","fqm7se37by","one_one","1","indirect_first","0","CK07EN07","1","24","1","1","3","1","Eine der seltsamsten Studien, an der ich je teilgenommen habe.","0","1","0","1813","","","","","neg","CS","CS","2","category2/CS1.png","targets/1.png","","direct","","-33"
"","image-slider-response","247","502143","0.0-12.0-0.27","fqm7se37by","one_one","1","indirect_first","0","CK07EN07","1","24","1","1","3","1","Eine der seltsamsten Studien, an der ich je teilgenommen habe.","0","1","0","1794","","","","","pos","GS","GSnew","3","category3/GS2.png","targets/2.png","","direct","","28"
"","image-slider-response","248","505460","0.0-12.0-0.28","fqm7se37by","one_one","1","indirect_first","0","CK07EN07","1","24","1","1","3","1","Eine der seltsamsten Studien, an der ich je teilgenommen habe.","0","1","0","3315","","","","","neg","GS","GSold","1","category1/CS9.png","targets/28.png","","direct","","-39"
"","image-slider-response","249","513105","0.0-12.0-0.29","fqm7se37by","one_one","1","indirect_first","0","CK07EN07","1","24","1","1","3","1","Eine der seltsamsten Studien, an der ich je teilgenommen habe.","0","1","0","7644","","","","","pos","GS","abstract","3","category3/wang.png","targets/26.png","","direct","","69"
"","image-slider-response","250","515931","0.0-12.0-0.30","fqm7se37by","one_one","1","indirect_first","0","CK07EN07","1","24","1","1","3","1","Eine der seltsamsten Studien, an der ich je teilgenommen habe.","0","1","0","2823.999999999942","","","","","neg","CS","CS","1","category1/CS7.png","targets/36.png","","direct","","-22"
"","image-slider-response","251","517931","0.0-12.0-0.31","fqm7se37by","one_one","1","indirect_first","0","CK07EN07","1","24","1","1","3","1","Eine der seltsamsten Studien, an der ich je teilgenommen habe.","0","1","0","1999","","","","","neg","GS","GSnew","2","category2/GS1.png","targets/25.png","","direct","","-23"
"","survey-html-form","252","523552","0.0-13.0","fqm7se37by","one_one","1","indirect_first","0","CK07EN07","1","24","1","1","3","1","Eine der seltsamsten Studien, an der ich je teilgenommen habe.","0","1","0","5619","","{}","","","","","","","","","","","",""
"","image-slider-response","253","528156","0.0-14.0-0.0","fqm7se37by","one_one","1","indirect_first","0","CK07EN07","1","24","1","1","3","1","Eine der seltsamsten Studien, an der ich je teilgenommen habe.","0","1","0","3603","","","","","neg","All","all","2","category2/men_all.png","","","all","","-49"
"","image-slider-response","254","531012","0.0-14.0-0.1","fqm7se37by","one_one","1","indirect_first","0","CK07EN07","1","24","1","1","3","1","Eine der seltsamsten Studien, an der ich je teilgenommen habe.","0","1","0","2854","","","","","pos","All","all","3","category3/wang_all.png","","","all","","49"
"","image-slider-response","255","533149","0.0-14.0-0.2","fqm7se37by","one_one","1","indirect_first","0","CK07EN07","1","24","1","1","3","1","Eine der seltsamsten Studien, an der ich je teilgenommen habe.","0","1","0","2136","","","","","neg","All","all","1","category1/ma_all.png","","","all","","-53"
"","image-slider-response","256","535317","0.0-14.0-0.3","fqm7se37by","one_one","1","indirect_first","0","CK07EN07","1","24","1","1","3","1","Eine der seltsamsten Studien, an der ich je teilgenommen habe.","0","1","0","2168","","","","","pos","All","all","4","category4/lin_all.png","","","all","","10"
"","survey-text","257","555515","0.0-15.0","fqm7se37by","one_one","1","indirect_first","0","CK07EN07","1","24","1","1","3","1","Eine der seltsamsten Studien, an der ich je teilgenommen habe.","0","1","0","20196","","{""comment"":""Eine der seltsamsten Studien, an der ich je teilgenommen habe.""}","","","","","","","","","","","",""
"","survey-html-form","258","565304","0.0-16.0","fqm7se37by","one_one","1","indirect_first","0","CK07EN07","1","24","1","1","3","1","Eine der seltsamsten Studien, an der ich je teilgenommen habe.","0","1","0","9787.999999999884","","{""hinschauen"":""0"",""ablenkung"":""1"",""gewissenhaft"":""0""}","","","","","","","","","","","",""
