"success","trial_type","trial_index","time_elapsed","internal_node_id","subject","condition","condition_code","measure","measure_code","codeword","gender","age","education","chinese","fach","handedness","comment","hinschauen","ablenkung","gewissenhaft","rt","url","responses","stimulus","key_press","val","type","type_specific","category","cs_selected","target","indirect","task","nr_pres","response"
"true","fullscreen","0","8718","0.0-0.0","q555ewzrgz","many_one","0","indirect_first","0","er06ph31","0","20","1","1","3","1","","0","1","0","","","","","","","","","","","","","","",""
"","external-html","1","98348","0.0-1.0","q555ewzrgz","many_one","0","indirect_first","0","er06ph31","0","20","1","1","3","1","","0","1","0","89601","text/information.html","","","","","","","","","","","","",""
"","external-html","2","120508","0.0-2.0","q555ewzrgz","many_one","0","indirect_first","0","er06ph31","0","20","1","1","3","1","","0","1","0","22085","text/consent.html","","","","","","","","","","","","",""
"","survey-html-form","3","225006","0.0-3.0","q555ewzrgz","many_one","0","indirect_first","0","er06ph31","0","20","1","1","3","1","","0","1","0","104494","","{""codeword_enter"":""er06ph31""}","","","","","","","","","","","",""
"","survey-html-form","4","251110","0.0-4.0","q555ewzrgz","many_one","0","indirect_first","0","er06ph31","0","20","1","1","3","1","","0","1","0","26100","","{""age"":""20"",""education"":""1"",""subject"":""3"",""gender"":""0"",""handedness"":""1"",""chinese"":""1""}","","","","","","","","","","","",""
"","survey-html-form","5","271412","0.0-5.0","q555ewzrgz","many_one","0","indirect_first","0","er06ph31","0","20","1","1","3","1","","0","1","0","20300","","{}","","","","","","","","","","","",""
"","html-keyboard-response","6","275454","0.0-6.0-0.0-0.0","q555ewzrgz","many_one","0","indirect_first","0","er06ph31","0","20","1","1","3","1","","0","1","0","null","","","<div class = 'row'><div class = 'column'><img src = 'category4/CS10.png' width = '70%;'></div><div class = 'column'><img src = 'uspos/2900.2.bmp' width = '100%;'></div></div>","null","pos","CS","CS","4","category4/CS10.png","","","","",""
"","html-keyboard-response","7","277994","0.0-6.0-0.0-0.1","q555ewzrgz","many_one","0","indirect_first","0","er06ph31","0","20","1","1","3","1","","0","1","0","null","","","<div class = 'row'><div class = 'column'><img src = 'usneg/3300.bmp' width = '100%;'></div><div class = 'column'><img src = 'category2/CS1.png' width = '70%;'></div></div>","null","neg","CS","CS","2","category2/CS1.png","","","","",""
"","html-keyboard-response","8","280524","0.0-6.0-0.0-0.2","q555ewzrgz","many_one","0","indirect_first","0","er06ph31","0","20","1","1","3","1","","0","1","0","null","","","<div class = 'row'><div class = 'column'><img src = 'usneg/9181.bmp' width = '100%;'></div><div class = 'column'><img src = 'category2/CS8.png' width = '70%;'></div></div>","null","neg","CS","CS","2","category2/CS8.png","","","","",""
"","html-keyboard-response","9","283063","0.0-6.0-0.0-0.3","q555ewzrgz","many_one","0","indirect_first","0","er06ph31","0","20","1","1","3","1","","0","1","0","null","","","<div class = 'row'><div class = 'column'><img src = 'uspos/1440.bmp' width = '100%;'></div><div class = 'column'><img src = 'category1/CS7.png' width = '70%;'></div></div>","null","pos","CS","CS","1","category1/CS7.png","","","","",""
"","html-keyboard-response","10","285593","0.0-6.0-0.0-0.4","q555ewzrgz","many_one","0","indirect_first","0","er06ph31","0","20","1","1","3","1","","0","1","0","null","","","<div class = 'row'><div class = 'column'><img src = 'category1/CS3.png' width = '70%;'></div><div class = 'column'><img src = 'uspos/5629.bmp' width = '100%;'></div></div>","null","pos","CS","CS","1","category1/CS3.png","","","","",""
"","html-keyboard-response","11","288123","0.0-6.0-0.0-0.5","q555ewzrgz","many_one","0","indirect_first","0","er06ph31","0","20","1","1","3","1","","0","1","0","null","","","<div class = 'row'><div class = 'column'><img src = 'uspos/2208.bmp' width = '100%;'></div><div class = 'column'><img src = 'category1/CS1.png' width = '70%;'></div></div>","null","pos","CS","CS","1","category1/CS1.png","","","","",""
"","html-keyboard-response","12","290644","0.0-6.0-0.0-0.6","q555ewzrgz","many_one","0","indirect_first","0","er06ph31","0","20","1","1","3","1","","0","1","0","null","","","<div class = 'row'><div class = 'column'><img src = 'uspos/5600.bmp' width = '100%;'></div><div class = 'column'><img src = 'category1/CS10.png' width = '70%;'></div></div>","null","pos","CS","CS","1","category1/CS10.png","","","","",""
"","html-keyboard-response","13","293174","0.0-6.0-0.0-0.7","q555ewzrgz","many_one","0","indirect_first","0","er06ph31","0","20","1","1","3","1","","0","1","0","null","","","<div class = 'row'><div class = 'column'><img src = 'uspos/4625.bmp' width = '100%;'></div><div class = 'column'><img src = 'category1/CS5.png' width = '70%;'></div></div>","null","pos","CS","CS","1","category1/CS5.png","","","","",""
"","html-keyboard-response","14","295704","0.0-6.0-0.0-0.8","q555ewzrgz","many_one","0","indirect_first","0","er06ph31","0","20","1","1","3","1","","0","1","0","null","","","<div class = 'row'><div class = 'column'><img src = 'category4/CS4.png' width = '70%;'></div><div class = 'column'><img src = 'uspos/2530.bmp' width = '100%;'></div></div>","null","pos","CS","CS","4","category4/CS4.png","","","","",""
"","html-keyboard-response","15","298243","0.0-6.0-0.0-0.9","q555ewzrgz","many_one","0","indirect_first","0","er06ph31","0","20","1","1","3","1","","0","1","0","null","","","<div class = 'row'><div class = 'column'><img src = 'category3/CS3.png' width = '70%;'></div><div class = 'column'><img src = 'usneg/9340.bmp' width = '100%;'></div></div>","null","neg","CS","CS","3","category3/CS3.png","","","","",""
"","html-keyboard-response","16","300774","0.0-6.0-0.0-0.10","q555ewzrgz","many_one","0","indirect_first","0","er06ph31","0","20","1","1","3","1","","0","1","0","null","","","<div class = 'row'><div class = 'column'><img src = 'usneg/9560.bmp' width = '100%;'></div><div class = 'column'><img src = 'category3/CS9.png' width = '70%;'></div></div>","null","neg","CS","CS","3","category3/CS9.png","","","","",""
"","html-keyboard-response","17","303313","0.0-6.0-0.0-0.11","q555ewzrgz","many_one","0","indirect_first","0","er06ph31","0","20","1","1","3","1","","0","1","0","null","","","<div class = 'row'><div class = 'column'><img src = 'usneg/2900.bmp' width = '100%;'></div><div class = 'column'><img src = 'category3/CS7.png' width = '70%;'></div></div>","null","neg","CS","CS","3","category3/CS7.png","","","","",""
"","html-keyboard-response","18","305844","0.0-6.0-0.0-0.12","q555ewzrgz","many_one","0","indirect_first","0","er06ph31","0","20","1","1","3","1","","0","1","0","null","","","<div class = 'row'><div class = 'column'><img src = 'category2/CS4.png' width = '70%;'></div><div class = 'column'><img src = 'usneg/9280.bmp' width = '100%;'></div></div>","null","neg","CS","CS","2","category2/CS4.png","","","","",""
"","html-keyboard-response","19","308377","0.0-6.0-0.0-0.13","q555ewzrgz","many_one","0","indirect_first","0","er06ph31","0","20","1","1","3","1","","0","1","0","null","","","<div class = 'row'><div class = 'column'><img src = 'category4/CS8.png' width = '70%;'></div><div class = 'column'><img src = 'uspos/2150.bmp' width = '100%;'></div></div>","null","pos","CS","CS","4","category4/CS8.png","","","","",""
"","html-keyboard-response","20","310893","0.0-6.0-0.0-0.14","q555ewzrgz","many_one","0","indirect_first","0","er06ph31","0","20","1","1","3","1","","0","1","0","null","","","<div class = 'row'><div class = 'column'><img src = 'category2/CS6.png' width = '70%;'></div><div class = 'column'><img src = 'usneg/6212.bmp' width = '100%;'></div></div>","null","neg","CS","CS","2","category2/CS6.png","","","","",""
"","html-keyboard-response","21","313434","0.0-6.0-0.0-0.15","q555ewzrgz","many_one","0","indirect_first","0","er06ph31","0","20","1","1","3","1","","0","1","0","null","","","<div class = 'row'><div class = 'column'><img src = 'category3/CS1.png' width = '70%;'></div><div class = 'column'><img src = 'usneg/9000.bmp' width = '100%;'></div></div>","null","neg","CS","CS","3","category3/CS1.png","","","","",""
"","html-keyboard-response","22","315973","0.0-6.0-0.0-0.16","q555ewzrgz","many_one","0","indirect_first","0","er06ph31","0","20","1","1","3","1","","0","1","0","null","","","<div class = 'row'><div class = 'column'><img src = 'category2/CS9.png' width = '70%;'></div><div class = 'column'><img src = 'usneg/3181.bmp' width = '100%;'></div></div>","null","neg","CS","CS","2","category2/CS9.png","","","","",""
"","html-keyboard-response","23","318514","0.0-6.0-0.0-0.17","q555ewzrgz","many_one","0","indirect_first","0","er06ph31","0","20","1","1","3","1","","0","1","0","null","","","<div class = 'row'><div class = 'column'><img src = 'category3/CS5.png' width = '70%;'></div><div class = 'column'><img src = 'usneg/9220.bmp' width = '100%;'></div></div>","null","neg","CS","CS","3","category3/CS5.png","","","","",""
"","html-keyboard-response","24","321043","0.0-6.0-0.0-0.18","q555ewzrgz","many_one","0","indirect_first","0","er06ph31","0","20","1","1","3","1","","0","1","0","null","","","<div class = 'row'><div class = 'column'><img src = 'category4/CS6.png' width = '70%;'></div><div class = 'column'><img src = 'uspos/1340.bmp' width = '100%;'></div></div>","null","pos","CS","CS","4","category4/CS6.png","","","","",""
"","html-keyboard-response","25","323583","0.0-6.0-0.0-0.19","q555ewzrgz","many_one","0","indirect_first","0","er06ph31","0","20","1","1","3","1","","0","1","0","null","","","<div class = 'row'><div class = 'column'><img src = 'uspos/8461.bmp' width = '100%;'></div><div class = 'column'><img src = 'category4/CS7.png' width = '70%;'></div></div>","null","pos","CS","CS","4","category4/CS7.png","","","","",""
"","survey-html-form","26","341044","0.0-6.0-1.0","q555ewzrgz","many_one","0","indirect_first","0","er06ph31","0","20","1","1","3","1","","0","1","0","16950","","{}","","","","","","","","","","","",""
"","html-keyboard-response","27","345073","0.0-6.0-2.0-0.0","q555ewzrgz","many_one","0","indirect_first","0","er06ph31","0","20","1","1","3","1","","0","1","0","null","","","<div class = 'row'><div class = 'column'><img src = 'category2/CS1.png' width = '70%;'></div><div class = 'column'><img src = 'usneg/3300.bmp' width = '100%;'></div></div>","null","neg","CS","CS","2","category2/CS1.png","","","","",""
"","html-keyboard-response","28","347613","0.0-6.0-2.0-0.1","q555ewzrgz","many_one","0","indirect_first","0","er06ph31","0","20","1","1","3","1","","0","1","0","null","","","<div class = 'row'><div class = 'column'><img src = 'category4/CS10.png' width = '70%;'></div><div class = 'column'><img src = 'uspos/2900.2.bmp' width = '100%;'></div></div>","null","pos","CS","CS","4","category4/CS10.png","","","","",""
"","html-keyboard-response","29","350143","0.0-6.0-2.0-0.2","q555ewzrgz","many_one","0","indirect_first","0","er06ph31","0","20","1","1","3","1","","0","1","0","null","","","<div class = 'row'><div class = 'column'><img src = 'uspos/5600.bmp' width = '100%;'></div><div class = 'column'><img src = 'category1/CS10.png' width = '70%;'></div></div>","null","pos","CS","CS","1","category1/CS10.png","","","","",""
"","html-keyboard-response","30","352683","0.0-6.0-2.0-0.3","q555ewzrgz","many_one","0","indirect_first","0","er06ph31","0","20","1","1","3","1","","0","1","0","null","","","<div class = 'row'><div class = 'column'><img src = 'usneg/9340.bmp' width = '100%;'></div><div class = 'column'><img src = 'category3/CS3.png' width = '70%;'></div></div>","null","neg","CS","CS","3","category3/CS3.png","","","","",""
"","html-keyboard-response","31","355213","0.0-6.0-2.0-0.4","q555ewzrgz","many_one","0","indirect_first","0","er06ph31","0","20","1","1","3","1","","0","1","0","null","","","<div class = 'row'><div class = 'column'><img src = 'category4/CS6.png' width = '70%;'></div><div class = 'column'><img src = 'uspos/1340.bmp' width = '100%;'></div></div>","null","pos","CS","CS","4","category4/CS6.png","","","","",""
"","html-keyboard-response","32","357753","0.0-6.0-2.0-0.5","q555ewzrgz","many_one","0","indirect_first","0","er06ph31","0","20","1","1","3","1","","0","1","0","null","","","<div class = 'row'><div class = 'column'><img src = 'category3/CS5.png' width = '70%;'></div><div class = 'column'><img src = 'usneg/9220.bmp' width = '100%;'></div></div>","null","neg","CS","CS","3","category3/CS5.png","","","","",""
"","html-keyboard-response","33","360293","0.0-6.0-2.0-0.6","q555ewzrgz","many_one","0","indirect_first","0","er06ph31","0","20","1","1","3","1","","0","1","0","null","","","<div class = 'row'><div class = 'column'><img src = 'category1/CS3.png' width = '70%;'></div><div class = 'column'><img src = 'uspos/5629.bmp' width = '100%;'></div></div>","null","pos","CS","CS","1","category1/CS3.png","","","","",""
"","html-keyboard-response","34","362823","0.0-6.0-2.0-0.7","q555ewzrgz","many_one","0","indirect_first","0","er06ph31","0","20","1","1","3","1","","0","1","0","null","","","<div class = 'row'><div class = 'column'><img src = 'category3/CS1.png' width = '70%;'></div><div class = 'column'><img src = 'usneg/9000.bmp' width = '100%;'></div></div>","null","neg","CS","CS","3","category3/CS1.png","","","","",""
"","html-keyboard-response","35","365363","0.0-6.0-2.0-0.8","q555ewzrgz","many_one","0","indirect_first","0","er06ph31","0","20","1","1","3","1","","0","1","0","null","","","<div class = 'row'><div class = 'column'><img src = 'uspos/4625.bmp' width = '100%;'></div><div class = 'column'><img src = 'category1/CS5.png' width = '70%;'></div></div>","null","pos","CS","CS","1","category1/CS5.png","","","","",""
"","html-keyboard-response","36","367893","0.0-6.0-2.0-0.9","q555ewzrgz","many_one","0","indirect_first","0","er06ph31","0","20","1","1","3","1","","0","1","0","null","","","<div class = 'row'><div class = 'column'><img src = 'category2/CS6.png' width = '70%;'></div><div class = 'column'><img src = 'usneg/6212.bmp' width = '100%;'></div></div>","null","neg","CS","CS","2","category2/CS6.png","","","","",""
"","html-keyboard-response","37","370413","0.0-6.0-2.0-0.10","q555ewzrgz","many_one","0","indirect_first","0","er06ph31","0","20","1","1","3","1","","0","1","0","null","","","<div class = 'row'><div class = 'column'><img src = 'category3/CS9.png' width = '70%;'></div><div class = 'column'><img src = 'usneg/9560.bmp' width = '100%;'></div></div>","null","neg","CS","CS","3","category3/CS9.png","","","","",""
"","html-keyboard-response","38","372944","0.0-6.0-2.0-0.11","q555ewzrgz","many_one","0","indirect_first","0","er06ph31","0","20","1","1","3","1","","0","1","0","null","","","<div class = 'row'><div class = 'column'><img src = 'category2/CS9.png' width = '70%;'></div><div class = 'column'><img src = 'usneg/3181.bmp' width = '100%;'></div></div>","null","neg","CS","CS","2","category2/CS9.png","","","","",""
"","html-keyboard-response","39","375483","0.0-6.0-2.0-0.12","q555ewzrgz","many_one","0","indirect_first","0","er06ph31","0","20","1","1","3","1","","0","1","0","null","","","<div class = 'row'><div class = 'column'><img src = 'usneg/9280.bmp' width = '100%;'></div><div class = 'column'><img src = 'category2/CS4.png' width = '70%;'></div></div>","null","neg","CS","CS","2","category2/CS4.png","","","","",""
"","html-keyboard-response","40","378023","0.0-6.0-2.0-0.13","q555ewzrgz","many_one","0","indirect_first","0","er06ph31","0","20","1","1","3","1","","0","1","0","null","","","<div class = 'row'><div class = 'column'><img src = 'category2/CS8.png' width = '70%;'></div><div class = 'column'><img src = 'usneg/9181.bmp' width = '100%;'></div></div>","null","neg","CS","CS","2","category2/CS8.png","","","","",""
"","html-keyboard-response","41","380552","0.0-6.0-2.0-0.14","q555ewzrgz","many_one","0","indirect_first","0","er06ph31","0","20","1","1","3","1","","0","1","0","null","","","<div class = 'row'><div class = 'column'><img src = 'category3/CS7.png' width = '70%;'></div><div class = 'column'><img src = 'usneg/2900.bmp' width = '100%;'></div></div>","null","neg","CS","CS","3","category3/CS7.png","","","","",""
"","html-keyboard-response","42","383074","0.0-6.0-2.0-0.15","q555ewzrgz","many_one","0","indirect_first","0","er06ph31","0","20","1","1","3","1","","0","1","0","null","","","<div class = 'row'><div class = 'column'><img src = 'category4/CS8.png' width = '70%;'></div><div class = 'column'><img src = 'uspos/2150.bmp' width = '100%;'></div></div>","null","pos","CS","CS","4","category4/CS8.png","","","","",""
"","html-keyboard-response","43","385603","0.0-6.0-2.0-0.16","q555ewzrgz","many_one","0","indirect_first","0","er06ph31","0","20","1","1","3","1","","0","1","0","null","","","<div class = 'row'><div class = 'column'><img src = 'uspos/2208.bmp' width = '100%;'></div><div class = 'column'><img src = 'category1/CS1.png' width = '70%;'></div></div>","null","pos","CS","CS","1","category1/CS1.png","","","","",""
"","html-keyboard-response","44","388133","0.0-6.0-2.0-0.17","q555ewzrgz","many_one","0","indirect_first","0","er06ph31","0","20","1","1","3","1","","0","1","0","null","","","<div class = 'row'><div class = 'column'><img src = 'category1/CS7.png' width = '70%;'></div><div class = 'column'><img src = 'uspos/1440.bmp' width = '100%;'></div></div>","null","pos","CS","CS","1","category1/CS7.png","","","","",""
"","html-keyboard-response","45","390663","0.0-6.0-2.0-0.18","q555ewzrgz","many_one","0","indirect_first","0","er06ph31","0","20","1","1","3","1","","0","1","0","null","","","<div class = 'row'><div class = 'column'><img src = 'uspos/2530.bmp' width = '100%;'></div><div class = 'column'><img src = 'category4/CS4.png' width = '70%;'></div></div>","null","pos","CS","CS","4","category4/CS4.png","","","","",""
"","html-keyboard-response","46","393203","0.0-6.0-2.0-0.19","q555ewzrgz","many_one","0","indirect_first","0","er06ph31","0","20","1","1","3","1","","0","1","0","null","","","<div class = 'row'><div class = 'column'><img src = 'category4/CS7.png' width = '70%;'></div><div class = 'column'><img src = 'uspos/8461.bmp' width = '100%;'></div></div>","null","pos","CS","CS","4","category4/CS7.png","","","","",""
"","survey-html-form","47","448645","0.0-6.0-3.0","q555ewzrgz","many_one","0","indirect_first","0","er06ph31","0","20","1","1","3","1","","0","1","0","54931","","{}","","","","","","","","","","","",""
"","html-keyboard-response","48","452673","0.0-6.0-4.0-0.0","q555ewzrgz","many_one","0","indirect_first","0","er06ph31","0","20","1","1","3","1","","0","1","0","null","","","<div class = 'row'><div class = 'column'><img src = 'category4/CS6.png' width = '70%;'></div><div class = 'column'><img src = 'uspos/1340.bmp' width = '100%;'></div></div>","null","pos","CS","CS","4","category4/CS6.png","","","","",""
"","html-keyboard-response","49","455203","0.0-6.0-4.0-0.1","q555ewzrgz","many_one","0","indirect_first","0","er06ph31","0","20","1","1","3","1","","0","1","0","null","","","<div class = 'row'><div class = 'column'><img src = 'usneg/9000.bmp' width = '100%;'></div><div class = 'column'><img src = 'category3/CS1.png' width = '70%;'></div></div>","null","neg","CS","CS","3","category3/CS1.png","","","","",""
"","html-keyboard-response","50","457743","0.0-6.0-4.0-0.2","q555ewzrgz","many_one","0","indirect_first","0","er06ph31","0","20","1","1","3","1","","0","1","0","null","","","<div class = 'row'><div class = 'column'><img src = 'usneg/9560.bmp' width = '100%;'></div><div class = 'column'><img src = 'category3/CS9.png' width = '70%;'></div></div>","null","neg","CS","CS","3","category3/CS9.png","","","","",""
"","html-keyboard-response","51","460273","0.0-6.0-4.0-0.3","q555ewzrgz","many_one","0","indirect_first","0","er06ph31","0","20","1","1","3","1","","0","1","0","null","","","<div class = 'row'><div class = 'column'><img src = 'category3/CS7.png' width = '70%;'></div><div class = 'column'><img src = 'usneg/2900.bmp' width = '100%;'></div></div>","null","neg","CS","CS","3","category3/CS7.png","","","","",""
"","html-keyboard-response","52","462813","0.0-6.0-4.0-0.4","q555ewzrgz","many_one","0","indirect_first","0","er06ph31","0","20","1","1","3","1","","0","1","0","null","","","<div class = 'row'><div class = 'column'><img src = 'usneg/3300.bmp' width = '100%;'></div><div class = 'column'><img src = 'category2/CS1.png' width = '70%;'></div></div>","null","neg","CS","CS","2","category2/CS1.png","","","","",""
"","html-keyboard-response","53","465333","0.0-6.0-4.0-0.5","q555ewzrgz","many_one","0","indirect_first","0","er06ph31","0","20","1","1","3","1","","0","1","0","null","","","<div class = 'row'><div class = 'column'><img src = 'category3/CS3.png' width = '70%;'></div><div class = 'column'><img src = 'usneg/9340.bmp' width = '100%;'></div></div>","null","neg","CS","CS","3","category3/CS3.png","","","","",""
"","html-keyboard-response","54","467863","0.0-6.0-4.0-0.6","q555ewzrgz","many_one","0","indirect_first","0","er06ph31","0","20","1","1","3","1","","0","1","0","null","","","<div class = 'row'><div class = 'column'><img src = 'usneg/9220.bmp' width = '100%;'></div><div class = 'column'><img src = 'category3/CS5.png' width = '70%;'></div></div>","null","neg","CS","CS","3","category3/CS5.png","","","","",""
"","html-keyboard-response","55","470393","0.0-6.0-4.0-0.7","q555ewzrgz","many_one","0","indirect_first","0","er06ph31","0","20","1","1","3","1","","0","1","0","null","","","<div class = 'row'><div class = 'column'><img src = 'category4/CS7.png' width = '70%;'></div><div class = 'column'><img src = 'uspos/8461.bmp' width = '100%;'></div></div>","null","pos","CS","CS","4","category4/CS7.png","","","","",""
"","html-keyboard-response","56","472913","0.0-6.0-4.0-0.8","q555ewzrgz","many_one","0","indirect_first","0","er06ph31","0","20","1","1","3","1","","0","1","0","null","","","<div class = 'row'><div class = 'column'><img src = 'usneg/9181.bmp' width = '100%;'></div><div class = 'column'><img src = 'category2/CS8.png' width = '70%;'></div></div>","null","neg","CS","CS","2","category2/CS8.png","","","","",""
"","html-keyboard-response","57","475434","0.0-6.0-4.0-0.9","q555ewzrgz","many_one","0","indirect_first","0","er06ph31","0","20","1","1","3","1","","0","1","0","null","","","<div class = 'row'><div class = 'column'><img src = 'uspos/2150.bmp' width = '100%;'></div><div class = 'column'><img src = 'category4/CS8.png' width = '70%;'></div></div>","null","pos","CS","CS","4","category4/CS8.png","","","","",""
"","html-keyboard-response","58","477963","0.0-6.0-4.0-0.10","q555ewzrgz","many_one","0","indirect_first","0","er06ph31","0","20","1","1","3","1","","0","1","0","null","","","<div class = 'row'><div class = 'column'><img src = 'category4/CS4.png' width = '70%;'></div><div class = 'column'><img src = 'uspos/2530.bmp' width = '100%;'></div></div>","null","pos","CS","CS","4","category4/CS4.png","","","","",""
"","html-keyboard-response","59","480483","0.0-6.0-4.0-0.11","q555ewzrgz","many_one","0","indirect_first","0","er06ph31","0","20","1","1","3","1","","0","1","0","null","","","<div class = 'row'><div class = 'column'><img src = 'uspos/5600.bmp' width = '100%;'></div><div class = 'column'><img src = 'category1/CS10.png' width = '70%;'></div></div>","null","pos","CS","CS","1","category1/CS10.png","","","","",""
"","html-keyboard-response","60","483024","0.0-6.0-4.0-0.12","q555ewzrgz","many_one","0","indirect_first","0","er06ph31","0","20","1","1","3","1","","0","1","0","null","","","<div class = 'row'><div class = 'column'><img src = 'uspos/1440.bmp' width = '100%;'></div><div class = 'column'><img src = 'category1/CS7.png' width = '70%;'></div></div>","null","pos","CS","CS","1","category1/CS7.png","","","","",""
"","html-keyboard-response","61","485564","0.0-6.0-4.0-0.13","q555ewzrgz","many_one","0","indirect_first","0","er06ph31","0","20","1","1","3","1","","0","1","0","null","","","<div class = 'row'><div class = 'column'><img src = 'category4/CS10.png' width = '70%;'></div><div class = 'column'><img src = 'uspos/2900.2.bmp' width = '100%;'></div></div>","null","pos","CS","CS","4","category4/CS10.png","","","","",""
"","html-keyboard-response","62","488093","0.0-6.0-4.0-0.14","q555ewzrgz","many_one","0","indirect_first","0","er06ph31","0","20","1","1","3","1","","0","1","0","null","","","<div class = 'row'><div class = 'column'><img src = 'uspos/5629.bmp' width = '100%;'></div><div class = 'column'><img src = 'category1/CS3.png' width = '70%;'></div></div>","null","pos","CS","CS","1","category1/CS3.png","","","","",""
"","html-keyboard-response","63","490633","0.0-6.0-4.0-0.15","q555ewzrgz","many_one","0","indirect_first","0","er06ph31","0","20","1","1","3","1","","0","1","0","null","","","<div class = 'row'><div class = 'column'><img src = 'usneg/9280.bmp' width = '100%;'></div><div class = 'column'><img src = 'category2/CS4.png' width = '70%;'></div></div>","null","neg","CS","CS","2","category2/CS4.png","","","","",""
"","html-keyboard-response","64","493166","0.0-6.0-4.0-0.16","q555ewzrgz","many_one","0","indirect_first","0","er06ph31","0","20","1","1","3","1","","0","1","0","null","","","<div class = 'row'><div class = 'column'><img src = 'category2/CS6.png' width = '70%;'></div><div class = 'column'><img src = 'usneg/6212.bmp' width = '100%;'></div></div>","null","neg","CS","CS","2","category2/CS6.png","","","","",""
"","html-keyboard-response","65","495684","0.0-6.0-4.0-0.17","q555ewzrgz","many_one","0","indirect_first","0","er06ph31","0","20","1","1","3","1","","0","1","0","null","","","<div class = 'row'><div class = 'column'><img src = 'category1/CS5.png' width = '70%;'></div><div class = 'column'><img src = 'uspos/4625.bmp' width = '100%;'></div></div>","null","pos","CS","CS","1","category1/CS5.png","","","","",""
"","html-keyboard-response","66","498213","0.0-6.0-4.0-0.18","q555ewzrgz","many_one","0","indirect_first","0","er06ph31","0","20","1","1","3","1","","0","1","0","null","","","<div class = 'row'><div class = 'column'><img src = 'category2/CS9.png' width = '70%;'></div><div class = 'column'><img src = 'usneg/3181.bmp' width = '100%;'></div></div>","null","neg","CS","CS","2","category2/CS9.png","","","","",""
"","html-keyboard-response","67","500753","0.0-6.0-4.0-0.19","q555ewzrgz","many_one","0","indirect_first","0","er06ph31","0","20","1","1","3","1","","0","1","0","null","","","<div class = 'row'><div class = 'column'><img src = 'uspos/2208.bmp' width = '100%;'></div><div class = 'column'><img src = 'category1/CS1.png' width = '70%;'></div></div>","null","pos","CS","CS","1","category1/CS1.png","","","","",""
"","survey-html-form","68","508924","0.0-6.0-5.0","q555ewzrgz","many_one","0","indirect_first","0","er06ph31","0","20","1","1","3","1","","0","1","0","7650","","{}","","","","","","","","","","","",""
"","html-keyboard-response","69","512953","0.0-6.0-6.0-0.0","q555ewzrgz","many_one","0","indirect_first","0","er06ph31","0","20","1","1","3","1","","0","1","0","null","","","<div class = 'row'><div class = 'column'><img src = 'category2/CS1.png' width = '70%;'></div><div class = 'column'><img src = 'usneg/3300.bmp' width = '100%;'></div></div>","null","neg","CS","CS","2","category2/CS1.png","","","","",""
"","html-keyboard-response","70","515493","0.0-6.0-6.0-0.1","q555ewzrgz","many_one","0","indirect_first","0","er06ph31","0","20","1","1","3","1","","0","1","0","null","","","<div class = 'row'><div class = 'column'><img src = 'uspos/2900.2.bmp' width = '100%;'></div><div class = 'column'><img src = 'category4/CS10.png' width = '70%;'></div></div>","null","pos","CS","CS","4","category4/CS10.png","","","","",""
"","html-keyboard-response","71","518014","0.0-6.0-6.0-0.2","q555ewzrgz","many_one","0","indirect_first","0","er06ph31","0","20","1","1","3","1","","0","1","0","null","","","<div class = 'row'><div class = 'column'><img src = 'category4/CS8.png' width = '70%;'></div><div class = 'column'><img src = 'uspos/2150.bmp' width = '100%;'></div></div>","null","pos","CS","CS","4","category4/CS8.png","","","","",""
"","html-keyboard-response","72","520533","0.0-6.0-6.0-0.3","q555ewzrgz","many_one","0","indirect_first","0","er06ph31","0","20","1","1","3","1","","0","1","0","null","","","<div class = 'row'><div class = 'column'><img src = 'usneg/9340.bmp' width = '100%;'></div><div class = 'column'><img src = 'category3/CS3.png' width = '70%;'></div></div>","null","neg","CS","CS","3","category3/CS3.png","","","","",""
"","html-keyboard-response","73","523063","0.0-6.0-6.0-0.4","q555ewzrgz","many_one","0","indirect_first","0","er06ph31","0","20","1","1","3","1","","0","1","0","null","","","<div class = 'row'><div class = 'column'><img src = 'uspos/5629.bmp' width = '100%;'></div><div class = 'column'><img src = 'category1/CS3.png' width = '70%;'></div></div>","null","pos","CS","CS","1","category1/CS3.png","","","","",""
"","html-keyboard-response","74","525604","0.0-6.0-6.0-0.5","q555ewzrgz","many_one","0","indirect_first","0","er06ph31","0","20","1","1","3","1","","0","1","0","null","","","<div class = 'row'><div class = 'column'><img src = 'usneg/9560.bmp' width = '100%;'></div><div class = 'column'><img src = 'category3/CS9.png' width = '70%;'></div></div>","null","neg","CS","CS","3","category3/CS9.png","","","","",""
"","html-keyboard-response","75","528143","0.0-6.0-6.0-0.6","q555ewzrgz","many_one","0","indirect_first","0","er06ph31","0","20","1","1","3","1","","0","1","0","null","","","<div class = 'row'><div class = 'column'><img src = 'uspos/1440.bmp' width = '100%;'></div><div class = 'column'><img src = 'category1/CS7.png' width = '70%;'></div></div>","null","pos","CS","CS","1","category1/CS7.png","","","","",""
"","html-keyboard-response","76","530679","0.0-6.0-6.0-0.7","q555ewzrgz","many_one","0","indirect_first","0","er06ph31","0","20","1","1","3","1","","0","1","0","null","","","<div class = 'row'><div class = 'column'><img src = 'category3/CS7.png' width = '70%;'></div><div class = 'column'><img src = 'usneg/2900.bmp' width = '100%;'></div></div>","null","neg","CS","CS","3","category3/CS7.png","","","","",""
"","html-keyboard-response","77","533214","0.0-6.0-6.0-0.8","q555ewzrgz","many_one","0","indirect_first","0","er06ph31","0","20","1","1","3","1","","0","1","0","null","","","<div class = 'row'><div class = 'column'><img src = 'category2/CS4.png' width = '70%;'></div><div class = 'column'><img src = 'usneg/9280.bmp' width = '100%;'></div></div>","null","neg","CS","CS","2","category2/CS4.png","","","","",""
"","html-keyboard-response","78","535753","0.0-6.0-6.0-0.9","q555ewzrgz","many_one","0","indirect_first","0","er06ph31","0","20","1","1","3","1","","0","1","0","null","","","<div class = 'row'><div class = 'column'><img src = 'uspos/1340.bmp' width = '100%;'></div><div class = 'column'><img src = 'category4/CS6.png' width = '70%;'></div></div>","null","pos","CS","CS","4","category4/CS6.png","","","","",""
"","html-keyboard-response","79","538283","0.0-6.0-6.0-0.10","q555ewzrgz","many_one","0","indirect_first","0","er06ph31","0","20","1","1","3","1","","0","1","0","null","","","<div class = 'row'><div class = 'column'><img src = 'uspos/4625.bmp' width = '100%;'></div><div class = 'column'><img src = 'category1/CS5.png' width = '70%;'></div></div>","null","pos","CS","CS","1","category1/CS5.png","","","","",""
"","html-keyboard-response","80","540823","0.0-6.0-6.0-0.11","q555ewzrgz","many_one","0","indirect_first","0","er06ph31","0","20","1","1","3","1","","0","1","0","null","","","<div class = 'row'><div class = 'column'><img src = 'category1/CS10.png' width = '70%;'></div><div class = 'column'><img src = 'uspos/5600.bmp' width = '100%;'></div></div>","null","pos","CS","CS","1","category1/CS10.png","","","","",""
"","html-keyboard-response","81","543353","0.0-6.0-6.0-0.12","q555ewzrgz","many_one","0","indirect_first","0","er06ph31","0","20","1","1","3","1","","0","1","0","null","","","<div class = 'row'><div class = 'column'><img src = 'category2/CS8.png' width = '70%;'></div><div class = 'column'><img src = 'usneg/9181.bmp' width = '100%;'></div></div>","null","neg","CS","CS","2","category2/CS8.png","","","","",""
"","html-keyboard-response","82","545893","0.0-6.0-6.0-0.13","q555ewzrgz","many_one","0","indirect_first","0","er06ph31","0","20","1","1","3","1","","0","1","0","null","","","<div class = 'row'><div class = 'column'><img src = 'category1/CS1.png' width = '70%;'></div><div class = 'column'><img src = 'uspos/2208.bmp' width = '100%;'></div></div>","null","pos","CS","CS","1","category1/CS1.png","","","","",""
"","html-keyboard-response","83","548433","0.0-6.0-6.0-0.14","q555ewzrgz","many_one","0","indirect_first","0","er06ph31","0","20","1","1","3","1","","0","1","0","null","","","<div class = 'row'><div class = 'column'><img src = 'usneg/9000.bmp' width = '100%;'></div><div class = 'column'><img src = 'category3/CS1.png' width = '70%;'></div></div>","null","neg","CS","CS","3","category3/CS1.png","","","","",""
"","html-keyboard-response","84","550963","0.0-6.0-6.0-0.15","q555ewzrgz","many_one","0","indirect_first","0","er06ph31","0","20","1","1","3","1","","0","1","0","null","","","<div class = 'row'><div class = 'column'><img src = 'usneg/9220.bmp' width = '100%;'></div><div class = 'column'><img src = 'category3/CS5.png' width = '70%;'></div></div>","null","neg","CS","CS","3","category3/CS5.png","","","","",""
"","html-keyboard-response","85","553503","0.0-6.0-6.0-0.16","q555ewzrgz","many_one","0","indirect_first","0","er06ph31","0","20","1","1","3","1","","0","1","0","null","","","<div class = 'row'><div class = 'column'><img src = 'category4/CS7.png' width = '70%;'></div><div class = 'column'><img src = 'uspos/8461.bmp' width = '100%;'></div></div>","null","pos","CS","CS","4","category4/CS7.png","","","","",""
"","html-keyboard-response","86","556024","0.0-6.0-6.0-0.17","q555ewzrgz","many_one","0","indirect_first","0","er06ph31","0","20","1","1","3","1","","0","1","0","null","","","<div class = 'row'><div class = 'column'><img src = 'uspos/2530.bmp' width = '100%;'></div><div class = 'column'><img src = 'category4/CS4.png' width = '70%;'></div></div>","null","pos","CS","CS","4","category4/CS4.png","","","","",""
"","html-keyboard-response","87","558553","0.0-6.0-6.0-0.18","q555ewzrgz","many_one","0","indirect_first","0","er06ph31","0","20","1","1","3","1","","0","1","0","null","","","<div class = 'row'><div class = 'column'><img src = 'category2/CS6.png' width = '70%;'></div><div class = 'column'><img src = 'usneg/6212.bmp' width = '100%;'></div></div>","null","neg","CS","CS","2","category2/CS6.png","","","","",""
"","html-keyboard-response","88","561093","0.0-6.0-6.0-0.19","q555ewzrgz","many_one","0","indirect_first","0","er06ph31","0","20","1","1","3","1","","0","1","0","null","","","<div class = 'row'><div class = 'column'><img src = 'category2/CS9.png' width = '70%;'></div><div class = 'column'><img src = 'usneg/3181.bmp' width = '100%;'></div></div>","null","neg","CS","CS","2","category2/CS9.png","","","","",""
"","html-keyboard-response","89","594034","0.0-7.0","q555ewzrgz","many_one","0","indirect_first","0","er06ph31","0","20","1","1","3","1","","0","1","0","32419","","","<p>Sie sehen nun die chinesischen Zeichen nur ganz kurz. Danach sehen Sie die jeweilige Aussprache der Zeichen als Silbe auf dem Bildschrim. Ihre Aufgabe ist es, für jede Silbe anzugeben, ob diese etwas angenehmes, oder unangenehmes bedeuten könnte. Verlassen Sie sich hier vor allem auf Ihre Intuition.<br><br>Die Zeichen werden nur zur Orientierung dargestellt, beachten Sie sie deshalb nicht. Konzentrieren Sie sich vor allem auf die Silben. <br>Reagieren Sie mit folgenden zwei Tasten: <br><br><b>'D' </b> wenn die Silbe etwas <b>unangenehmes</b> bedeuten könnte. <br><b>'K'</b> wenn die Silbe etwas <b>angenehmes</b> bedeuten könnte. <br><br>Bitte legen Sie nun den Zeigefinger der linken Hand auf die Taste 'D' und den Zeigefinger der rechten Hand auf die Taste 'K'. <br>Reagieren Sie auf jede Silbe so schnell wie möglich. Uns interessiert Ihre spontane Reaktion. <br> <br> <br>Drücken Sie 'D' oder 'K', um die nächste Aufgabe zu starten. </p>","68","","","","","","","","","",""
"","html-keyboard-response","90","597063","0.0-8.0-0.0","q555ewzrgz","many_one","0","indirect_first","0","er06ph31","0","20","1","1","3","1","","0","1","0","null","","","<div style=""font-size:60px;"">+</div>","null","","","","","","","","","",""
"","html-keyboard-response","91","597171","0.0-8.0-1.0","q555ewzrgz","many_one","0","indirect_first","0","er06ph31","0","20","1","1","3","1","","0","1","0","null","","","<img src = 'category2/CS6.png' width = '100%;'>","null","","","","","","","","","",""
"","html-keyboard-response","92","597437","0.0-8.0-2.0","q555ewzrgz","many_one","0","indirect_first","0","er06ph31","0","20","1","1","3","1","","0","1","0","null","","","<img src = 'targets/19.png' width = '100%;'>","null","","","","","","","","","",""
"","html-keyboard-response","93","604659","0.0-8.0-3.0","q555ewzrgz","many_one","0","indirect_first","0","er06ph31","0","20","1","1","3","1","","0","1","0","7219","","","<img src = 'targets/mask.png' width = '100%;'>","75","neg","CS","CS","2","category2/CS6.png","targets/19.png","1","indirect","0",""
"","html-keyboard-response","94","606193","0.0-8.0-0.1","q555ewzrgz","many_one","0","indirect_first","0","er06ph31","0","20","1","1","3","1","","0","1","0","null","","","<div style=""font-size:60px;"">+</div>","null","","","","","","","","","",""
"","html-keyboard-response","95","606299","0.0-8.0-1.1","q555ewzrgz","many_one","0","indirect_first","0","er06ph31","0","20","1","1","3","1","","0","1","0","null","","","<img src = 'category1/CS7.png' width = '100%;'>","null","","","","","","","","","",""
"","html-keyboard-response","96","606565","0.0-8.0-2.1","q555ewzrgz","many_one","0","indirect_first","0","er06ph31","0","20","1","1","3","1","","0","1","0","null","","","<img src = 'targets/7.png' width = '100%;'>","null","","","","","","","","","",""
"","html-keyboard-response","97","611938","0.0-8.0-3.1","q555ewzrgz","many_one","0","indirect_first","0","er06ph31","0","20","1","1","3","1","","0","1","0","5371","","","<img src = 'targets/mask.png' width = '100%;'>","75","pos","CS","CS","1","category1/CS7.png","targets/7.png","1","indirect","1",""
"","html-keyboard-response","98","613474","0.0-8.0-0.2","q555ewzrgz","many_one","0","indirect_first","0","er06ph31","0","20","1","1","3","1","","0","1","0","null","","","<div style=""font-size:60px;"">+</div>","null","","","","","","","","","",""
"","html-keyboard-response","99","613577","0.0-8.0-1.2","q555ewzrgz","many_one","0","indirect_first","0","er06ph31","0","20","1","1","3","1","","0","1","0","null","","","<img src = 'category2/CS1.png' width = '100%;'>","null","","","","","","","","","",""
"","html-keyboard-response","100","613843","0.0-8.0-2.2","q555ewzrgz","many_one","0","indirect_first","0","er06ph31","0","20","1","1","3","1","","0","1","0","null","","","<img src = 'targets/23.png' width = '100%;'>","null","","","","","","","","","",""
"","html-keyboard-response","101","615950","0.0-8.0-3.2","q555ewzrgz","many_one","0","indirect_first","0","er06ph31","0","20","1","1","3","1","","0","1","0","2106","","","<img src = 'targets/mask.png' width = '100%;'>","68","neg","CS","CS","2","category2/CS1.png","targets/23.png","0","indirect","2",""
"","html-keyboard-response","102","617473","0.0-8.0-0.3","q555ewzrgz","many_one","0","indirect_first","0","er06ph31","0","20","1","1","3","1","","0","1","0","null","","","<div style=""font-size:60px;"">+</div>","null","","","","","","","","","",""
"","html-keyboard-response","103","617573","0.0-8.0-1.3","q555ewzrgz","many_one","0","indirect_first","0","er06ph31","0","20","1","1","3","1","","0","1","0","null","","","<img src = 'category4/CS10.png' width = '100%;'>","null","","","","","","","","","",""
"","html-keyboard-response","104","617842","0.0-8.0-2.3","q555ewzrgz","many_one","0","indirect_first","0","er06ph31","0","20","1","1","3","1","","0","1","0","null","","","<img src = 'targets/8.png' width = '100%;'>","null","","","","","","","","","",""
"","html-keyboard-response","105","618927","0.0-8.0-3.3","q555ewzrgz","many_one","0","indirect_first","0","er06ph31","0","20","1","1","3","1","","0","1","0","1084","","","<img src = 'targets/mask.png' width = '100%;'>","75","pos","CS","CS","4","category4/CS10.png","targets/8.png","1","indirect","3",""
"","html-keyboard-response","106","620464","0.0-8.0-0.4","q555ewzrgz","many_one","0","indirect_first","0","er06ph31","0","20","1","1","3","1","","0","1","0","null","","","<div style=""font-size:60px;"">+</div>","null","","","","","","","","","",""
"","html-keyboard-response","107","620569","0.0-8.0-1.4","q555ewzrgz","many_one","0","indirect_first","0","er06ph31","0","20","1","1","3","1","","0","1","0","null","","","<img src = 'category4/CS7.png' width = '100%;'>","null","","","","","","","","","",""
"","html-keyboard-response","108","620840","0.0-8.0-2.4","q555ewzrgz","many_one","0","indirect_first","0","er06ph31","0","20","1","1","3","1","","0","1","0","null","","","<img src = 'targets/40.png' width = '100%;'>","null","","","","","","","","","",""
"","html-keyboard-response","109","625731","0.0-8.0-3.4","q555ewzrgz","many_one","0","indirect_first","0","er06ph31","0","20","1","1","3","1","","0","1","0","4889","","","<img src = 'targets/mask.png' width = '100%;'>","75","pos","CS","CS","4","category4/CS7.png","targets/40.png","1","indirect","4",""
"","html-keyboard-response","110","627233","0.0-8.0-0.5","q555ewzrgz","many_one","0","indirect_first","0","er06ph31","0","20","1","1","3","1","","0","1","0","null","","","<div style=""font-size:60px;"">+</div>","null","","","","","","","","","",""
"","html-keyboard-response","111","627335","0.0-8.0-1.5","q555ewzrgz","many_one","0","indirect_first","0","er06ph31","0","20","1","1","3","1","","0","1","0","null","","","<img src = 'category1/CS1.png' width = '100%;'>","null","","","","","","","","","",""
"","html-keyboard-response","112","627602","0.0-8.0-2.5","q555ewzrgz","many_one","0","indirect_first","0","er06ph31","0","20","1","1","3","1","","0","1","0","null","","","<img src = 'targets/35.png' width = '100%;'>","null","","","","","","","","","",""
"","html-keyboard-response","113","630539","0.0-8.0-3.5","q555ewzrgz","many_one","0","indirect_first","0","er06ph31","0","20","1","1","3","1","","0","1","0","2936","","","<img src = 'targets/mask.png' width = '100%;'>","75","pos","CS","CS","1","category1/CS1.png","targets/35.png","1","indirect","5",""
"","html-keyboard-response","114","632063","0.0-8.0-0.6","q555ewzrgz","many_one","0","indirect_first","0","er06ph31","0","20","1","1","3","1","","0","1","0","null","","","<div style=""font-size:60px;"">+</div>","null","","","","","","","","","",""
"","html-keyboard-response","115","632166","0.0-8.0-1.6","q555ewzrgz","many_one","0","indirect_first","0","er06ph31","0","20","1","1","3","1","","0","1","0","null","","","<img src = 'category3/CS5.png' width = '100%;'>","null","","","","","","","","","",""
"","html-keyboard-response","116","632433","0.0-8.0-2.6","q555ewzrgz","many_one","0","indirect_first","0","er06ph31","0","20","1","1","3","1","","0","1","0","null","","","<img src = 'targets/20.png' width = '100%;'>","null","","","","","","","","","",""
"","html-keyboard-response","117","633268","0.0-8.0-3.6","q555ewzrgz","many_one","0","indirect_first","0","er06ph31","0","20","1","1","3","1","","0","1","0","834","","","<img src = 'targets/mask.png' width = '100%;'>","68","neg","CS","CS","3","category3/CS5.png","targets/20.png","0","indirect","6",""
"","html-keyboard-response","118","634793","0.0-8.0-0.7","q555ewzrgz","many_one","0","indirect_first","0","er06ph31","0","20","1","1","3","1","","0","1","0","null","","","<div style=""font-size:60px;"">+</div>","null","","","","","","","","","",""
"","html-keyboard-response","119","634897","0.0-8.0-1.7","q555ewzrgz","many_one","0","indirect_first","0","er06ph31","0","20","1","1","3","1","","0","1","0","null","","","<img src = 'category1/CS3.png' width = '100%;'>","null","","","","","","","","","",""
"","html-keyboard-response","120","635164","0.0-8.0-2.7","q555ewzrgz","many_one","0","indirect_first","0","er06ph31","0","20","1","1","3","1","","0","1","0","null","","","<img src = 'targets/29.png' width = '100%;'>","null","","","","","","","","","",""
"","html-keyboard-response","121","637597","0.0-8.0-3.7","q555ewzrgz","many_one","0","indirect_first","0","er06ph31","0","20","1","1","3","1","","0","1","0","2432","","","<img src = 'targets/mask.png' width = '100%;'>","68","pos","CS","CS","1","category1/CS3.png","targets/29.png","0","indirect","7",""
"","html-keyboard-response","122","639113","0.0-8.0-0.8","q555ewzrgz","many_one","0","indirect_first","0","er06ph31","0","20","1","1","3","1","","0","1","0","null","","","<div style=""font-size:60px;"">+</div>","null","","","","","","","","","",""
"","html-keyboard-response","123","639212","0.0-8.0-1.8","q555ewzrgz","many_one","0","indirect_first","0","er06ph31","0","20","1","1","3","1","","0","1","0","null","","","<img src = 'category2/CS8.png' width = '100%;'>","null","","","","","","","","","",""
"","html-keyboard-response","124","639477","0.0-8.0-2.8","q555ewzrgz","many_one","0","indirect_first","0","er06ph31","0","20","1","1","3","1","","0","1","0","null","","","<img src = 'targets/46.png' width = '100%;'>","null","","","","","","","","","",""
"","html-keyboard-response","125","640610","0.0-8.0-3.8","q555ewzrgz","many_one","0","indirect_first","0","er06ph31","0","20","1","1","3","1","","0","1","0","1133","","","<img src = 'targets/mask.png' width = '100%;'>","68","neg","CS","CS","2","category2/CS8.png","targets/46.png","0","indirect","8",""
"","html-keyboard-response","126","642143","0.0-8.0-0.9","q555ewzrgz","many_one","0","indirect_first","0","er06ph31","0","20","1","1","3","1","","0","1","0","null","","","<div style=""font-size:60px;"">+</div>","null","","","","","","","","","",""
"","html-keyboard-response","127","642243","0.0-8.0-1.9","q555ewzrgz","many_one","0","indirect_first","0","er06ph31","0","20","1","1","3","1","","0","1","0","null","","","<img src = 'category4/CS6.png' width = '100%;'>","null","","","","","","","","","",""
"","html-keyboard-response","128","642509","0.0-8.0-2.9","q555ewzrgz","many_one","0","indirect_first","0","er06ph31","0","20","1","1","3","1","","0","1","0","null","","","<img src = 'targets/3.png' width = '100%;'>","null","","","","","","","","","",""
"","html-keyboard-response","129","643126","0.0-8.0-3.9","q555ewzrgz","many_one","0","indirect_first","0","er06ph31","0","20","1","1","3","1","","0","1","0","616","","","<img src = 'targets/mask.png' width = '100%;'>","75","pos","CS","CS","4","category4/CS6.png","targets/3.png","1","indirect","9",""
"","html-keyboard-response","130","644663","0.0-8.0-0.10","q555ewzrgz","many_one","0","indirect_first","0","er06ph31","0","20","1","1","3","1","","0","1","0","null","","","<div style=""font-size:60px;"">+</div>","null","","","","","","","","","",""
"","html-keyboard-response","131","644757","0.0-8.0-1.10","q555ewzrgz","many_one","0","indirect_first","0","er06ph31","0","20","1","1","3","1","","0","1","0","null","","","<img src = 'category2/CS4.png' width = '100%;'>","null","","","","","","","","","",""
"","html-keyboard-response","132","645023","0.0-8.0-2.10","q555ewzrgz","many_one","0","indirect_first","0","er06ph31","0","20","1","1","3","1","","0","1","0","null","","","<img src = 'targets/45.png' width = '100%;'>","null","","","","","","","","","",""
"","html-keyboard-response","133","648066","0.0-8.0-3.10","q555ewzrgz","many_one","0","indirect_first","0","er06ph31","0","20","1","1","3","1","","0","1","0","3041","","","<img src = 'targets/mask.png' width = '100%;'>","68","neg","CS","CS","2","category2/CS4.png","targets/45.png","0","indirect","10",""
"","html-keyboard-response","134","649593","0.0-8.0-0.11","q555ewzrgz","many_one","0","indirect_first","0","er06ph31","0","20","1","1","3","1","","0","1","0","null","","","<div style=""font-size:60px;"">+</div>","null","","","","","","","","","",""
"","html-keyboard-response","135","649687","0.0-8.0-1.11","q555ewzrgz","many_one","0","indirect_first","0","er06ph31","0","20","1","1","3","1","","0","1","0","null","","","<img src = 'category2/CS9.png' width = '100%;'>","null","","","","","","","","","",""
"","html-keyboard-response","136","649953","0.0-8.0-2.11","q555ewzrgz","many_one","0","indirect_first","0","er06ph31","0","20","1","1","3","1","","0","1","0","null","","","<img src = 'targets/9.png' width = '100%;'>","null","","","","","","","","","",""
"","html-keyboard-response","137","652087","0.0-8.0-3.11","q555ewzrgz","many_one","0","indirect_first","0","er06ph31","0","20","1","1","3","1","","0","1","0","2131","","","<img src = 'targets/mask.png' width = '100%;'>","68","neg","CS","CS","2","category2/CS9.png","targets/9.png","0","indirect","11",""
"","html-keyboard-response","138","653623","0.0-8.0-0.12","q555ewzrgz","many_one","0","indirect_first","0","er06ph31","0","20","1","1","3","1","","0","1","0","null","","","<div style=""font-size:60px;"">+</div>","null","","","","","","","","","",""
"","html-keyboard-response","139","653720","0.0-8.0-1.12","q555ewzrgz","many_one","0","indirect_first","0","er06ph31","0","20","1","1","3","1","","0","1","0","null","","","<img src = 'category2/CS7.png' width = '100%;'>","null","","","","","","","","","",""
"","html-keyboard-response","140","653985","0.0-8.0-2.12","q555ewzrgz","many_one","0","indirect_first","0","er06ph31","0","20","1","1","3","1","","0","1","0","null","","","<img src = 'targets/39.png' width = '100%;'>","null","","","","","","","","","",""
"","html-keyboard-response","141","655778","0.0-8.0-3.12","q555ewzrgz","many_one","0","indirect_first","0","er06ph31","0","20","1","1","3","1","","0","1","0","1792","","","<img src = 'targets/mask.png' width = '100%;'>","68","neg","GS","GSold","2","category2/CS7.png","targets/39.png","0","indirect","12",""
"","html-keyboard-response","142","657304","0.0-8.0-0.13","q555ewzrgz","many_one","0","indirect_first","0","er06ph31","0","20","1","1","3","1","","0","1","0","null","","","<div style=""font-size:60px;"">+</div>","null","","","","","","","","","",""
"","html-keyboard-response","143","657401","0.0-8.0-1.13","q555ewzrgz","many_one","0","indirect_first","0","er06ph31","0","20","1","1","3","1","","0","1","0","null","","","<img src = 'category2/CS10.png' width = '100%;'>","null","","","","","","","","","",""
"","html-keyboard-response","144","657666","0.0-8.0-2.13","q555ewzrgz","many_one","0","indirect_first","0","er06ph31","0","20","1","1","3","1","","0","1","0","null","","","<img src = 'targets/10.png' width = '100%;'>","null","","","","","","","","","",""
"","html-keyboard-response","145","659477","0.0-8.0-3.13","q555ewzrgz","many_one","0","indirect_first","0","er06ph31","0","20","1","1","3","1","","0","1","0","1810","","","<img src = 'targets/mask.png' width = '100%;'>","68","neg","GS","GSold","2","category2/CS10.png","targets/10.png","0","indirect","13",""
"","html-keyboard-response","146","661013","0.0-8.0-0.14","q555ewzrgz","many_one","0","indirect_first","0","er06ph31","0","20","1","1","3","1","","0","1","0","null","","","<div style=""font-size:60px;"">+</div>","null","","","","","","","","","",""
"","html-keyboard-response","147","661114","0.0-8.0-1.14","q555ewzrgz","many_one","0","indirect_first","0","er06ph31","0","20","1","1","3","1","","0","1","0","null","","","<img src = 'category1/CS5.png' width = '100%;'>","null","","","","","","","","","",""
"","html-keyboard-response","148","661381","0.0-8.0-2.14","q555ewzrgz","many_one","0","indirect_first","0","er06ph31","0","20","1","1","3","1","","0","1","0","null","","","<img src = 'targets/6.png' width = '100%;'>","null","","","","","","","","","",""
"","html-keyboard-response","149","662327","0.0-8.0-3.14","q555ewzrgz","many_one","0","indirect_first","0","er06ph31","0","20","1","1","3","1","","0","1","0","944","","","<img src = 'targets/mask.png' width = '100%;'>","75","pos","CS","CS","1","category1/CS5.png","targets/6.png","1","indirect","14",""
"","html-keyboard-response","150","663863","0.0-8.0-0.15","q555ewzrgz","many_one","0","indirect_first","0","er06ph31","0","20","1","1","3","1","","0","1","0","null","","","<div style=""font-size:60px;"">+</div>","null","","","","","","","","","",""
"","html-keyboard-response","151","663963","0.0-8.0-1.15","q555ewzrgz","many_one","0","indirect_first","0","er06ph31","0","20","1","1","3","1","","0","1","0","null","","","<img src = 'category2/CS2.png' width = '100%;'>","null","","","","","","","","","",""
"","html-keyboard-response","152","664229","0.0-8.0-2.15","q555ewzrgz","many_one","0","indirect_first","0","er06ph31","0","20","1","1","3","1","","0","1","0","null","","","<img src = 'targets/38.png' width = '100%;'>","null","","","","","","","","","",""
"","html-keyboard-response","153","666882","0.0-8.0-3.15","q555ewzrgz","many_one","0","indirect_first","0","er06ph31","0","20","1","1","3","1","","0","1","0","2651","","","<img src = 'targets/mask.png' width = '100%;'>","75","neg","GS","GSold","2","category2/CS2.png","targets/38.png","1","indirect","15",""
"","html-keyboard-response","154","668413","0.0-8.0-0.16","q555ewzrgz","many_one","0","indirect_first","0","er06ph31","0","20","1","1","3","1","","0","1","0","null","","","<div style=""font-size:60px;"">+</div>","null","","","","","","","","","",""
"","html-keyboard-response","155","668510","0.0-8.0-1.16","q555ewzrgz","many_one","0","indirect_first","0","er06ph31","0","20","1","1","3","1","","0","1","0","null","","","<img src = 'category3/CS3.png' width = '100%;'>","null","","","","","","","","","",""
"","html-keyboard-response","156","668773","0.0-8.0-2.16","q555ewzrgz","many_one","0","indirect_first","0","er06ph31","0","20","1","1","3","1","","0","1","0","null","","","<img src = 'targets/12.png' width = '100%;'>","null","","","","","","","","","",""
"","html-keyboard-response","157","670253","0.0-8.0-3.16","q555ewzrgz","many_one","0","indirect_first","0","er06ph31","0","20","1","1","3","1","","0","1","0","1478","","","<img src = 'targets/mask.png' width = '100%;'>","68","neg","CS","CS","3","category3/CS3.png","targets/12.png","0","indirect","16",""
"","html-keyboard-response","158","671783","0.0-8.0-0.17","q555ewzrgz","many_one","0","indirect_first","0","er06ph31","0","20","1","1","3","1","","0","1","0","null","","","<div style=""font-size:60px;"">+</div>","null","","","","","","","","","",""
"","html-keyboard-response","159","671891","0.0-8.0-1.17","q555ewzrgz","many_one","0","indirect_first","0","er06ph31","0","20","1","1","3","1","","0","1","0","null","","","<img src = 'category3/CS1.png' width = '100%;'>","null","","","","","","","","","",""
"","html-keyboard-response","160","672158","0.0-8.0-2.17","q555ewzrgz","many_one","0","indirect_first","0","er06ph31","0","20","1","1","3","1","","0","1","0","null","","","<img src = 'targets/32.png' width = '100%;'>","null","","","","","","","","","",""
"","html-keyboard-response","161","672850","0.0-8.0-3.17","q555ewzrgz","many_one","0","indirect_first","0","er06ph31","0","20","1","1","3","1","","0","1","0","690","","","<img src = 'targets/mask.png' width = '100%;'>","68","neg","CS","CS","3","category3/CS1.png","targets/32.png","0","indirect","17",""
"","html-keyboard-response","162","674373","0.0-8.0-0.18","q555ewzrgz","many_one","0","indirect_first","0","er06ph31","0","20","1","1","3","1","","0","1","0","null","","","<div style=""font-size:60px;"">+</div>","null","","","","","","","","","",""
"","html-keyboard-response","163","674473","0.0-8.0-1.18","q555ewzrgz","many_one","0","indirect_first","0","er06ph31","0","20","1","1","3","1","","0","1","0","null","","","<img src = 'category4/CS8.png' width = '100%;'>","null","","","","","","","","","",""
"","html-keyboard-response","164","674733","0.0-8.0-2.18","q555ewzrgz","many_one","0","indirect_first","0","er06ph31","0","20","1","1","3","1","","0","1","0","null","","","<img src = 'targets/5.png' width = '100%;'>","null","","","","","","","","","",""
"","html-keyboard-response","165","675622","0.0-8.0-3.18","q555ewzrgz","many_one","0","indirect_first","0","er06ph31","0","20","1","1","3","1","","0","1","0","888","","","<img src = 'targets/mask.png' width = '100%;'>","75","pos","CS","CS","4","category4/CS8.png","targets/5.png","1","indirect","18",""
"","html-keyboard-response","166","677143","0.0-8.0-0.19","q555ewzrgz","many_one","0","indirect_first","0","er06ph31","0","20","1","1","3","1","","0","1","0","null","","","<div style=""font-size:60px;"">+</div>","null","","","","","","","","","",""
"","html-keyboard-response","167","677237","0.0-8.0-1.19","q555ewzrgz","many_one","0","indirect_first","0","er06ph31","0","20","1","1","3","1","","0","1","0","null","","","<img src = 'category3/CS7.png' width = '100%;'>","null","","","","","","","","","",""
"","html-keyboard-response","168","677503","0.0-8.0-2.19","q555ewzrgz","many_one","0","indirect_first","0","er06ph31","0","20","1","1","3","1","","0","1","0","null","","","<img src = 'targets/21.png' width = '100%;'>","null","","","","","","","","","",""
"","html-keyboard-response","169","678584","0.0-8.0-3.19","q555ewzrgz","many_one","0","indirect_first","0","er06ph31","0","20","1","1","3","1","","0","1","0","1079","","","<img src = 'targets/mask.png' width = '100%;'>","68","neg","CS","CS","3","category3/CS7.png","targets/21.png","0","indirect","19",""
"","html-keyboard-response","170","680113","0.0-8.0-0.20","q555ewzrgz","many_one","0","indirect_first","0","er06ph31","0","20","1","1","3","1","","0","1","0","null","","","<div style=""font-size:60px;"">+</div>","null","","","","","","","","","",""
"","html-keyboard-response","171","680219","0.0-8.0-1.20","q555ewzrgz","many_one","0","indirect_first","0","er06ph31","0","20","1","1","3","1","","0","1","0","null","","","<img src = 'category3/CS9.png' width = '100%;'>","null","","","","","","","","","",""
"","html-keyboard-response","172","680486","0.0-8.0-2.20","q555ewzrgz","many_one","0","indirect_first","0","er06ph31","0","20","1","1","3","1","","0","1","0","null","","","<img src = 'targets/33.png' width = '100%;'>","null","","","","","","","","","",""
"","html-keyboard-response","173","681669","0.0-8.0-3.20","q555ewzrgz","many_one","0","indirect_first","0","er06ph31","0","20","1","1","3","1","","0","1","0","1183","","","<img src = 'targets/mask.png' width = '100%;'>","68","neg","CS","CS","3","category3/CS9.png","targets/33.png","0","indirect","20",""
"","html-keyboard-response","174","683203","0.0-8.0-0.21","q555ewzrgz","many_one","0","indirect_first","0","er06ph31","0","20","1","1","3","1","","0","1","0","null","","","<div style=""font-size:60px;"">+</div>","null","","","","","","","","","",""
"","html-keyboard-response","175","683301","0.0-8.0-1.21","q555ewzrgz","many_one","0","indirect_first","0","er06ph31","0","20","1","1","3","1","","0","1","0","null","","","<img src = 'category4/CS4.png' width = '100%;'>","null","","","","","","","","","",""
"","html-keyboard-response","176","683567","0.0-8.0-2.21","q555ewzrgz","many_one","0","indirect_first","0","er06ph31","0","20","1","1","3","1","","0","1","0","null","","","<img src = 'targets/4.png' width = '100%;'>","null","","","","","","","","","",""
"","html-keyboard-response","177","685577","0.0-8.0-3.21","q555ewzrgz","many_one","0","indirect_first","0","er06ph31","0","20","1","1","3","1","","0","1","0","2008","","","<img src = 'targets/mask.png' width = '100%;'>","75","pos","CS","CS","4","category4/CS4.png","targets/4.png","1","indirect","21",""
"","html-keyboard-response","178","687083","0.0-8.0-0.22","q555ewzrgz","many_one","0","indirect_first","0","er06ph31","0","20","1","1","3","1","","0","1","0","null","","","<div style=""font-size:60px;"">+</div>","null","","","","","","","","","",""
"","html-keyboard-response","179","687182","0.0-8.0-1.22","q555ewzrgz","many_one","0","indirect_first","0","er06ph31","0","20","1","1","3","1","","0","1","0","null","","","<img src = 'category1/CS10.png' width = '100%;'>","null","","","","","","","","","",""
"","html-keyboard-response","180","687449","0.0-8.0-2.22","q555ewzrgz","many_one","0","indirect_first","0","er06ph31","0","20","1","1","3","1","","0","1","0","null","","","<img src = 'targets/30.png' width = '100%;'>","null","","","","","","","","","",""
"","html-keyboard-response","181","688243","0.0-8.0-3.22","q555ewzrgz","many_one","0","indirect_first","0","er06ph31","0","20","1","1","3","1","","0","1","0","794","","","<img src = 'targets/mask.png' width = '100%;'>","75","pos","CS","CS","1","category1/CS10.png","targets/30.png","1","indirect","22",""
"","html-keyboard-response","182","689783","0.0-8.0-0.23","q555ewzrgz","many_one","0","indirect_first","0","er06ph31","0","20","1","1","3","1","","0","1","0","null","","","<div style=""font-size:60px;"">+</div>","null","","","","","","","","","",""
"","html-keyboard-response","183","689880","0.0-8.0-1.23","q555ewzrgz","many_one","0","indirect_first","0","er06ph31","0","20","1","1","3","1","","0","1","0","null","","","<img src = 'category4/CS9.png' width = '100%;'>","null","","","","","","","","","",""
"","html-keyboard-response","184","690146","0.0-8.0-2.23","q555ewzrgz","many_one","0","indirect_first","0","er06ph31","0","20","1","1","3","1","","0","1","0","null","","","<img src = 'targets/26.png' width = '100%;'>","null","","","","","","","","","",""
"","html-keyboard-response","185","692239","0.0-8.0-3.23","q555ewzrgz","many_one","0","indirect_first","0","er06ph31","0","20","1","1","3","1","","0","1","0","2092","","","<img src = 'targets/mask.png' width = '100%;'>","75","pos","GS","GSold","4","category4/CS9.png","targets/26.png","1","indirect","23",""
"","survey-html-form","186","719228","0.0-9.0","q555ewzrgz","many_one","0","indirect_first","0","er06ph31","0","20","1","1","3","1","","0","1","0","26474","","{}","","","","","","","","","","","",""
"","html-keyboard-response","187","722243","0.0-10.0-0.0","q555ewzrgz","many_one","0","indirect_first","0","er06ph31","0","20","1","1","3","1","","0","1","0","null","","","<div style=""font-size:60px;"">+</div>","null","","","","","","","","","",""
"","html-keyboard-response","188","722344","0.0-10.0-1.0","q555ewzrgz","many_one","0","indirect_first","0","er06ph31","0","20","1","1","3","1","","0","1","0","null","","","<img src = 'category1/GS3.png' width = '100%;'>","null","","","","","","","","","",""
"","html-keyboard-response","189","722610","0.0-10.0-2.0","q555ewzrgz","many_one","0","indirect_first","0","er06ph31","0","20","1","1","3","1","","0","1","0","null","","","<img src = 'targets/48.png' width = '100%;'>","null","","","","","","","","","",""
"","html-keyboard-response","190","729786","0.0-10.0-3.0","q555ewzrgz","many_one","0","indirect_first","0","er06ph31","0","20","1","1","3","1","","0","1","0","7175","","","<img src = 'targets/mask.png' width = '100%;'>","75","pos","GS","GSnew","1","category1/GS3.png","targets/48.png","1","indirect","24",""
"","html-keyboard-response","191","731313","0.0-10.0-0.1","q555ewzrgz","many_one","0","indirect_first","0","er06ph31","0","20","1","1","3","1","","0","1","0","null","","","<div style=""font-size:60px;"">+</div>","null","","","","","","","","","",""
"","html-keyboard-response","192","731421","0.0-10.0-1.1","q555ewzrgz","many_one","0","indirect_first","0","er06ph31","0","20","1","1","3","1","","0","1","0","null","","","<img src = 'category3/CS10.png' width = '100%;'>","null","","","","","","","","","",""
"","html-keyboard-response","193","731687","0.0-10.0-2.1","q555ewzrgz","many_one","0","indirect_first","0","er06ph31","0","20","1","1","3","1","","0","1","0","null","","","<img src = 'targets/28.png' width = '100%;'>","null","","","","","","","","","",""
"","html-keyboard-response","194","732828","0.0-10.0-3.1","q555ewzrgz","many_one","0","indirect_first","0","er06ph31","0","20","1","1","3","1","","0","1","0","1139","","","<img src = 'targets/mask.png' width = '100%;'>","68","neg","GS","GSold","3","category3/CS10.png","targets/28.png","0","indirect","25",""
"","html-keyboard-response","195","734353","0.0-10.0-0.2","q555ewzrgz","many_one","0","indirect_first","0","er06ph31","0","20","1","1","3","1","","0","1","0","null","","","<div style=""font-size:60px;"">+</div>","null","","","","","","","","","",""
"","html-keyboard-response","196","734454","0.0-10.0-1.2","q555ewzrgz","many_one","0","indirect_first","0","er06ph31","0","20","1","1","3","1","","0","1","0","null","","","<img src = 'category2/men.png' width = '100%;'>","null","","","","","","","","","",""
"","html-keyboard-response","197","734719","0.0-10.0-2.2","q555ewzrgz","many_one","0","indirect_first","0","er06ph31","0","20","1","1","3","1","","0","1","0","null","","","<img src = 'targets/47.png' width = '100%;'>","null","","","","","","","","","",""
"","html-keyboard-response","198","737827","0.0-10.0-3.2","q555ewzrgz","many_one","0","indirect_first","0","er06ph31","0","20","1","1","3","1","","0","1","0","3106","","","<img src = 'targets/mask.png' width = '100%;'>","75","neg","GS","abstract","2","category2/men.png","targets/47.png","1","indirect","26",""
"","html-keyboard-response","199","739353","0.0-10.0-0.3","q555ewzrgz","many_one","0","indirect_first","0","er06ph31","0","20","1","1","3","1","","0","1","0","null","","","<div style=""font-size:60px;"">+</div>","null","","","","","","","","","",""
"","html-keyboard-response","200","739449","0.0-10.0-1.3","q555ewzrgz","many_one","0","indirect_first","0","er06ph31","0","20","1","1","3","1","","0","1","0","null","","","<img src = 'category2/GS2.png' width = '100%;'>","null","","","","","","","","","",""
"","html-keyboard-response","201","739716","0.0-10.0-2.3","q555ewzrgz","many_one","0","indirect_first","0","er06ph31","0","20","1","1","3","1","","0","1","0","null","","","<img src = 'targets/43.png' width = '100%;'>","null","","","","","","","","","",""
"","html-keyboard-response","202","741158","0.0-10.0-3.3","q555ewzrgz","many_one","0","indirect_first","0","er06ph31","0","20","1","1","3","1","","0","1","0","1440","","","<img src = 'targets/mask.png' width = '100%;'>","68","neg","GS","GSnew","2","category2/GS2.png","targets/43.png","0","indirect","27",""
"","html-keyboard-response","203","742673","0.0-10.0-0.4","q555ewzrgz","many_one","0","indirect_first","0","er06ph31","0","20","1","1","3","1","","0","1","0","null","","","<div style=""font-size:60px;"">+</div>","null","","","","","","","","","",""
"","html-keyboard-response","204","742779","0.0-10.0-1.4","q555ewzrgz","many_one","0","indirect_first","0","er06ph31","0","20","1","1","3","1","","0","1","0","null","","","<img src = 'category1/CS4.png' width = '100%;'>","null","","","","","","","","","",""
"","html-keyboard-response","205","743047","0.0-10.0-2.4","q555ewzrgz","many_one","0","indirect_first","0","er06ph31","0","20","1","1","3","1","","0","1","0","null","","","<img src = 'targets/42.png' width = '100%;'>","null","","","","","","","","","",""
"","html-keyboard-response","206","744373","0.0-10.0-3.4","q555ewzrgz","many_one","0","indirect_first","0","er06ph31","0","20","1","1","3","1","","0","1","0","1325","","","<img src = 'targets/mask.png' width = '100%;'>","75","pos","GS","GSold","1","category1/CS4.png","targets/42.png","1","indirect","28",""
"","html-keyboard-response","207","745914","0.0-10.0-0.5","q555ewzrgz","many_one","0","indirect_first","0","er06ph31","0","20","1","1","3","1","","0","1","0","null","","","<div style=""font-size:60px;"">+</div>","null","","","","","","","","","",""
"","html-keyboard-response","208","746012","0.0-10.0-1.5","q555ewzrgz","many_one","0","indirect_first","0","er06ph31","0","20","1","1","3","1","","0","1","0","null","","","<img src = 'category4/CS2.png' width = '100%;'>","null","","","","","","","","","",""
"","html-keyboard-response","209","746278","0.0-10.0-2.5","q555ewzrgz","many_one","0","indirect_first","0","er06ph31","0","20","1","1","3","1","","0","1","0","null","","","<img src = 'targets/16.png' width = '100%;'>","null","","","","","","","","","",""
"","html-keyboard-response","210","747497","0.0-10.0-3.5","q555ewzrgz","many_one","0","indirect_first","0","er06ph31","0","20","1","1","3","1","","0","1","0","1217","","","<img src = 'targets/mask.png' width = '100%;'>","75","pos","GS","GSold","4","category4/CS2.png","targets/16.png","1","indirect","29",""
"","html-keyboard-response","211","749023","0.0-10.0-0.6","q555ewzrgz","many_one","0","indirect_first","0","er06ph31","0","20","1","1","3","1","","0","1","0","null","","","<div style=""font-size:60px;"">+</div>","null","","","","","","","","","",""
"","html-keyboard-response","212","749126","0.0-10.0-1.6","q555ewzrgz","many_one","0","indirect_first","0","er06ph31","0","20","1","1","3","1","","0","1","0","null","","","<img src = 'category3/GS1.png' width = '100%;'>","null","","","","","","","","","",""
"","html-keyboard-response","213","749393","0.0-10.0-2.6","q555ewzrgz","many_one","0","indirect_first","0","er06ph31","0","20","1","1","3","1","","0","1","0","null","","","<img src = 'targets/41.png' width = '100%;'>","null","","","","","","","","","",""
"","html-keyboard-response","214","751001","0.0-10.0-3.6","q555ewzrgz","many_one","0","indirect_first","0","er06ph31","0","20","1","1","3","1","","0","1","0","1606","","","<img src = 'targets/mask.png' width = '100%;'>","75","neg","GS","GSnew","3","category3/GS1.png","targets/41.png","1","indirect","30",""
"","html-keyboard-response","215","752523","0.0-10.0-0.7","q555ewzrgz","many_one","0","indirect_first","0","er06ph31","0","20","1","1","3","1","","0","1","0","null","","","<div style=""font-size:60px;"">+</div>","null","","","","","","","","","",""
"","html-keyboard-response","216","752625","0.0-10.0-1.7","q555ewzrgz","many_one","0","indirect_first","0","er06ph31","0","20","1","1","3","1","","0","1","0","null","","","<img src = 'category3/CS2.png' width = '100%;'>","null","","","","","","","","","",""
"","html-keyboard-response","217","752892","0.0-10.0-2.7","q555ewzrgz","many_one","0","indirect_first","0","er06ph31","0","20","1","1","3","1","","0","1","0","null","","","<img src = 'targets/18.png' width = '100%;'>","null","","","","","","","","","",""
"","html-keyboard-response","218","753930","0.0-10.0-3.7","q555ewzrgz","many_one","0","indirect_first","0","er06ph31","0","20","1","1","3","1","","0","1","0","1037","","","<img src = 'targets/mask.png' width = '100%;'>","68","neg","GS","GSold","3","category3/CS2.png","targets/18.png","0","indirect","31",""
"","html-keyboard-response","219","755453","0.0-10.0-0.8","q555ewzrgz","many_one","0","indirect_first","0","er06ph31","0","20","1","1","3","1","","0","1","0","null","","","<div style=""font-size:60px;"">+</div>","null","","","","","","","","","",""
"","html-keyboard-response","220","755556","0.0-10.0-1.8","q555ewzrgz","many_one","0","indirect_first","0","er06ph31","0","20","1","1","3","1","","0","1","0","null","","","<img src = 'category1/ma.png' width = '100%;'>","null","","","","","","","","","",""
"","html-keyboard-response","221","755823","0.0-10.0-2.8","q555ewzrgz","many_one","0","indirect_first","0","er06ph31","0","20","1","1","3","1","","0","1","0","null","","","<img src = 'targets/36.png' width = '100%;'>","null","","","","","","","","","",""
"","html-keyboard-response","222","757802","0.0-10.0-3.8","q555ewzrgz","many_one","0","indirect_first","0","er06ph31","0","20","1","1","3","1","","0","1","0","1979","","","<img src = 'targets/mask.png' width = '100%;'>","75","pos","GS","abstract","1","category1/ma.png","targets/36.png","1","indirect","32",""
"","html-keyboard-response","223","759333","0.0-10.0-0.9","q555ewzrgz","many_one","0","indirect_first","0","er06ph31","0","20","1","1","3","1","","0","1","0","null","","","<div style=""font-size:60px;"">+</div>","null","","","","","","","","","",""
"","html-keyboard-response","224","759437","0.0-10.0-1.9","q555ewzrgz","many_one","0","indirect_first","0","er06ph31","0","20","1","1","3","1","","0","1","0","null","","","<img src = 'category4/lin.png' width = '100%;'>","null","","","","","","","","","",""
"","html-keyboard-response","225","759704","0.0-10.0-2.9","q555ewzrgz","many_one","0","indirect_first","0","er06ph31","0","20","1","1","3","1","","0","1","0","null","","","<img src = 'targets/24.png' width = '100%;'>","null","","","","","","","","","",""
"","html-keyboard-response","226","774968","0.0-10.0-3.9","q555ewzrgz","many_one","0","indirect_first","0","er06ph31","0","20","1","1","3","1","","0","1","0","15263","","","<img src = 'targets/mask.png' width = '100%;'>","75","pos","GS","abstract","4","category4/lin.png","targets/24.png","1","indirect","33",""
"","html-keyboard-response","227","776483","0.0-10.0-0.10","q555ewzrgz","many_one","0","indirect_first","0","er06ph31","0","20","1","1","3","1","","0","1","0","null","","","<div style=""font-size:60px;"">+</div>","null","","","","","","","","","",""
"","html-keyboard-response","228","776593","0.0-10.0-1.10","q555ewzrgz","many_one","0","indirect_first","0","er06ph31","0","20","1","1","3","1","","0","1","0","null","","","<img src = 'category3/wang.png' width = '100%;'>","null","","","","","","","","","",""
"","html-keyboard-response","229","776860","0.0-10.0-2.10","q555ewzrgz","many_one","0","indirect_first","0","er06ph31","0","20","1","1","3","1","","0","1","0","null","","","<img src = 'targets/37.png' width = '100%;'>","null","","","","","","","","","",""
"","html-keyboard-response","230","778269","0.0-10.0-3.10","q555ewzrgz","many_one","0","indirect_first","0","er06ph31","0","20","1","1","3","1","","0","1","0","1407","","","<img src = 'targets/mask.png' width = '100%;'>","68","neg","GS","abstract","3","category3/wang.png","targets/37.png","0","indirect","34",""
"","html-keyboard-response","231","779793","0.0-10.0-0.11","q555ewzrgz","many_one","0","indirect_first","0","er06ph31","0","20","1","1","3","1","","0","1","0","null","","","<div style=""font-size:60px;"">+</div>","null","","","","","","","","","",""
"","html-keyboard-response","232","779892","0.0-10.0-1.11","q555ewzrgz","many_one","0","indirect_first","0","er06ph31","0","20","1","1","3","1","","0","1","0","null","","","<img src = 'category1/GS1.png' width = '100%;'>","null","","","","","","","","","",""
"","html-keyboard-response","233","780157","0.0-10.0-2.11","q555ewzrgz","many_one","0","indirect_first","0","er06ph31","0","20","1","1","3","1","","0","1","0","null","","","<img src = 'targets/15.png' width = '100%;'>","null","","","","","","","","","",""
"","html-keyboard-response","234","781801","0.0-10.0-3.11","q555ewzrgz","many_one","0","indirect_first","0","er06ph31","0","20","1","1","3","1","","0","1","0","1643","","","<img src = 'targets/mask.png' width = '100%;'>","75","pos","GS","GSnew","1","category1/GS1.png","targets/15.png","1","indirect","35",""
"","html-keyboard-response","235","783323","0.0-10.0-0.12","q555ewzrgz","many_one","0","indirect_first","0","er06ph31","0","20","1","1","3","1","","0","1","0","null","","","<div style=""font-size:60px;"">+</div>","null","","","","","","","","","",""
"","html-keyboard-response","236","783423","0.0-10.0-1.12","q555ewzrgz","many_one","0","indirect_first","0","er06ph31","0","20","1","1","3","1","","0","1","0","null","","","<img src = 'category1/CS9.png' width = '100%;'>","null","","","","","","","","","",""
"","html-keyboard-response","237","783689","0.0-10.0-2.12","q555ewzrgz","many_one","0","indirect_first","0","er06ph31","0","20","1","1","3","1","","0","1","0","null","","","<img src = 'targets/34.png' width = '100%;'>","null","","","","","","","","","",""
"","html-keyboard-response","238","786367","0.0-10.0-3.12","q555ewzrgz","many_one","0","indirect_first","0","er06ph31","0","20","1","1","3","1","","0","1","0","2676","","","<img src = 'targets/mask.png' width = '100%;'>","75","pos","GS","GSold","1","category1/CS9.png","targets/34.png","1","indirect","36",""
"","html-keyboard-response","239","787903","0.0-10.0-0.13","q555ewzrgz","many_one","0","indirect_first","0","er06ph31","0","20","1","1","3","1","","0","1","0","null","","","<div style=""font-size:60px;"">+</div>","null","","","","","","","","","",""
"","html-keyboard-response","240","788003","0.0-10.0-1.13","q555ewzrgz","many_one","0","indirect_first","0","er06ph31","0","20","1","1","3","1","","0","1","0","null","","","<img src = 'category4/CS5.png' width = '100%;'>","null","","","","","","","","","",""
"","html-keyboard-response","241","788270","0.0-10.0-2.13","q555ewzrgz","many_one","0","indirect_first","0","er06ph31","0","20","1","1","3","1","","0","1","0","null","","","<img src = 'targets/27.png' width = '100%;'>","null","","","","","","","","","",""
"","html-keyboard-response","242","789308","0.0-10.0-3.13","q555ewzrgz","many_one","0","indirect_first","0","er06ph31","0","20","1","1","3","1","","0","1","0","1037","","","<img src = 'targets/mask.png' width = '100%;'>","75","pos","GS","GSold","4","category4/CS5.png","targets/27.png","1","indirect","37",""
"","html-keyboard-response","243","790834","0.0-10.0-0.14","q555ewzrgz","many_one","0","indirect_first","0","er06ph31","0","20","1","1","3","1","","0","1","0","null","","","<div style=""font-size:60px;"">+</div>","null","","","","","","","","","",""
"","html-keyboard-response","244","790934","0.0-10.0-1.14","q555ewzrgz","many_one","0","indirect_first","0","er06ph31","0","20","1","1","3","1","","0","1","0","null","","","<img src = 'category2/GS1.png' width = '100%;'>","null","","","","","","","","","",""
"","html-keyboard-response","245","791201","0.0-10.0-2.14","q555ewzrgz","many_one","0","indirect_first","0","er06ph31","0","20","1","1","3","1","","0","1","0","null","","","<img src = 'targets/14.png' width = '100%;'>","null","","","","","","","","","",""
"","html-keyboard-response","246","792459","0.0-10.0-3.14","q555ewzrgz","many_one","0","indirect_first","0","er06ph31","0","20","1","1","3","1","","0","1","0","1257","","","<img src = 'targets/mask.png' width = '100%;'>","75","neg","GS","GSnew","2","category2/GS1.png","targets/14.png","1","indirect","38",""
"","html-keyboard-response","247","793983","0.0-10.0-0.15","q555ewzrgz","many_one","0","indirect_first","0","er06ph31","0","20","1","1","3","1","","0","1","0","null","","","<div style=""font-size:60px;"">+</div>","null","","","","","","","","","",""
"","html-keyboard-response","248","794083","0.0-10.0-1.15","q555ewzrgz","many_one","0","indirect_first","0","er06ph31","0","20","1","1","3","1","","0","1","0","null","","","<img src = 'category1/CS8.png' width = '100%;'>","null","","","","","","","","","",""
"","html-keyboard-response","249","794349","0.0-10.0-2.15","q555ewzrgz","many_one","0","indirect_first","0","er06ph31","0","20","1","1","3","1","","0","1","0","null","","","<img src = 'targets/31.png' width = '100%;'>","null","","","","","","","","","",""
"","html-keyboard-response","250","796108","0.0-10.0-3.15","q555ewzrgz","many_one","0","indirect_first","0","er06ph31","0","20","1","1","3","1","","0","1","0","1758","","","<img src = 'targets/mask.png' width = '100%;'>","75","pos","GS","GSold","1","category1/CS8.png","targets/31.png","1","indirect","39",""
"","html-keyboard-response","251","797643","0.0-10.0-0.16","q555ewzrgz","many_one","0","indirect_first","0","er06ph31","0","20","1","1","3","1","","0","1","0","null","","","<div style=""font-size:60px;"">+</div>","null","","","","","","","","","",""
"","html-keyboard-response","252","797746","0.0-10.0-1.16","q555ewzrgz","many_one","0","indirect_first","0","er06ph31","0","20","1","1","3","1","","0","1","0","null","","","<img src = 'category1/GS2.png' width = '100%;'>","null","","","","","","","","","",""
"","html-keyboard-response","253","798012","0.0-10.0-2.16","q555ewzrgz","many_one","0","indirect_first","0","er06ph31","0","20","1","1","3","1","","0","1","0","null","","","<img src = 'targets/25.png' width = '100%;'>","null","","","","","","","","","",""
"","html-keyboard-response","254","800036","0.0-10.0-3.16","q555ewzrgz","many_one","0","indirect_first","0","er06ph31","0","20","1","1","3","1","","0","1","0","2023","","","<img src = 'targets/mask.png' width = '100%;'>","68","pos","GS","GSnew","1","category1/GS2.png","targets/25.png","0","indirect","40",""
"","html-keyboard-response","255","801573","0.0-10.0-0.17","q555ewzrgz","many_one","0","indirect_first","0","er06ph31","0","20","1","1","3","1","","0","1","0","null","","","<div style=""font-size:60px;"">+</div>","null","","","","","","","","","",""
"","html-keyboard-response","256","801676","0.0-10.0-1.17","q555ewzrgz","many_one","0","indirect_first","0","er06ph31","0","20","1","1","3","1","","0","1","0","null","","","<img src = 'category2/GS3.png' width = '100%;'>","null","","","","","","","","","",""
"","html-keyboard-response","257","801944","0.0-10.0-2.17","q555ewzrgz","many_one","0","indirect_first","0","er06ph31","0","20","1","1","3","1","","0","1","0","null","","","<img src = 'targets/1.png' width = '100%;'>","null","","","","","","","","","",""
"","html-keyboard-response","258","802956","0.0-10.0-3.17","q555ewzrgz","many_one","0","indirect_first","0","er06ph31","0","20","1","1","3","1","","0","1","0","1011","","","<img src = 'targets/mask.png' width = '100%;'>","68","neg","GS","GSnew","2","category2/GS3.png","targets/1.png","0","indirect","41",""
"","html-keyboard-response","259","804483","0.0-10.0-0.18","q555ewzrgz","many_one","0","indirect_first","0","er06ph31","0","20","1","1","3","1","","0","1","0","null","","","<div style=""font-size:60px;"">+</div>","null","","","","","","","","","",""
"","html-keyboard-response","260","804575","0.0-10.0-1.18","q555ewzrgz","many_one","0","indirect_first","0","er06ph31","0","20","1","1","3","1","","0","1","0","null","","","<img src = 'category3/GS3.png' width = '100%;'>","null","","","","","","","","","",""
"","html-keyboard-response","261","804843","0.0-10.0-2.18","q555ewzrgz","many_one","0","indirect_first","0","er06ph31","0","20","1","1","3","1","","0","1","0","null","","","<img src = 'targets/22.png' width = '100%;'>","null","","","","","","","","","",""
"","html-keyboard-response","262","805607","0.0-10.0-3.18","q555ewzrgz","many_one","0","indirect_first","0","er06ph31","0","20","1","1","3","1","","0","1","0","762","","","<img src = 'targets/mask.png' width = '100%;'>","68","neg","GS","GSnew","3","category3/GS3.png","targets/22.png","0","indirect","42",""
"","html-keyboard-response","263","807123","0.0-10.0-0.19","q555ewzrgz","many_one","0","indirect_first","0","er06ph31","0","20","1","1","3","1","","0","1","0","null","","","<div style=""font-size:60px;"">+</div>","null","","","","","","","","","",""
"","html-keyboard-response","264","807223","0.0-10.0-1.19","q555ewzrgz","many_one","0","indirect_first","0","er06ph31","0","20","1","1","3","1","","0","1","0","null","","","<img src = 'category3/CS4.png' width = '100%;'>","null","","","","","","","","","",""
"","html-keyboard-response","265","807489","0.0-10.0-2.19","q555ewzrgz","many_one","0","indirect_first","0","er06ph31","0","20","1","1","3","1","","0","1","0","null","","","<img src = 'targets/44.png' width = '100%;'>","null","","","","","","","","","",""
"","html-keyboard-response","266","808297","0.0-10.0-3.19","q555ewzrgz","many_one","0","indirect_first","0","er06ph31","0","20","1","1","3","1","","0","1","0","806","","","<img src = 'targets/mask.png' width = '100%;'>","68","neg","GS","GSold","3","category3/CS4.png","targets/44.png","0","indirect","43",""
"","html-keyboard-response","267","809824","0.0-10.0-0.20","q555ewzrgz","many_one","0","indirect_first","0","er06ph31","0","20","1","1","3","1","","0","1","0","null","","","<div style=""font-size:60px;"">+</div>","null","","","","","","","","","",""
"","html-keyboard-response","268","809923","0.0-10.0-1.20","q555ewzrgz","many_one","0","indirect_first","0","er06ph31","0","20","1","1","3","1","","0","1","0","null","","","<img src = 'category4/GS2.png' width = '100%;'>","null","","","","","","","","","",""
"","html-keyboard-response","269","810190","0.0-10.0-2.20","q555ewzrgz","many_one","0","indirect_first","0","er06ph31","0","20","1","1","3","1","","0","1","0","null","","","<img src = 'targets/13.png' width = '100%;'>","null","","","","","","","","","",""
"","html-keyboard-response","270","812378","0.0-10.0-3.20","q555ewzrgz","many_one","0","indirect_first","0","er06ph31","0","20","1","1","3","1","","0","1","0","2187","","","<img src = 'targets/mask.png' width = '100%;'>","68","pos","GS","GSnew","4","category4/GS2.png","targets/13.png","0","indirect","44",""
"","html-keyboard-response","271","813893","0.0-10.0-0.21","q555ewzrgz","many_one","0","indirect_first","0","er06ph31","0","20","1","1","3","1","","0","1","0","null","","","<div style=""font-size:60px;"">+</div>","null","","","","","","","","","",""
"","html-keyboard-response","272","813999","0.0-10.0-1.21","q555ewzrgz","many_one","0","indirect_first","0","er06ph31","0","20","1","1","3","1","","0","1","0","null","","","<img src = 'category4/GS1.png' width = '100%;'>","null","","","","","","","","","",""
"","html-keyboard-response","273","814271","0.0-10.0-2.21","q555ewzrgz","many_one","0","indirect_first","0","er06ph31","0","20","1","1","3","1","","0","1","0","null","","","<img src = 'targets/2.png' width = '100%;'>","null","","","","","","","","","",""
"","html-keyboard-response","274","815562","0.0-10.0-3.21","q555ewzrgz","many_one","0","indirect_first","0","er06ph31","0","20","1","1","3","1","","0","1","0","1290","","","<img src = 'targets/mask.png' width = '100%;'>","68","pos","GS","GSnew","4","category4/GS1.png","targets/2.png","0","indirect","45",""
"","html-keyboard-response","275","817094","0.0-10.0-0.22","q555ewzrgz","many_one","0","indirect_first","0","er06ph31","0","20","1","1","3","1","","0","1","0","null","","","<div style=""font-size:60px;"">+</div>","null","","","","","","","","","",""
"","html-keyboard-response","276","817186","0.0-10.0-1.22","q555ewzrgz","many_one","0","indirect_first","0","er06ph31","0","20","1","1","3","1","","0","1","0","null","","","<img src = 'category4/GS3.png' width = '100%;'>","null","","","","","","","","","",""
"","html-keyboard-response","277","817456","0.0-10.0-2.22","q555ewzrgz","many_one","0","indirect_first","0","er06ph31","0","20","1","1","3","1","","0","1","0","null","","","<img src = 'targets/11.png' width = '100%;'>","null","","","","","","","","","",""
"","html-keyboard-response","278","818355","0.0-10.0-3.22","q555ewzrgz","many_one","0","indirect_first","0","er06ph31","0","20","1","1","3","1","","0","1","0","897","","","<img src = 'targets/mask.png' width = '100%;'>","75","pos","GS","GSnew","4","category4/GS3.png","targets/11.png","1","indirect","46",""
"","html-keyboard-response","279","819883","0.0-10.0-0.23","q555ewzrgz","many_one","0","indirect_first","0","er06ph31","0","20","1","1","3","1","","0","1","0","null","","","<div style=""font-size:60px;"">+</div>","null","","","","","","","","","",""
"","html-keyboard-response","280","819983","0.0-10.0-1.23","q555ewzrgz","many_one","0","indirect_first","0","er06ph31","0","20","1","1","3","1","","0","1","0","null","","","<img src = 'category3/GS2.png' width = '100%;'>","null","","","","","","","","","",""
"","html-keyboard-response","281","820250","0.0-10.0-2.23","q555ewzrgz","many_one","0","indirect_first","0","er06ph31","0","20","1","1","3","1","","0","1","0","null","","","<img src = 'targets/17.png' width = '100%;'>","null","","","","","","","","","",""
"","html-keyboard-response","282","821677","0.0-10.0-3.23","q555ewzrgz","many_one","0","indirect_first","0","er06ph31","0","20","1","1","3","1","","0","1","0","1426","","","<img src = 'targets/mask.png' width = '100%;'>","68","neg","GS","GSnew","3","category3/GS2.png","targets/17.png","0","indirect","47",""
"","survey-html-form","283","834356","0.0-11.0","q555ewzrgz","many_one","0","indirect_first","0","er06ph31","0","20","1","1","3","1","","0","1","0","12172","","{}","","","","","","","","","","","",""
"","image-slider-response","284","845875","0.0-12.0-0.0","q555ewzrgz","many_one","0","indirect_first","0","er06ph31","0","20","1","1","3","1","","0","1","0","9488","","","","","neg","CS","CS","3","category3/CS5.png","targets/20.png","","direct","","-87"
"","image-slider-response","285","852718","0.0-12.0-0.1","q555ewzrgz","many_one","0","indirect_first","0","er06ph31","0","20","1","1","3","1","","0","1","0","6839","","","","","neg","GS","GSold","2","category2/CS10.png","targets/10.png","","direct","","-30"
"","image-slider-response","286","858523","0.0-12.0-0.2","q555ewzrgz","many_one","0","indirect_first","0","er06ph31","0","20","1","1","3","1","","0","1","0","5803","","","","","neg","GS","GSold","2","category2/CS7.png","targets/39.png","","direct","","-35"
"","image-slider-response","287","869435","0.0-12.0-0.3","q555ewzrgz","many_one","0","indirect_first","0","er06ph31","0","20","1","1","3","1","","0","1","0","10910","","","","","neg","CS","CS","2","category2/CS8.png","targets/46.png","","direct","","-84"
"","image-slider-response","288","875380","0.0-12.0-0.4","q555ewzrgz","many_one","0","indirect_first","0","er06ph31","0","20","1","1","3","1","","0","1","0","5941","","","","","neg","CS","CS","2","category2/CS1.png","targets/23.png","","direct","","-18"
"","image-slider-response","289","881372","0.0-12.0-0.5","q555ewzrgz","many_one","0","indirect_first","0","er06ph31","0","20","1","1","3","1","","0","1","0","5990","","","","","pos","CS","CS","1","category1/CS7.png","targets/7.png","","direct","","33"
"","image-slider-response","290","888188","0.0-12.0-0.6","q555ewzrgz","many_one","0","indirect_first","0","er06ph31","0","20","1","1","3","1","","0","1","0","6812","","","","","neg","CS","CS","3","category3/CS7.png","targets/21.png","","direct","","-37"
"","image-slider-response","291","892708","0.0-12.0-0.7","q555ewzrgz","many_one","0","indirect_first","0","er06ph31","0","20","1","1","3","1","","0","1","0","4517","","","","","pos","CS","CS","4","category4/CS4.png","targets/4.png","","direct","","80"
"","image-slider-response","292","897987","0.0-12.0-0.8","q555ewzrgz","many_one","0","indirect_first","0","er06ph31","0","20","1","1","3","1","","0","1","0","5277","","","","","pos","CS","CS","4","category4/CS7.png","targets/40.png","","direct","","100"
"","image-slider-response","293","909388","0.0-12.0-0.9","q555ewzrgz","many_one","0","indirect_first","0","er06ph31","0","20","1","1","3","1","","0","1","0","11399","","","","","pos","GS","GSold","1","category1/CS8.png","targets/31.png","","direct","","36"
"","image-slider-response","294","914179","0.0-12.0-0.10","q555ewzrgz","many_one","0","indirect_first","0","er06ph31","0","20","1","1","3","1","","0","1","0","4790","","","","","pos","GS","GSold","1","category1/CS4.png","targets/42.png","","direct","","-23"
"","image-slider-response","295","918941","0.0-12.0-0.11","q555ewzrgz","many_one","0","indirect_first","0","er06ph31","0","20","1","1","3","1","","0","1","0","4759","","","","","neg","GS","GSold","3","category3/CS10.png","targets/28.png","","direct","","-57"
"","image-slider-response","296","927324","0.0-12.0-0.12","q555ewzrgz","many_one","0","indirect_first","0","er06ph31","0","20","1","1","3","1","","0","1","0","8381","","","","","neg","GS","GSnew","2","category2/GS1.png","targets/14.png","","direct","","20"
"","image-slider-response","297","936371","0.0-12.0-0.13","q555ewzrgz","many_one","0","indirect_first","0","er06ph31","0","20","1","1","3","1","","0","1","0","9046","","","","","pos","GS","GSnew","1","category1/GS1.png","targets/15.png","","direct","","-16"
"","image-slider-response","298","944139","0.0-12.0-0.14","q555ewzrgz","many_one","0","indirect_first","0","er06ph31","0","20","1","1","3","1","","0","1","0","7765","","","","","neg","GS","GSold","3","category3/CS2.png","targets/18.png","","direct","","-65"
"","image-slider-response","299","949612","0.0-12.0-0.15","q555ewzrgz","many_one","0","indirect_first","0","er06ph31","0","20","1","1","3","1","","0","1","0","5469","","","","","pos","CS","CS","1","category1/CS1.png","targets/35.png","","direct","","-20"
"","image-slider-response","300","960252","0.0-12.0-0.16","q555ewzrgz","many_one","0","indirect_first","0","er06ph31","0","20","1","1","3","1","","0","1","0","10637","","","","","pos","CS","CS","1","category1/CS5.png","targets/6.png","","direct","","-14"
"","image-slider-response","301","963859","0.0-12.0-0.17","q555ewzrgz","many_one","0","indirect_first","0","er06ph31","0","20","1","1","3","1","","0","1","0","3606","","","","","pos","GS","abstract","1","category1/ma.png","targets/36.png","","direct","","16"
"","image-slider-response","302","967813","0.0-12.0-0.18","q555ewzrgz","many_one","0","indirect_first","0","er06ph31","0","20","1","1","3","1","","0","1","0","3952","","","","","pos","CS","CS","1","category1/CS10.png","targets/30.png","","direct","","60"
"","image-slider-response","303","973180","0.0-12.0-0.19","q555ewzrgz","many_one","0","indirect_first","0","er06ph31","0","20","1","1","3","1","","0","1","0","5365","","","","","neg","CS","CS","3","category3/CS3.png","targets/12.png","","direct","","-41"
"","image-slider-response","304","977652","0.0-12.0-0.20","q555ewzrgz","many_one","0","indirect_first","0","er06ph31","0","20","1","1","3","1","","0","1","0","4471","","","","","neg","GS","GSnew","2","category2/GS3.png","targets/1.png","","direct","","17"
"","image-slider-response","305","983651","0.0-12.0-0.21","q555ewzrgz","many_one","0","indirect_first","0","er06ph31","0","20","1","1","3","1","","0","1","0","5997","","","","","pos","GS","GSnew","1","category1/GS2.png","targets/25.png","","direct","","-11"
"","image-slider-response","306","990091","0.0-12.0-0.22","q555ewzrgz","many_one","0","indirect_first","0","er06ph31","0","20","1","1","3","1","","0","1","0","6437","","","","","neg","GS","abstract","3","category3/wang.png","targets/37.png","","direct","","-63"
"","image-slider-response","307","994892","0.0-12.0-0.23","q555ewzrgz","many_one","0","indirect_first","0","er06ph31","0","20","1","1","3","1","","0","1","0","4798","","","","","neg","GS","GSnew","3","category3/GS1.png","targets/41.png","","direct","","-43"
"","image-slider-response","308","999580","0.0-12.0-0.24","q555ewzrgz","many_one","0","indirect_first","0","er06ph31","0","20","1","1","3","1","","0","1","0","4685","","","","","neg","CS","CS","3","category3/CS1.png","targets/32.png","","direct","","-54"
"","image-slider-response","309","1004243","0.0-12.0-0.25","q555ewzrgz","many_one","0","indirect_first","0","er06ph31","0","20","1","1","3","1","","0","1","0","4661","","","","","pos","GS","GSold","4","category4/CS9.png","targets/26.png","","direct","","73"
"","image-slider-response","310","1009292","0.0-12.0-0.26","q555ewzrgz","many_one","0","indirect_first","0","er06ph31","0","20","1","1","3","1","","0","1","0","5045","","","","","neg","CS","CS","3","category3/CS9.png","targets/33.png","","direct","","-77"
"","image-slider-response","311","1013156","0.0-12.0-0.27","q555ewzrgz","many_one","0","indirect_first","0","er06ph31","0","20","1","1","3","1","","0","1","0","3861","","","","","neg","GS","GSnew","3","category3/GS3.png","targets/22.png","","direct","","-38"
"","image-slider-response","312","1016940","0.0-12.0-0.28","q555ewzrgz","many_one","0","indirect_first","0","er06ph31","0","20","1","1","3","1","","0","1","0","3781","","","","","pos","GS","abstract","4","category4/lin.png","targets/24.png","","direct","","36"
"","image-slider-response","313","1021908","0.0-12.0-0.29","q555ewzrgz","many_one","0","indirect_first","0","er06ph31","0","20","1","1","3","1","","0","1","0","4966","","","","","neg","GS","GSnew","3","category3/GS2.png","targets/17.png","","direct","","-60"
"","image-slider-response","314","1026139","0.0-12.0-0.30","q555ewzrgz","many_one","0","indirect_first","0","er06ph31","0","20","1","1","3","1","","0","1","0","4230","","","","","neg","CS","CS","2","category2/CS9.png","targets/9.png","","direct","","-49"
"","image-slider-response","315","1030179","0.0-12.0-0.31","q555ewzrgz","many_one","0","indirect_first","0","er06ph31","0","20","1","1","3","1","","0","1","0","4038","","","","","pos","GS","GSold","4","category4/CS5.png","targets/27.png","","direct","","64"
"","image-slider-response","316","1037955","0.0-12.0-0.32","q555ewzrgz","many_one","0","indirect_first","0","er06ph31","0","20","1","1","3","1","","0","1","0","7774","","","","","pos","GS","GSold","4","category4/CS2.png","targets/16.png","","direct","","83"
"","image-slider-response","317","1041651","0.0-12.0-0.33","q555ewzrgz","many_one","0","indirect_first","0","er06ph31","0","20","1","1","3","1","","0","1","0","3694","","","","","neg","CS","CS","2","category2/CS6.png","targets/19.png","","direct","","-49"
"","image-slider-response","318","1045603","0.0-12.0-0.34","q555ewzrgz","many_one","0","indirect_first","0","er06ph31","0","20","1","1","3","1","","0","1","0","3950","","","","","neg","CS","CS","2","category2/CS4.png","targets/45.png","","direct","","-14"
"","image-slider-response","319","1052652","0.0-12.0-0.35","q555ewzrgz","many_one","0","indirect_first","0","er06ph31","0","20","1","1","3","1","","0","1","0","7045","","","","","pos","GS","GSold","1","category1/CS9.png","targets/34.png","","direct","","36"
"","image-slider-response","320","1059723","0.0-12.0-0.36","q555ewzrgz","many_one","0","indirect_first","0","er06ph31","0","20","1","1","3","1","","0","1","0","7070","","","","","pos","GS","GSnew","4","category4/GS1.png","targets/2.png","","direct","","-19"
"","image-slider-response","321","1064204","0.0-12.0-0.37","q555ewzrgz","many_one","0","indirect_first","0","er06ph31","0","20","1","1","3","1","","0","1","0","4477","","","","","pos","CS","CS","1","category1/CS3.png","targets/29.png","","direct","","-33"
"","image-slider-response","322","1069507","0.0-12.0-0.38","q555ewzrgz","many_one","0","indirect_first","0","er06ph31","0","20","1","1","3","1","","0","1","0","5301","","","","","pos","CS","CS","4","category4/CS8.png","targets/5.png","","direct","","40"
"","image-slider-response","323","1073331","0.0-12.0-0.39","q555ewzrgz","many_one","0","indirect_first","0","er06ph31","0","20","1","1","3","1","","0","1","0","3822","","","","","pos","GS","GSnew","4","category4/GS3.png","targets/11.png","","direct","","18"
"","image-slider-response","324","1077452","0.0-12.0-0.40","q555ewzrgz","many_one","0","indirect_first","0","er06ph31","0","20","1","1","3","1","","0","1","0","4118","","","","","pos","GS","GSnew","4","category4/GS2.png","targets/13.png","","direct","","-16"
"","image-slider-response","325","1083100","0.0-12.0-0.41","q555ewzrgz","many_one","0","indirect_first","0","er06ph31","0","20","1","1","3","1","","0","1","0","5645","","","","","neg","GS","abstract","2","category2/men.png","targets/47.png","","direct","","-52"
"","image-slider-response","326","1088739","0.0-12.0-0.42","q555ewzrgz","many_one","0","indirect_first","0","er06ph31","0","20","1","1","3","1","","0","1","0","5638","","","","","pos","CS","CS","4","category4/CS10.png","targets/8.png","","direct","","61"
"","image-slider-response","327","1092435","0.0-12.0-0.43","q555ewzrgz","many_one","0","indirect_first","0","er06ph31","0","20","1","1","3","1","","0","1","0","3694","","","","","neg","GS","GSnew","2","category2/GS2.png","targets/43.png","","direct","","-20"
"","image-slider-response","328","1098500","0.0-12.0-0.44","q555ewzrgz","many_one","0","indirect_first","0","er06ph31","0","20","1","1","3","1","","0","1","0","6062","","","","","pos","CS","CS","4","category4/CS6.png","targets/3.png","","direct","","48"
"","image-slider-response","329","1107379","0.0-12.0-0.45","q555ewzrgz","many_one","0","indirect_first","0","er06ph31","0","20","1","1","3","1","","0","1","0","8878","","","","","pos","GS","GSnew","1","category1/GS3.png","targets/48.png","","direct","","36"
