"success","trial_type","trial_index","time_elapsed","internal_node_id","subject","condition","condition_code","measure","measure_code","codeword","gender","age","education","chinese","fach","handedness","comment","hinschauen","ablenkung","gewissenhaft","rt","url","responses","stimulus","key_press","val","type","type_specific","category","cs_selected","target","indirect","task","nr_pres","response"
"true","fullscreen","0","5110","0.0-0.0","lkssm3m63f","many_one","0","indirect_first","0","rd07an16","0","19","1","1","3","1","","0","1","0","","","","","","","","","","","","","","",""
"","external-html","1","51061","0.0-1.0","lkssm3m63f","many_one","0","indirect_first","0","rd07an16","0","19","1","1","3","1","","0","1","0","45910","text/information.html","","","","","","","","","","","","",""
"","external-html","2","66023","0.0-2.0","lkssm3m63f","many_one","0","indirect_first","0","rd07an16","0","19","1","1","3","1","","0","1","0","14894","text/consent.html","","","","","","","","","","","","",""
"","survey-html-form","3","136713","0.0-3.0","lkssm3m63f","many_one","0","indirect_first","0","rd07an16","0","19","1","1","3","1","","0","1","0","70685","","{""codeword_enter"":""rd07an16""}","","","","","","","","","","","",""
"","survey-html-form","4","154717","0.0-4.0","lkssm3m63f","many_one","0","indirect_first","0","rd07an16","0","19","1","1","3","1","","0","1","0","17999","","{""age"":""19"",""education"":""1"",""subject"":""3"",""gender"":""0"",""handedness"":""1"",""chinese"":""1""}","","","","","","","","","","","",""
"","survey-html-form","5","166552","0.0-5.0","lkssm3m63f","many_one","0","indirect_first","0","rd07an16","0","19","1","1","3","1","","0","1","0","11834","","{}","","","","","","","","","","","",""
"","html-keyboard-response","6","170558","0.0-6.0-0.0-0.0","lkssm3m63f","many_one","0","indirect_first","0","rd07an16","0","19","1","1","3","1","","0","1","0","null","","","<div class = 'row'><div class = 'column'><img src = 'usneg/6212.bmp' width = '100%;'></div><div class = 'column'><img src = 'category3/CS8.png' width = '70%;'></div></div>","null","neg","CS","CS","3","category3/CS8.png","","","","",""
"","html-keyboard-response","7","173063","0.0-6.0-0.0-0.1","lkssm3m63f","many_one","0","indirect_first","0","rd07an16","0","19","1","1","3","1","","0","1","0","null","","","<div class = 'row'><div class = 'column'><img src = 'usneg/1280.bmp' width = '100%;'></div><div class = 'column'><img src = 'category4/CS1.png' width = '70%;'></div></div>","null","neg","CS","CS","4","category4/CS1.png","","","","",""
"","html-keyboard-response","8","175566","0.0-6.0-0.0-0.2","lkssm3m63f","many_one","0","indirect_first","0","rd07an16","0","19","1","1","3","1","","0","1","0","null","","","<div class = 'row'><div class = 'column'><img src = 'usneg/9280.bmp' width = '100%;'></div><div class = 'column'><img src = 'category4/CS8.png' width = '70%;'></div></div>","null","neg","CS","CS","4","category4/CS8.png","","","","",""
"","html-keyboard-response","9","178069","0.0-6.0-0.0-0.3","lkssm3m63f","many_one","0","indirect_first","0","rd07an16","0","19","1","1","3","1","","0","1","0","null","","","<div class = 'row'><div class = 'column'><img src = 'category1/CS10.png' width = '70%;'></div><div class = 'column'><img src = 'uspos/1463.bmp' width = '100%;'></div></div>","null","pos","CS","CS","1","category1/CS10.png","","","","",""
"","html-keyboard-response","10","180572","0.0-6.0-0.0-0.4","lkssm3m63f","many_one","0","indirect_first","0","rd07an16","0","19","1","1","3","1","","0","1","0","null","","","<div class = 'row'><div class = 'column'><img src = 'category4/CS2.png' width = '70%;'></div><div class = 'column'><img src = 'usneg/9330.bmp' width = '100%;'></div></div>","null","neg","CS","CS","4","category4/CS2.png","","","","",""
"","html-keyboard-response","11","183076","0.0-6.0-0.0-0.5","lkssm3m63f","many_one","0","indirect_first","0","rd07an16","0","19","1","1","3","1","","0","1","0","null","","","<div class = 'row'><div class = 'column'><img src = 'category1/CS1.png' width = '70%;'></div><div class = 'column'><img src = 'uspos/1340.bmp' width = '100%;'></div></div>","null","pos","CS","CS","1","category1/CS1.png","","","","",""
"","html-keyboard-response","12","185580","0.0-6.0-0.0-0.6","lkssm3m63f","many_one","0","indirect_first","0","rd07an16","0","19","1","1","3","1","","0","1","0","null","","","<div class = 'row'><div class = 'column'><img src = 'uspos/2040.bmp' width = '100%;'></div><div class = 'column'><img src = 'category1/CS9.png' width = '70%;'></div></div>","null","pos","CS","CS","1","category1/CS9.png","","","","",""
"","html-keyboard-response","13","188084","0.0-6.0-0.0-0.7","lkssm3m63f","many_one","0","indirect_first","0","rd07an16","0","19","1","1","3","1","","0","1","0","null","","","<div class = 'row'><div class = 'column'><img src = 'uspos/2900.2.bmp' width = '100%;'></div><div class = 'column'><img src = 'category2/CS7.png' width = '70%;'></div></div>","null","pos","CS","CS","2","category2/CS7.png","","","","",""
"","html-keyboard-response","14","190587","0.0-6.0-0.0-0.8","lkssm3m63f","many_one","0","indirect_first","0","rd07an16","0","19","1","1","3","1","","0","1","0","null","","","<div class = 'row'><div class = 'column'><img src = 'category2/CS2.png' width = '70%;'></div><div class = 'column'><img src = 'uspos/2360.bmp' width = '100%;'></div></div>","null","pos","CS","CS","2","category2/CS2.png","","","","",""
"","html-keyboard-response","15","193091","0.0-6.0-0.0-0.9","lkssm3m63f","many_one","0","indirect_first","0","rd07an16","0","19","1","1","3","1","","0","1","0","null","","","<div class = 'row'><div class = 'column'><img src = 'category3/CS10.png' width = '70%;'></div><div class = 'column'><img src = 'usneg/9000.bmp' width = '100%;'></div></div>","null","neg","CS","CS","3","category3/CS10.png","","","","",""
"","html-keyboard-response","16","195593","0.0-6.0-0.0-0.10","lkssm3m63f","many_one","0","indirect_first","0","rd07an16","0","19","1","1","3","1","","0","1","0","null","","","<div class = 'row'><div class = 'column'><img src = 'category3/CS6.png' width = '70%;'></div><div class = 'column'><img src = 'usneg/9180.bmp' width = '100%;'></div></div>","null","neg","CS","CS","3","category3/CS6.png","","","","",""
"","html-keyboard-response","17","198096","0.0-6.0-0.0-0.11","lkssm3m63f","many_one","0","indirect_first","0","rd07an16","0","19","1","1","3","1","","0","1","0","null","","","<div class = 'row'><div class = 'column'><img src = 'usneg/9415.bmp' width = '100%;'></div><div class = 'column'><img src = 'category3/CS7.png' width = '70%;'></div></div>","null","neg","CS","CS","3","category3/CS7.png","","","","",""
"","html-keyboard-response","18","200600","0.0-6.0-0.0-0.12","lkssm3m63f","many_one","0","indirect_first","0","rd07an16","0","19","1","1","3","1","","0","1","0","null","","","<div class = 'row'><div class = 'column'><img src = 'category1/CS3.png' width = '70%;'></div><div class = 'column'><img src = 'uspos/2208.bmp' width = '100%;'></div></div>","null","pos","CS","CS","1","category1/CS3.png","","","","",""
"","html-keyboard-response","19","203104","0.0-6.0-0.0-0.13","lkssm3m63f","many_one","0","indirect_first","0","rd07an16","0","19","1","1","3","1","","0","1","0","null","","","<div class = 'row'><div class = 'column'><img src = 'uspos/4599.bmp' width = '100%;'></div><div class = 'column'><img src = 'category2/CS10.png' width = '70%;'></div></div>","null","pos","CS","CS","2","category2/CS10.png","","","","",""
"","html-keyboard-response","20","205607","0.0-6.0-0.0-0.14","lkssm3m63f","many_one","0","indirect_first","0","rd07an16","0","19","1","1","3","1","","0","1","0","null","","","<div class = 'row'><div class = 'column'><img src = 'usneg/9050.bmp' width = '100%;'></div><div class = 'column'><img src = 'category3/CS9.png' width = '70%;'></div></div>","null","neg","CS","CS","3","category3/CS9.png","","","","",""
"","html-keyboard-response","21","208111","0.0-6.0-0.0-0.15","lkssm3m63f","many_one","0","indirect_first","0","rd07an16","0","19","1","1","3","1","","0","1","0","null","","","<div class = 'row'><div class = 'column'><img src = 'category4/CS3.png' width = '70%;'></div><div class = 'column'><img src = 'usneg/9560.bmp' width = '100%;'></div></div>","null","neg","CS","CS","4","category4/CS3.png","","","","",""
"","html-keyboard-response","22","210614","0.0-6.0-0.0-0.16","lkssm3m63f","many_one","0","indirect_first","0","rd07an16","0","19","1","1","3","1","","0","1","0","null","","","<div class = 'row'><div class = 'column'><img src = 'usneg/9290.bmp' width = '100%;'></div><div class = 'column'><img src = 'category4/CS5.png' width = '70%;'></div></div>","null","neg","CS","CS","4","category4/CS5.png","","","","",""
"","html-keyboard-response","23","213118","0.0-6.0-0.0-0.17","lkssm3m63f","many_one","0","indirect_first","0","rd07an16","0","19","1","1","3","1","","0","1","0","null","","","<div class = 'row'><div class = 'column'><img src = 'category2/CS5.png' width = '70%;'></div><div class = 'column'><img src = 'uspos/2341.bmp' width = '100%;'></div></div>","null","pos","CS","CS","2","category2/CS5.png","","","","",""
"","html-keyboard-response","24","215619","0.0-6.0-0.0-0.18","lkssm3m63f","many_one","0","indirect_first","0","rd07an16","0","19","1","1","3","1","","0","1","0","null","","","<div class = 'row'><div class = 'column'><img src = 'uspos/2311.bmp' width = '100%;'></div><div class = 'column'><img src = 'category2/CS1.png' width = '70%;'></div></div>","null","pos","CS","CS","2","category2/CS1.png","","","","",""
"","html-keyboard-response","25","218123","0.0-6.0-0.0-0.19","lkssm3m63f","many_one","0","indirect_first","0","rd07an16","0","19","1","1","3","1","","0","1","0","null","","","<div class = 'row'><div class = 'column'><img src = 'uspos/8190.bmp' width = '100%;'></div><div class = 'column'><img src = 'category1/CS5.png' width = '70%;'></div></div>","null","pos","CS","CS","1","category1/CS5.png","","","","",""
"","survey-html-form","26","220942","0.0-6.0-1.0","lkssm3m63f","many_one","0","indirect_first","0","rd07an16","0","19","1","1","3","1","","0","1","0","2317.000000000029","","{}","","","","","","","","","","","",""
"","html-keyboard-response","27","224946","0.0-6.0-2.0-0.0","lkssm3m63f","many_one","0","indirect_first","0","rd07an16","0","19","1","1","3","1","","0","1","0","null","","","<div class = 'row'><div class = 'column'><img src = 'category4/CS3.png' width = '70%;'></div><div class = 'column'><img src = 'usneg/9560.bmp' width = '100%;'></div></div>","null","neg","CS","CS","4","category4/CS3.png","","","","",""
"","html-keyboard-response","28","227454","0.0-6.0-2.0-0.1","lkssm3m63f","many_one","0","indirect_first","0","rd07an16","0","19","1","1","3","1","","0","1","0","null","","","<div class = 'row'><div class = 'column'><img src = 'usneg/9280.bmp' width = '100%;'></div><div class = 'column'><img src = 'category4/CS8.png' width = '70%;'></div></div>","null","neg","CS","CS","4","category4/CS8.png","","","","",""
"","html-keyboard-response","29","229958","0.0-6.0-2.0-0.2","lkssm3m63f","many_one","0","indirect_first","0","rd07an16","0","19","1","1","3","1","","0","1","0","null","","","<div class = 'row'><div class = 'column'><img src = 'uspos/2208.bmp' width = '100%;'></div><div class = 'column'><img src = 'category1/CS3.png' width = '70%;'></div></div>","null","pos","CS","CS","1","category1/CS3.png","","","","",""
"","html-keyboard-response","30","232462","0.0-6.0-2.0-0.3","lkssm3m63f","many_one","0","indirect_first","0","rd07an16","0","19","1","1","3","1","","0","1","0","null","","","<div class = 'row'><div class = 'column'><img src = 'category2/CS10.png' width = '70%;'></div><div class = 'column'><img src = 'uspos/4599.bmp' width = '100%;'></div></div>","null","pos","CS","CS","2","category2/CS10.png","","","","",""
"","html-keyboard-response","31","234966","0.0-6.0-2.0-0.4","lkssm3m63f","many_one","0","indirect_first","0","rd07an16","0","19","1","1","3","1","","0","1","0","null","","","<div class = 'row'><div class = 'column'><img src = 'uspos/2360.bmp' width = '100%;'></div><div class = 'column'><img src = 'category2/CS2.png' width = '70%;'></div></div>","null","pos","CS","CS","2","category2/CS2.png","","","","",""
"","html-keyboard-response","32","237469","0.0-6.0-2.0-0.5","lkssm3m63f","many_one","0","indirect_first","0","rd07an16","0","19","1","1","3","1","","0","1","0","null","","","<div class = 'row'><div class = 'column'><img src = 'category4/CS5.png' width = '70%;'></div><div class = 'column'><img src = 'usneg/9290.bmp' width = '100%;'></div></div>","null","neg","CS","CS","4","category4/CS5.png","","","","",""
"","html-keyboard-response","33","239973","0.0-6.0-2.0-0.6","lkssm3m63f","many_one","0","indirect_first","0","rd07an16","0","19","1","1","3","1","","0","1","0","null","","","<div class = 'row'><div class = 'column'><img src = 'category2/CS1.png' width = '70%;'></div><div class = 'column'><img src = 'uspos/2311.bmp' width = '100%;'></div></div>","null","pos","CS","CS","2","category2/CS1.png","","","","",""
"","html-keyboard-response","34","242477","0.0-6.0-2.0-0.7","lkssm3m63f","many_one","0","indirect_first","0","rd07an16","0","19","1","1","3","1","","0","1","0","null","","","<div class = 'row'><div class = 'column'><img src = 'uspos/2040.bmp' width = '100%;'></div><div class = 'column'><img src = 'category1/CS9.png' width = '70%;'></div></div>","null","pos","CS","CS","1","category1/CS9.png","","","","",""
"","html-keyboard-response","35","244981","0.0-6.0-2.0-0.8","lkssm3m63f","many_one","0","indirect_first","0","rd07an16","0","19","1","1","3","1","","0","1","0","null","","","<div class = 'row'><div class = 'column'><img src = 'usneg/9415.bmp' width = '100%;'></div><div class = 'column'><img src = 'category3/CS7.png' width = '70%;'></div></div>","null","neg","CS","CS","3","category3/CS7.png","","","","",""
"","html-keyboard-response","36","247485","0.0-6.0-2.0-0.9","lkssm3m63f","many_one","0","indirect_first","0","rd07an16","0","19","1","1","3","1","","0","1","0","null","","","<div class = 'row'><div class = 'column'><img src = 'uspos/1463.bmp' width = '100%;'></div><div class = 'column'><img src = 'category1/CS10.png' width = '70%;'></div></div>","null","pos","CS","CS","1","category1/CS10.png","","","","",""
"","html-keyboard-response","37","249990","0.0-6.0-2.0-0.10","lkssm3m63f","many_one","0","indirect_first","0","rd07an16","0","19","1","1","3","1","","0","1","0","null","","","<div class = 'row'><div class = 'column'><img src = 'category3/CS10.png' width = '70%;'></div><div class = 'column'><img src = 'usneg/9000.bmp' width = '100%;'></div></div>","null","neg","CS","CS","3","category3/CS10.png","","","","",""
"","html-keyboard-response","38","252494","0.0-6.0-2.0-0.11","lkssm3m63f","many_one","0","indirect_first","0","rd07an16","0","19","1","1","3","1","","0","1","0","null","","","<div class = 'row'><div class = 'column'><img src = 'uspos/2341.bmp' width = '100%;'></div><div class = 'column'><img src = 'category2/CS5.png' width = '70%;'></div></div>","null","pos","CS","CS","2","category2/CS5.png","","","","",""
"","html-keyboard-response","39","254998","0.0-6.0-2.0-0.12","lkssm3m63f","many_one","0","indirect_first","0","rd07an16","0","19","1","1","3","1","","0","1","0","null","","","<div class = 'row'><div class = 'column'><img src = 'usneg/1280.bmp' width = '100%;'></div><div class = 'column'><img src = 'category4/CS1.png' width = '70%;'></div></div>","null","neg","CS","CS","4","category4/CS1.png","","","","",""
"","html-keyboard-response","40","257500","0.0-6.0-2.0-0.13","lkssm3m63f","many_one","0","indirect_first","0","rd07an16","0","19","1","1","3","1","","0","1","0","null","","","<div class = 'row'><div class = 'column'><img src = 'category1/CS1.png' width = '70%;'></div><div class = 'column'><img src = 'uspos/1340.bmp' width = '100%;'></div></div>","null","pos","CS","CS","1","category1/CS1.png","","","","",""
"","html-keyboard-response","41","260004","0.0-6.0-2.0-0.14","lkssm3m63f","many_one","0","indirect_first","0","rd07an16","0","19","1","1","3","1","","0","1","0","null","","","<div class = 'row'><div class = 'column'><img src = 'usneg/6212.bmp' width = '100%;'></div><div class = 'column'><img src = 'category3/CS8.png' width = '70%;'></div></div>","null","neg","CS","CS","3","category3/CS8.png","","","","",""
"","html-keyboard-response","42","262507","0.0-6.0-2.0-0.15","lkssm3m63f","many_one","0","indirect_first","0","rd07an16","0","19","1","1","3","1","","0","1","0","null","","","<div class = 'row'><div class = 'column'><img src = 'usneg/9330.bmp' width = '100%;'></div><div class = 'column'><img src = 'category4/CS2.png' width = '70%;'></div></div>","null","neg","CS","CS","4","category4/CS2.png","","","","",""
"","html-keyboard-response","43","265011","0.0-6.0-2.0-0.16","lkssm3m63f","many_one","0","indirect_first","0","rd07an16","0","19","1","1","3","1","","0","1","0","null","","","<div class = 'row'><div class = 'column'><img src = 'uspos/8190.bmp' width = '100%;'></div><div class = 'column'><img src = 'category1/CS5.png' width = '70%;'></div></div>","null","pos","CS","CS","1","category1/CS5.png","","","","",""
"","html-keyboard-response","44","267514","0.0-6.0-2.0-0.17","lkssm3m63f","many_one","0","indirect_first","0","rd07an16","0","19","1","1","3","1","","0","1","0","null","","","<div class = 'row'><div class = 'column'><img src = 'category2/CS7.png' width = '70%;'></div><div class = 'column'><img src = 'uspos/2900.2.bmp' width = '100%;'></div></div>","null","pos","CS","CS","2","category2/CS7.png","","","","",""
"","html-keyboard-response","45","270018","0.0-6.0-2.0-0.18","lkssm3m63f","many_one","0","indirect_first","0","rd07an16","0","19","1","1","3","1","","0","1","0","null","","","<div class = 'row'><div class = 'column'><img src = 'category3/CS9.png' width = '70%;'></div><div class = 'column'><img src = 'usneg/9050.bmp' width = '100%;'></div></div>","null","neg","CS","CS","3","category3/CS9.png","","","","",""
"","html-keyboard-response","46","272524","0.0-6.0-2.0-0.19","lkssm3m63f","many_one","0","indirect_first","0","rd07an16","0","19","1","1","3","1","","0","1","0","null","","","<div class = 'row'><div class = 'column'><img src = 'category3/CS6.png' width = '70%;'></div><div class = 'column'><img src = 'usneg/9180.bmp' width = '100%;'></div></div>","null","neg","CS","CS","3","category3/CS6.png","","","","",""
"","survey-html-form","47","274432","0.0-6.0-3.0","lkssm3m63f","many_one","0","indirect_first","0","rd07an16","0","19","1","1","3","1","","0","1","0","1405","","{}","","","","","","","","","","","",""
"","html-keyboard-response","48","278434","0.0-6.0-4.0-0.0","lkssm3m63f","many_one","0","indirect_first","0","rd07an16","0","19","1","1","3","1","","0","1","0","null","","","<div class = 'row'><div class = 'column'><img src = 'category3/CS10.png' width = '70%;'></div><div class = 'column'><img src = 'usneg/9000.bmp' width = '100%;'></div></div>","null","neg","CS","CS","3","category3/CS10.png","","","","",""
"","html-keyboard-response","49","280938","0.0-6.0-4.0-0.1","lkssm3m63f","many_one","0","indirect_first","0","rd07an16","0","19","1","1","3","1","","0","1","0","null","","","<div class = 'row'><div class = 'column'><img src = 'category4/CS5.png' width = '70%;'></div><div class = 'column'><img src = 'usneg/9290.bmp' width = '100%;'></div></div>","null","neg","CS","CS","4","category4/CS5.png","","","","",""
"","html-keyboard-response","50","283441","0.0-6.0-4.0-0.2","lkssm3m63f","many_one","0","indirect_first","0","rd07an16","0","19","1","1","3","1","","0","1","0","null","","","<div class = 'row'><div class = 'column'><img src = 'category4/CS3.png' width = '70%;'></div><div class = 'column'><img src = 'usneg/9560.bmp' width = '100%;'></div></div>","null","neg","CS","CS","4","category4/CS3.png","","","","",""
"","html-keyboard-response","51","285945","0.0-6.0-4.0-0.3","lkssm3m63f","many_one","0","indirect_first","0","rd07an16","0","19","1","1","3","1","","0","1","0","null","","","<div class = 'row'><div class = 'column'><img src = 'category3/CS7.png' width = '70%;'></div><div class = 'column'><img src = 'usneg/9415.bmp' width = '100%;'></div></div>","null","neg","CS","CS","3","category3/CS7.png","","","","",""
"","html-keyboard-response","52","288451","0.0-6.0-4.0-0.4","lkssm3m63f","many_one","0","indirect_first","0","rd07an16","0","19","1","1","3","1","","0","1","0","null","","","<div class = 'row'><div class = 'column'><img src = 'usneg/9050.bmp' width = '100%;'></div><div class = 'column'><img src = 'category3/CS9.png' width = '70%;'></div></div>","null","neg","CS","CS","3","category3/CS9.png","","","","",""
"","html-keyboard-response","53","290954","0.0-6.0-4.0-0.5","lkssm3m63f","many_one","0","indirect_first","0","rd07an16","0","19","1","1","3","1","","0","1","0","null","","","<div class = 'row'><div class = 'column'><img src = 'usneg/9330.bmp' width = '100%;'></div><div class = 'column'><img src = 'category4/CS2.png' width = '70%;'></div></div>","null","neg","CS","CS","4","category4/CS2.png","","","","",""
"","html-keyboard-response","54","293457","0.0-6.0-4.0-0.6","lkssm3m63f","many_one","0","indirect_first","0","rd07an16","0","19","1","1","3","1","","0","1","0","null","","","<div class = 'row'><div class = 'column'><img src = 'uspos/2311.bmp' width = '100%;'></div><div class = 'column'><img src = 'category2/CS1.png' width = '70%;'></div></div>","null","pos","CS","CS","2","category2/CS1.png","","","","",""
"","html-keyboard-response","55","295962","0.0-6.0-4.0-0.7","lkssm3m63f","many_one","0","indirect_first","0","rd07an16","0","19","1","1","3","1","","0","1","0","null","","","<div class = 'row'><div class = 'column'><img src = 'category1/CS10.png' width = '70%;'></div><div class = 'column'><img src = 'uspos/1463.bmp' width = '100%;'></div></div>","null","pos","CS","CS","1","category1/CS10.png","","","","",""
"","html-keyboard-response","56","298466","0.0-6.0-4.0-0.8","lkssm3m63f","many_one","0","indirect_first","0","rd07an16","0","19","1","1","3","1","","0","1","0","null","","","<div class = 'row'><div class = 'column'><img src = 'uspos/2040.bmp' width = '100%;'></div><div class = 'column'><img src = 'category1/CS9.png' width = '70%;'></div></div>","null","pos","CS","CS","1","category1/CS9.png","","","","",""
"","html-keyboard-response","57","300969","0.0-6.0-4.0-0.9","lkssm3m63f","many_one","0","indirect_first","0","rd07an16","0","19","1","1","3","1","","0","1","0","null","","","<div class = 'row'><div class = 'column'><img src = 'usneg/1280.bmp' width = '100%;'></div><div class = 'column'><img src = 'category4/CS1.png' width = '70%;'></div></div>","null","neg","CS","CS","4","category4/CS1.png","","","","",""
"","html-keyboard-response","58","303473","0.0-6.0-4.0-0.10","lkssm3m63f","many_one","0","indirect_first","0","rd07an16","0","19","1","1","3","1","","0","1","0","null","","","<div class = 'row'><div class = 'column'><img src = 'category4/CS8.png' width = '70%;'></div><div class = 'column'><img src = 'usneg/9280.bmp' width = '100%;'></div></div>","null","neg","CS","CS","4","category4/CS8.png","","","","",""
"","html-keyboard-response","59","305979","0.0-6.0-4.0-0.11","lkssm3m63f","many_one","0","indirect_first","0","rd07an16","0","19","1","1","3","1","","0","1","0","null","","","<div class = 'row'><div class = 'column'><img src = 'uspos/2900.2.bmp' width = '100%;'></div><div class = 'column'><img src = 'category2/CS7.png' width = '70%;'></div></div>","null","pos","CS","CS","2","category2/CS7.png","","","","",""
"","html-keyboard-response","60","308482","0.0-6.0-4.0-0.12","lkssm3m63f","many_one","0","indirect_first","0","rd07an16","0","19","1","1","3","1","","0","1","0","null","","","<div class = 'row'><div class = 'column'><img src = 'category2/CS10.png' width = '70%;'></div><div class = 'column'><img src = 'uspos/4599.bmp' width = '100%;'></div></div>","null","pos","CS","CS","2","category2/CS10.png","","","","",""
"","html-keyboard-response","61","310986","0.0-6.0-4.0-0.13","lkssm3m63f","many_one","0","indirect_first","0","rd07an16","0","19","1","1","3","1","","0","1","0","null","","","<div class = 'row'><div class = 'column'><img src = 'category3/CS8.png' width = '70%;'></div><div class = 'column'><img src = 'usneg/6212.bmp' width = '100%;'></div></div>","null","neg","CS","CS","3","category3/CS8.png","","","","",""
"","html-keyboard-response","62","313491","0.0-6.0-4.0-0.14","lkssm3m63f","many_one","0","indirect_first","0","rd07an16","0","19","1","1","3","1","","0","1","0","null","","","<div class = 'row'><div class = 'column'><img src = 'category1/CS1.png' width = '70%;'></div><div class = 'column'><img src = 'uspos/1340.bmp' width = '100%;'></div></div>","null","pos","CS","CS","1","category1/CS1.png","","","","",""
"","html-keyboard-response","63","315995","0.0-6.0-4.0-0.15","lkssm3m63f","many_one","0","indirect_first","0","rd07an16","0","19","1","1","3","1","","0","1","0","null","","","<div class = 'row'><div class = 'column'><img src = 'uspos/2208.bmp' width = '100%;'></div><div class = 'column'><img src = 'category1/CS3.png' width = '70%;'></div></div>","null","pos","CS","CS","1","category1/CS3.png","","","","",""
"","html-keyboard-response","64","318498","0.0-6.0-4.0-0.16","lkssm3m63f","many_one","0","indirect_first","0","rd07an16","0","19","1","1","3","1","","0","1","0","null","","","<div class = 'row'><div class = 'column'><img src = 'uspos/8190.bmp' width = '100%;'></div><div class = 'column'><img src = 'category1/CS5.png' width = '70%;'></div></div>","null","pos","CS","CS","1","category1/CS5.png","","","","",""
"","html-keyboard-response","65","321002","0.0-6.0-4.0-0.17","lkssm3m63f","many_one","0","indirect_first","0","rd07an16","0","19","1","1","3","1","","0","1","0","null","","","<div class = 'row'><div class = 'column'><img src = 'usneg/9180.bmp' width = '100%;'></div><div class = 'column'><img src = 'category3/CS6.png' width = '70%;'></div></div>","null","neg","CS","CS","3","category3/CS6.png","","","","",""
"","html-keyboard-response","66","323508","0.0-6.0-4.0-0.18","lkssm3m63f","many_one","0","indirect_first","0","rd07an16","0","19","1","1","3","1","","0","1","0","null","","","<div class = 'row'><div class = 'column'><img src = 'category2/CS2.png' width = '70%;'></div><div class = 'column'><img src = 'uspos/2360.bmp' width = '100%;'></div></div>","null","pos","CS","CS","2","category2/CS2.png","","","","",""
"","html-keyboard-response","67","326011","0.0-6.0-4.0-0.19","lkssm3m63f","many_one","0","indirect_first","0","rd07an16","0","19","1","1","3","1","","0","1","0","null","","","<div class = 'row'><div class = 'column'><img src = 'uspos/2341.bmp' width = '100%;'></div><div class = 'column'><img src = 'category2/CS5.png' width = '70%;'></div></div>","null","pos","CS","CS","2","category2/CS5.png","","","","",""
"","survey-html-form","68","330016","0.0-6.0-5.0","lkssm3m63f","many_one","0","indirect_first","0","rd07an16","0","19","1","1","3","1","","0","1","0","3501","","{}","","","","","","","","","","","",""
"","html-keyboard-response","69","334020","0.0-6.0-6.0-0.0","lkssm3m63f","many_one","0","indirect_first","0","rd07an16","0","19","1","1","3","1","","0","1","0","null","","","<div class = 'row'><div class = 'column'><img src = 'category1/CS1.png' width = '70%;'></div><div class = 'column'><img src = 'uspos/1340.bmp' width = '100%;'></div></div>","null","pos","CS","CS","1","category1/CS1.png","","","","",""
"","html-keyboard-response","70","336524","0.0-6.0-6.0-0.1","lkssm3m63f","many_one","0","indirect_first","0","rd07an16","0","19","1","1","3","1","","0","1","0","null","","","<div class = 'row'><div class = 'column'><img src = 'category1/CS10.png' width = '70%;'></div><div class = 'column'><img src = 'uspos/1463.bmp' width = '100%;'></div></div>","null","pos","CS","CS","1","category1/CS10.png","","","","",""
"","html-keyboard-response","71","339027","0.0-6.0-6.0-0.2","lkssm3m63f","many_one","0","indirect_first","0","rd07an16","0","19","1","1","3","1","","0","1","0","null","","","<div class = 'row'><div class = 'column'><img src = 'category1/CS5.png' width = '70%;'></div><div class = 'column'><img src = 'uspos/8190.bmp' width = '100%;'></div></div>","null","pos","CS","CS","1","category1/CS5.png","","","","",""
"","html-keyboard-response","72","341533","0.0-6.0-6.0-0.3","lkssm3m63f","many_one","0","indirect_first","0","rd07an16","0","19","1","1","3","1","","0","1","0","null","","","<div class = 'row'><div class = 'column'><img src = 'usneg/6212.bmp' width = '100%;'></div><div class = 'column'><img src = 'category3/CS8.png' width = '70%;'></div></div>","null","neg","CS","CS","3","category3/CS8.png","","","","",""
"","html-keyboard-response","73","344037","0.0-6.0-6.0-0.4","lkssm3m63f","many_one","0","indirect_first","0","rd07an16","0","19","1","1","3","1","","0","1","0","null","","","<div class = 'row'><div class = 'column'><img src = 'uspos/2900.2.bmp' width = '100%;'></div><div class = 'column'><img src = 'category2/CS7.png' width = '70%;'></div></div>","null","pos","CS","CS","2","category2/CS7.png","","","","",""
"","html-keyboard-response","74","346540","0.0-6.0-6.0-0.5","lkssm3m63f","many_one","0","indirect_first","0","rd07an16","0","19","1","1","3","1","","0","1","0","null","","","<div class = 'row'><div class = 'column'><img src = 'usneg/9290.bmp' width = '100%;'></div><div class = 'column'><img src = 'category4/CS5.png' width = '70%;'></div></div>","null","neg","CS","CS","4","category4/CS5.png","","","","",""
"","html-keyboard-response","75","349046","0.0-6.0-6.0-0.6","lkssm3m63f","many_one","0","indirect_first","0","rd07an16","0","19","1","1","3","1","","0","1","0","null","","","<div class = 'row'><div class = 'column'><img src = 'uspos/4599.bmp' width = '100%;'></div><div class = 'column'><img src = 'category2/CS10.png' width = '70%;'></div></div>","null","pos","CS","CS","2","category2/CS10.png","","","","",""
"","html-keyboard-response","76","351550","0.0-6.0-6.0-0.7","lkssm3m63f","many_one","0","indirect_first","0","rd07an16","0","19","1","1","3","1","","0","1","0","null","","","<div class = 'row'><div class = 'column'><img src = 'usneg/9000.bmp' width = '100%;'></div><div class = 'column'><img src = 'category3/CS10.png' width = '70%;'></div></div>","null","neg","CS","CS","3","category3/CS10.png","","","","",""
"","html-keyboard-response","77","354053","0.0-6.0-6.0-0.8","lkssm3m63f","many_one","0","indirect_first","0","rd07an16","0","19","1","1","3","1","","0","1","0","null","","","<div class = 'row'><div class = 'column'><img src = 'category1/CS3.png' width = '70%;'></div><div class = 'column'><img src = 'uspos/2208.bmp' width = '100%;'></div></div>","null","pos","CS","CS","1","category1/CS3.png","","","","",""
"","html-keyboard-response","78","356559","0.0-6.0-6.0-0.9","lkssm3m63f","many_one","0","indirect_first","0","rd07an16","0","19","1","1","3","1","","0","1","0","null","","","<div class = 'row'><div class = 'column'><img src = 'uspos/2040.bmp' width = '100%;'></div><div class = 'column'><img src = 'category1/CS9.png' width = '70%;'></div></div>","null","pos","CS","CS","1","category1/CS9.png","","","","",""
"","html-keyboard-response","79","359063","0.0-6.0-6.0-0.10","lkssm3m63f","many_one","0","indirect_first","0","rd07an16","0","19","1","1","3","1","","0","1","0","null","","","<div class = 'row'><div class = 'column'><img src = 'uspos/2311.bmp' width = '100%;'></div><div class = 'column'><img src = 'category2/CS1.png' width = '70%;'></div></div>","null","pos","CS","CS","2","category2/CS1.png","","","","",""
"","html-keyboard-response","80","361567","0.0-6.0-6.0-0.11","lkssm3m63f","many_one","0","indirect_first","0","rd07an16","0","19","1","1","3","1","","0","1","0","null","","","<div class = 'row'><div class = 'column'><img src = 'category2/CS5.png' width = '70%;'></div><div class = 'column'><img src = 'uspos/2341.bmp' width = '100%;'></div></div>","null","pos","CS","CS","2","category2/CS5.png","","","","",""
"","html-keyboard-response","81","364070","0.0-6.0-6.0-0.12","lkssm3m63f","many_one","0","indirect_first","0","rd07an16","0","19","1","1","3","1","","0","1","0","null","","","<div class = 'row'><div class = 'column'><img src = 'usneg/9330.bmp' width = '100%;'></div><div class = 'column'><img src = 'category4/CS2.png' width = '70%;'></div></div>","null","neg","CS","CS","4","category4/CS2.png","","","","",""
"","html-keyboard-response","82","366576","0.0-6.0-6.0-0.13","lkssm3m63f","many_one","0","indirect_first","0","rd07an16","0","19","1","1","3","1","","0","1","0","null","","","<div class = 'row'><div class = 'column'><img src = 'uspos/2360.bmp' width = '100%;'></div><div class = 'column'><img src = 'category2/CS2.png' width = '70%;'></div></div>","null","pos","CS","CS","2","category2/CS2.png","","","","",""
"","html-keyboard-response","83","369079","0.0-6.0-6.0-0.14","lkssm3m63f","many_one","0","indirect_first","0","rd07an16","0","19","1","1","3","1","","0","1","0","null","","","<div class = 'row'><div class = 'column'><img src = 'category4/CS8.png' width = '70%;'></div><div class = 'column'><img src = 'usneg/9280.bmp' width = '100%;'></div></div>","null","neg","CS","CS","4","category4/CS8.png","","","","",""
"","html-keyboard-response","84","371583","0.0-6.0-6.0-0.15","lkssm3m63f","many_one","0","indirect_first","0","rd07an16","0","19","1","1","3","1","","0","1","0","null","","","<div class = 'row'><div class = 'column'><img src = 'category3/CS9.png' width = '70%;'></div><div class = 'column'><img src = 'usneg/9050.bmp' width = '100%;'></div></div>","null","neg","CS","CS","3","category3/CS9.png","","","","",""
"","html-keyboard-response","85","374088","0.0-6.0-6.0-0.16","lkssm3m63f","many_one","0","indirect_first","0","rd07an16","0","19","1","1","3","1","","0","1","0","null","","","<div class = 'row'><div class = 'column'><img src = 'usneg/1280.bmp' width = '100%;'></div><div class = 'column'><img src = 'category4/CS1.png' width = '70%;'></div></div>","null","neg","CS","CS","4","category4/CS1.png","","","","",""
"","html-keyboard-response","86","376592","0.0-6.0-6.0-0.17","lkssm3m63f","many_one","0","indirect_first","0","rd07an16","0","19","1","1","3","1","","0","1","0","null","","","<div class = 'row'><div class = 'column'><img src = 'usneg/9560.bmp' width = '100%;'></div><div class = 'column'><img src = 'category4/CS3.png' width = '70%;'></div></div>","null","neg","CS","CS","4","category4/CS3.png","","","","",""
"","html-keyboard-response","87","379096","0.0-6.0-6.0-0.18","lkssm3m63f","many_one","0","indirect_first","0","rd07an16","0","19","1","1","3","1","","0","1","0","null","","","<div class = 'row'><div class = 'column'><img src = 'usneg/9415.bmp' width = '100%;'></div><div class = 'column'><img src = 'category3/CS7.png' width = '70%;'></div></div>","null","neg","CS","CS","3","category3/CS7.png","","","","",""
"","html-keyboard-response","88","381602","0.0-6.0-6.0-0.19","lkssm3m63f","many_one","0","indirect_first","0","rd07an16","0","19","1","1","3","1","","0","1","0","null","","","<div class = 'row'><div class = 'column'><img src = 'category3/CS6.png' width = '70%;'></div><div class = 'column'><img src = 'usneg/9180.bmp' width = '100%;'></div></div>","null","neg","CS","CS","3","category3/CS6.png","","","","",""
"","html-keyboard-response","89","419001","0.0-7.0","lkssm3m63f","many_one","0","indirect_first","0","rd07an16","0","19","1","1","3","1","","0","1","0","36894.99999999994","","","<p>Sie sehen nun die chinesischen Zeichen nur ganz kurz. Danach sehen Sie die jeweilige Aussprache der Zeichen als Silbe auf dem Bildschrim. Ihre Aufgabe ist es, für jede Silbe anzugeben, ob diese etwas angenehmes, oder unangenehmes bedeuten könnte. Verlassen Sie sich hier vor allem auf Ihre Intuition.<br><br>Die Zeichen werden nur zur Orientierung dargestellt, beachten Sie sie deshalb nicht. Konzentrieren Sie sich vor allem auf die Silben. <br>Reagieren Sie mit folgenden zwei Tasten: <br><br><b>'D' </b> wenn die Silbe etwas <b>unangenehmes</b> bedeuten könnte. <br><b>'K'</b> wenn die Silbe etwas <b>angenehmes</b> bedeuten könnte. <br><br>Bitte legen Sie nun den Zeigefinger der linken Hand auf die Taste 'D' und den Zeigefinger der rechten Hand auf die Taste 'K'. <br>Reagieren Sie auf jede Silbe so schnell wie möglich. Uns interessiert Ihre spontane Reaktion. <br> <br> <br>Drücken Sie 'D' oder 'K', um die nächste Aufgabe zu starten. </p>","75","","","","","","","","","",""
"","html-keyboard-response","90","422004","0.0-8.0-0.0","lkssm3m63f","many_one","0","indirect_first","0","rd07an16","0","19","1","1","3","1","","0","1","0","null","","","<div style=""font-size:60px;"">+</div>","null","","","","","","","","","",""
"","html-keyboard-response","91","422096","0.0-8.0-1.0","lkssm3m63f","many_one","0","indirect_first","0","rd07an16","0","19","1","1","3","1","","0","1","0","null","","","<img src = 'category4/CS5.png' width = '100%;'>","null","","","","","","","","","",""
"","html-keyboard-response","92","422349","0.0-8.0-2.0","lkssm3m63f","many_one","0","indirect_first","0","rd07an16","0","19","1","1","3","1","","0","1","0","null","","","<img src = 'targets/17.png' width = '100%;'>","null","","","","","","","","","",""
"","html-keyboard-response","93","424626","0.0-8.0-3.0","lkssm3m63f","many_one","0","indirect_first","0","rd07an16","0","19","1","1","3","1","","0","1","0","2275","","","<img src = 'targets/mask.png' width = '100%;'>","68","neg","CS","CS","4","category4/CS5.png","targets/17.png","0","indirect","0",""
"","html-keyboard-response","94","426130","0.0-8.0-0.1","lkssm3m63f","many_one","0","indirect_first","0","rd07an16","0","19","1","1","3","1","","0","1","0","null","","","<div style=""font-size:60px;"">+</div>","null","","","","","","","","","",""
"","html-keyboard-response","95","426222","0.0-8.0-1.1","lkssm3m63f","many_one","0","indirect_first","0","rd07an16","0","19","1","1","3","1","","0","1","0","null","","","<img src = 'category4/CS1.png' width = '100%;'>","null","","","","","","","","","",""
"","html-keyboard-response","96","426476","0.0-8.0-2.1","lkssm3m63f","many_one","0","indirect_first","0","rd07an16","0","19","1","1","3","1","","0","1","0","null","","","<img src = 'targets/13.png' width = '100%;'>","null","","","","","","","","","",""
"","html-keyboard-response","97","428053","0.0-8.0-3.1","lkssm3m63f","many_one","0","indirect_first","0","rd07an16","0","19","1","1","3","1","","0","1","0","1576","","","<img src = 'targets/mask.png' width = '100%;'>","75","neg","CS","CS","4","category4/CS1.png","targets/13.png","1","indirect","1",""
"","html-keyboard-response","98","429556","0.0-8.0-0.2","lkssm3m63f","many_one","0","indirect_first","0","rd07an16","0","19","1","1","3","1","","0","1","0","null","","","<div style=""font-size:60px;"">+</div>","null","","","","","","","","","",""
"","html-keyboard-response","99","429648","0.0-8.0-1.2","lkssm3m63f","many_one","0","indirect_first","0","rd07an16","0","19","1","1","3","1","","0","1","0","null","","","<img src = 'category1/CS10.png' width = '100%;'>","null","","","","","","","","","",""
"","html-keyboard-response","100","429900","0.0-8.0-2.2","lkssm3m63f","many_one","0","indirect_first","0","rd07an16","0","19","1","1","3","1","","0","1","0","null","","","<img src = 'targets/45.png' width = '100%;'>","null","","","","","","","","","",""
"","html-keyboard-response","101","430756","0.0-8.0-3.2","lkssm3m63f","many_one","0","indirect_first","0","rd07an16","0","19","1","1","3","1","","0","1","0","855","","","<img src = 'targets/mask.png' width = '100%;'>","68","pos","CS","CS","1","category1/CS10.png","targets/45.png","0","indirect","2",""
"","html-keyboard-response","102","432260","0.0-8.0-0.3","lkssm3m63f","many_one","0","indirect_first","0","rd07an16","0","19","1","1","3","1","","0","1","0","null","","","<div style=""font-size:60px;"">+</div>","null","","","","","","","","","",""
"","html-keyboard-response","103","432353","0.0-8.0-1.3","lkssm3m63f","many_one","0","indirect_first","0","rd07an16","0","19","1","1","3","1","","0","1","0","null","","","<img src = 'category4/CS2.png' width = '100%;'>","null","","","","","","","","","",""
"","html-keyboard-response","104","432606","0.0-8.0-2.3","lkssm3m63f","many_one","0","indirect_first","0","rd07an16","0","19","1","1","3","1","","0","1","0","null","","","<img src = 'targets/1.png' width = '100%;'>","null","","","","","","","","","",""
"","html-keyboard-response","105","434375","0.0-8.0-3.3","lkssm3m63f","many_one","0","indirect_first","0","rd07an16","0","19","1","1","3","1","","0","1","0","1768","","","<img src = 'targets/mask.png' width = '100%;'>","75","neg","CS","CS","4","category4/CS2.png","targets/1.png","1","indirect","3",""
"","html-keyboard-response","106","435879","0.0-8.0-0.4","lkssm3m63f","many_one","0","indirect_first","0","rd07an16","0","19","1","1","3","1","","0","1","0","null","","","<div style=""font-size:60px;"">+</div>","null","","","","","","","","","",""
"","html-keyboard-response","107","435971","0.0-8.0-1.4","lkssm3m63f","many_one","0","indirect_first","0","rd07an16","0","19","1","1","3","1","","0","1","0","null","","","<img src = 'category4/CS8.png' width = '100%;'>","null","","","","","","","","","",""
"","html-keyboard-response","108","436224","0.0-8.0-2.4","lkssm3m63f","many_one","0","indirect_first","0","rd07an16","0","19","1","1","3","1","","0","1","0","null","","","<img src = 'targets/31.png' width = '100%;'>","null","","","","","","","","","",""
"","html-keyboard-response","109","437180","0.0-8.0-3.4","lkssm3m63f","many_one","0","indirect_first","0","rd07an16","0","19","1","1","3","1","","0","1","0","953.9999999999418","","","<img src = 'targets/mask.png' width = '100%;'>","75","neg","CS","CS","4","category4/CS8.png","targets/31.png","1","indirect","4",""
"","html-keyboard-response","110","438683","0.0-8.0-0.5","lkssm3m63f","many_one","0","indirect_first","0","rd07an16","0","19","1","1","3","1","","0","1","0","null","","","<div style=""font-size:60px;"">+</div>","null","","","","","","","","","",""
"","html-keyboard-response","111","438775","0.0-8.0-1.5","lkssm3m63f","many_one","0","indirect_first","0","rd07an16","0","19","1","1","3","1","","0","1","0","null","","","<img src = 'category1/CS5.png' width = '100%;'>","null","","","","","","","","","",""
"","html-keyboard-response","112","439029","0.0-8.0-2.5","lkssm3m63f","many_one","0","indirect_first","0","rd07an16","0","19","1","1","3","1","","0","1","0","null","","","<img src = 'targets/28.png' width = '100%;'>","null","","","","","","","","","",""
"","html-keyboard-response","113","439994","0.0-8.0-3.5","lkssm3m63f","many_one","0","indirect_first","0","rd07an16","0","19","1","1","3","1","","0","1","0","964","","","<img src = 'targets/mask.png' width = '100%;'>","68","pos","CS","CS","1","category1/CS5.png","targets/28.png","0","indirect","5",""
"","html-keyboard-response","114","441497","0.0-8.0-0.6","lkssm3m63f","many_one","0","indirect_first","0","rd07an16","0","19","1","1","3","1","","0","1","0","null","","","<div style=""font-size:60px;"">+</div>","null","","","","","","","","","",""
"","html-keyboard-response","115","441589","0.0-8.0-1.6","lkssm3m63f","many_one","0","indirect_first","0","rd07an16","0","19","1","1","3","1","","0","1","0","null","","","<img src = 'category2/CS10.png' width = '100%;'>","null","","","","","","","","","",""
"","html-keyboard-response","116","441841","0.0-8.0-2.6","lkssm3m63f","many_one","0","indirect_first","0","rd07an16","0","19","1","1","3","1","","0","1","0","null","","","<img src = 'targets/23.png' width = '100%;'>","null","","","","","","","","","",""
"","html-keyboard-response","117","443017","0.0-8.0-3.6","lkssm3m63f","many_one","0","indirect_first","0","rd07an16","0","19","1","1","3","1","","0","1","0","1174.0000000000582","","","<img src = 'targets/mask.png' width = '100%;'>","68","pos","CS","CS","2","category2/CS10.png","targets/23.png","0","indirect","6",""
"","html-keyboard-response","118","444520","0.0-8.0-0.7","lkssm3m63f","many_one","0","indirect_first","0","rd07an16","0","19","1","1","3","1","","0","1","0","null","","","<div style=""font-size:60px;"">+</div>","null","","","","","","","","","",""
"","html-keyboard-response","119","444612","0.0-8.0-1.7","lkssm3m63f","many_one","0","indirect_first","0","rd07an16","0","19","1","1","3","1","","0","1","0","null","","","<img src = 'category3/CS9.png' width = '100%;'>","null","","","","","","","","","",""
"","html-keyboard-response","120","444865","0.0-8.0-2.7","lkssm3m63f","many_one","0","indirect_first","0","rd07an16","0","19","1","1","3","1","","0","1","0","null","","","<img src = 'targets/42.png' width = '100%;'>","null","","","","","","","","","",""
"","html-keyboard-response","121","446473","0.0-8.0-3.7","lkssm3m63f","many_one","0","indirect_first","0","rd07an16","0","19","1","1","3","1","","0","1","0","1606","","","<img src = 'targets/mask.png' width = '100%;'>","75","neg","CS","CS","3","category3/CS9.png","targets/42.png","1","indirect","7",""
"","html-keyboard-response","122","447976","0.0-8.0-0.8","lkssm3m63f","many_one","0","indirect_first","0","rd07an16","0","19","1","1","3","1","","0","1","0","null","","","<div style=""font-size:60px;"">+</div>","null","","","","","","","","","",""
"","html-keyboard-response","123","448068","0.0-8.0-1.8","lkssm3m63f","many_one","0","indirect_first","0","rd07an16","0","19","1","1","3","1","","0","1","0","null","","","<img src = 'category1/CS8.png' width = '100%;'>","null","","","","","","","","","",""
"","html-keyboard-response","124","448321","0.0-8.0-2.8","lkssm3m63f","many_one","0","indirect_first","0","rd07an16","0","19","1","1","3","1","","0","1","0","null","","","<img src = 'targets/48.png' width = '100%;'>","null","","","","","","","","","",""
"","html-keyboard-response","125","449732","0.0-8.0-3.8","lkssm3m63f","many_one","0","indirect_first","0","rd07an16","0","19","1","1","3","1","","0","1","0","1409","","","<img src = 'targets/mask.png' width = '100%;'>","75","pos","GS","GSold","1","category1/CS8.png","targets/48.png","1","indirect","8",""
"","html-keyboard-response","126","451234","0.0-8.0-0.9","lkssm3m63f","many_one","0","indirect_first","0","rd07an16","0","19","1","1","3","1","","0","1","0","null","","","<div style=""font-size:60px;"">+</div>","null","","","","","","","","","",""
"","html-keyboard-response","127","451326","0.0-8.0-1.9","lkssm3m63f","many_one","0","indirect_first","0","rd07an16","0","19","1","1","3","1","","0","1","0","null","","","<img src = 'category3/CS5.png' width = '100%;'>","null","","","","","","","","","",""
"","html-keyboard-response","128","451579","0.0-8.0-2.9","lkssm3m63f","many_one","0","indirect_first","0","rd07an16","0","19","1","1","3","1","","0","1","0","null","","","<img src = 'targets/12.png' width = '100%;'>","null","","","","","","","","","",""
"","html-keyboard-response","129","452675","0.0-8.0-3.9","lkssm3m63f","many_one","0","indirect_first","0","rd07an16","0","19","1","1","3","1","","0","1","0","1095","","","<img src = 'targets/mask.png' width = '100%;'>","75","neg","GS","GSold","3","category3/CS5.png","targets/12.png","1","indirect","9",""
"","html-keyboard-response","130","454179","0.0-8.0-0.10","lkssm3m63f","many_one","0","indirect_first","0","rd07an16","0","19","1","1","3","1","","0","1","0","null","","","<div style=""font-size:60px;"">+</div>","null","","","","","","","","","",""
"","html-keyboard-response","131","454271","0.0-8.0-1.10","lkssm3m63f","many_one","0","indirect_first","0","rd07an16","0","19","1","1","3","1","","0","1","0","null","","","<img src = 'category3/CS2.png' width = '100%;'>","null","","","","","","","","","",""
"","html-keyboard-response","132","454524","0.0-8.0-2.10","lkssm3m63f","many_one","0","indirect_first","0","rd07an16","0","19","1","1","3","1","","0","1","0","null","","","<img src = 'targets/36.png' width = '100%;'>","null","","","","","","","","","",""
"","html-keyboard-response","133","455455","0.0-8.0-3.10","lkssm3m63f","many_one","0","indirect_first","0","rd07an16","0","19","1","1","3","1","","0","1","0","929","","","<img src = 'targets/mask.png' width = '100%;'>","68","neg","GS","GSold","3","category3/CS2.png","targets/36.png","0","indirect","10",""
"","html-keyboard-response","134","456956","0.0-8.0-0.11","lkssm3m63f","many_one","0","indirect_first","0","rd07an16","0","19","1","1","3","1","","0","1","0","null","","","<div style=""font-size:60px;"">+</div>","null","","","","","","","","","",""
"","html-keyboard-response","135","457048","0.0-8.0-1.11","lkssm3m63f","many_one","0","indirect_first","0","rd07an16","0","19","1","1","3","1","","0","1","0","null","","","<img src = 'category3/CS7.png' width = '100%;'>","null","","","","","","","","","",""
"","html-keyboard-response","136","457300","0.0-8.0-2.11","lkssm3m63f","many_one","0","indirect_first","0","rd07an16","0","19","1","1","3","1","","0","1","0","null","","","<img src = 'targets/39.png' width = '100%;'>","null","","","","","","","","","",""
"","html-keyboard-response","137","458187","0.0-8.0-3.11","lkssm3m63f","many_one","0","indirect_first","0","rd07an16","0","19","1","1","3","1","","0","1","0","885","","","<img src = 'targets/mask.png' width = '100%;'>","75","neg","CS","CS","3","category3/CS7.png","targets/39.png","1","indirect","11",""
"","html-keyboard-response","138","459690","0.0-8.0-0.12","lkssm3m63f","many_one","0","indirect_first","0","rd07an16","0","19","1","1","3","1","","0","1","0","null","","","<div style=""font-size:60px;"">+</div>","null","","","","","","","","","",""
"","html-keyboard-response","139","459782","0.0-8.0-1.12","lkssm3m63f","many_one","0","indirect_first","0","rd07an16","0","19","1","1","3","1","","0","1","0","null","","","<img src = 'category1/CS9.png' width = '100%;'>","null","","","","","","","","","",""
"","html-keyboard-response","140","460035","0.0-8.0-2.12","lkssm3m63f","many_one","0","indirect_first","0","rd07an16","0","19","1","1","3","1","","0","1","0","null","","","<img src = 'targets/14.png' width = '100%;'>","null","","","","","","","","","",""
"","html-keyboard-response","141","460740","0.0-8.0-3.12","lkssm3m63f","many_one","0","indirect_first","0","rd07an16","0","19","1","1","3","1","","0","1","0","704","","","<img src = 'targets/mask.png' width = '100%;'>","75","pos","CS","CS","1","category1/CS9.png","targets/14.png","1","indirect","12",""
"","html-keyboard-response","142","462242","0.0-8.0-0.13","lkssm3m63f","many_one","0","indirect_first","0","rd07an16","0","19","1","1","3","1","","0","1","0","null","","","<div style=""font-size:60px;"">+</div>","null","","","","","","","","","",""
"","html-keyboard-response","143","462334","0.0-8.0-1.13","lkssm3m63f","many_one","0","indirect_first","0","rd07an16","0","19","1","1","3","1","","0","1","0","null","","","<img src = 'category2/CS2.png' width = '100%;'>","null","","","","","","","","","",""
"","html-keyboard-response","144","462587","0.0-8.0-2.13","lkssm3m63f","many_one","0","indirect_first","0","rd07an16","0","19","1","1","3","1","","0","1","0","null","","","<img src = 'targets/32.png' width = '100%;'>","null","","","","","","","","","",""
"","html-keyboard-response","145","463772","0.0-8.0-3.13","lkssm3m63f","many_one","0","indirect_first","0","rd07an16","0","19","1","1","3","1","","0","1","0","1184","","","<img src = 'targets/mask.png' width = '100%;'>","68","pos","CS","CS","2","category2/CS2.png","targets/32.png","0","indirect","13",""
"","html-keyboard-response","146","465275","0.0-8.0-0.14","lkssm3m63f","many_one","0","indirect_first","0","rd07an16","0","19","1","1","3","1","","0","1","0","null","","","<div style=""font-size:60px;"">+</div>","null","","","","","","","","","",""
"","html-keyboard-response","147","465367","0.0-8.0-1.14","lkssm3m63f","many_one","0","indirect_first","0","rd07an16","0","19","1","1","3","1","","0","1","0","null","","","<img src = 'category2/CS5.png' width = '100%;'>","null","","","","","","","","","",""
"","html-keyboard-response","148","465620","0.0-8.0-2.14","lkssm3m63f","many_one","0","indirect_first","0","rd07an16","0","19","1","1","3","1","","0","1","0","null","","","<img src = 'targets/19.png' width = '100%;'>","null","","","","","","","","","",""
"","html-keyboard-response","149","466693","0.0-8.0-3.14","lkssm3m63f","many_one","0","indirect_first","0","rd07an16","0","19","1","1","3","1","","0","1","0","1073","","","<img src = 'targets/mask.png' width = '100%;'>","75","pos","CS","CS","2","category2/CS5.png","targets/19.png","1","indirect","14",""
"","html-keyboard-response","150","468195","0.0-8.0-0.15","lkssm3m63f","many_one","0","indirect_first","0","rd07an16","0","19","1","1","3","1","","0","1","0","null","","","<div style=""font-size:60px;"">+</div>","null","","","","","","","","","",""
"","html-keyboard-response","151","468286","0.0-8.0-1.15","lkssm3m63f","many_one","0","indirect_first","0","rd07an16","0","19","1","1","3","1","","0","1","0","null","","","<img src = 'category1/CS1.png' width = '100%;'>","null","","","","","","","","","",""
"","html-keyboard-response","152","468538","0.0-8.0-2.15","lkssm3m63f","many_one","0","indirect_first","0","rd07an16","0","19","1","1","3","1","","0","1","0","null","","","<img src = 'targets/25.png' width = '100%;'>","null","","","","","","","","","",""
"","html-keyboard-response","153","469569","0.0-8.0-3.15","lkssm3m63f","many_one","0","indirect_first","0","rd07an16","0","19","1","1","3","1","","0","1","0","1030","","","<img src = 'targets/mask.png' width = '100%;'>","68","pos","CS","CS","1","category1/CS1.png","targets/25.png","0","indirect","15",""
"","html-keyboard-response","154","471073","0.0-8.0-0.16","lkssm3m63f","many_one","0","indirect_first","0","rd07an16","0","19","1","1","3","1","","0","1","0","null","","","<div style=""font-size:60px;"">+</div>","null","","","","","","","","","",""
"","html-keyboard-response","155","471165","0.0-8.0-1.16","lkssm3m63f","many_one","0","indirect_first","0","rd07an16","0","19","1","1","3","1","","0","1","0","null","","","<img src = 'category3/CS6.png' width = '100%;'>","null","","","","","","","","","",""
"","html-keyboard-response","156","471418","0.0-8.0-2.16","lkssm3m63f","many_one","0","indirect_first","0","rd07an16","0","19","1","1","3","1","","0","1","0","null","","","<img src = 'targets/5.png' width = '100%;'>","null","","","","","","","","","",""
"","html-keyboard-response","157","472260","0.0-8.0-3.16","lkssm3m63f","many_one","0","indirect_first","0","rd07an16","0","19","1","1","3","1","","0","1","0","840","","","<img src = 'targets/mask.png' width = '100%;'>","75","neg","CS","CS","3","category3/CS6.png","targets/5.png","1","indirect","16",""
"","html-keyboard-response","158","473763","0.0-8.0-0.17","lkssm3m63f","many_one","0","indirect_first","0","rd07an16","0","19","1","1","3","1","","0","1","0","null","","","<div style=""font-size:60px;"">+</div>","null","","","","","","","","","",""
"","html-keyboard-response","159","473857","0.0-8.0-1.17","lkssm3m63f","many_one","0","indirect_first","0","rd07an16","0","19","1","1","3","1","","0","1","0","null","","","<img src = 'category4/CS3.png' width = '100%;'>","null","","","","","","","","","",""
"","html-keyboard-response","160","474110","0.0-8.0-2.17","lkssm3m63f","many_one","0","indirect_first","0","rd07an16","0","19","1","1","3","1","","0","1","0","null","","","<img src = 'targets/6.png' width = '100%;'>","null","","","","","","","","","",""
"","html-keyboard-response","161","475221","0.0-8.0-3.17","lkssm3m63f","many_one","0","indirect_first","0","rd07an16","0","19","1","1","3","1","","0","1","0","1110","","","<img src = 'targets/mask.png' width = '100%;'>","75","neg","CS","CS","4","category4/CS3.png","targets/6.png","1","indirect","17",""
"","html-keyboard-response","162","476724","0.0-8.0-0.18","lkssm3m63f","many_one","0","indirect_first","0","rd07an16","0","19","1","1","3","1","","0","1","0","null","","","<div style=""font-size:60px;"">+</div>","null","","","","","","","","","",""
"","html-keyboard-response","163","476816","0.0-8.0-1.18","lkssm3m63f","many_one","0","indirect_first","0","rd07an16","0","19","1","1","3","1","","0","1","0","null","","","<img src = 'category2/CS1.png' width = '100%;'>","null","","","","","","","","","",""
"","html-keyboard-response","164","477069","0.0-8.0-2.18","lkssm3m63f","many_one","0","indirect_first","0","rd07an16","0","19","1","1","3","1","","0","1","0","null","","","<img src = 'targets/46.png' width = '100%;'>","null","","","","","","","","","",""
"","html-keyboard-response","165","478109","0.0-8.0-3.18","lkssm3m63f","many_one","0","indirect_first","0","rd07an16","0","19","1","1","3","1","","0","1","0","1038.9999999999418","","","<img src = 'targets/mask.png' width = '100%;'>","75","pos","CS","CS","2","category2/CS1.png","targets/46.png","1","indirect","18",""
"","html-keyboard-response","166","479613","0.0-8.0-0.19","lkssm3m63f","many_one","0","indirect_first","0","rd07an16","0","19","1","1","3","1","","0","1","0","null","","","<div style=""font-size:60px;"">+</div>","null","","","","","","","","","",""
"","html-keyboard-response","167","479705","0.0-8.0-1.19","lkssm3m63f","many_one","0","indirect_first","0","rd07an16","0","19","1","1","3","1","","0","1","0","null","","","<img src = 'category2/CS7.png' width = '100%;'>","null","","","","","","","","","",""
"","html-keyboard-response","168","479959","0.0-8.0-2.19","lkssm3m63f","many_one","0","indirect_first","0","rd07an16","0","19","1","1","3","1","","0","1","0","null","","","<img src = 'targets/3.png' width = '100%;'>","null","","","","","","","","","",""
"","html-keyboard-response","169","480880","0.0-8.0-3.19","lkssm3m63f","many_one","0","indirect_first","0","rd07an16","0","19","1","1","3","1","","0","1","0","920","","","<img src = 'targets/mask.png' width = '100%;'>","68","pos","CS","CS","2","category2/CS7.png","targets/3.png","0","indirect","19",""
"","html-keyboard-response","170","482383","0.0-8.0-0.20","lkssm3m63f","many_one","0","indirect_first","0","rd07an16","0","19","1","1","3","1","","0","1","0","null","","","<div style=""font-size:60px;"">+</div>","null","","","","","","","","","",""
"","html-keyboard-response","171","482475","0.0-8.0-1.20","lkssm3m63f","many_one","0","indirect_first","0","rd07an16","0","19","1","1","3","1","","0","1","0","null","","","<img src = 'category3/CS10.png' width = '100%;'>","null","","","","","","","","","",""
"","html-keyboard-response","172","482728","0.0-8.0-2.20","lkssm3m63f","many_one","0","indirect_first","0","rd07an16","0","19","1","1","3","1","","0","1","0","null","","","<img src = 'targets/22.png' width = '100%;'>","null","","","","","","","","","",""
"","html-keyboard-response","173","483717","0.0-8.0-3.20","lkssm3m63f","many_one","0","indirect_first","0","rd07an16","0","19","1","1","3","1","","0","1","0","988","","","<img src = 'targets/mask.png' width = '100%;'>","68","neg","CS","CS","3","category3/CS10.png","targets/22.png","0","indirect","20",""
"","html-keyboard-response","174","485220","0.0-8.0-0.21","lkssm3m63f","many_one","0","indirect_first","0","rd07an16","0","19","1","1","3","1","","0","1","0","null","","","<div style=""font-size:60px;"">+</div>","null","","","","","","","","","",""
"","html-keyboard-response","175","485313","0.0-8.0-1.21","lkssm3m63f","many_one","0","indirect_first","0","rd07an16","0","19","1","1","3","1","","0","1","0","null","","","<img src = 'category3/CS8.png' width = '100%;'>","null","","","","","","","","","",""
"","html-keyboard-response","176","485567","0.0-8.0-2.21","lkssm3m63f","many_one","0","indirect_first","0","rd07an16","0","19","1","1","3","1","","0","1","0","null","","","<img src = 'targets/40.png' width = '100%;'>","null","","","","","","","","","",""
"","html-keyboard-response","177","486316","0.0-8.0-3.21","lkssm3m63f","many_one","0","indirect_first","0","rd07an16","0","19","1","1","3","1","","0","1","0","748","","","<img src = 'targets/mask.png' width = '100%;'>","68","neg","CS","CS","3","category3/CS8.png","targets/40.png","0","indirect","21",""
"","html-keyboard-response","178","487819","0.0-8.0-0.22","lkssm3m63f","many_one","0","indirect_first","0","rd07an16","0","19","1","1","3","1","","0","1","0","null","","","<div style=""font-size:60px;"">+</div>","null","","","","","","","","","",""
"","html-keyboard-response","179","487912","0.0-8.0-1.22","lkssm3m63f","many_one","0","indirect_first","0","rd07an16","0","19","1","1","3","1","","0","1","0","null","","","<img src = 'category1/CS3.png' width = '100%;'>","null","","","","","","","","","",""
"","html-keyboard-response","180","488164","0.0-8.0-2.22","lkssm3m63f","many_one","0","indirect_first","0","rd07an16","0","19","1","1","3","1","","0","1","0","null","","","<img src = 'targets/24.png' width = '100%;'>","null","","","","","","","","","",""
"","html-keyboard-response","181","489171","0.0-8.0-3.22","lkssm3m63f","many_one","0","indirect_first","0","rd07an16","0","19","1","1","3","1","","0","1","0","1005","","","<img src = 'targets/mask.png' width = '100%;'>","75","pos","CS","CS","1","category1/CS3.png","targets/24.png","1","indirect","22",""
"","html-keyboard-response","182","490672","0.0-8.0-0.23","lkssm3m63f","many_one","0","indirect_first","0","rd07an16","0","19","1","1","3","1","","0","1","0","null","","","<div style=""font-size:60px;"">+</div>","null","","","","","","","","","",""
"","html-keyboard-response","183","490765","0.0-8.0-1.23","lkssm3m63f","many_one","0","indirect_first","0","rd07an16","0","19","1","1","3","1","","0","1","0","null","","","<img src = 'category3/CS3.png' width = '100%;'>","null","","","","","","","","","",""
"","html-keyboard-response","184","491018","0.0-8.0-2.23","lkssm3m63f","many_one","0","indirect_first","0","rd07an16","0","19","1","1","3","1","","0","1","0","null","","","<img src = 'targets/38.png' width = '100%;'>","null","","","","","","","","","",""
"","html-keyboard-response","185","491914","0.0-8.0-3.23","lkssm3m63f","many_one","0","indirect_first","0","rd07an16","0","19","1","1","3","1","","0","1","0","894.9999999999418","","","<img src = 'targets/mask.png' width = '100%;'>","68","neg","GS","GSold","3","category3/CS3.png","targets/38.png","0","indirect","23",""
"","survey-html-form","186","495020","0.0-9.0","lkssm3m63f","many_one","0","indirect_first","0","rd07an16","0","19","1","1","3","1","","0","1","0","2603.9999999998836","","{}","","","","","","","","","","","",""
"","html-keyboard-response","187","498023","0.0-10.0-0.0","lkssm3m63f","many_one","0","indirect_first","0","rd07an16","0","19","1","1","3","1","","0","1","0","null","","","<div style=""font-size:60px;"">+</div>","null","","","","","","","","","",""
"","html-keyboard-response","188","498117","0.0-10.0-1.0","lkssm3m63f","many_one","0","indirect_first","0","rd07an16","0","19","1","1","3","1","","0","1","0","null","","","<img src = 'category4/lin.png' width = '100%;'>","null","","","","","","","","","",""
"","html-keyboard-response","189","498369","0.0-10.0-2.0","lkssm3m63f","many_one","0","indirect_first","0","rd07an16","0","19","1","1","3","1","","0","1","0","null","","","<img src = 'targets/29.png' width = '100%;'>","null","","","","","","","","","",""
"","html-keyboard-response","190","499229","0.0-10.0-3.0","lkssm3m63f","many_one","0","indirect_first","0","rd07an16","0","19","1","1","3","1","","0","1","0","859","","","<img src = 'targets/mask.png' width = '100%;'>","75","neg","GS","abstract","4","category4/lin.png","targets/29.png","1","indirect","24",""
"","html-keyboard-response","191","500731","0.0-10.0-0.1","lkssm3m63f","many_one","0","indirect_first","0","rd07an16","0","19","1","1","3","1","","0","1","0","null","","","<div style=""font-size:60px;"">+</div>","null","","","","","","","","","",""
"","html-keyboard-response","192","500823","0.0-10.0-1.1","lkssm3m63f","many_one","0","indirect_first","0","rd07an16","0","19","1","1","3","1","","0","1","0","null","","","<img src = 'category4/GS1.png' width = '100%;'>","null","","","","","","","","","",""
"","html-keyboard-response","193","501075","0.0-10.0-2.1","lkssm3m63f","many_one","0","indirect_first","0","rd07an16","0","19","1","1","3","1","","0","1","0","null","","","<img src = 'targets/11.png' width = '100%;'>","null","","","","","","","","","",""
"","html-keyboard-response","194","501965","0.0-10.0-3.1","lkssm3m63f","many_one","0","indirect_first","0","rd07an16","0","19","1","1","3","1","","0","1","0","889.0000000000582","","","<img src = 'targets/mask.png' width = '100%;'>","75","neg","GS","GSnew","4","category4/GS1.png","targets/11.png","1","indirect","25",""
"","html-keyboard-response","195","503469","0.0-10.0-0.2","lkssm3m63f","many_one","0","indirect_first","0","rd07an16","0","19","1","1","3","1","","0","1","0","null","","","<div style=""font-size:60px;"">+</div>","null","","","","","","","","","",""
"","html-keyboard-response","196","503561","0.0-10.0-1.2","lkssm3m63f","many_one","0","indirect_first","0","rd07an16","0","19","1","1","3","1","","0","1","0","null","","","<img src = 'category2/GS2.png' width = '100%;'>","null","","","","","","","","","",""
"","html-keyboard-response","197","503814","0.0-10.0-2.2","lkssm3m63f","many_one","0","indirect_first","0","rd07an16","0","19","1","1","3","1","","0","1","0","null","","","<img src = 'targets/8.png' width = '100%;'>","null","","","","","","","","","",""
"","html-keyboard-response","198","504873","0.0-10.0-3.2","lkssm3m63f","many_one","0","indirect_first","0","rd07an16","0","19","1","1","3","1","","0","1","0","1058","","","<img src = 'targets/mask.png' width = '100%;'>","68","pos","GS","GSnew","2","category2/GS2.png","targets/8.png","0","indirect","26",""
"","html-keyboard-response","199","506377","0.0-10.0-0.3","lkssm3m63f","many_one","0","indirect_first","0","rd07an16","0","19","1","1","3","1","","0","1","0","null","","","<div style=""font-size:60px;"">+</div>","null","","","","","","","","","",""
"","html-keyboard-response","200","506469","0.0-10.0-1.3","lkssm3m63f","many_one","0","indirect_first","0","rd07an16","0","19","1","1","3","1","","0","1","0","null","","","<img src = 'category3/GS2.png' width = '100%;'>","null","","","","","","","","","",""
"","html-keyboard-response","201","506722","0.0-10.0-2.3","lkssm3m63f","many_one","0","indirect_first","0","rd07an16","0","19","1","1","3","1","","0","1","0","null","","","<img src = 'targets/20.png' width = '100%;'>","null","","","","","","","","","",""
"","html-keyboard-response","202","507840","0.0-10.0-3.3","lkssm3m63f","many_one","0","indirect_first","0","rd07an16","0","19","1","1","3","1","","0","1","0","1117","","","<img src = 'targets/mask.png' width = '100%;'>","68","neg","GS","GSnew","3","category3/GS2.png","targets/20.png","0","indirect","27",""
"","html-keyboard-response","203","509344","0.0-10.0-0.4","lkssm3m63f","many_one","0","indirect_first","0","rd07an16","0","19","1","1","3","1","","0","1","0","null","","","<div style=""font-size:60px;"">+</div>","null","","","","","","","","","",""
"","html-keyboard-response","204","509438","0.0-10.0-1.4","lkssm3m63f","many_one","0","indirect_first","0","rd07an16","0","19","1","1","3","1","","0","1","0","null","","","<img src = 'category2/CS9.png' width = '100%;'>","null","","","","","","","","","",""
"","html-keyboard-response","205","509691","0.0-10.0-2.4","lkssm3m63f","many_one","0","indirect_first","0","rd07an16","0","19","1","1","3","1","","0","1","0","null","","","<img src = 'targets/33.png' width = '100%;'>","null","","","","","","","","","",""
"","html-keyboard-response","206","510596","0.0-10.0-3.4","lkssm3m63f","many_one","0","indirect_first","0","rd07an16","0","19","1","1","3","1","","0","1","0","904","","","<img src = 'targets/mask.png' width = '100%;'>","75","pos","GS","GSold","2","category2/CS9.png","targets/33.png","1","indirect","28",""
"","html-keyboard-response","207","512099","0.0-10.0-0.5","lkssm3m63f","many_one","0","indirect_first","0","rd07an16","0","19","1","1","3","1","","0","1","0","null","","","<div style=""font-size:60px;"">+</div>","null","","","","","","","","","",""
"","html-keyboard-response","208","512192","0.0-10.0-1.5","lkssm3m63f","many_one","0","indirect_first","0","rd07an16","0","19","1","1","3","1","","0","1","0","null","","","<img src = 'category1/GS1.png' width = '100%;'>","null","","","","","","","","","",""
"","html-keyboard-response","209","512444","0.0-10.0-2.5","lkssm3m63f","many_one","0","indirect_first","0","rd07an16","0","19","1","1","3","1","","0","1","0","null","","","<img src = 'targets/7.png' width = '100%;'>","null","","","","","","","","","",""
"","html-keyboard-response","210","513166","0.0-10.0-3.5","lkssm3m63f","many_one","0","indirect_first","0","rd07an16","0","19","1","1","3","1","","0","1","0","721","","","<img src = 'targets/mask.png' width = '100%;'>","75","pos","GS","GSnew","1","category1/GS1.png","targets/7.png","1","indirect","29",""
"","html-keyboard-response","211","514668","0.0-10.0-0.6","lkssm3m63f","many_one","0","indirect_first","0","rd07an16","0","19","1","1","3","1","","0","1","0","null","","","<div style=""font-size:60px;"">+</div>","null","","","","","","","","","",""
"","html-keyboard-response","212","514760","0.0-10.0-1.6","lkssm3m63f","many_one","0","indirect_first","0","rd07an16","0","19","1","1","3","1","","0","1","0","null","","","<img src = 'category4/GS2.png' width = '100%;'>","null","","","","","","","","","",""
"","html-keyboard-response","213","515013","0.0-10.0-2.6","lkssm3m63f","many_one","0","indirect_first","0","rd07an16","0","19","1","1","3","1","","0","1","0","null","","","<img src = 'targets/9.png' width = '100%;'>","null","","","","","","","","","",""
"","html-keyboard-response","214","515958","0.0-10.0-3.6","lkssm3m63f","many_one","0","indirect_first","0","rd07an16","0","19","1","1","3","1","","0","1","0","944","","","<img src = 'targets/mask.png' width = '100%;'>","75","neg","GS","GSnew","4","category4/GS2.png","targets/9.png","1","indirect","30",""
"","html-keyboard-response","215","517462","0.0-10.0-0.7","lkssm3m63f","many_one","0","indirect_first","0","rd07an16","0","19","1","1","3","1","","0","1","0","null","","","<div style=""font-size:60px;"">+</div>","null","","","","","","","","","",""
"","html-keyboard-response","216","517554","0.0-10.0-1.7","lkssm3m63f","many_one","0","indirect_first","0","rd07an16","0","19","1","1","3","1","","0","1","0","null","","","<img src = 'category2/CS6.png' width = '100%;'>","null","","","","","","","","","",""
"","html-keyboard-response","217","517807","0.0-10.0-2.7","lkssm3m63f","many_one","0","indirect_first","0","rd07an16","0","19","1","1","3","1","","0","1","0","null","","","<img src = 'targets/47.png' width = '100%;'>","null","","","","","","","","","",""
"","html-keyboard-response","218","518490","0.0-10.0-3.7","lkssm3m63f","many_one","0","indirect_first","0","rd07an16","0","19","1","1","3","1","","0","1","0","682","","","<img src = 'targets/mask.png' width = '100%;'>","75","pos","GS","GSold","2","category2/CS6.png","targets/47.png","1","indirect","31",""
"","html-keyboard-response","219","519993","0.0-10.0-0.8","lkssm3m63f","many_one","0","indirect_first","0","rd07an16","0","19","1","1","3","1","","0","1","0","null","","","<div style=""font-size:60px;"">+</div>","null","","","","","","","","","",""
"","html-keyboard-response","220","520087","0.0-10.0-1.8","lkssm3m63f","many_one","0","indirect_first","0","rd07an16","0","19","1","1","3","1","","0","1","0","null","","","<img src = 'category3/GS3.png' width = '100%;'>","null","","","","","","","","","",""
"","html-keyboard-response","221","520341","0.0-10.0-2.8","lkssm3m63f","many_one","0","indirect_first","0","rd07an16","0","19","1","1","3","1","","0","1","0","null","","","<img src = 'targets/30.png' width = '100%;'>","null","","","","","","","","","",""
"","html-keyboard-response","222","521104","0.0-10.0-3.8","lkssm3m63f","many_one","0","indirect_first","0","rd07an16","0","19","1","1","3","1","","0","1","0","762","","","<img src = 'targets/mask.png' width = '100%;'>","68","neg","GS","GSnew","3","category3/GS3.png","targets/30.png","0","indirect","32",""
"","html-keyboard-response","223","522608","0.0-10.0-0.9","lkssm3m63f","many_one","0","indirect_first","0","rd07an16","0","19","1","1","3","1","","0","1","0","null","","","<div style=""font-size:60px;"">+</div>","null","","","","","","","","","",""
"","html-keyboard-response","224","522700","0.0-10.0-1.9","lkssm3m63f","many_one","0","indirect_first","0","rd07an16","0","19","1","1","3","1","","0","1","0","null","","","<img src = 'category4/GS3.png' width = '100%;'>","null","","","","","","","","","",""
"","html-keyboard-response","225","522952","0.0-10.0-2.9","lkssm3m63f","many_one","0","indirect_first","0","rd07an16","0","19","1","1","3","1","","0","1","0","null","","","<img src = 'targets/27.png' width = '100%;'>","null","","","","","","","","","",""
"","html-keyboard-response","226","523661","0.0-10.0-3.9","lkssm3m63f","many_one","0","indirect_first","0","rd07an16","0","19","1","1","3","1","","0","1","0","708.0000000001164","","","<img src = 'targets/mask.png' width = '100%;'>","75","neg","GS","GSnew","4","category4/GS3.png","targets/27.png","1","indirect","33",""
"","html-keyboard-response","227","525164","0.0-10.0-0.10","lkssm3m63f","many_one","0","indirect_first","0","rd07an16","0","19","1","1","3","1","","0","1","0","null","","","<div style=""font-size:60px;"">+</div>","null","","","","","","","","","",""
"","html-keyboard-response","228","525256","0.0-10.0-1.10","lkssm3m63f","many_one","0","indirect_first","0","rd07an16","0","19","1","1","3","1","","0","1","0","null","","","<img src = 'category1/GS3.png' width = '100%;'>","null","","","","","","","","","",""
"","html-keyboard-response","229","525509","0.0-10.0-2.10","lkssm3m63f","many_one","0","indirect_first","0","rd07an16","0","19","1","1","3","1","","0","1","0","null","","","<img src = 'targets/15.png' width = '100%;'>","null","","","","","","","","","",""
"","html-keyboard-response","230","526197","0.0-10.0-3.10","lkssm3m63f","many_one","0","indirect_first","0","rd07an16","0","19","1","1","3","1","","0","1","0","687","","","<img src = 'targets/mask.png' width = '100%;'>","75","pos","GS","GSnew","1","category1/GS3.png","targets/15.png","1","indirect","34",""
"","html-keyboard-response","231","527700","0.0-10.0-0.11","lkssm3m63f","many_one","0","indirect_first","0","rd07an16","0","19","1","1","3","1","","0","1","0","null","","","<div style=""font-size:60px;"">+</div>","null","","","","","","","","","",""
"","html-keyboard-response","232","527793","0.0-10.0-1.11","lkssm3m63f","many_one","0","indirect_first","0","rd07an16","0","19","1","1","3","1","","0","1","0","null","","","<img src = 'category1/CS2.png' width = '100%;'>","null","","","","","","","","","",""
"","html-keyboard-response","233","528046","0.0-10.0-2.11","lkssm3m63f","many_one","0","indirect_first","0","rd07an16","0","19","1","1","3","1","","0","1","0","null","","","<img src = 'targets/26.png' width = '100%;'>","null","","","","","","","","","",""
"","html-keyboard-response","234","529127","0.0-10.0-3.11","lkssm3m63f","many_one","0","indirect_first","0","rd07an16","0","19","1","1","3","1","","0","1","0","1079","","","<img src = 'targets/mask.png' width = '100%;'>","68","pos","GS","GSold","1","category1/CS2.png","targets/26.png","0","indirect","35",""
"","html-keyboard-response","235","530631","0.0-10.0-0.12","lkssm3m63f","many_one","0","indirect_first","0","rd07an16","0","19","1","1","3","1","","0","1","0","null","","","<div style=""font-size:60px;"">+</div>","null","","","","","","","","","",""
"","html-keyboard-response","236","530723","0.0-10.0-1.12","lkssm3m63f","many_one","0","indirect_first","0","rd07an16","0","19","1","1","3","1","","0","1","0","null","","","<img src = 'category1/CS6.png' width = '100%;'>","null","","","","","","","","","",""
"","html-keyboard-response","237","530976","0.0-10.0-2.12","lkssm3m63f","many_one","0","indirect_first","0","rd07an16","0","19","1","1","3","1","","0","1","0","null","","","<img src = 'targets/21.png' width = '100%;'>","null","","","","","","","","","",""
"","html-keyboard-response","238","531645","0.0-10.0-3.12","lkssm3m63f","many_one","0","indirect_first","0","rd07an16","0","19","1","1","3","1","","0","1","0","668","","","<img src = 'targets/mask.png' width = '100%;'>","68","pos","GS","GSold","1","category1/CS6.png","targets/21.png","0","indirect","36",""
"","html-keyboard-response","239","533148","0.0-10.0-0.13","lkssm3m63f","many_one","0","indirect_first","0","rd07an16","0","19","1","1","3","1","","0","1","0","null","","","<div style=""font-size:60px;"">+</div>","null","","","","","","","","","",""
"","html-keyboard-response","240","533240","0.0-10.0-1.13","lkssm3m63f","many_one","0","indirect_first","0","rd07an16","0","19","1","1","3","1","","0","1","0","null","","","<img src = 'category2/men.png' width = '100%;'>","null","","","","","","","","","",""
"","html-keyboard-response","241","533492","0.0-10.0-2.13","lkssm3m63f","many_one","0","indirect_first","0","rd07an16","0","19","1","1","3","1","","0","1","0","null","","","<img src = 'targets/18.png' width = '100%;'>","null","","","","","","","","","",""
"","html-keyboard-response","242","534435","0.0-10.0-3.13","lkssm3m63f","many_one","0","indirect_first","0","rd07an16","0","19","1","1","3","1","","0","1","0","942.0000000001164","","","<img src = 'targets/mask.png' width = '100%;'>","68","pos","GS","abstract","2","category2/men.png","targets/18.png","0","indirect","37",""
"","html-keyboard-response","243","535938","0.0-10.0-0.14","lkssm3m63f","many_one","0","indirect_first","0","rd07an16","0","19","1","1","3","1","","0","1","0","null","","","<div style=""font-size:60px;"">+</div>","null","","","","","","","","","",""
"","html-keyboard-response","244","536030","0.0-10.0-1.14","lkssm3m63f","many_one","0","indirect_first","0","rd07an16","0","19","1","1","3","1","","0","1","0","null","","","<img src = 'category1/ma.png' width = '100%;'>","null","","","","","","","","","",""
"","html-keyboard-response","245","536283","0.0-10.0-2.14","lkssm3m63f","many_one","0","indirect_first","0","rd07an16","0","19","1","1","3","1","","0","1","0","null","","","<img src = 'targets/44.png' width = '100%;'>","null","","","","","","","","","",""
"","html-keyboard-response","246","537098","0.0-10.0-3.14","lkssm3m63f","many_one","0","indirect_first","0","rd07an16","0","19","1","1","3","1","","0","1","0","814","","","<img src = 'targets/mask.png' width = '100%;'>","75","pos","GS","abstract","1","category1/ma.png","targets/44.png","1","indirect","38",""
"","html-keyboard-response","247","538602","0.0-10.0-0.15","lkssm3m63f","many_one","0","indirect_first","0","rd07an16","0","19","1","1","3","1","","0","1","0","null","","","<div style=""font-size:60px;"">+</div>","null","","","","","","","","","",""
"","html-keyboard-response","248","538693","0.0-10.0-1.15","lkssm3m63f","many_one","0","indirect_first","0","rd07an16","0","19","1","1","3","1","","0","1","0","null","","","<img src = 'category4/CS9.png' width = '100%;'>","null","","","","","","","","","",""
"","html-keyboard-response","249","538946","0.0-10.0-2.15","lkssm3m63f","many_one","0","indirect_first","0","rd07an16","0","19","1","1","3","1","","0","1","0","null","","","<img src = 'targets/34.png' width = '100%;'>","null","","","","","","","","","",""
"","html-keyboard-response","250","539483","0.0-10.0-3.15","lkssm3m63f","many_one","0","indirect_first","0","rd07an16","0","19","1","1","3","1","","0","1","0","534.0000000001164","","","<img src = 'targets/mask.png' width = '100%;'>","75","neg","GS","GSold","4","category4/CS9.png","targets/34.png","1","indirect","39",""
"","html-keyboard-response","251","540987","0.0-10.0-0.16","lkssm3m63f","many_one","0","indirect_first","0","rd07an16","0","19","1","1","3","1","","0","1","0","null","","","<div style=""font-size:60px;"">+</div>","null","","","","","","","","","",""
"","html-keyboard-response","252","541079","0.0-10.0-1.16","lkssm3m63f","many_one","0","indirect_first","0","rd07an16","0","19","1","1","3","1","","0","1","0","null","","","<img src = 'category4/CS7.png' width = '100%;'>","null","","","","","","","","","",""
"","html-keyboard-response","253","541332","0.0-10.0-2.16","lkssm3m63f","many_one","0","indirect_first","0","rd07an16","0","19","1","1","3","1","","0","1","0","null","","","<img src = 'targets/43.png' width = '100%;'>","null","","","","","","","","","",""
"","html-keyboard-response","254","541895","0.0-10.0-3.16","lkssm3m63f","many_one","0","indirect_first","0","rd07an16","0","19","1","1","3","1","","0","1","0","562","","","<img src = 'targets/mask.png' width = '100%;'>","75","neg","GS","GSold","4","category4/CS7.png","targets/43.png","1","indirect","40",""
"","html-keyboard-response","255","543398","0.0-10.0-0.17","lkssm3m63f","many_one","0","indirect_first","0","rd07an16","0","19","1","1","3","1","","0","1","0","null","","","<div style=""font-size:60px;"">+</div>","null","","","","","","","","","",""
"","html-keyboard-response","256","543490","0.0-10.0-1.17","lkssm3m63f","many_one","0","indirect_first","0","rd07an16","0","19","1","1","3","1","","0","1","0","null","","","<img src = 'category1/GS2.png' width = '100%;'>","null","","","","","","","","","",""
"","html-keyboard-response","257","543745","0.0-10.0-2.17","lkssm3m63f","many_one","0","indirect_first","0","rd07an16","0","19","1","1","3","1","","0","1","0","null","","","<img src = 'targets/10.png' width = '100%;'>","null","","","","","","","","","",""
"","html-keyboard-response","258","544354","0.0-10.0-3.17","lkssm3m63f","many_one","0","indirect_first","0","rd07an16","0","19","1","1","3","1","","0","1","0","608","","","<img src = 'targets/mask.png' width = '100%;'>","75","pos","GS","GSnew","1","category1/GS2.png","targets/10.png","1","indirect","41",""
"","html-keyboard-response","259","545857","0.0-10.0-0.18","lkssm3m63f","many_one","0","indirect_first","0","rd07an16","0","19","1","1","3","1","","0","1","0","null","","","<div style=""font-size:60px;"">+</div>","null","","","","","","","","","",""
"","html-keyboard-response","260","545950","0.0-10.0-1.18","lkssm3m63f","many_one","0","indirect_first","0","rd07an16","0","19","1","1","3","1","","0","1","0","null","","","<img src = 'category3/GS1.png' width = '100%;'>","null","","","","","","","","","",""
"","html-keyboard-response","261","546203","0.0-10.0-2.18","lkssm3m63f","many_one","0","indirect_first","0","rd07an16","0","19","1","1","3","1","","0","1","0","null","","","<img src = 'targets/37.png' width = '100%;'>","null","","","","","","","","","",""
"","html-keyboard-response","262","546828","0.0-10.0-3.18","lkssm3m63f","many_one","0","indirect_first","0","rd07an16","0","19","1","1","3","1","","0","1","0","624","","","<img src = 'targets/mask.png' width = '100%;'>","75","neg","GS","GSnew","3","category3/GS1.png","targets/37.png","1","indirect","42",""
"","html-keyboard-response","263","548331","0.0-10.0-0.19","lkssm3m63f","many_one","0","indirect_first","0","rd07an16","0","19","1","1","3","1","","0","1","0","null","","","<div style=""font-size:60px;"">+</div>","null","","","","","","","","","",""
"","html-keyboard-response","264","548423","0.0-10.0-1.19","lkssm3m63f","many_one","0","indirect_first","0","rd07an16","0","19","1","1","3","1","","0","1","0","null","","","<img src = 'category4/CS6.png' width = '100%;'>","null","","","","","","","","","",""
"","html-keyboard-response","265","548677","0.0-10.0-2.19","lkssm3m63f","many_one","0","indirect_first","0","rd07an16","0","19","1","1","3","1","","0","1","0","null","","","<img src = 'targets/2.png' width = '100%;'>","null","","","","","","","","","",""
"","html-keyboard-response","266","549339","0.0-10.0-3.19","lkssm3m63f","many_one","0","indirect_first","0","rd07an16","0","19","1","1","3","1","","0","1","0","662.0000000001164","","","<img src = 'targets/mask.png' width = '100%;'>","75","neg","GS","GSold","4","category4/CS6.png","targets/2.png","1","indirect","43",""
"","html-keyboard-response","267","550843","0.0-10.0-0.20","lkssm3m63f","many_one","0","indirect_first","0","rd07an16","0","19","1","1","3","1","","0","1","0","null","","","<div style=""font-size:60px;"">+</div>","null","","","","","","","","","",""
"","html-keyboard-response","268","550935","0.0-10.0-1.20","lkssm3m63f","many_one","0","indirect_first","0","rd07an16","0","19","1","1","3","1","","0","1","0","null","","","<img src = 'category2/GS3.png' width = '100%;'>","null","","","","","","","","","",""
"","html-keyboard-response","269","551188","0.0-10.0-2.20","lkssm3m63f","many_one","0","indirect_first","0","rd07an16","0","19","1","1","3","1","","0","1","0","null","","","<img src = 'targets/16.png' width = '100%;'>","null","","","","","","","","","",""
"","html-keyboard-response","270","552921","0.0-10.0-3.20","lkssm3m63f","many_one","0","indirect_first","0","rd07an16","0","19","1","1","3","1","","0","1","0","1732","","","<img src = 'targets/mask.png' width = '100%;'>","75","pos","GS","GSnew","2","category2/GS3.png","targets/16.png","1","indirect","44",""
"","html-keyboard-response","271","554425","0.0-10.0-0.21","lkssm3m63f","many_one","0","indirect_first","0","rd07an16","0","19","1","1","3","1","","0","1","0","null","","","<div style=""font-size:60px;"">+</div>","null","","","","","","","","","",""
"","html-keyboard-response","272","554517","0.0-10.0-1.21","lkssm3m63f","many_one","0","indirect_first","0","rd07an16","0","19","1","1","3","1","","0","1","0","null","","","<img src = 'category3/wang.png' width = '100%;'>","null","","","","","","","","","",""
"","html-keyboard-response","273","554770","0.0-10.0-2.21","lkssm3m63f","many_one","0","indirect_first","0","rd07an16","0","19","1","1","3","1","","0","1","0","null","","","<img src = 'targets/35.png' width = '100%;'>","null","","","","","","","","","",""
"","html-keyboard-response","274","555532","0.0-10.0-3.21","lkssm3m63f","many_one","0","indirect_first","0","rd07an16","0","19","1","1","3","1","","0","1","0","760.0000000001164","","","<img src = 'targets/mask.png' width = '100%;'>","68","neg","GS","abstract","3","category3/wang.png","targets/35.png","0","indirect","45",""
"","html-keyboard-response","275","557035","0.0-10.0-0.22","lkssm3m63f","many_one","0","indirect_first","0","rd07an16","0","19","1","1","3","1","","0","1","0","null","","","<div style=""font-size:60px;"">+</div>","null","","","","","","","","","",""
"","html-keyboard-response","276","557129","0.0-10.0-1.22","lkssm3m63f","many_one","0","indirect_first","0","rd07an16","0","19","1","1","3","1","","0","1","0","null","","","<img src = 'category2/CS4.png' width = '100%;'>","null","","","","","","","","","",""
"","html-keyboard-response","277","557381","0.0-10.0-2.22","lkssm3m63f","many_one","0","indirect_first","0","rd07an16","0","19","1","1","3","1","","0","1","0","null","","","<img src = 'targets/41.png' width = '100%;'>","null","","","","","","","","","",""
"","html-keyboard-response","278","558639","0.0-10.0-3.22","lkssm3m63f","many_one","0","indirect_first","0","rd07an16","0","19","1","1","3","1","","0","1","0","1255.9999999998836","","","<img src = 'targets/mask.png' width = '100%;'>","75","pos","GS","GSold","2","category2/CS4.png","targets/41.png","1","indirect","46",""
"","html-keyboard-response","279","560142","0.0-10.0-0.23","lkssm3m63f","many_one","0","indirect_first","0","rd07an16","0","19","1","1","3","1","","0","1","0","null","","","<div style=""font-size:60px;"">+</div>","null","","","","","","","","","",""
"","html-keyboard-response","280","560234","0.0-10.0-1.23","lkssm3m63f","many_one","0","indirect_first","0","rd07an16","0","19","1","1","3","1","","0","1","0","null","","","<img src = 'category2/GS1.png' width = '100%;'>","null","","","","","","","","","",""
"","html-keyboard-response","281","560487","0.0-10.0-2.23","lkssm3m63f","many_one","0","indirect_first","0","rd07an16","0","19","1","1","3","1","","0","1","0","null","","","<img src = 'targets/4.png' width = '100%;'>","null","","","","","","","","","",""
"","html-keyboard-response","282","561245","0.0-10.0-3.23","lkssm3m63f","many_one","0","indirect_first","0","rd07an16","0","19","1","1","3","1","","0","1","0","757","","","<img src = 'targets/mask.png' width = '100%;'>","68","pos","GS","GSnew","2","category2/GS1.png","targets/4.png","0","indirect","47",""
"","survey-html-form","283","572837","0.0-11.0","lkssm3m63f","many_one","0","indirect_first","0","rd07an16","0","19","1","1","3","1","","0","1","0","11090","","{}","","","","","","","","","","","",""
"","image-slider-response","284","580976","0.0-12.0-0.0","lkssm3m63f","many_one","0","indirect_first","0","rd07an16","0","19","1","1","3","1","","0","1","0","6134","","","","","pos","GS","GSold","1","category1/CS8.png","targets/48.png","","direct","","-69"
"","image-slider-response","285","584321","0.0-12.0-0.1","lkssm3m63f","many_one","0","indirect_first","0","rd07an16","0","19","1","1","3","1","","0","1","0","3342","","","","","pos","CS","CS","2","category2/CS5.png","targets/19.png","","direct","","33"
"","image-slider-response","286","587626","0.0-12.0-0.2","lkssm3m63f","many_one","0","indirect_first","0","rd07an16","0","19","1","1","3","1","","0","1","0","3304","","","","","pos","GS","GSnew","1","category1/GS1.png","targets/7.png","","direct","","29"
"","image-slider-response","287","592726","0.0-12.0-0.3","lkssm3m63f","many_one","0","indirect_first","0","rd07an16","0","19","1","1","3","1","","0","1","0","5098","","","","","neg","GS","GSnew","4","category4/GS2.png","targets/9.png","","direct","","-59"
"","image-slider-response","288","596544","0.0-12.0-0.4","lkssm3m63f","many_one","0","indirect_first","0","rd07an16","0","19","1","1","3","1","","0","1","0","3817","","","","","pos","CS","CS","2","category2/CS2.png","targets/32.png","","direct","","81"
"","image-slider-response","289","604143","0.0-12.0-0.5","lkssm3m63f","many_one","0","indirect_first","0","rd07an16","0","19","1","1","3","1","","0","1","0","7597","","","","","pos","CS","CS","1","category1/CS1.png","targets/25.png","","direct","","-51"
"","image-slider-response","290","608097","0.0-12.0-0.6","lkssm3m63f","many_one","0","indirect_first","0","rd07an16","0","19","1","1","3","1","","0","1","0","3952","","","","","neg","GS","GSold","3","category3/CS3.png","targets/38.png","","direct","","-70"
"","image-slider-response","291","612033","0.0-12.0-0.7","lkssm3m63f","many_one","0","indirect_first","0","rd07an16","0","19","1","1","3","1","","0","1","0","3934","","","","","neg","GS","GSnew","4","category4/GS1.png","targets/11.png","","direct","","-94"
"","image-slider-response","292","615320","0.0-12.0-0.8","lkssm3m63f","many_one","0","indirect_first","0","rd07an16","0","19","1","1","3","1","","0","1","0","3286","","","","","pos","GS","GSnew","2","category2/GS1.png","targets/4.png","","direct","","39"
"","image-slider-response","293","618420","0.0-12.0-0.9","lkssm3m63f","many_one","0","indirect_first","0","rd07an16","0","19","1","1","3","1","","0","1","0","3098","","","","","pos","GS","GSold","2","category2/CS6.png","targets/47.png","","direct","","44"
"","image-slider-response","294","621810","0.0-12.0-0.10","lkssm3m63f","many_one","0","indirect_first","0","rd07an16","0","19","1","1","3","1","","0","1","0","3389","","","","","pos","GS","GSold","2","category2/CS4.png","targets/41.png","","direct","","53"
"","image-slider-response","295","625348","0.0-12.0-0.11","lkssm3m63f","many_one","0","indirect_first","0","rd07an16","0","19","1","1","3","1","","0","1","0","3535","","","","","neg","GS","GSold","4","category4/CS9.png","targets/34.png","","direct","","95"
"","image-slider-response","296","628618","0.0-12.0-0.12","lkssm3m63f","many_one","0","indirect_first","0","rd07an16","0","19","1","1","3","1","","0","1","0","3269","","","","","neg","GS","GSold","3","category3/CS2.png","targets/36.png","","direct","","-60"
"","image-slider-response","297","632129","0.0-12.0-0.13","lkssm3m63f","many_one","0","indirect_first","0","rd07an16","0","19","1","1","3","1","","0","1","0","3508","","","","","pos","CS","CS","1","category1/CS10.png","targets/45.png","","direct","","75"
"","image-slider-response","298","637047","0.0-12.0-0.14","lkssm3m63f","many_one","0","indirect_first","0","rd07an16","0","19","1","1","3","1","","0","1","0","4917","","","","","neg","GS","abstract","3","category3/wang.png","targets/35.png","","direct","","-86"
"","image-slider-response","299","647113","0.0-12.0-0.15","lkssm3m63f","many_one","0","indirect_first","0","rd07an16","0","19","1","1","3","1","","0","1","0","10065","","","","","pos","GS","GSold","1","category1/CS2.png","targets/26.png","","direct","","-19"
"","image-slider-response","300","650599","0.0-12.0-0.16","lkssm3m63f","many_one","0","indirect_first","0","rd07an16","0","19","1","1","3","1","","0","1","0","3484","","","","","neg","GS","GSnew","3","category3/GS1.png","targets/37.png","","direct","","-99"
"","image-slider-response","301","654117","0.0-12.0-0.17","lkssm3m63f","many_one","0","indirect_first","0","rd07an16","0","19","1","1","3","1","","0","1","0","3516","","","","","neg","GS","abstract","4","category4/lin.png","targets/29.png","","direct","","45"
"","image-slider-response","302","657859","0.0-12.0-0.18","lkssm3m63f","many_one","0","indirect_first","0","rd07an16","0","19","1","1","3","1","","0","1","0","3741","","","","","pos","GS","abstract","1","category1/ma.png","targets/44.png","","direct","","27"
"","image-slider-response","303","661321","0.0-12.0-0.19","lkssm3m63f","many_one","0","indirect_first","0","rd07an16","0","19","1","1","3","1","","0","1","0","3461","","","","","neg","CS","CS","4","category4/CS2.png","targets/1.png","","direct","","80"
"","image-slider-response","304","663830","0.0-12.0-0.20","lkssm3m63f","many_one","0","indirect_first","0","rd07an16","0","19","1","1","3","1","","0","1","0","2507","","","","","neg","GS","GSnew","3","category3/GS3.png","targets/30.png","","direct","","-70"
"","image-slider-response","305","667572","0.0-12.0-0.21","lkssm3m63f","many_one","0","indirect_first","0","rd07an16","0","19","1","1","3","1","","0","1","0","3741","","","","","pos","GS","GSnew","2","category2/GS3.png","targets/16.png","","direct","","100"
"","image-slider-response","306","671343","0.0-12.0-0.22","lkssm3m63f","many_one","0","indirect_first","0","rd07an16","0","19","1","1","3","1","","0","1","0","3768.0000000001164","","","","","pos","CS","CS","1","category1/CS3.png","targets/24.png","","direct","","-22"
"","image-slider-response","307","674548","0.0-12.0-0.23","lkssm3m63f","many_one","0","indirect_first","0","rd07an16","0","19","1","1","3","1","","0","1","0","3204","","","","","neg","GS","GSnew","4","category4/GS3.png","targets/27.png","","direct","","-59"
"","image-slider-response","308","677935","0.0-12.0-0.24","lkssm3m63f","many_one","0","indirect_first","0","rd07an16","0","19","1","1","3","1","","0","1","0","3385","","","","","neg","CS","CS","4","category4/CS8.png","targets/31.png","","direct","","-34"
"","image-slider-response","309","681507","0.0-12.0-0.25","lkssm3m63f","many_one","0","indirect_first","0","rd07an16","0","19","1","1","3","1","","0","1","0","3570","","","","","neg","GS","GSold","4","category4/CS6.png","targets/2.png","","direct","","38"
"","image-slider-response","310","684747","0.0-12.0-0.26","lkssm3m63f","many_one","0","indirect_first","0","rd07an16","0","19","1","1","3","1","","0","1","0","3238","","","","","pos","GS","GSold","2","category2/CS9.png","targets/33.png","","direct","","-81"
"","image-slider-response","311","688125","0.0-12.0-0.27","lkssm3m63f","many_one","0","indirect_first","0","rd07an16","0","19","1","1","3","1","","0","1","0","3377","","","","","pos","GS","GSnew","2","category2/GS2.png","targets/8.png","","direct","","52"
"","image-slider-response","312","693308","0.0-12.0-0.28","lkssm3m63f","many_one","0","indirect_first","0","rd07an16","0","19","1","1","3","1","","0","1","0","5182","","","","","neg","CS","CS","3","category3/CS10.png","targets/22.png","","direct","","-44"
"","image-slider-response","313","696077","0.0-12.0-0.29","lkssm3m63f","many_one","0","indirect_first","0","rd07an16","0","19","1","1","3","1","","0","1","0","2766","","","","","pos","CS","CS","2","category2/CS10.png","targets/23.png","","direct","","74"
"","image-slider-response","314","698719","0.0-12.0-0.30","lkssm3m63f","many_one","0","indirect_first","0","rd07an16","0","19","1","1","3","1","","0","1","0","2640","","","","","pos","GS","GSnew","1","category1/GS2.png","targets/10.png","","direct","","66"
"","image-slider-response","315","701531","0.0-12.0-0.31","lkssm3m63f","many_one","0","indirect_first","0","rd07an16","0","19","1","1","3","1","","0","1","0","2810","","","","","pos","CS","CS","1","category1/CS9.png","targets/14.png","","direct","","62"
"","image-slider-response","316","704617","0.0-12.0-0.32","lkssm3m63f","many_one","0","indirect_first","0","rd07an16","0","19","1","1","3","1","","0","1","0","3085.0000000001164","","","","","neg","CS","CS","3","category3/CS8.png","targets/40.png","","direct","","-90"
"","image-slider-response","317","707864","0.0-12.0-0.33","lkssm3m63f","many_one","0","indirect_first","0","rd07an16","0","19","1","1","3","1","","0","1","0","3245","","","","","neg","CS","CS","3","category3/CS7.png","targets/39.png","","direct","","-52"
"","image-slider-response","318","712429","0.0-12.0-0.34","lkssm3m63f","many_one","0","indirect_first","0","rd07an16","0","19","1","1","3","1","","0","1","0","4563","","","","","neg","GS","GSnew","3","category3/GS2.png","targets/20.png","","direct","","-54"
"","image-slider-response","319","715363","0.0-12.0-0.35","lkssm3m63f","many_one","0","indirect_first","0","rd07an16","0","19","1","1","3","1","","0","1","0","2933","","","","","pos","CS","CS","2","category2/CS1.png","targets/46.png","","direct","","91"
"","image-slider-response","320","719170","0.0-12.0-0.36","lkssm3m63f","many_one","0","indirect_first","0","rd07an16","0","19","1","1","3","1","","0","1","0","3805","","","","","pos","CS","CS","1","category1/CS5.png","targets/28.png","","direct","","-19"
"","image-slider-response","321","721533","0.0-12.0-0.37","lkssm3m63f","many_one","0","indirect_first","0","rd07an16","0","19","1","1","3","1","","0","1","0","2361","","","","","pos","GS","GSnew","1","category1/GS3.png","targets/15.png","","direct","","45"
"","image-slider-response","322","724595","0.0-12.0-0.38","lkssm3m63f","many_one","0","indirect_first","0","rd07an16","0","19","1","1","3","1","","0","1","0","3058.9999999998836","","","","","neg","CS","CS","4","category4/CS1.png","targets/13.png","","direct","","56"
"","image-slider-response","323","728088","0.0-12.0-0.39","lkssm3m63f","many_one","0","indirect_first","0","rd07an16","0","19","1","1","3","1","","0","1","0","3491.0000000001164","","","","","neg","CS","CS","4","category4/CS5.png","targets/17.png","","direct","","29"
"","image-slider-response","324","730566","0.0-12.0-0.40","lkssm3m63f","many_one","0","indirect_first","0","rd07an16","0","19","1","1","3","1","","0","1","0","2476","","","","","neg","CS","CS","3","category3/CS6.png","targets/5.png","","direct","","-46"
"","image-slider-response","325","733854","0.0-12.0-0.41","lkssm3m63f","many_one","0","indirect_first","0","rd07an16","0","19","1","1","3","1","","0","1","0","3286","","","","","neg","GS","GSold","3","category3/CS5.png","targets/12.png","","direct","","-55"
"","image-slider-response","326","736502","0.0-12.0-0.42","lkssm3m63f","many_one","0","indirect_first","0","rd07an16","0","19","1","1","3","1","","0","1","0","2646","","","","","pos","CS","CS","2","category2/CS7.png","targets/3.png","","direct","","58"
"","image-slider-response","327","740859","0.0-12.0-0.43","lkssm3m63f","many_one","0","indirect_first","0","rd07an16","0","19","1","1","3","1","","0","1","0","4355","","","","","neg","CS","CS","3","category3/CS9.png","targets/42.png","","direct","","-38"
"","image-slider-response","328","747114","0.0-12.0-0.44","lkssm3m63f","many_one","0","indirect_first","0","rd07an16","0","19","1","1","3","1","","0","1","0","6253","","","","","pos","GS","GSold","1","category1/CS6.png","targets/21.png","","direct","","-6"
"","image-slider-response","329","749571","0.0-12.0-0.45","lkssm3m63f","many_one","0","indirect_first","0","rd07an16","0","19","1","1","3","1","","0","1","0","2456","","","","","neg","CS","CS","4","category4/CS3.png","targets/6.png","","direct","","29"
