"success","trial_type","trial_index","time_elapsed","internal_node_id","subject","condition","condition_code","measure","measure_code","codeword","gender","age","education","chinese","fach","handedness","comment","hinschauen","ablenkung","gewissenhaft","rt","url","responses","stimulus","key_press","val","type","type_specific","category","cs_selected","target","indirect","task","nr_pres","response"
"true","fullscreen","0","2727","0.0-0.0","2mqu8k2r76","many_one","0","indirect_first","0","ns04en29","1","26","1","1","3","2","","0","1","0","","","","","","","","","","","","","","",""
"","external-html","1","26382","0.0-1.0","2mqu8k2r76","many_one","0","indirect_first","0","ns04en29","1","26","1","1","3","2","","0","1","0","23612","text/information.html","","","","","","","","","","","","",""
"","external-html","2","41210","0.0-2.0","2mqu8k2r76","many_one","0","indirect_first","0","ns04en29","1","26","1","1","3","2","","0","1","0","14748","text/consent.html","","","","","","","","","","","","",""
"","survey-html-form","3","84304","0.0-3.0","2mqu8k2r76","many_one","0","indirect_first","0","ns04en29","1","26","1","1","3","2","","0","1","0","43091","","{""codeword_enter"":""ns04en29""}","","","","","","","","","","","",""
"","survey-html-form","4","105370","0.0-4.0","2mqu8k2r76","many_one","0","indirect_first","0","ns04en29","1","26","1","1","3","2","","0","1","0","21063","","{""age"":""26"",""education"":""1"",""subject"":""3"",""gender"":""1"",""handedness"":""2"",""chinese"":""1""}","","","","","","","","","","","",""
"","survey-html-form","5","115305","0.0-5.0","2mqu8k2r76","many_one","0","indirect_first","0","ns04en29","1","26","1","1","3","2","","0","1","0","9933","","{}","","","","","","","","","","","",""
"","html-keyboard-response","6","119325","0.0-6.0-0.0-0.0","2mqu8k2r76","many_one","0","indirect_first","0","ns04en29","1","26","1","1","3","2","","0","1","0","null","","","<div class = 'row'><div class = 'column'><img src = 'usneg/9000.bmp' width = '100%;'></div><div class = 'column'><img src = 'category3/CS1.png' width = '70%;'></div></div>","null","neg","CS","CS","3","category3/CS1.png","","","","",""
"","html-keyboard-response","7","121841","0.0-6.0-0.0-0.1","2mqu8k2r76","many_one","0","indirect_first","0","ns04en29","1","26","1","1","3","2","","0","1","0","null","","","<div class = 'row'><div class = 'column'><img src = 'uspos/2150.bmp' width = '100%;'></div><div class = 'column'><img src = 'category2/CS5.png' width = '70%;'></div></div>","null","pos","CS","CS","2","category2/CS5.png","","","","",""
"","html-keyboard-response","8","124358","0.0-6.0-0.0-0.2","2mqu8k2r76","many_one","0","indirect_first","0","ns04en29","1","26","1","1","3","2","","0","1","0","null","","","<div class = 'row'><div class = 'column'><img src = 'category2/CS7.png' width = '70%;'></div><div class = 'column'><img src = 'uspos/5600.bmp' width = '100%;'></div></div>","null","pos","CS","CS","2","category2/CS7.png","","","","",""
"","html-keyboard-response","9","126882","0.0-6.0-0.0-0.3","2mqu8k2r76","many_one","0","indirect_first","0","ns04en29","1","26","1","1","3","2","","0","1","0","null","","","<div class = 'row'><div class = 'column'><img src = 'uspos/5470.bmp' width = '100%;'></div><div class = 'column'><img src = 'category2/CS4.png' width = '70%;'></div></div>","null","pos","CS","CS","2","category2/CS4.png","","","","",""
"","html-keyboard-response","10","129401","0.0-6.0-0.0-0.4","2mqu8k2r76","many_one","0","indirect_first","0","ns04en29","1","26","1","1","3","2","","0","1","0","null","","","<div class = 'row'><div class = 'column'><img src = 'usneg/9830.bmp' width = '100%;'></div><div class = 'column'><img src = 'category3/CS5.png' width = '70%;'></div></div>","null","neg","CS","CS","3","category3/CS5.png","","","","",""
"","html-keyboard-response","11","131923","0.0-6.0-0.0-0.5","2mqu8k2r76","many_one","0","indirect_first","0","ns04en29","1","26","1","1","3","2","","0","1","0","null","","","<div class = 'row'><div class = 'column'><img src = 'usneg/9342.bmp' width = '100%;'></div><div class = 'column'><img src = 'category4/CS6.png' width = '70%;'></div></div>","null","neg","CS","CS","4","category4/CS6.png","","","","",""
"","html-keyboard-response","12","134454","0.0-6.0-0.0-0.6","2mqu8k2r76","many_one","0","indirect_first","0","ns04en29","1","26","1","1","3","2","","0","1","0","null","","","<div class = 'row'><div class = 'column'><img src = 'uspos/8190.bmp' width = '100%;'></div><div class = 'column'><img src = 'category1/CS2.png' width = '70%;'></div></div>","null","pos","CS","CS","1","category1/CS2.png","","","","",""
"","html-keyboard-response","13","136973","0.0-6.0-0.0-0.7","2mqu8k2r76","many_one","0","indirect_first","0","ns04en29","1","26","1","1","3","2","","0","1","0","null","","","<div class = 'row'><div class = 'column'><img src = 'category4/CS4.png' width = '70%;'></div><div class = 'column'><img src = 'usneg/3181.bmp' width = '100%;'></div></div>","null","neg","CS","CS","4","category4/CS4.png","","","","",""
"","html-keyboard-response","14","139488","0.0-6.0-0.0-0.8","2mqu8k2r76","many_one","0","indirect_first","0","ns04en29","1","26","1","1","3","2","","0","1","0","null","","","<div class = 'row'><div class = 'column'><img src = 'category3/CS10.png' width = '70%;'></div><div class = 'column'><img src = 'usneg/9520.bmp' width = '100%;'></div></div>","null","neg","CS","CS","3","category3/CS10.png","","","","",""
"","html-keyboard-response","15","142005","0.0-6.0-0.0-0.9","2mqu8k2r76","many_one","0","indirect_first","0","ns04en29","1","26","1","1","3","2","","0","1","0","null","","","<div class = 'row'><div class = 'column'><img src = 'category3/CS3.png' width = '70%;'></div><div class = 'column'><img src = 'usneg/9330.bmp' width = '100%;'></div></div>","null","neg","CS","CS","3","category3/CS3.png","","","","",""
"","html-keyboard-response","16","144524","0.0-6.0-0.0-0.10","2mqu8k2r76","many_one","0","indirect_first","0","ns04en29","1","26","1","1","3","2","","0","1","0","null","","","<div class = 'row'><div class = 'column'><img src = 'usneg/2750.bmp' width = '100%;'></div><div class = 'column'><img src = 'category3/CS9.png' width = '70%;'></div></div>","null","neg","CS","CS","3","category3/CS9.png","","","","",""
"","html-keyboard-response","17","147040","0.0-6.0-0.0-0.11","2mqu8k2r76","many_one","0","indirect_first","0","ns04en29","1","26","1","1","3","2","","0","1","0","null","","","<div class = 'row'><div class = 'column'><img src = 'category1/CS6.png' width = '70%;'></div><div class = 'column'><img src = 'uspos/2057.bmp' width = '100%;'></div></div>","null","pos","CS","CS","1","category1/CS6.png","","","","",""
"","html-keyboard-response","18","149556","0.0-6.0-0.0-0.12","2mqu8k2r76","many_one","0","indirect_first","0","ns04en29","1","26","1","1","3","2","","0","1","0","null","","","<div class = 'row'><div class = 'column'><img src = 'usneg/9180.bmp' width = '100%;'></div><div class = 'column'><img src = 'category4/CS1.png' width = '70%;'></div></div>","null","neg","CS","CS","4","category4/CS1.png","","","","",""
"","html-keyboard-response","19","152072","0.0-6.0-0.0-0.13","2mqu8k2r76","many_one","0","indirect_first","0","ns04en29","1","26","1","1","3","2","","0","1","0","null","","","<div class = 'row'><div class = 'column'><img src = 'category2/CS10.png' width = '70%;'></div><div class = 'column'><img src = 'uspos/8490.bmp' width = '100%;'></div></div>","null","pos","CS","CS","2","category2/CS10.png","","","","",""
"","html-keyboard-response","20","154587","0.0-6.0-0.0-0.14","2mqu8k2r76","many_one","0","indirect_first","0","ns04en29","1","26","1","1","3","2","","0","1","0","null","","","<div class = 'row'><div class = 'column'><img src = 'usneg/9421.bmp' width = '100%;'></div><div class = 'column'><img src = 'category4/CS3.png' width = '70%;'></div></div>","null","neg","CS","CS","4","category4/CS3.png","","","","",""
"","html-keyboard-response","21","157107","0.0-6.0-0.0-0.15","2mqu8k2r76","many_one","0","indirect_first","0","ns04en29","1","26","1","1","3","2","","0","1","0","null","","","<div class = 'row'><div class = 'column'><img src = 'uspos/2030.bmp' width = '100%;'></div><div class = 'column'><img src = 'category1/CS10.png' width = '70%;'></div></div>","null","pos","CS","CS","1","category1/CS10.png","","","","",""
"","html-keyboard-response","22","159630","0.0-6.0-0.0-0.16","2mqu8k2r76","many_one","0","indirect_first","0","ns04en29","1","26","1","1","3","2","","0","1","0","null","","","<div class = 'row'><div class = 'column'><img src = 'category4/CS5.png' width = '70%;'></div><div class = 'column'><img src = 'usneg/9290.bmp' width = '100%;'></div></div>","null","neg","CS","CS","4","category4/CS5.png","","","","",""
"","html-keyboard-response","23","162155","0.0-6.0-0.0-0.17","2mqu8k2r76","many_one","0","indirect_first","0","ns04en29","1","26","1","1","3","2","","0","1","0","null","","","<div class = 'row'><div class = 'column'><img src = 'category1/CS3.png' width = '70%;'></div><div class = 'column'><img src = 'uspos/2208.bmp' width = '100%;'></div></div>","null","pos","CS","CS","1","category1/CS3.png","","","","",""
"","html-keyboard-response","24","164667","0.0-6.0-0.0-0.18","2mqu8k2r76","many_one","0","indirect_first","0","ns04en29","1","26","1","1","3","2","","0","1","0","null","","","<div class = 'row'><div class = 'column'><img src = 'category2/CS8.png' width = '70%;'></div><div class = 'column'><img src = 'uspos/5760.bmp' width = '100%;'></div></div>","null","pos","CS","CS","2","category2/CS8.png","","","","",""
"","html-keyboard-response","25","167182","0.0-6.0-0.0-0.19","2mqu8k2r76","many_one","0","indirect_first","0","ns04en29","1","26","1","1","3","2","","0","1","0","null","","","<div class = 'row'><div class = 'column'><img src = 'category1/CS9.png' width = '70%;'></div><div class = 'column'><img src = 'uspos/4625.bmp' width = '100%;'></div></div>","null","pos","CS","CS","1","category1/CS9.png","","","","",""
"","survey-html-form","26","170148","0.0-6.0-1.0","2mqu8k2r76","many_one","0","indirect_first","0","ns04en29","1","26","1","1","3","2","","0","1","0","2453","","{}","","","","","","","","","","","",""
"","html-keyboard-response","27","174163","0.0-6.0-2.0-0.0","2mqu8k2r76","many_one","0","indirect_first","0","ns04en29","1","26","1","1","3","2","","0","1","0","null","","","<div class = 'row'><div class = 'column'><img src = 'usneg/9290.bmp' width = '100%;'></div><div class = 'column'><img src = 'category4/CS5.png' width = '70%;'></div></div>","null","neg","CS","CS","4","category4/CS5.png","","","","",""
"","html-keyboard-response","28","176680","0.0-6.0-2.0-0.1","2mqu8k2r76","many_one","0","indirect_first","0","ns04en29","1","26","1","1","3","2","","0","1","0","null","","","<div class = 'row'><div class = 'column'><img src = 'category3/CS1.png' width = '70%;'></div><div class = 'column'><img src = 'usneg/9000.bmp' width = '100%;'></div></div>","null","neg","CS","CS","3","category3/CS1.png","","","","",""
"","html-keyboard-response","29","179210","0.0-6.0-2.0-0.2","2mqu8k2r76","many_one","0","indirect_first","0","ns04en29","1","26","1","1","3","2","","0","1","0","null","","","<div class = 'row'><div class = 'column'><img src = 'usneg/2750.bmp' width = '100%;'></div><div class = 'column'><img src = 'category3/CS9.png' width = '70%;'></div></div>","null","neg","CS","CS","3","category3/CS9.png","","","","",""
"","html-keyboard-response","30","181742","0.0-6.0-2.0-0.3","2mqu8k2r76","many_one","0","indirect_first","0","ns04en29","1","26","1","1","3","2","","0","1","0","null","","","<div class = 'row'><div class = 'column'><img src = 'usneg/9830.bmp' width = '100%;'></div><div class = 'column'><img src = 'category3/CS5.png' width = '70%;'></div></div>","null","neg","CS","CS","3","category3/CS5.png","","","","",""
"","html-keyboard-response","31","184257","0.0-6.0-2.0-0.4","2mqu8k2r76","many_one","0","indirect_first","0","ns04en29","1","26","1","1","3","2","","0","1","0","null","","","<div class = 'row'><div class = 'column'><img src = 'category2/CS4.png' width = '70%;'></div><div class = 'column'><img src = 'uspos/5470.bmp' width = '100%;'></div></div>","null","pos","CS","CS","2","category2/CS4.png","","","","",""
"","html-keyboard-response","32","186772","0.0-6.0-2.0-0.5","2mqu8k2r76","many_one","0","indirect_first","0","ns04en29","1","26","1","1","3","2","","0","1","0","null","","","<div class = 'row'><div class = 'column'><img src = 'usneg/9180.bmp' width = '100%;'></div><div class = 'column'><img src = 'category4/CS1.png' width = '70%;'></div></div>","null","neg","CS","CS","4","category4/CS1.png","","","","",""
"","html-keyboard-response","33","189287","0.0-6.0-2.0-0.6","2mqu8k2r76","many_one","0","indirect_first","0","ns04en29","1","26","1","1","3","2","","0","1","0","null","","","<div class = 'row'><div class = 'column'><img src = 'category3/CS3.png' width = '70%;'></div><div class = 'column'><img src = 'usneg/9330.bmp' width = '100%;'></div></div>","null","neg","CS","CS","3","category3/CS3.png","","","","",""
"","html-keyboard-response","34","191809","0.0-6.0-2.0-0.7","2mqu8k2r76","many_one","0","indirect_first","0","ns04en29","1","26","1","1","3","2","","0","1","0","null","","","<div class = 'row'><div class = 'column'><img src = 'category4/CS3.png' width = '70%;'></div><div class = 'column'><img src = 'usneg/9421.bmp' width = '100%;'></div></div>","null","neg","CS","CS","4","category4/CS3.png","","","","",""
"","html-keyboard-response","35","194329","0.0-6.0-2.0-0.8","2mqu8k2r76","many_one","0","indirect_first","0","ns04en29","1","26","1","1","3","2","","0","1","0","null","","","<div class = 'row'><div class = 'column'><img src = 'category4/CS6.png' width = '70%;'></div><div class = 'column'><img src = 'usneg/9342.bmp' width = '100%;'></div></div>","null","neg","CS","CS","4","category4/CS6.png","","","","",""
"","html-keyboard-response","36","196848","0.0-6.0-2.0-0.9","2mqu8k2r76","many_one","0","indirect_first","0","ns04en29","1","26","1","1","3","2","","0","1","0","null","","","<div class = 'row'><div class = 'column'><img src = 'category1/CS10.png' width = '70%;'></div><div class = 'column'><img src = 'uspos/2030.bmp' width = '100%;'></div></div>","null","pos","CS","CS","1","category1/CS10.png","","","","",""
"","html-keyboard-response","37","199373","0.0-6.0-2.0-0.10","2mqu8k2r76","many_one","0","indirect_first","0","ns04en29","1","26","1","1","3","2","","0","1","0","null","","","<div class = 'row'><div class = 'column'><img src = 'uspos/2208.bmp' width = '100%;'></div><div class = 'column'><img src = 'category1/CS3.png' width = '70%;'></div></div>","null","pos","CS","CS","1","category1/CS3.png","","","","",""
"","html-keyboard-response","38","201891","0.0-6.0-2.0-0.11","2mqu8k2r76","many_one","0","indirect_first","0","ns04en29","1","26","1","1","3","2","","0","1","0","null","","","<div class = 'row'><div class = 'column'><img src = 'uspos/5600.bmp' width = '100%;'></div><div class = 'column'><img src = 'category2/CS7.png' width = '70%;'></div></div>","null","pos","CS","CS","2","category2/CS7.png","","","","",""
"","html-keyboard-response","39","204409","0.0-6.0-2.0-0.12","2mqu8k2r76","many_one","0","indirect_first","0","ns04en29","1","26","1","1","3","2","","0","1","0","null","","","<div class = 'row'><div class = 'column'><img src = 'uspos/2150.bmp' width = '100%;'></div><div class = 'column'><img src = 'category2/CS5.png' width = '70%;'></div></div>","null","pos","CS","CS","2","category2/CS5.png","","","","",""
"","html-keyboard-response","40","206932","0.0-6.0-2.0-0.13","2mqu8k2r76","many_one","0","indirect_first","0","ns04en29","1","26","1","1","3","2","","0","1","0","null","","","<div class = 'row'><div class = 'column'><img src = 'category4/CS4.png' width = '70%;'></div><div class = 'column'><img src = 'usneg/3181.bmp' width = '100%;'></div></div>","null","neg","CS","CS","4","category4/CS4.png","","","","",""
"","html-keyboard-response","41","209451","0.0-6.0-2.0-0.14","2mqu8k2r76","many_one","0","indirect_first","0","ns04en29","1","26","1","1","3","2","","0","1","0","null","","","<div class = 'row'><div class = 'column'><img src = 'uspos/2057.bmp' width = '100%;'></div><div class = 'column'><img src = 'category1/CS6.png' width = '70%;'></div></div>","null","pos","CS","CS","1","category1/CS6.png","","","","",""
"","html-keyboard-response","42","211972","0.0-6.0-2.0-0.15","2mqu8k2r76","many_one","0","indirect_first","0","ns04en29","1","26","1","1","3","2","","0","1","0","null","","","<div class = 'row'><div class = 'column'><img src = 'category2/CS10.png' width = '70%;'></div><div class = 'column'><img src = 'uspos/8490.bmp' width = '100%;'></div></div>","null","pos","CS","CS","2","category2/CS10.png","","","","",""
"","html-keyboard-response","43","214491","0.0-6.0-2.0-0.16","2mqu8k2r76","many_one","0","indirect_first","0","ns04en29","1","26","1","1","3","2","","0","1","0","null","","","<div class = 'row'><div class = 'column'><img src = 'category2/CS8.png' width = '70%;'></div><div class = 'column'><img src = 'uspos/5760.bmp' width = '100%;'></div></div>","null","pos","CS","CS","2","category2/CS8.png","","","","",""
"","html-keyboard-response","44","217012","0.0-6.0-2.0-0.17","2mqu8k2r76","many_one","0","indirect_first","0","ns04en29","1","26","1","1","3","2","","0","1","0","null","","","<div class = 'row'><div class = 'column'><img src = 'uspos/4625.bmp' width = '100%;'></div><div class = 'column'><img src = 'category1/CS9.png' width = '70%;'></div></div>","null","pos","CS","CS","1","category1/CS9.png","","","","",""
"","html-keyboard-response","45","219530","0.0-6.0-2.0-0.18","2mqu8k2r76","many_one","0","indirect_first","0","ns04en29","1","26","1","1","3","2","","0","1","0","null","","","<div class = 'row'><div class = 'column'><img src = 'uspos/8190.bmp' width = '100%;'></div><div class = 'column'><img src = 'category1/CS2.png' width = '70%;'></div></div>","null","pos","CS","CS","1","category1/CS2.png","","","","",""
"","html-keyboard-response","46","222049","0.0-6.0-2.0-0.19","2mqu8k2r76","many_one","0","indirect_first","0","ns04en29","1","26","1","1","3","2","","0","1","0","null","","","<div class = 'row'><div class = 'column'><img src = 'category3/CS10.png' width = '70%;'></div><div class = 'column'><img src = 'usneg/9520.bmp' width = '100%;'></div></div>","null","neg","CS","CS","3","category3/CS10.png","","","","",""
"","survey-html-form","47","231314","0.0-6.0-3.0","2mqu8k2r76","many_one","0","indirect_first","0","ns04en29","1","26","1","1","3","2","","0","1","0","8755","","{}","","","","","","","","","","","",""
"","html-keyboard-response","48","235331","0.0-6.0-4.0-0.0","2mqu8k2r76","many_one","0","indirect_first","0","ns04en29","1","26","1","1","3","2","","0","1","0","null","","","<div class = 'row'><div class = 'column'><img src = 'category1/CS3.png' width = '70%;'></div><div class = 'column'><img src = 'uspos/2208.bmp' width = '100%;'></div></div>","null","pos","CS","CS","1","category1/CS3.png","","","","",""
"","html-keyboard-response","49","237859","0.0-6.0-4.0-0.1","2mqu8k2r76","many_one","0","indirect_first","0","ns04en29","1","26","1","1","3","2","","0","1","0","null","","","<div class = 'row'><div class = 'column'><img src = 'usneg/9330.bmp' width = '100%;'></div><div class = 'column'><img src = 'category3/CS3.png' width = '70%;'></div></div>","null","neg","CS","CS","3","category3/CS3.png","","","","",""
"","html-keyboard-response","50","240388","0.0-6.0-4.0-0.2","2mqu8k2r76","many_one","0","indirect_first","0","ns04en29","1","26","1","1","3","2","","0","1","0","null","","","<div class = 'row'><div class = 'column'><img src = 'usneg/9180.bmp' width = '100%;'></div><div class = 'column'><img src = 'category4/CS1.png' width = '70%;'></div></div>","null","neg","CS","CS","4","category4/CS1.png","","","","",""
"","html-keyboard-response","51","242910","0.0-6.0-4.0-0.3","2mqu8k2r76","many_one","0","indirect_first","0","ns04en29","1","26","1","1","3","2","","0","1","0","null","","","<div class = 'row'><div class = 'column'><img src = 'uspos/2030.bmp' width = '100%;'></div><div class = 'column'><img src = 'category1/CS10.png' width = '70%;'></div></div>","null","pos","CS","CS","1","category1/CS10.png","","","","",""
"","html-keyboard-response","52","245428","0.0-6.0-4.0-0.4","2mqu8k2r76","many_one","0","indirect_first","0","ns04en29","1","26","1","1","3","2","","0","1","0","null","","","<div class = 'row'><div class = 'column'><img src = 'category2/CS7.png' width = '70%;'></div><div class = 'column'><img src = 'uspos/5600.bmp' width = '100%;'></div></div>","null","pos","CS","CS","2","category2/CS7.png","","","","",""
"","html-keyboard-response","53","247944","0.0-6.0-4.0-0.5","2mqu8k2r76","many_one","0","indirect_first","0","ns04en29","1","26","1","1","3","2","","0","1","0","null","","","<div class = 'row'><div class = 'column'><img src = 'uspos/2057.bmp' width = '100%;'></div><div class = 'column'><img src = 'category1/CS6.png' width = '70%;'></div></div>","null","pos","CS","CS","1","category1/CS6.png","","","","",""
"","html-keyboard-response","54","250467","0.0-6.0-4.0-0.6","2mqu8k2r76","many_one","0","indirect_first","0","ns04en29","1","26","1","1","3","2","","0","1","0","null","","","<div class = 'row'><div class = 'column'><img src = 'category4/CS3.png' width = '70%;'></div><div class = 'column'><img src = 'usneg/9421.bmp' width = '100%;'></div></div>","null","neg","CS","CS","4","category4/CS3.png","","","","",""
"","html-keyboard-response","55","252988","0.0-6.0-4.0-0.7","2mqu8k2r76","many_one","0","indirect_first","0","ns04en29","1","26","1","1","3","2","","0","1","0","null","","","<div class = 'row'><div class = 'column'><img src = 'uspos/8490.bmp' width = '100%;'></div><div class = 'column'><img src = 'category2/CS10.png' width = '70%;'></div></div>","null","pos","CS","CS","2","category2/CS10.png","","","","",""
"","html-keyboard-response","56","255511","0.0-6.0-4.0-0.8","2mqu8k2r76","many_one","0","indirect_first","0","ns04en29","1","26","1","1","3","2","","0","1","0","null","","","<div class = 'row'><div class = 'column'><img src = 'category2/CS4.png' width = '70%;'></div><div class = 'column'><img src = 'uspos/5470.bmp' width = '100%;'></div></div>","null","pos","CS","CS","2","category2/CS4.png","","","","",""
"","html-keyboard-response","57","258027","0.0-6.0-4.0-0.9","2mqu8k2r76","many_one","0","indirect_first","0","ns04en29","1","26","1","1","3","2","","0","1","0","null","","","<div class = 'row'><div class = 'column'><img src = 'category3/CS1.png' width = '70%;'></div><div class = 'column'><img src = 'usneg/9000.bmp' width = '100%;'></div></div>","null","neg","CS","CS","3","category3/CS1.png","","","","",""
"","html-keyboard-response","58","260547","0.0-6.0-4.0-0.10","2mqu8k2r76","many_one","0","indirect_first","0","ns04en29","1","26","1","1","3","2","","0","1","0","null","","","<div class = 'row'><div class = 'column'><img src = 'category4/CS6.png' width = '70%;'></div><div class = 'column'><img src = 'usneg/9342.bmp' width = '100%;'></div></div>","null","neg","CS","CS","4","category4/CS6.png","","","","",""
"","html-keyboard-response","59","263063","0.0-6.0-4.0-0.11","2mqu8k2r76","many_one","0","indirect_first","0","ns04en29","1","26","1","1","3","2","","0","1","0","null","","","<div class = 'row'><div class = 'column'><img src = 'uspos/4625.bmp' width = '100%;'></div><div class = 'column'><img src = 'category1/CS9.png' width = '70%;'></div></div>","null","pos","CS","CS","1","category1/CS9.png","","","","",""
"","html-keyboard-response","60","265583","0.0-6.0-4.0-0.12","2mqu8k2r76","many_one","0","indirect_first","0","ns04en29","1","26","1","1","3","2","","0","1","0","null","","","<div class = 'row'><div class = 'column'><img src = 'category4/CS5.png' width = '70%;'></div><div class = 'column'><img src = 'usneg/9290.bmp' width = '100%;'></div></div>","null","neg","CS","CS","4","category4/CS5.png","","","","",""
"","html-keyboard-response","61","268102","0.0-6.0-4.0-0.13","2mqu8k2r76","many_one","0","indirect_first","0","ns04en29","1","26","1","1","3","2","","0","1","0","null","","","<div class = 'row'><div class = 'column'><img src = 'usneg/9830.bmp' width = '100%;'></div><div class = 'column'><img src = 'category3/CS5.png' width = '70%;'></div></div>","null","neg","CS","CS","3","category3/CS5.png","","","","",""
"","html-keyboard-response","62","270619","0.0-6.0-4.0-0.14","2mqu8k2r76","many_one","0","indirect_first","0","ns04en29","1","26","1","1","3","2","","0","1","0","null","","","<div class = 'row'><div class = 'column'><img src = 'uspos/5760.bmp' width = '100%;'></div><div class = 'column'><img src = 'category2/CS8.png' width = '70%;'></div></div>","null","pos","CS","CS","2","category2/CS8.png","","","","",""
"","html-keyboard-response","63","273135","0.0-6.0-4.0-0.15","2mqu8k2r76","many_one","0","indirect_first","0","ns04en29","1","26","1","1","3","2","","0","1","0","null","","","<div class = 'row'><div class = 'column'><img src = 'category3/CS10.png' width = '70%;'></div><div class = 'column'><img src = 'usneg/9520.bmp' width = '100%;'></div></div>","null","neg","CS","CS","3","category3/CS10.png","","","","",""
"","html-keyboard-response","64","275652","0.0-6.0-4.0-0.16","2mqu8k2r76","many_one","0","indirect_first","0","ns04en29","1","26","1","1","3","2","","0","1","0","null","","","<div class = 'row'><div class = 'column'><img src = 'category2/CS5.png' width = '70%;'></div><div class = 'column'><img src = 'uspos/2150.bmp' width = '100%;'></div></div>","null","pos","CS","CS","2","category2/CS5.png","","","","",""
"","html-keyboard-response","65","278167","0.0-6.0-4.0-0.17","2mqu8k2r76","many_one","0","indirect_first","0","ns04en29","1","26","1","1","3","2","","0","1","0","null","","","<div class = 'row'><div class = 'column'><img src = 'usneg/3181.bmp' width = '100%;'></div><div class = 'column'><img src = 'category4/CS4.png' width = '70%;'></div></div>","null","neg","CS","CS","4","category4/CS4.png","","","","",""
"","html-keyboard-response","66","280675","0.0-6.0-4.0-0.18","2mqu8k2r76","many_one","0","indirect_first","0","ns04en29","1","26","1","1","3","2","","0","1","0","null","","","<div class = 'row'><div class = 'column'><img src = 'usneg/2750.bmp' width = '100%;'></div><div class = 'column'><img src = 'category3/CS9.png' width = '70%;'></div></div>","null","neg","CS","CS","3","category3/CS9.png","","","","",""
"","html-keyboard-response","67","283192","0.0-6.0-4.0-0.19","2mqu8k2r76","many_one","0","indirect_first","0","ns04en29","1","26","1","1","3","2","","0","1","0","null","","","<div class = 'row'><div class = 'column'><img src = 'category1/CS2.png' width = '70%;'></div><div class = 'column'><img src = 'uspos/8190.bmp' width = '100%;'></div></div>","null","pos","CS","CS","1","category1/CS2.png","","","","",""
"","survey-html-form","68","289854","0.0-6.0-5.0","2mqu8k2r76","many_one","0","indirect_first","0","ns04en29","1","26","1","1","3","2","","0","1","0","6146","","{}","","","","","","","","","","","",""
"","html-keyboard-response","69","293860","0.0-6.0-6.0-0.0","2mqu8k2r76","many_one","0","indirect_first","0","ns04en29","1","26","1","1","3","2","","0","1","0","null","","","<div class = 'row'><div class = 'column'><img src = 'category3/CS10.png' width = '70%;'></div><div class = 'column'><img src = 'usneg/9520.bmp' width = '100%;'></div></div>","null","neg","CS","CS","3","category3/CS10.png","","","","",""
"","html-keyboard-response","70","296376","0.0-6.0-6.0-0.1","2mqu8k2r76","many_one","0","indirect_first","0","ns04en29","1","26","1","1","3","2","","0","1","0","null","","","<div class = 'row'><div class = 'column'><img src = 'usneg/9342.bmp' width = '100%;'></div><div class = 'column'><img src = 'category4/CS6.png' width = '70%;'></div></div>","null","neg","CS","CS","4","category4/CS6.png","","","","",""
"","html-keyboard-response","71","298899","0.0-6.0-6.0-0.2","2mqu8k2r76","many_one","0","indirect_first","0","ns04en29","1","26","1","1","3","2","","0","1","0","null","","","<div class = 'row'><div class = 'column'><img src = 'usneg/9290.bmp' width = '100%;'></div><div class = 'column'><img src = 'category4/CS5.png' width = '70%;'></div></div>","null","neg","CS","CS","4","category4/CS5.png","","","","",""
"","html-keyboard-response","72","301410","0.0-6.0-6.0-0.3","2mqu8k2r76","many_one","0","indirect_first","0","ns04en29","1","26","1","1","3","2","","0","1","0","null","","","<div class = 'row'><div class = 'column'><img src = 'category4/CS3.png' width = '70%;'></div><div class = 'column'><img src = 'usneg/9421.bmp' width = '100%;'></div></div>","null","neg","CS","CS","4","category4/CS3.png","","","","",""
"","html-keyboard-response","73","303927","0.0-6.0-6.0-0.4","2mqu8k2r76","many_one","0","indirect_first","0","ns04en29","1","26","1","1","3","2","","0","1","0","null","","","<div class = 'row'><div class = 'column'><img src = 'category4/CS1.png' width = '70%;'></div><div class = 'column'><img src = 'usneg/9180.bmp' width = '100%;'></div></div>","null","neg","CS","CS","4","category4/CS1.png","","","","",""
"","html-keyboard-response","74","306445","0.0-6.0-6.0-0.5","2mqu8k2r76","many_one","0","indirect_first","0","ns04en29","1","26","1","1","3","2","","0","1","0","null","","","<div class = 'row'><div class = 'column'><img src = 'uspos/8490.bmp' width = '100%;'></div><div class = 'column'><img src = 'category2/CS10.png' width = '70%;'></div></div>","null","pos","CS","CS","2","category2/CS10.png","","","","",""
"","html-keyboard-response","75","308964","0.0-6.0-6.0-0.6","2mqu8k2r76","many_one","0","indirect_first","0","ns04en29","1","26","1","1","3","2","","0","1","0","null","","","<div class = 'row'><div class = 'column'><img src = 'usneg/9830.bmp' width = '100%;'></div><div class = 'column'><img src = 'category3/CS5.png' width = '70%;'></div></div>","null","neg","CS","CS","3","category3/CS5.png","","","","",""
"","html-keyboard-response","76","311481","0.0-6.0-6.0-0.7","2mqu8k2r76","many_one","0","indirect_first","0","ns04en29","1","26","1","1","3","2","","0","1","0","null","","","<div class = 'row'><div class = 'column'><img src = 'category2/CS4.png' width = '70%;'></div><div class = 'column'><img src = 'uspos/5470.bmp' width = '100%;'></div></div>","null","pos","CS","CS","2","category2/CS4.png","","","","",""
"","html-keyboard-response","77","314000","0.0-6.0-6.0-0.8","2mqu8k2r76","many_one","0","indirect_first","0","ns04en29","1","26","1","1","3","2","","0","1","0","null","","","<div class = 'row'><div class = 'column'><img src = 'uspos/2030.bmp' width = '100%;'></div><div class = 'column'><img src = 'category1/CS10.png' width = '70%;'></div></div>","null","pos","CS","CS","1","category1/CS10.png","","","","",""
"","html-keyboard-response","78","316516","0.0-6.0-6.0-0.9","2mqu8k2r76","many_one","0","indirect_first","0","ns04en29","1","26","1","1","3","2","","0","1","0","null","","","<div class = 'row'><div class = 'column'><img src = 'uspos/5760.bmp' width = '100%;'></div><div class = 'column'><img src = 'category2/CS8.png' width = '70%;'></div></div>","null","pos","CS","CS","2","category2/CS8.png","","","","",""
"","html-keyboard-response","79","319037","0.0-6.0-6.0-0.10","2mqu8k2r76","many_one","0","indirect_first","0","ns04en29","1","26","1","1","3","2","","0","1","0","null","","","<div class = 'row'><div class = 'column'><img src = 'category4/CS4.png' width = '70%;'></div><div class = 'column'><img src = 'usneg/3181.bmp' width = '100%;'></div></div>","null","neg","CS","CS","4","category4/CS4.png","","","","",""
"","html-keyboard-response","80","321562","0.0-6.0-6.0-0.11","2mqu8k2r76","many_one","0","indirect_first","0","ns04en29","1","26","1","1","3","2","","0","1","0","null","","","<div class = 'row'><div class = 'column'><img src = 'category1/CS3.png' width = '70%;'></div><div class = 'column'><img src = 'uspos/2208.bmp' width = '100%;'></div></div>","null","pos","CS","CS","1","category1/CS3.png","","","","",""
"","html-keyboard-response","81","324087","0.0-6.0-6.0-0.12","2mqu8k2r76","many_one","0","indirect_first","0","ns04en29","1","26","1","1","3","2","","0","1","0","null","","","<div class = 'row'><div class = 'column'><img src = 'category1/CS6.png' width = '70%;'></div><div class = 'column'><img src = 'uspos/2057.bmp' width = '100%;'></div></div>","null","pos","CS","CS","1","category1/CS6.png","","","","",""
"","html-keyboard-response","82","326607","0.0-6.0-6.0-0.13","2mqu8k2r76","many_one","0","indirect_first","0","ns04en29","1","26","1","1","3","2","","0","1","0","null","","","<div class = 'row'><div class = 'column'><img src = 'uspos/5600.bmp' width = '100%;'></div><div class = 'column'><img src = 'category2/CS7.png' width = '70%;'></div></div>","null","pos","CS","CS","2","category2/CS7.png","","","","",""
"","html-keyboard-response","83","329130","0.0-6.0-6.0-0.14","2mqu8k2r76","many_one","0","indirect_first","0","ns04en29","1","26","1","1","3","2","","0","1","0","null","","","<div class = 'row'><div class = 'column'><img src = 'usneg/9330.bmp' width = '100%;'></div><div class = 'column'><img src = 'category3/CS3.png' width = '70%;'></div></div>","null","neg","CS","CS","3","category3/CS3.png","","","","",""
"","html-keyboard-response","84","331657","0.0-6.0-6.0-0.15","2mqu8k2r76","many_one","0","indirect_first","0","ns04en29","1","26","1","1","3","2","","0","1","0","null","","","<div class = 'row'><div class = 'column'><img src = 'uspos/8190.bmp' width = '100%;'></div><div class = 'column'><img src = 'category1/CS2.png' width = '70%;'></div></div>","null","pos","CS","CS","1","category1/CS2.png","","","","",""
"","html-keyboard-response","85","334174","0.0-6.0-6.0-0.16","2mqu8k2r76","many_one","0","indirect_first","0","ns04en29","1","26","1","1","3","2","","0","1","0","null","","","<div class = 'row'><div class = 'column'><img src = 'uspos/2150.bmp' width = '100%;'></div><div class = 'column'><img src = 'category2/CS5.png' width = '70%;'></div></div>","null","pos","CS","CS","2","category2/CS5.png","","","","",""
"","html-keyboard-response","86","336701","0.0-6.0-6.0-0.17","2mqu8k2r76","many_one","0","indirect_first","0","ns04en29","1","26","1","1","3","2","","0","1","0","null","","","<div class = 'row'><div class = 'column'><img src = 'usneg/2750.bmp' width = '100%;'></div><div class = 'column'><img src = 'category3/CS9.png' width = '70%;'></div></div>","null","neg","CS","CS","3","category3/CS9.png","","","","",""
"","html-keyboard-response","87","339232","0.0-6.0-6.0-0.18","2mqu8k2r76","many_one","0","indirect_first","0","ns04en29","1","26","1","1","3","2","","0","1","0","null","","","<div class = 'row'><div class = 'column'><img src = 'uspos/4625.bmp' width = '100%;'></div><div class = 'column'><img src = 'category1/CS9.png' width = '70%;'></div></div>","null","pos","CS","CS","1","category1/CS9.png","","","","",""
"","html-keyboard-response","88","341751","0.0-6.0-6.0-0.19","2mqu8k2r76","many_one","0","indirect_first","0","ns04en29","1","26","1","1","3","2","","0","1","0","null","","","<div class = 'row'><div class = 'column'><img src = 'usneg/9000.bmp' width = '100%;'></div><div class = 'column'><img src = 'category3/CS1.png' width = '70%;'></div></div>","null","neg","CS","CS","3","category3/CS1.png","","","","",""
"","html-keyboard-response","89","356243","0.0-7.0","2mqu8k2r76","many_one","0","indirect_first","0","ns04en29","1","26","1","1","3","2","","0","1","0","13979","","","<p>Sie sehen nun die chinesischen Zeichen nur ganz kurz. Danach sehen Sie die jeweilige Aussprache der Zeichen als Silbe auf dem Bildschrim. Ihre Aufgabe ist es, für jede Silbe anzugeben, ob diese etwas angenehmes, oder unangenehmes bedeuten könnte. Verlassen Sie sich hier vor allem auf Ihre Intuition.<br><br>Die Zeichen werden nur zur Orientierung dargestellt, beachten Sie sie deshalb nicht. Konzentrieren Sie sich vor allem auf die Silben. <br>Reagieren Sie mit folgenden zwei Tasten: <br><br><b>'D' </b> wenn die Silbe etwas <b>unangenehmes</b> bedeuten könnte. <br><b>'K'</b> wenn die Silbe etwas <b>angenehmes</b> bedeuten könnte. <br><br>Bitte legen Sie nun den Zeigefinger der linken Hand auf die Taste 'D' und den Zeigefinger der rechten Hand auf die Taste 'K'. <br>Reagieren Sie auf jede Silbe so schnell wie möglich. Uns interessiert Ihre spontane Reaktion. <br> <br> <br>Drücken Sie 'D' oder 'K', um die nächste Aufgabe zu starten. </p>","68","","","","","","","","","",""
"","html-keyboard-response","90","359264","0.0-8.0-0.0","2mqu8k2r76","many_one","0","indirect_first","0","ns04en29","1","26","1","1","3","2","","0","1","0","null","","","<div style=""font-size:60px;"">+</div>","null","","","","","","","","","",""
"","html-keyboard-response","91","359357","0.0-8.0-1.0","2mqu8k2r76","many_one","0","indirect_first","0","ns04en29","1","26","1","1","3","2","","0","1","0","null","","","<img src = 'category3/CS3.png' width = '100%;'>","null","","","","","","","","","",""
"","html-keyboard-response","92","359636","0.0-8.0-2.0","2mqu8k2r76","many_one","0","indirect_first","0","ns04en29","1","26","1","1","3","2","","0","1","0","null","","","<img src = 'targets/36.png' width = '100%;'>","null","","","","","","","","","",""
"","html-keyboard-response","93","365432","0.0-8.0-3.0","2mqu8k2r76","many_one","0","indirect_first","0","ns04en29","1","26","1","1","3","2","","0","1","0","5794","","","<img src = 'targets/mask.png' width = '100%;'>","75","neg","CS","CS","3","category3/CS3.png","targets/36.png","1","indirect","0",""
"","html-keyboard-response","94","366960","0.0-8.0-0.1","2mqu8k2r76","many_one","0","indirect_first","0","ns04en29","1","26","1","1","3","2","","0","1","0","null","","","<div style=""font-size:60px;"">+</div>","null","","","","","","","","","",""
"","html-keyboard-response","95","367054","0.0-8.0-1.1","2mqu8k2r76","many_one","0","indirect_first","0","ns04en29","1","26","1","1","3","2","","0","1","0","null","","","<img src = 'category1/CS6.png' width = '100%;'>","null","","","","","","","","","",""
"","html-keyboard-response","96","367333","0.0-8.0-2.1","2mqu8k2r76","many_one","0","indirect_first","0","ns04en29","1","26","1","1","3","2","","0","1","0","null","","","<img src = 'targets/21.png' width = '100%;'>","null","","","","","","","","","",""
"","html-keyboard-response","97","374207","0.0-8.0-3.1","2mqu8k2r76","many_one","0","indirect_first","0","ns04en29","1","26","1","1","3","2","","0","1","0","6871","","","<img src = 'targets/mask.png' width = '100%;'>","68","pos","CS","CS","1","category1/CS6.png","targets/21.png","0","indirect","1",""
"","html-keyboard-response","98","375730","0.0-8.0-0.2","2mqu8k2r76","many_one","0","indirect_first","0","ns04en29","1","26","1","1","3","2","","0","1","0","null","","","<div style=""font-size:60px;"">+</div>","null","","","","","","","","","",""
"","html-keyboard-response","99","375824","0.0-8.0-1.2","2mqu8k2r76","many_one","0","indirect_first","0","ns04en29","1","26","1","1","3","2","","0","1","0","null","","","<img src = 'category2/CS4.png' width = '100%;'>","null","","","","","","","","","",""
"","html-keyboard-response","100","376104","0.0-8.0-2.2","2mqu8k2r76","many_one","0","indirect_first","0","ns04en29","1","26","1","1","3","2","","0","1","0","null","","","<img src = 'targets/4.png' width = '100%;'>","null","","","","","","","","","",""
"","html-keyboard-response","101","377338","0.0-8.0-3.2","2mqu8k2r76","many_one","0","indirect_first","0","ns04en29","1","26","1","1","3","2","","0","1","0","1232","","","<img src = 'targets/mask.png' width = '100%;'>","75","pos","CS","CS","2","category2/CS4.png","targets/4.png","1","indirect","2",""
"","html-keyboard-response","102","378856","0.0-8.0-0.3","2mqu8k2r76","many_one","0","indirect_first","0","ns04en29","1","26","1","1","3","2","","0","1","0","null","","","<div style=""font-size:60px;"">+</div>","null","","","","","","","","","",""
"","html-keyboard-response","103","378949","0.0-8.0-1.3","2mqu8k2r76","many_one","0","indirect_first","0","ns04en29","1","26","1","1","3","2","","0","1","0","null","","","<img src = 'category2/CS10.png' width = '100%;'>","null","","","","","","","","","",""
"","html-keyboard-response","104","379228","0.0-8.0-2.3","2mqu8k2r76","many_one","0","indirect_first","0","ns04en29","1","26","1","1","3","2","","0","1","0","null","","","<img src = 'targets/9.png' width = '100%;'>","null","","","","","","","","","",""
"","html-keyboard-response","105","379716","0.0-8.0-3.3","2mqu8k2r76","many_one","0","indirect_first","0","ns04en29","1","26","1","1","3","2","","0","1","0","487","","","<img src = 'targets/mask.png' width = '100%;'>","75","pos","CS","CS","2","category2/CS10.png","targets/9.png","1","indirect","3",""
"","html-keyboard-response","106","381231","0.0-8.0-0.4","2mqu8k2r76","many_one","0","indirect_first","0","ns04en29","1","26","1","1","3","2","","0","1","0","null","","","<div style=""font-size:60px;"">+</div>","null","","","","","","","","","",""
"","html-keyboard-response","107","381324","0.0-8.0-1.4","2mqu8k2r76","many_one","0","indirect_first","0","ns04en29","1","26","1","1","3","2","","0","1","0","null","","","<img src = 'category1/CS3.png' width = '100%;'>","null","","","","","","","","","",""
"","html-keyboard-response","108","381605","0.0-8.0-2.4","2mqu8k2r76","many_one","0","indirect_first","0","ns04en29","1","26","1","1","3","2","","0","1","0","null","","","<img src = 'targets/17.png' width = '100%;'>","null","","","","","","","","","",""
"","html-keyboard-response","109","383191","0.0-8.0-3.4","2mqu8k2r76","many_one","0","indirect_first","0","ns04en29","1","26","1","1","3","2","","0","1","0","1584","","","<img src = 'targets/mask.png' width = '100%;'>","68","pos","CS","CS","1","category1/CS3.png","targets/17.png","0","indirect","4",""
"","html-keyboard-response","110","384718","0.0-8.0-0.5","2mqu8k2r76","many_one","0","indirect_first","0","ns04en29","1","26","1","1","3","2","","0","1","0","null","","","<div style=""font-size:60px;"">+</div>","null","","","","","","","","","",""
"","html-keyboard-response","111","384811","0.0-8.0-1.5","2mqu8k2r76","many_one","0","indirect_first","0","ns04en29","1","26","1","1","3","2","","0","1","0","null","","","<img src = 'category3/CS9.png' width = '100%;'>","null","","","","","","","","","",""
"","html-keyboard-response","112","385089","0.0-8.0-2.5","2mqu8k2r76","many_one","0","indirect_first","0","ns04en29","1","26","1","1","3","2","","0","1","0","null","","","<img src = 'targets/6.png' width = '100%;'>","null","","","","","","","","","",""
"","html-keyboard-response","113","387830","0.0-8.0-3.5","2mqu8k2r76","many_one","0","indirect_first","0","ns04en29","1","26","1","1","3","2","","0","1","0","2740","","","<img src = 'targets/mask.png' width = '100%;'>","75","neg","CS","CS","3","category3/CS9.png","targets/6.png","1","indirect","5",""
"","html-keyboard-response","114","389352","0.0-8.0-0.6","2mqu8k2r76","many_one","0","indirect_first","0","ns04en29","1","26","1","1","3","2","","0","1","0","null","","","<div style=""font-size:60px;"">+</div>","null","","","","","","","","","",""
"","html-keyboard-response","115","389445","0.0-8.0-1.6","2mqu8k2r76","many_one","0","indirect_first","0","ns04en29","1","26","1","1","3","2","","0","1","0","null","","","<img src = 'category4/CS5.png' width = '100%;'>","null","","","","","","","","","",""
"","html-keyboard-response","116","389725","0.0-8.0-2.6","2mqu8k2r76","many_one","0","indirect_first","0","ns04en29","1","26","1","1","3","2","","0","1","0","null","","","<img src = 'targets/33.png' width = '100%;'>","null","","","","","","","","","",""
"","html-keyboard-response","117","390648","0.0-8.0-3.6","2mqu8k2r76","many_one","0","indirect_first","0","ns04en29","1","26","1","1","3","2","","0","1","0","923","","","<img src = 'targets/mask.png' width = '100%;'>","68","neg","CS","CS","4","category4/CS5.png","targets/33.png","0","indirect","6",""
"","html-keyboard-response","118","392172","0.0-8.0-0.7","2mqu8k2r76","many_one","0","indirect_first","0","ns04en29","1","26","1","1","3","2","","0","1","0","null","","","<div style=""font-size:60px;"">+</div>","null","","","","","","","","","",""
"","html-keyboard-response","119","392265","0.0-8.0-1.7","2mqu8k2r76","many_one","0","indirect_first","0","ns04en29","1","26","1","1","3","2","","0","1","0","null","","","<img src = 'category4/CS6.png' width = '100%;'>","null","","","","","","","","","",""
"","html-keyboard-response","120","392545","0.0-8.0-2.7","2mqu8k2r76","many_one","0","indirect_first","0","ns04en29","1","26","1","1","3","2","","0","1","0","null","","","<img src = 'targets/10.png' width = '100%;'>","null","","","","","","","","","",""
"","html-keyboard-response","121","393636","0.0-8.0-3.7","2mqu8k2r76","many_one","0","indirect_first","0","ns04en29","1","26","1","1","3","2","","0","1","0","1090","","","<img src = 'targets/mask.png' width = '100%;'>","68","neg","CS","CS","4","category4/CS6.png","targets/10.png","0","indirect","7",""
"","html-keyboard-response","122","395159","0.0-8.0-0.8","2mqu8k2r76","many_one","0","indirect_first","0","ns04en29","1","26","1","1","3","2","","0","1","0","null","","","<div style=""font-size:60px;"">+</div>","null","","","","","","","","","",""
"","html-keyboard-response","123","395252","0.0-8.0-1.8","2mqu8k2r76","many_one","0","indirect_first","0","ns04en29","1","26","1","1","3","2","","0","1","0","null","","","<img src = 'category3/CS5.png' width = '100%;'>","null","","","","","","","","","",""
"","html-keyboard-response","124","395518","0.0-8.0-2.8","2mqu8k2r76","many_one","0","indirect_first","0","ns04en29","1","26","1","1","3","2","","0","1","0","null","","","<img src = 'targets/28.png' width = '100%;'>","null","","","","","","","","","",""
"","html-keyboard-response","125","397393","0.0-8.0-3.8","2mqu8k2r76","many_one","0","indirect_first","0","ns04en29","1","26","1","1","3","2","","0","1","0","1874","","","<img src = 'targets/mask.png' width = '100%;'>","75","neg","CS","CS","3","category3/CS5.png","targets/28.png","1","indirect","8",""
"","html-keyboard-response","126","398912","0.0-8.0-0.9","2mqu8k2r76","many_one","0","indirect_first","0","ns04en29","1","26","1","1","3","2","","0","1","0","null","","","<div style=""font-size:60px;"">+</div>","null","","","","","","","","","",""
"","html-keyboard-response","127","399007","0.0-8.0-1.9","2mqu8k2r76","many_one","0","indirect_first","0","ns04en29","1","26","1","1","3","2","","0","1","0","null","","","<img src = 'category4/CS9.png' width = '100%;'>","null","","","","","","","","","",""
"","html-keyboard-response","128","399270","0.0-8.0-2.9","2mqu8k2r76","many_one","0","indirect_first","0","ns04en29","1","26","1","1","3","2","","0","1","0","null","","","<img src = 'targets/7.png' width = '100%;'>","null","","","","","","","","","",""
"","html-keyboard-response","129","400089","0.0-8.0-3.9","2mqu8k2r76","many_one","0","indirect_first","0","ns04en29","1","26","1","1","3","2","","0","1","0","817","","","<img src = 'targets/mask.png' width = '100%;'>","68","neg","GS","GSold","4","category4/CS9.png","targets/7.png","0","indirect","9",""
"","html-keyboard-response","130","401600","0.0-8.0-0.10","2mqu8k2r76","many_one","0","indirect_first","0","ns04en29","1","26","1","1","3","2","","0","1","0","null","","","<div style=""font-size:60px;"">+</div>","null","","","","","","","","","",""
"","html-keyboard-response","131","401694","0.0-8.0-1.10","2mqu8k2r76","many_one","0","indirect_first","0","ns04en29","1","26","1","1","3","2","","0","1","0","null","","","<img src = 'category1/CS8.png' width = '100%;'>","null","","","","","","","","","",""
"","html-keyboard-response","132","401974","0.0-8.0-2.10","2mqu8k2r76","many_one","0","indirect_first","0","ns04en29","1","26","1","1","3","2","","0","1","0","null","","","<img src = 'targets/47.png' width = '100%;'>","null","","","","","","","","","",""
"","html-keyboard-response","133","405254","0.0-8.0-3.10","2mqu8k2r76","many_one","0","indirect_first","0","ns04en29","1","26","1","1","3","2","","0","1","0","3278","","","<img src = 'targets/mask.png' width = '100%;'>","75","pos","GS","GSold","1","category1/CS8.png","targets/47.png","1","indirect","10",""
"","html-keyboard-response","134","406779","0.0-8.0-0.11","2mqu8k2r76","many_one","0","indirect_first","0","ns04en29","1","26","1","1","3","2","","0","1","0","null","","","<div style=""font-size:60px;"">+</div>","null","","","","","","","","","",""
"","html-keyboard-response","135","406871","0.0-8.0-1.11","2mqu8k2r76","many_one","0","indirect_first","0","ns04en29","1","26","1","1","3","2","","0","1","0","null","","","<img src = 'category4/CS8.png' width = '100%;'>","null","","","","","","","","","",""
"","html-keyboard-response","136","407136","0.0-8.0-2.11","2mqu8k2r76","many_one","0","indirect_first","0","ns04en29","1","26","1","1","3","2","","0","1","0","null","","","<img src = 'targets/11.png' width = '100%;'>","null","","","","","","","","","",""
"","html-keyboard-response","137","408158","0.0-8.0-3.11","2mqu8k2r76","many_one","0","indirect_first","0","ns04en29","1","26","1","1","3","2","","0","1","0","1021","","","<img src = 'targets/mask.png' width = '100%;'>","68","neg","GS","GSold","4","category4/CS8.png","targets/11.png","0","indirect","11",""
"","html-keyboard-response","138","409676","0.0-8.0-0.12","2mqu8k2r76","many_one","0","indirect_first","0","ns04en29","1","26","1","1","3","2","","0","1","0","null","","","<div style=""font-size:60px;"">+</div>","null","","","","","","","","","",""
"","html-keyboard-response","139","409771","0.0-8.0-1.12","2mqu8k2r76","many_one","0","indirect_first","0","ns04en29","1","26","1","1","3","2","","0","1","0","null","","","<img src = 'category2/CS7.png' width = '100%;'>","null","","","","","","","","","",""
"","html-keyboard-response","140","410038","0.0-8.0-2.12","2mqu8k2r76","many_one","0","indirect_first","0","ns04en29","1","26","1","1","3","2","","0","1","0","null","","","<img src = 'targets/34.png' width = '100%;'>","null","","","","","","","","","",""
"","html-keyboard-response","141","411413","0.0-8.0-3.12","2mqu8k2r76","many_one","0","indirect_first","0","ns04en29","1","26","1","1","3","2","","0","1","0","1374","","","<img src = 'targets/mask.png' width = '100%;'>","75","pos","CS","CS","2","category2/CS7.png","targets/34.png","1","indirect","12",""
"","html-keyboard-response","142","412926","0.0-8.0-0.13","2mqu8k2r76","many_one","0","indirect_first","0","ns04en29","1","26","1","1","3","2","","0","1","0","null","","","<div style=""font-size:60px;"">+</div>","null","","","","","","","","","",""
"","html-keyboard-response","143","413020","0.0-8.0-1.13","2mqu8k2r76","many_one","0","indirect_first","0","ns04en29","1","26","1","1","3","2","","0","1","0","null","","","<img src = 'category1/CS10.png' width = '100%;'>","null","","","","","","","","","",""
"","html-keyboard-response","144","413296","0.0-8.0-2.13","2mqu8k2r76","many_one","0","indirect_first","0","ns04en29","1","26","1","1","3","2","","0","1","0","null","","","<img src = 'targets/29.png' width = '100%;'>","null","","","","","","","","","",""
"","html-keyboard-response","145","415103","0.0-8.0-3.13","2mqu8k2r76","many_one","0","indirect_first","0","ns04en29","1","26","1","1","3","2","","0","1","0","1805","","","<img src = 'targets/mask.png' width = '100%;'>","75","pos","CS","CS","1","category1/CS10.png","targets/29.png","1","indirect","13",""
"","html-keyboard-response","146","416621","0.0-8.0-0.14","2mqu8k2r76","many_one","0","indirect_first","0","ns04en29","1","26","1","1","3","2","","0","1","0","null","","","<div style=""font-size:60px;"">+</div>","null","","","","","","","","","",""
"","html-keyboard-response","147","416713","0.0-8.0-1.14","2mqu8k2r76","many_one","0","indirect_first","0","ns04en29","1","26","1","1","3","2","","0","1","0","null","","","<img src = 'category1/CS9.png' width = '100%;'>","null","","","","","","","","","",""
"","html-keyboard-response","148","416992","0.0-8.0-2.14","2mqu8k2r76","many_one","0","indirect_first","0","ns04en29","1","26","1","1","3","2","","0","1","0","null","","","<img src = 'targets/44.png' width = '100%;'>","null","","","","","","","","","",""
"","html-keyboard-response","149","418583","0.0-8.0-3.14","2mqu8k2r76","many_one","0","indirect_first","0","ns04en29","1","26","1","1","3","2","","0","1","0","1590","","","<img src = 'targets/mask.png' width = '100%;'>","68","pos","CS","CS","1","category1/CS9.png","targets/44.png","0","indirect","14",""
"","html-keyboard-response","150","420103","0.0-8.0-0.15","2mqu8k2r76","many_one","0","indirect_first","0","ns04en29","1","26","1","1","3","2","","0","1","0","null","","","<div style=""font-size:60px;"">+</div>","null","","","","","","","","","",""
"","html-keyboard-response","151","420197","0.0-8.0-1.15","2mqu8k2r76","many_one","0","indirect_first","0","ns04en29","1","26","1","1","3","2","","0","1","0","null","","","<img src = 'category4/CS1.png' width = '100%;'>","null","","","","","","","","","",""
"","html-keyboard-response","152","420464","0.0-8.0-2.15","2mqu8k2r76","many_one","0","indirect_first","0","ns04en29","1","26","1","1","3","2","","0","1","0","null","","","<img src = 'targets/15.png' width = '100%;'>","null","","","","","","","","","",""
"","html-keyboard-response","153","422141","0.0-8.0-3.15","2mqu8k2r76","many_one","0","indirect_first","0","ns04en29","1","26","1","1","3","2","","0","1","0","1675","","","<img src = 'targets/mask.png' width = '100%;'>","75","neg","CS","CS","4","category4/CS1.png","targets/15.png","1","indirect","15",""
"","html-keyboard-response","154","423664","0.0-8.0-0.16","2mqu8k2r76","many_one","0","indirect_first","0","ns04en29","1","26","1","1","3","2","","0","1","0","null","","","<div style=""font-size:60px;"">+</div>","null","","","","","","","","","",""
"","html-keyboard-response","155","423757","0.0-8.0-1.16","2mqu8k2r76","many_one","0","indirect_first","0","ns04en29","1","26","1","1","3","2","","0","1","0","null","","","<img src = 'category2/CS8.png' width = '100%;'>","null","","","","","","","","","",""
"","html-keyboard-response","156","424037","0.0-8.0-2.16","2mqu8k2r76","many_one","0","indirect_first","0","ns04en29","1","26","1","1","3","2","","0","1","0","null","","","<img src = 'targets/46.png' width = '100%;'>","null","","","","","","","","","",""
"","html-keyboard-response","157","426150","0.0-8.0-3.16","2mqu8k2r76","many_one","0","indirect_first","0","ns04en29","1","26","1","1","3","2","","0","1","0","2112","","","<img src = 'targets/mask.png' width = '100%;'>","68","pos","CS","CS","2","category2/CS8.png","targets/46.png","0","indirect","16",""
"","html-keyboard-response","158","427668","0.0-8.0-0.17","2mqu8k2r76","many_one","0","indirect_first","0","ns04en29","1","26","1","1","3","2","","0","1","0","null","","","<div style=""font-size:60px;"">+</div>","null","","","","","","","","","",""
"","html-keyboard-response","159","427762","0.0-8.0-1.17","2mqu8k2r76","many_one","0","indirect_first","0","ns04en29","1","26","1","1","3","2","","0","1","0","null","","","<img src = 'category4/CS2.png' width = '100%;'>","null","","","","","","","","","",""
"","html-keyboard-response","160","428041","0.0-8.0-2.17","2mqu8k2r76","many_one","0","indirect_first","0","ns04en29","1","26","1","1","3","2","","0","1","0","null","","","<img src = 'targets/31.png' width = '100%;'>","null","","","","","","","","","",""
"","html-keyboard-response","161","430422","0.0-8.0-3.17","2mqu8k2r76","many_one","0","indirect_first","0","ns04en29","1","26","1","1","3","2","","0","1","0","2380","","","<img src = 'targets/mask.png' width = '100%;'>","68","neg","GS","GSold","4","category4/CS2.png","targets/31.png","0","indirect","17",""
"","html-keyboard-response","162","431939","0.0-8.0-0.18","2mqu8k2r76","many_one","0","indirect_first","0","ns04en29","1","26","1","1","3","2","","0","1","0","null","","","<div style=""font-size:60px;"">+</div>","null","","","","","","","","","",""
"","html-keyboard-response","163","432032","0.0-8.0-1.18","2mqu8k2r76","many_one","0","indirect_first","0","ns04en29","1","26","1","1","3","2","","0","1","0","null","","","<img src = 'category3/CS10.png' width = '100%;'>","null","","","","","","","","","",""
"","html-keyboard-response","164","432297","0.0-8.0-2.18","2mqu8k2r76","many_one","0","indirect_first","0","ns04en29","1","26","1","1","3","2","","0","1","0","null","","","<img src = 'targets/43.png' width = '100%;'>","null","","","","","","","","","",""
"","html-keyboard-response","165","433855","0.0-8.0-3.18","2mqu8k2r76","many_one","0","indirect_first","0","ns04en29","1","26","1","1","3","2","","0","1","0","1557","","","<img src = 'targets/mask.png' width = '100%;'>","68","neg","CS","CS","3","category3/CS10.png","targets/43.png","0","indirect","18",""
"","html-keyboard-response","166","435371","0.0-8.0-0.19","2mqu8k2r76","many_one","0","indirect_first","0","ns04en29","1","26","1","1","3","2","","0","1","0","null","","","<div style=""font-size:60px;"">+</div>","null","","","","","","","","","",""
"","html-keyboard-response","167","435464","0.0-8.0-1.19","2mqu8k2r76","many_one","0","indirect_first","0","ns04en29","1","26","1","1","3","2","","0","1","0","null","","","<img src = 'category4/CS3.png' width = '100%;'>","null","","","","","","","","","",""
"","html-keyboard-response","168","435742","0.0-8.0-2.19","2mqu8k2r76","many_one","0","indirect_first","0","ns04en29","1","26","1","1","3","2","","0","1","0","null","","","<img src = 'targets/14.png' width = '100%;'>","null","","","","","","","","","",""
"","html-keyboard-response","169","438110","0.0-8.0-3.19","2mqu8k2r76","many_one","0","indirect_first","0","ns04en29","1","26","1","1","3","2","","0","1","0","2367","","","<img src = 'targets/mask.png' width = '100%;'>","68","neg","CS","CS","4","category4/CS3.png","targets/14.png","0","indirect","19",""
"","html-keyboard-response","170","439631","0.0-8.0-0.20","2mqu8k2r76","many_one","0","indirect_first","0","ns04en29","1","26","1","1","3","2","","0","1","0","null","","","<div style=""font-size:60px;"">+</div>","null","","","","","","","","","",""
"","html-keyboard-response","171","439724","0.0-8.0-1.20","2mqu8k2r76","many_one","0","indirect_first","0","ns04en29","1","26","1","1","3","2","","0","1","0","null","","","<img src = 'category4/CS4.png' width = '100%;'>","null","","","","","","","","","",""
"","html-keyboard-response","172","440004","0.0-8.0-2.20","2mqu8k2r76","many_one","0","indirect_first","0","ns04en29","1","26","1","1","3","2","","0","1","0","null","","","<img src = 'targets/19.png' width = '100%;'>","null","","","","","","","","","",""
"","html-keyboard-response","173","440835","0.0-8.0-3.20","2mqu8k2r76","many_one","0","indirect_first","0","ns04en29","1","26","1","1","3","2","","0","1","0","830","","","<img src = 'targets/mask.png' width = '100%;'>","75","neg","CS","CS","4","category4/CS4.png","targets/19.png","1","indirect","20",""
"","html-keyboard-response","174","442351","0.0-8.0-0.21","2mqu8k2r76","many_one","0","indirect_first","0","ns04en29","1","26","1","1","3","2","","0","1","0","null","","","<div style=""font-size:60px;"">+</div>","null","","","","","","","","","",""
"","html-keyboard-response","175","442444","0.0-8.0-1.21","2mqu8k2r76","many_one","0","indirect_first","0","ns04en29","1","26","1","1","3","2","","0","1","0","null","","","<img src = 'category3/CS1.png' width = '100%;'>","null","","","","","","","","","",""
"","html-keyboard-response","176","442722","0.0-8.0-2.21","2mqu8k2r76","many_one","0","indirect_first","0","ns04en29","1","26","1","1","3","2","","0","1","0","null","","","<img src = 'targets/16.png' width = '100%;'>","null","","","","","","","","","",""
"","html-keyboard-response","177","445870","0.0-8.0-3.21","2mqu8k2r76","many_one","0","indirect_first","0","ns04en29","1","26","1","1","3","2","","0","1","0","3145","","","<img src = 'targets/mask.png' width = '100%;'>","75","neg","CS","CS","3","category3/CS1.png","targets/16.png","1","indirect","21",""
"","html-keyboard-response","178","447377","0.0-8.0-0.22","2mqu8k2r76","many_one","0","indirect_first","0","ns04en29","1","26","1","1","3","2","","0","1","0","null","","","<div style=""font-size:60px;"">+</div>","null","","","","","","","","","",""
"","html-keyboard-response","179","447470","0.0-8.0-1.22","2mqu8k2r76","many_one","0","indirect_first","0","ns04en29","1","26","1","1","3","2","","0","1","0","null","","","<img src = 'category1/CS2.png' width = '100%;'>","null","","","","","","","","","",""
"","html-keyboard-response","180","447749","0.0-8.0-2.22","2mqu8k2r76","many_one","0","indirect_first","0","ns04en29","1","26","1","1","3","2","","0","1","0","null","","","<img src = 'targets/42.png' width = '100%;'>","null","","","","","","","","","",""
"","html-keyboard-response","181","449522","0.0-8.0-3.22","2mqu8k2r76","many_one","0","indirect_first","0","ns04en29","1","26","1","1","3","2","","0","1","0","1772","","","<img src = 'targets/mask.png' width = '100%;'>","75","pos","CS","CS","1","category1/CS2.png","targets/42.png","1","indirect","22",""
"","html-keyboard-response","182","451044","0.0-8.0-0.23","2mqu8k2r76","many_one","0","indirect_first","0","ns04en29","1","26","1","1","3","2","","0","1","0","null","","","<div style=""font-size:60px;"">+</div>","null","","","","","","","","","",""
"","html-keyboard-response","183","451138","0.0-8.0-1.23","2mqu8k2r76","many_one","0","indirect_first","0","ns04en29","1","26","1","1","3","2","","0","1","0","null","","","<img src = 'category2/CS5.png' width = '100%;'>","null","","","","","","","","","",""
"","html-keyboard-response","184","451404","0.0-8.0-2.23","2mqu8k2r76","many_one","0","indirect_first","0","ns04en29","1","26","1","1","3","2","","0","1","0","null","","","<img src = 'targets/27.png' width = '100%;'>","null","","","","","","","","","",""
"","html-keyboard-response","185","452169","0.0-8.0-3.23","2mqu8k2r76","many_one","0","indirect_first","0","ns04en29","1","26","1","1","3","2","","0","1","0","763","","","<img src = 'targets/mask.png' width = '100%;'>","75","pos","CS","CS","2","category2/CS5.png","targets/27.png","1","indirect","23",""
"","survey-html-form","186","458428","0.0-9.0","2mqu8k2r76","many_one","0","indirect_first","0","ns04en29","1","26","1","1","3","2","","0","1","0","5749","","{}","","","","","","","","","","","",""
"","html-keyboard-response","187","461447","0.0-10.0-0.0","2mqu8k2r76","many_one","0","indirect_first","0","ns04en29","1","26","1","1","3","2","","0","1","0","null","","","<div style=""font-size:60px;"">+</div>","null","","","","","","","","","",""
"","html-keyboard-response","188","461554","0.0-10.0-1.0","2mqu8k2r76","many_one","0","indirect_first","0","ns04en29","1","26","1","1","3","2","","0","1","0","null","","","<img src = 'category1/ma.png' width = '100%;'>","null","","","","","","","","","",""
"","html-keyboard-response","189","461834","0.0-10.0-2.0","2mqu8k2r76","many_one","0","indirect_first","0","ns04en29","1","26","1","1","3","2","","0","1","0","null","","","<img src = 'targets/38.png' width = '100%;'>","null","","","","","","","","","",""
"","html-keyboard-response","190","464535","0.0-10.0-3.0","2mqu8k2r76","many_one","0","indirect_first","0","ns04en29","1","26","1","1","3","2","","0","1","0","2698","","","<img src = 'targets/mask.png' width = '100%;'>","75","pos","GS","abstract","1","category1/ma.png","targets/38.png","1","indirect","24",""
"","html-keyboard-response","191","466058","0.0-10.0-0.1","2mqu8k2r76","many_one","0","indirect_first","0","ns04en29","1","26","1","1","3","2","","0","1","0","null","","","<div style=""font-size:60px;"">+</div>","null","","","","","","","","","",""
"","html-keyboard-response","192","466151","0.0-10.0-1.1","2mqu8k2r76","many_one","0","indirect_first","0","ns04en29","1","26","1","1","3","2","","0","1","0","null","","","<img src = 'category2/GS2.png' width = '100%;'>","null","","","","","","","","","",""
"","html-keyboard-response","193","466431","0.0-10.0-2.1","2mqu8k2r76","many_one","0","indirect_first","0","ns04en29","1","26","1","1","3","2","","0","1","0","null","","","<img src = 'targets/30.png' width = '100%;'>","null","","","","","","","","","",""
"","html-keyboard-response","194","468203","0.0-10.0-3.1","2mqu8k2r76","many_one","0","indirect_first","0","ns04en29","1","26","1","1","3","2","","0","1","0","1770","","","<img src = 'targets/mask.png' width = '100%;'>","68","pos","GS","GSnew","2","category2/GS2.png","targets/30.png","0","indirect","25",""
"","html-keyboard-response","195","469718","0.0-10.0-0.2","2mqu8k2r76","many_one","0","indirect_first","0","ns04en29","1","26","1","1","3","2","","0","1","0","null","","","<div style=""font-size:60px;"">+</div>","null","","","","","","","","","",""
"","html-keyboard-response","196","469811","0.0-10.0-1.2","2mqu8k2r76","many_one","0","indirect_first","0","ns04en29","1","26","1","1","3","2","","0","1","0","null","","","<img src = 'category4/GS1.png' width = '100%;'>","null","","","","","","","","","",""
"","html-keyboard-response","197","470090","0.0-10.0-2.2","2mqu8k2r76","many_one","0","indirect_first","0","ns04en29","1","26","1","1","3","2","","0","1","0","null","","","<img src = 'targets/40.png' width = '100%;'>","null","","","","","","","","","",""
"","html-keyboard-response","198","471953","0.0-10.0-3.2","2mqu8k2r76","many_one","0","indirect_first","0","ns04en29","1","26","1","1","3","2","","0","1","0","1862","","","<img src = 'targets/mask.png' width = '100%;'>","75","neg","GS","GSnew","4","category4/GS1.png","targets/40.png","1","indirect","26",""
"","html-keyboard-response","199","473481","0.0-10.0-0.3","2mqu8k2r76","many_one","0","indirect_first","0","ns04en29","1","26","1","1","3","2","","0","1","0","null","","","<div style=""font-size:60px;"">+</div>","null","","","","","","","","","",""
"","html-keyboard-response","200","473574","0.0-10.0-1.3","2mqu8k2r76","many_one","0","indirect_first","0","ns04en29","1","26","1","1","3","2","","0","1","0","null","","","<img src = 'category4/lin.png' width = '100%;'>","null","","","","","","","","","",""
"","html-keyboard-response","201","473852","0.0-10.0-2.3","2mqu8k2r76","many_one","0","indirect_first","0","ns04en29","1","26","1","1","3","2","","0","1","0","null","","","<img src = 'targets/18.png' width = '100%;'>","null","","","","","","","","","",""
"","html-keyboard-response","202","476969","0.0-10.0-3.3","2mqu8k2r76","many_one","0","indirect_first","0","ns04en29","1","26","1","1","3","2","","0","1","0","3115","","","<img src = 'targets/mask.png' width = '100%;'>","68","neg","GS","abstract","4","category4/lin.png","targets/18.png","0","indirect","27",""
"","html-keyboard-response","203","478481","0.0-10.0-0.4","2mqu8k2r76","many_one","0","indirect_first","0","ns04en29","1","26","1","1","3","2","","0","1","0","null","","","<div style=""font-size:60px;"">+</div>","null","","","","","","","","","",""
"","html-keyboard-response","204","478574","0.0-10.0-1.4","2mqu8k2r76","many_one","0","indirect_first","0","ns04en29","1","26","1","1","3","2","","0","1","0","null","","","<img src = 'category3/CS8.png' width = '100%;'>","null","","","","","","","","","",""
"","html-keyboard-response","205","478854","0.0-10.0-2.4","2mqu8k2r76","many_one","0","indirect_first","0","ns04en29","1","26","1","1","3","2","","0","1","0","null","","","<img src = 'targets/25.png' width = '100%;'>","null","","","","","","","","","",""
"","html-keyboard-response","206","480285","0.0-10.0-3.4","2mqu8k2r76","many_one","0","indirect_first","0","ns04en29","1","26","1","1","3","2","","0","1","0","1430","","","<img src = 'targets/mask.png' width = '100%;'>","68","neg","GS","GSold","3","category3/CS8.png","targets/25.png","0","indirect","28",""
"","html-keyboard-response","207","481802","0.0-10.0-0.5","2mqu8k2r76","many_one","0","indirect_first","0","ns04en29","1","26","1","1","3","2","","0","1","0","null","","","<div style=""font-size:60px;"">+</div>","null","","","","","","","","","",""
"","html-keyboard-response","208","481896","0.0-10.0-1.5","2mqu8k2r76","many_one","0","indirect_first","0","ns04en29","1","26","1","1","3","2","","0","1","0","null","","","<img src = 'category2/GS1.png' width = '100%;'>","null","","","","","","","","","",""
"","html-keyboard-response","209","482175","0.0-10.0-2.5","2mqu8k2r76","many_one","0","indirect_first","0","ns04en29","1","26","1","1","3","2","","0","1","0","null","","","<img src = 'targets/23.png' width = '100%;'>","null","","","","","","","","","",""
"","html-keyboard-response","210","483522","0.0-10.0-3.5","2mqu8k2r76","many_one","0","indirect_first","0","ns04en29","1","26","1","1","3","2","","0","1","0","1346","","","<img src = 'targets/mask.png' width = '100%;'>","68","pos","GS","GSnew","2","category2/GS1.png","targets/23.png","0","indirect","29",""
"","html-keyboard-response","211","485031","0.0-10.0-0.6","2mqu8k2r76","many_one","0","indirect_first","0","ns04en29","1","26","1","1","3","2","","0","1","0","null","","","<div style=""font-size:60px;"">+</div>","null","","","","","","","","","",""
"","html-keyboard-response","212","485124","0.0-10.0-1.6","2mqu8k2r76","many_one","0","indirect_first","0","ns04en29","1","26","1","1","3","2","","0","1","0","null","","","<img src = 'category1/GS3.png' width = '100%;'>","null","","","","","","","","","",""
"","html-keyboard-response","213","485405","0.0-10.0-2.6","2mqu8k2r76","many_one","0","indirect_first","0","ns04en29","1","26","1","1","3","2","","0","1","0","null","","","<img src = 'targets/3.png' width = '100%;'>","null","","","","","","","","","",""
"","html-keyboard-response","214","487910","0.0-10.0-3.6","2mqu8k2r76","many_one","0","indirect_first","0","ns04en29","1","26","1","1","3","2","","0","1","0","2502","","","<img src = 'targets/mask.png' width = '100%;'>","75","pos","GS","GSnew","1","category1/GS3.png","targets/3.png","1","indirect","30",""
"","html-keyboard-response","215","489434","0.0-10.0-0.7","2mqu8k2r76","many_one","0","indirect_first","0","ns04en29","1","26","1","1","3","2","","0","1","0","null","","","<div style=""font-size:60px;"">+</div>","null","","","","","","","","","",""
"","html-keyboard-response","216","489528","0.0-10.0-1.7","2mqu8k2r76","many_one","0","indirect_first","0","ns04en29","1","26","1","1","3","2","","0","1","0","null","","","<img src = 'category1/GS2.png' width = '100%;'>","null","","","","","","","","","",""
"","html-keyboard-response","217","489779","0.0-10.0-2.7","2mqu8k2r76","many_one","0","indirect_first","0","ns04en29","1","26","1","1","3","2","","0","1","0","null","","","<img src = 'targets/12.png' width = '100%;'>","null","","","","","","","","","",""
"","html-keyboard-response","218","491035","0.0-10.0-3.7","2mqu8k2r76","many_one","0","indirect_first","0","ns04en29","1","26","1","1","3","2","","0","1","0","1255","","","<img src = 'targets/mask.png' width = '100%;'>","75","pos","GS","GSnew","1","category1/GS2.png","targets/12.png","1","indirect","31",""
"","html-keyboard-response","219","492559","0.0-10.0-0.8","2mqu8k2r76","many_one","0","indirect_first","0","ns04en29","1","26","1","1","3","2","","0","1","0","null","","","<div style=""font-size:60px;"">+</div>","null","","","","","","","","","",""
"","html-keyboard-response","220","492650","0.0-10.0-1.8","2mqu8k2r76","many_one","0","indirect_first","0","ns04en29","1","26","1","1","3","2","","0","1","0","null","","","<img src = 'category1/CS4.png' width = '100%;'>","null","","","","","","","","","",""
"","html-keyboard-response","221","492930","0.0-10.0-2.8","2mqu8k2r76","many_one","0","indirect_first","0","ns04en29","1","26","1","1","3","2","","0","1","0","null","","","<img src = 'targets/1.png' width = '100%;'>","null","","","","","","","","","",""
"","html-keyboard-response","222","494082","0.0-10.0-3.8","2mqu8k2r76","many_one","0","indirect_first","0","ns04en29","1","26","1","1","3","2","","0","1","0","1152","","","<img src = 'targets/mask.png' width = '100%;'>","68","pos","GS","GSold","1","category1/CS4.png","targets/1.png","0","indirect","32",""
"","html-keyboard-response","223","495602","0.0-10.0-0.9","2mqu8k2r76","many_one","0","indirect_first","0","ns04en29","1","26","1","1","3","2","","0","1","0","null","","","<div style=""font-size:60px;"">+</div>","null","","","","","","","","","",""
"","html-keyboard-response","224","495696","0.0-10.0-1.9","2mqu8k2r76","many_one","0","indirect_first","0","ns04en29","1","26","1","1","3","2","","0","1","0","null","","","<img src = 'category3/GS1.png' width = '100%;'>","null","","","","","","","","","",""
"","html-keyboard-response","225","495975","0.0-10.0-2.9","2mqu8k2r76","many_one","0","indirect_first","0","ns04en29","1","26","1","1","3","2","","0","1","0","null","","","<img src = 'targets/39.png' width = '100%;'>","null","","","","","","","","","",""
"","html-keyboard-response","226","497934","0.0-10.0-3.9","2mqu8k2r76","many_one","0","indirect_first","0","ns04en29","1","26","1","1","3","2","","0","1","0","1957","","","<img src = 'targets/mask.png' width = '100%;'>","75","neg","GS","GSnew","3","category3/GS1.png","targets/39.png","1","indirect","33",""
"","html-keyboard-response","227","499455","0.0-10.0-0.10","2mqu8k2r76","many_one","0","indirect_first","0","ns04en29","1","26","1","1","3","2","","0","1","0","null","","","<div style=""font-size:60px;"">+</div>","null","","","","","","","","","",""
"","html-keyboard-response","228","499548","0.0-10.0-1.10","2mqu8k2r76","many_one","0","indirect_first","0","ns04en29","1","26","1","1","3","2","","0","1","0","null","","","<img src = 'category2/CS3.png' width = '100%;'>","null","","","","","","","","","",""
"","html-keyboard-response","229","499827","0.0-10.0-2.10","2mqu8k2r76","many_one","0","indirect_first","0","ns04en29","1","26","1","1","3","2","","0","1","0","null","","","<img src = 'targets/37.png' width = '100%;'>","null","","","","","","","","","",""
"","html-keyboard-response","230","500665","0.0-10.0-3.10","2mqu8k2r76","many_one","0","indirect_first","0","ns04en29","1","26","1","1","3","2","","0","1","0","836","","","<img src = 'targets/mask.png' width = '100%;'>","75","pos","GS","GSold","2","category2/CS3.png","targets/37.png","1","indirect","34",""
"","html-keyboard-response","231","502191","0.0-10.0-0.11","2mqu8k2r76","many_one","0","indirect_first","0","ns04en29","1","26","1","1","3","2","","0","1","0","null","","","<div style=""font-size:60px;"">+</div>","null","","","","","","","","","",""
"","html-keyboard-response","232","502285","0.0-10.0-1.11","2mqu8k2r76","many_one","0","indirect_first","0","ns04en29","1","26","1","1","3","2","","0","1","0","null","","","<img src = 'category2/GS3.png' width = '100%;'>","null","","","","","","","","","",""
"","html-keyboard-response","233","502565","0.0-10.0-2.11","2mqu8k2r76","many_one","0","indirect_first","0","ns04en29","1","26","1","1","3","2","","0","1","0","null","","","<img src = 'targets/20.png' width = '100%;'>","null","","","","","","","","","",""
"","html-keyboard-response","234","503883","0.0-10.0-3.11","2mqu8k2r76","many_one","0","indirect_first","0","ns04en29","1","26","1","1","3","2","","0","1","0","1317","","","<img src = 'targets/mask.png' width = '100%;'>","68","pos","GS","GSnew","2","category2/GS3.png","targets/20.png","0","indirect","35",""
"","html-keyboard-response","235","505402","0.0-10.0-0.12","2mqu8k2r76","many_one","0","indirect_first","0","ns04en29","1","26","1","1","3","2","","0","1","0","null","","","<div style=""font-size:60px;"">+</div>","null","","","","","","","","","",""
"","html-keyboard-response","236","505494","0.0-10.0-1.12","2mqu8k2r76","many_one","0","indirect_first","0","ns04en29","1","26","1","1","3","2","","0","1","0","null","","","<img src = 'category2/CS6.png' width = '100%;'>","null","","","","","","","","","",""
"","html-keyboard-response","237","505774","0.0-10.0-2.12","2mqu8k2r76","many_one","0","indirect_first","0","ns04en29","1","26","1","1","3","2","","0","1","0","null","","","<img src = 'targets/35.png' width = '100%;'>","null","","","","","","","","","",""
"","html-keyboard-response","238","506942","0.0-10.0-3.12","2mqu8k2r76","many_one","0","indirect_first","0","ns04en29","1","26","1","1","3","2","","0","1","0","1168","","","<img src = 'targets/mask.png' width = '100%;'>","75","pos","GS","GSold","2","category2/CS6.png","targets/35.png","1","indirect","36",""
"","html-keyboard-response","239","508469","0.0-10.0-0.13","2mqu8k2r76","many_one","0","indirect_first","0","ns04en29","1","26","1","1","3","2","","0","1","0","null","","","<div style=""font-size:60px;"">+</div>","null","","","","","","","","","",""
"","html-keyboard-response","240","508562","0.0-10.0-1.13","2mqu8k2r76","many_one","0","indirect_first","0","ns04en29","1","26","1","1","3","2","","0","1","0","null","","","<img src = 'category3/CS6.png' width = '100%;'>","null","","","","","","","","","",""
"","html-keyboard-response","241","508841","0.0-10.0-2.13","2mqu8k2r76","many_one","0","indirect_first","0","ns04en29","1","26","1","1","3","2","","0","1","0","null","","","<img src = 'targets/8.png' width = '100%;'>","null","","","","","","","","","",""
"","html-keyboard-response","242","510312","0.0-10.0-3.13","2mqu8k2r76","many_one","0","indirect_first","0","ns04en29","1","26","1","1","3","2","","0","1","0","1469","","","<img src = 'targets/mask.png' width = '100%;'>","75","neg","GS","GSold","3","category3/CS6.png","targets/8.png","1","indirect","37",""
"","html-keyboard-response","243","511824","0.0-10.0-0.14","2mqu8k2r76","many_one","0","indirect_first","0","ns04en29","1","26","1","1","3","2","","0","1","0","null","","","<div style=""font-size:60px;"">+</div>","null","","","","","","","","","",""
"","html-keyboard-response","244","511931","0.0-10.0-1.14","2mqu8k2r76","many_one","0","indirect_first","0","ns04en29","1","26","1","1","3","2","","0","1","0","null","","","<img src = 'category2/men.png' width = '100%;'>","null","","","","","","","","","",""
"","html-keyboard-response","245","512212","0.0-10.0-2.14","2mqu8k2r76","many_one","0","indirect_first","0","ns04en29","1","26","1","1","3","2","","0","1","0","null","","","<img src = 'targets/48.png' width = '100%;'>","null","","","","","","","","","",""
"","html-keyboard-response","246","512894","0.0-10.0-3.14","2mqu8k2r76","many_one","0","indirect_first","0","ns04en29","1","26","1","1","3","2","","0","1","0","682","","","<img src = 'targets/mask.png' width = '100%;'>","75","pos","GS","abstract","2","category2/men.png","targets/48.png","1","indirect","38",""
"","html-keyboard-response","247","514420","0.0-10.0-0.15","2mqu8k2r76","many_one","0","indirect_first","0","ns04en29","1","26","1","1","3","2","","0","1","0","null","","","<div style=""font-size:60px;"">+</div>","null","","","","","","","","","",""
"","html-keyboard-response","248","514512","0.0-10.0-1.15","2mqu8k2r76","many_one","0","indirect_first","0","ns04en29","1","26","1","1","3","2","","0","1","0","null","","","<img src = 'category4/GS3.png' width = '100%;'>","null","","","","","","","","","",""
"","html-keyboard-response","249","514793","0.0-10.0-2.15","2mqu8k2r76","many_one","0","indirect_first","0","ns04en29","1","26","1","1","3","2","","0","1","0","null","","","<img src = 'targets/2.png' width = '100%;'>","null","","","","","","","","","",""
"","html-keyboard-response","250","515593","0.0-10.0-3.15","2mqu8k2r76","many_one","0","indirect_first","0","ns04en29","1","26","1","1","3","2","","0","1","0","799","","","<img src = 'targets/mask.png' width = '100%;'>","68","neg","GS","GSnew","4","category4/GS3.png","targets/2.png","0","indirect","39",""
"","html-keyboard-response","251","517104","0.0-10.0-0.16","2mqu8k2r76","many_one","0","indirect_first","0","ns04en29","1","26","1","1","3","2","","0","1","0","null","","","<div style=""font-size:60px;"">+</div>","null","","","","","","","","","",""
"","html-keyboard-response","252","517196","0.0-10.0-1.16","2mqu8k2r76","many_one","0","indirect_first","0","ns04en29","1","26","1","1","3","2","","0","1","0","null","","","<img src = 'category3/CS4.png' width = '100%;'>","null","","","","","","","","","",""
"","html-keyboard-response","253","517477","0.0-10.0-2.16","2mqu8k2r76","many_one","0","indirect_first","0","ns04en29","1","26","1","1","3","2","","0","1","0","null","","","<img src = 'targets/26.png' width = '100%;'>","null","","","","","","","","","",""
"","html-keyboard-response","254","518228","0.0-10.0-3.16","2mqu8k2r76","many_one","0","indirect_first","0","ns04en29","1","26","1","1","3","2","","0","1","0","749","","","<img src = 'targets/mask.png' width = '100%;'>","68","neg","GS","GSold","3","category3/CS4.png","targets/26.png","0","indirect","40",""
"","html-keyboard-response","255","519749","0.0-10.0-0.17","2mqu8k2r76","many_one","0","indirect_first","0","ns04en29","1","26","1","1","3","2","","0","1","0","null","","","<div style=""font-size:60px;"">+</div>","null","","","","","","","","","",""
"","html-keyboard-response","256","519842","0.0-10.0-1.17","2mqu8k2r76","many_one","0","indirect_first","0","ns04en29","1","26","1","1","3","2","","0","1","0","null","","","<img src = 'category3/GS3.png' width = '100%;'>","null","","","","","","","","","",""
"","html-keyboard-response","257","520108","0.0-10.0-2.17","2mqu8k2r76","many_one","0","indirect_first","0","ns04en29","1","26","1","1","3","2","","0","1","0","null","","","<img src = 'targets/13.png' width = '100%;'>","null","","","","","","","","","",""
"","html-keyboard-response","258","520936","0.0-10.0-3.17","2mqu8k2r76","many_one","0","indirect_first","0","ns04en29","1","26","1","1","3","2","","0","1","0","825","","","<img src = 'targets/mask.png' width = '100%;'>","68","neg","GS","GSnew","3","category3/GS3.png","targets/13.png","0","indirect","41",""
"","html-keyboard-response","259","522454","0.0-10.0-0.18","2mqu8k2r76","many_one","0","indirect_first","0","ns04en29","1","26","1","1","3","2","","0","1","0","null","","","<div style=""font-size:60px;"">+</div>","null","","","","","","","","","",""
"","html-keyboard-response","260","522546","0.0-10.0-1.18","2mqu8k2r76","many_one","0","indirect_first","0","ns04en29","1","26","1","1","3","2","","0","1","0","null","","","<img src = 'category1/GS1.png' width = '100%;'>","null","","","","","","","","","",""
"","html-keyboard-response","261","522827","0.0-10.0-2.18","2mqu8k2r76","many_one","0","indirect_first","0","ns04en29","1","26","1","1","3","2","","0","1","0","null","","","<img src = 'targets/24.png' width = '100%;'>","null","","","","","","","","","",""
"","html-keyboard-response","262","523751","0.0-10.0-3.18","2mqu8k2r76","many_one","0","indirect_first","0","ns04en29","1","26","1","1","3","2","","0","1","0","923","","","<img src = 'targets/mask.png' width = '100%;'>","75","pos","GS","GSnew","1","category1/GS1.png","targets/24.png","1","indirect","42",""
"","html-keyboard-response","263","525270","0.0-10.0-0.19","2mqu8k2r76","many_one","0","indirect_first","0","ns04en29","1","26","1","1","3","2","","0","1","0","null","","","<div style=""font-size:60px;"">+</div>","null","","","","","","","","","",""
"","html-keyboard-response","264","525364","0.0-10.0-1.19","2mqu8k2r76","many_one","0","indirect_first","0","ns04en29","1","26","1","1","3","2","","0","1","0","null","","","<img src = 'category3/GS2.png' width = '100%;'>","null","","","","","","","","","",""
"","html-keyboard-response","265","525643","0.0-10.0-2.19","2mqu8k2r76","many_one","0","indirect_first","0","ns04en29","1","26","1","1","3","2","","0","1","0","null","","","<img src = 'targets/41.png' width = '100%;'>","null","","","","","","","","","",""
"","html-keyboard-response","266","526294","0.0-10.0-3.19","2mqu8k2r76","many_one","0","indirect_first","0","ns04en29","1","26","1","1","3","2","","0","1","0","649","","","<img src = 'targets/mask.png' width = '100%;'>","68","neg","GS","GSnew","3","category3/GS2.png","targets/41.png","0","indirect","43",""
"","html-keyboard-response","267","527806","0.0-10.0-0.20","2mqu8k2r76","many_one","0","indirect_first","0","ns04en29","1","26","1","1","3","2","","0","1","0","null","","","<div style=""font-size:60px;"">+</div>","null","","","","","","","","","",""
"","html-keyboard-response","268","527899","0.0-10.0-1.20","2mqu8k2r76","many_one","0","indirect_first","0","ns04en29","1","26","1","1","3","2","","0","1","0","null","","","<img src = 'category3/wang.png' width = '100%;'>","null","","","","","","","","","",""
"","html-keyboard-response","269","528177","0.0-10.0-2.20","2mqu8k2r76","many_one","0","indirect_first","0","ns04en29","1","26","1","1","3","2","","0","1","0","null","","","<img src = 'targets/5.png' width = '100%;'>","null","","","","","","","","","",""
"","html-keyboard-response","270","531329","0.0-10.0-3.20","2mqu8k2r76","many_one","0","indirect_first","0","ns04en29","1","26","1","1","3","2","","0","1","0","3152","","","<img src = 'targets/mask.png' width = '100%;'>","68","neg","GS","abstract","3","category3/wang.png","targets/5.png","0","indirect","44",""
"","html-keyboard-response","271","532861","0.0-10.0-0.21","2mqu8k2r76","many_one","0","indirect_first","0","ns04en29","1","26","1","1","3","2","","0","1","0","null","","","<div style=""font-size:60px;"">+</div>","null","","","","","","","","","",""
"","html-keyboard-response","272","532956","0.0-10.0-1.21","2mqu8k2r76","many_one","0","indirect_first","0","ns04en29","1","26","1","1","3","2","","0","1","0","null","","","<img src = 'category1/CS5.png' width = '100%;'>","null","","","","","","","","","",""
"","html-keyboard-response","273","533234","0.0-10.0-2.21","2mqu8k2r76","many_one","0","indirect_first","0","ns04en29","1","26","1","1","3","2","","0","1","0","null","","","<img src = 'targets/32.png' width = '100%;'>","null","","","","","","","","","",""
"","html-keyboard-response","274","534097","0.0-10.0-3.21","2mqu8k2r76","many_one","0","indirect_first","0","ns04en29","1","26","1","1","3","2","","0","1","0","861","","","<img src = 'targets/mask.png' width = '100%;'>","68","pos","GS","GSold","1","category1/CS5.png","targets/32.png","0","indirect","45",""
"","html-keyboard-response","275","535610","0.0-10.0-0.22","2mqu8k2r76","many_one","0","indirect_first","0","ns04en29","1","26","1","1","3","2","","0","1","0","null","","","<div style=""font-size:60px;"">+</div>","null","","","","","","","","","",""
"","html-keyboard-response","276","535703","0.0-10.0-1.22","2mqu8k2r76","many_one","0","indirect_first","0","ns04en29","1","26","1","1","3","2","","0","1","0","null","","","<img src = 'category2/CS9.png' width = '100%;'>","null","","","","","","","","","",""
"","html-keyboard-response","277","535982","0.0-10.0-2.22","2mqu8k2r76","many_one","0","indirect_first","0","ns04en29","1","26","1","1","3","2","","0","1","0","null","","","<img src = 'targets/45.png' width = '100%;'>","null","","","","","","","","","",""
"","html-keyboard-response","278","536487","0.0-10.0-3.22","2mqu8k2r76","many_one","0","indirect_first","0","ns04en29","1","26","1","1","3","2","","0","1","0","504","","","<img src = 'targets/mask.png' width = '100%;'>","75","pos","GS","GSold","2","category2/CS9.png","targets/45.png","1","indirect","46",""
"","html-keyboard-response","279","538004","0.0-10.0-0.23","2mqu8k2r76","many_one","0","indirect_first","0","ns04en29","1","26","1","1","3","2","","0","1","0","null","","","<div style=""font-size:60px;"">+</div>","null","","","","","","","","","",""
"","html-keyboard-response","280","538097","0.0-10.0-1.23","2mqu8k2r76","many_one","0","indirect_first","0","ns04en29","1","26","1","1","3","2","","0","1","0","null","","","<img src = 'category4/GS2.png' width = '100%;'>","null","","","","","","","","","",""
"","html-keyboard-response","281","538376","0.0-10.0-2.23","2mqu8k2r76","many_one","0","indirect_first","0","ns04en29","1","26","1","1","3","2","","0","1","0","null","","","<img src = 'targets/22.png' width = '100%;'>","null","","","","","","","","","",""
"","html-keyboard-response","282","539603","0.0-10.0-3.23","2mqu8k2r76","many_one","0","indirect_first","0","ns04en29","1","26","1","1","3","2","","0","1","0","1224","","","<img src = 'targets/mask.png' width = '100%;'>","68","neg","GS","GSnew","4","category4/GS2.png","targets/22.png","0","indirect","47",""
"","survey-html-form","283","547335","0.0-11.0","2mqu8k2r76","many_one","0","indirect_first","0","ns04en29","1","26","1","1","3","2","","0","1","0","7228","","{}","","","","","","","","","","","",""
"","image-slider-response","284","556121","0.0-12.0-0.0","2mqu8k2r76","many_one","0","indirect_first","0","ns04en29","1","26","1","1","3","2","","0","1","0","6761","","","","","pos","GS","GSold","1","category1/CS8.png","targets/47.png","","direct","","31"
"","image-slider-response","285","559560","0.0-12.0-0.1","2mqu8k2r76","many_one","0","indirect_first","0","ns04en29","1","26","1","1","3","2","","0","1","0","3438","","","","","neg","GS","GSold","3","category3/CS6.png","targets/8.png","","direct","","-20"
"","image-slider-response","286","562945","0.0-12.0-0.2","2mqu8k2r76","many_one","0","indirect_first","0","ns04en29","1","26","1","1","3","2","","0","1","0","3381","","","","","neg","GS","GSold","4","category4/CS2.png","targets/31.png","","direct","","-64"
"","image-slider-response","287","566409","0.0-12.0-0.3","2mqu8k2r76","many_one","0","indirect_first","0","ns04en29","1","26","1","1","3","2","","0","1","0","3462","","","","","pos","GS","abstract","1","category1/ma.png","targets/38.png","","direct","","-61"
"","image-slider-response","288","569040","0.0-12.0-0.4","2mqu8k2r76","many_one","0","indirect_first","0","ns04en29","1","26","1","1","3","2","","0","1","0","2629","","","","","neg","CS","CS","4","category4/CS4.png","targets/19.png","","direct","","-60"
"","image-slider-response","289","574360","0.0-12.0-0.5","2mqu8k2r76","many_one","0","indirect_first","0","ns04en29","1","26","1","1","3","2","","0","1","0","5318","","","","","pos","GS","GSnew","2","category2/GS3.png","targets/20.png","","direct","","-100"
"","image-slider-response","290","578962","0.0-12.0-0.6","2mqu8k2r76","many_one","0","indirect_first","0","ns04en29","1","26","1","1","3","2","","0","1","0","4599","","","","","neg","GS","GSnew","4","category4/GS2.png","targets/22.png","","direct","","-54"
"","image-slider-response","291","581712","0.0-12.0-0.7","2mqu8k2r76","many_one","0","indirect_first","0","ns04en29","1","26","1","1","3","2","","0","1","0","2750","","","","","neg","GS","abstract","3","category3/wang.png","targets/5.png","","direct","","58"
"","image-slider-response","292","585417","0.0-12.0-0.8","2mqu8k2r76","many_one","0","indirect_first","0","ns04en29","1","26","1","1","3","2","","0","1","0","3702","","","","","neg","CS","CS","3","category3/CS10.png","targets/43.png","","direct","","-100"
"","image-slider-response","293","590064","0.0-12.0-0.9","2mqu8k2r76","many_one","0","indirect_first","0","ns04en29","1","26","1","1","3","2","","0","1","0","4645","","","","","pos","CS","CS","1","category1/CS6.png","targets/21.png","","direct","","52"
"","image-slider-response","294","593760","0.0-12.0-0.10","2mqu8k2r76","many_one","0","indirect_first","0","ns04en29","1","26","1","1","3","2","","0","1","0","3694","","","","","neg","CS","CS","3","category3/CS3.png","targets/36.png","","direct","","91"
"","image-slider-response","295","597240","0.0-12.0-0.11","2mqu8k2r76","many_one","0","indirect_first","0","ns04en29","1","26","1","1","3","2","","0","1","0","3477","","","","","pos","CS","CS","1","category1/CS3.png","targets/17.png","","direct","","-67"
"","image-slider-response","296","601288","0.0-12.0-0.12","2mqu8k2r76","many_one","0","indirect_first","0","ns04en29","1","26","1","1","3","2","","0","1","0","4046","","","","","neg","GS","GSnew","3","category3/GS3.png","targets/13.png","","direct","","94"
"","image-slider-response","297","603856","0.0-12.0-0.13","2mqu8k2r76","many_one","0","indirect_first","0","ns04en29","1","26","1","1","3","2","","0","1","0","2566","","","","","pos","GS","GSold","2","category2/CS6.png","targets/35.png","","direct","","100"
"","image-slider-response","298","609752","0.0-12.0-0.14","2mqu8k2r76","many_one","0","indirect_first","0","ns04en29","1","26","1","1","3","2","","0","1","0","5894","","","","","pos","GS","GSnew","2","category2/GS1.png","targets/23.png","","direct","","-67"
"","image-slider-response","299","612624","0.0-12.0-0.15","2mqu8k2r76","many_one","0","indirect_first","0","ns04en29","1","26","1","1","3","2","","0","1","0","2871","","","","","pos","GS","GSold","2","category2/CS3.png","targets/37.png","","direct","","90"
"","image-slider-response","300","615432","0.0-12.0-0.16","2mqu8k2r76","many_one","0","indirect_first","0","ns04en29","1","26","1","1","3","2","","0","1","0","2806","","","","","neg","GS","abstract","4","category4/lin.png","targets/18.png","","direct","","-100"
"","image-slider-response","301","619024","0.0-12.0-0.17","2mqu8k2r76","many_one","0","indirect_first","0","ns04en29","1","26","1","1","3","2","","0","1","0","3590","","","","","neg","GS","GSnew","3","category3/GS1.png","targets/39.png","","direct","","-68"
"","image-slider-response","302","622264","0.0-12.0-0.18","2mqu8k2r76","many_one","0","indirect_first","0","ns04en29","1","26","1","1","3","2","","0","1","0","3238","","","","","neg","GS","GSnew","3","category3/GS2.png","targets/41.png","","direct","","-88"
"","image-slider-response","303","625216","0.0-12.0-0.19","2mqu8k2r76","many_one","0","indirect_first","0","ns04en29","1","26","1","1","3","2","","0","1","0","2950","","","","","neg","GS","GSold","4","category4/CS8.png","targets/11.png","","direct","","-61"
"","image-slider-response","304","627888","0.0-12.0-0.20","2mqu8k2r76","many_one","0","indirect_first","0","ns04en29","1","26","1","1","3","2","","0","1","0","2671","","","","","pos","CS","CS","2","category2/CS8.png","targets/46.png","","direct","","56"
"","image-slider-response","305","630224","0.0-12.0-0.21","2mqu8k2r76","many_one","0","indirect_first","0","ns04en29","1","26","1","1","3","2","","0","1","0","2334","","","","","pos","CS","CS","2","category2/CS5.png","targets/27.png","","direct","","36"
"","image-slider-response","306","635008","0.0-12.0-0.22","2mqu8k2r76","many_one","0","indirect_first","0","ns04en29","1","26","1","1","3","2","","0","1","0","4781","","","","","neg","CS","CS","3","category3/CS1.png","targets/16.png","","direct","","65"
"","image-slider-response","307","638192","0.0-12.0-0.23","2mqu8k2r76","many_one","0","indirect_first","0","ns04en29","1","26","1","1","3","2","","0","1","0","3181","","","","","pos","GS","GSnew","1","category1/GS3.png","targets/3.png","","direct","","-49"
"","image-slider-response","308","641856","0.0-12.0-0.24","2mqu8k2r76","many_one","0","indirect_first","0","ns04en29","1","26","1","1","3","2","","0","1","0","3661","","","","","neg","GS","GSold","3","category3/CS4.png","targets/26.png","","direct","","-72"
"","image-slider-response","309","645144","0.0-12.0-0.25","2mqu8k2r76","many_one","0","indirect_first","0","ns04en29","1","26","1","1","3","2","","0","1","0","3286","","","","","neg","GS","GSnew","4","category4/GS3.png","targets/2.png","","direct","","-100"
"","image-slider-response","310","647576","0.0-12.0-0.26","2mqu8k2r76","many_one","0","indirect_first","0","ns04en29","1","26","1","1","3","2","","0","1","0","2429","","","","","pos","CS","CS","2","category2/CS7.png","targets/34.png","","direct","","88"
"","image-slider-response","311","650159","0.0-12.0-0.27","2mqu8k2r76","many_one","0","indirect_first","0","ns04en29","1","26","1","1","3","2","","0","1","0","2582","","","","","neg","CS","CS","4","category4/CS5.png","targets/33.png","","direct","","-57"
"","image-slider-response","312","652887","0.0-12.0-0.28","2mqu8k2r76","many_one","0","indirect_first","0","ns04en29","1","26","1","1","3","2","","0","1","0","2726","","","","","pos","GS","GSnew","1","category1/GS1.png","targets/24.png","","direct","","-100"
"","image-slider-response","313","655288","0.0-12.0-0.29","2mqu8k2r76","many_one","0","indirect_first","0","ns04en29","1","26","1","1","3","2","","0","1","0","2398","","","","","pos","CS","CS","1","category1/CS10.png","targets/29.png","","direct","","-58"
"","image-slider-response","314","659663","0.0-12.0-0.30","2mqu8k2r76","many_one","0","indirect_first","0","ns04en29","1","26","1","1","3","2","","0","1","0","4374","","","","","neg","GS","GSnew","4","category4/GS1.png","targets/40.png","","direct","","-41"
"","image-slider-response","315","662399","0.0-12.0-0.31","2mqu8k2r76","many_one","0","indirect_first","0","ns04en29","1","26","1","1","3","2","","0","1","0","2733","","","","","neg","CS","CS","3","category3/CS5.png","targets/28.png","","direct","","90"
"","image-slider-response","316","665303","0.0-12.0-0.32","2mqu8k2r76","many_one","0","indirect_first","0","ns04en29","1","26","1","1","3","2","","0","1","0","2901","","","","","pos","CS","CS","1","category1/CS2.png","targets/42.png","","direct","","-47"
"","image-slider-response","317","668127","0.0-12.0-0.33","2mqu8k2r76","many_one","0","indirect_first","0","ns04en29","1","26","1","1","3","2","","0","1","0","2822","","","","","neg","CS","CS","4","category4/CS3.png","targets/14.png","","direct","","-50"
"","image-slider-response","318","671768","0.0-12.0-0.34","2mqu8k2r76","many_one","0","indirect_first","0","ns04en29","1","26","1","1","3","2","","0","1","0","3638","","","","","pos","GS","abstract","2","category2/men.png","targets/48.png","","direct","","100"
"","image-slider-response","319","674463","0.0-12.0-0.35","2mqu8k2r76","many_one","0","indirect_first","0","ns04en29","1","26","1","1","3","2","","0","1","0","2694","","","","","neg","CS","CS","4","category4/CS6.png","targets/10.png","","direct","","-65"
"","image-slider-response","320","677190","0.0-12.0-0.36","2mqu8k2r76","many_one","0","indirect_first","0","ns04en29","1","26","1","1","3","2","","0","1","0","2726","","","","","neg","CS","CS","4","category4/CS1.png","targets/15.png","","direct","","-100"
"","image-slider-response","321","679518","0.0-12.0-0.37","2mqu8k2r76","many_one","0","indirect_first","0","ns04en29","1","26","1","1","3","2","","0","1","0","2325","","","","","pos","GS","GSold","1","category1/CS5.png","targets/32.png","","direct","","-51"
"","image-slider-response","322","682231","0.0-12.0-0.38","2mqu8k2r76","many_one","0","indirect_first","0","ns04en29","1","26","1","1","3","2","","0","1","0","2709","","","","","pos","GS","GSold","1","category1/CS4.png","targets/1.png","","direct","","-60"
"","image-slider-response","323","684519","0.0-12.0-0.39","2mqu8k2r76","many_one","0","indirect_first","0","ns04en29","1","26","1","1","3","2","","0","1","0","2287","","","","","pos","CS","CS","2","category2/CS10.png","targets/9.png","","direct","","60"
"","image-slider-response","324","686999","0.0-12.0-0.40","2mqu8k2r76","many_one","0","indirect_first","0","ns04en29","1","26","1","1","3","2","","0","1","0","2478","","","","","pos","CS","CS","1","category1/CS9.png","targets/44.png","","direct","","-30"
"","image-slider-response","325","689319","0.0-12.0-0.41","2mqu8k2r76","many_one","0","indirect_first","0","ns04en29","1","26","1","1","3","2","","0","1","0","2317","","","","","pos","CS","CS","2","category2/CS4.png","targets/4.png","","direct","","52"
"","image-slider-response","326","691584","0.0-12.0-0.42","2mqu8k2r76","many_one","0","indirect_first","0","ns04en29","1","26","1","1","3","2","","0","1","0","2263","","","","","pos","GS","GSold","2","category2/CS9.png","targets/45.png","","direct","","65"
"","image-slider-response","327","694679","0.0-12.0-0.43","2mqu8k2r76","many_one","0","indirect_first","0","ns04en29","1","26","1","1","3","2","","0","1","0","3093","","","","","neg","CS","CS","3","category3/CS9.png","targets/6.png","","direct","","96"
"","image-slider-response","328","697815","0.0-12.0-0.44","2mqu8k2r76","many_one","0","indirect_first","0","ns04en29","1","26","1","1","3","2","","0","1","0","3134","","","","","pos","GS","GSnew","1","category1/GS2.png","targets/12.png","","direct","","-48"
"","image-slider-response","329","701591","0.0-12.0-0.45","2mqu8k2r76","many_one","0","indirect_first","0","ns04en29","1","26","1","1","3","2","","0","1","0","3775","","","","","neg","GS","GSold","3","category3/CS8.png","targets/25.png","","direct","","1"
