"success","trial_type","trial_index","time_elapsed","internal_node_id","subject","condition","condition_code","measure","measure_code","codeword","gender","age","education","chinese","fach","handedness","comment","hinschauen","ablenkung","gewissenhaft","rt","url","responses","stimulus","key_press","val","type","type_specific","category","cs_selected","response","target","task","indirect","nr_pres"
"true","fullscreen","0","6778","0.0-0.0","1z04sepqyo","many_one","0","direct_first","1","on06rg09","1","21","1","1","3","1","Meine  Entscheidungen haben sich sehr wahllos angefühlt.","0","1","0","","","","","","","","","","","","","","",""
"","external-html","1","72186","0.0-1.0","1z04sepqyo","many_one","0","direct_first","1","on06rg09","1","21","1","1","3","1","Meine  Entscheidungen haben sich sehr wahllos angefühlt.","0","1","0","65334","text/information.html","","","","","","","","","","","","",""
"","external-html","2","111081","0.0-2.0","1z04sepqyo","many_one","0","direct_first","1","on06rg09","1","21","1","1","3","1","Meine  Entscheidungen haben sich sehr wahllos angefühlt.","0","1","0","38756","text/consent.html","","","","","","","","","","","","",""
"","survey-html-form","3","179567","0.0-3.0","1z04sepqyo","many_one","0","direct_first","1","on06rg09","1","21","1","1","3","1","Meine  Entscheidungen haben sich sehr wahllos angefühlt.","0","1","0","68484","","{""codeword_enter"":""on06rg09""}","","","","","","","","","","","",""
"","survey-html-form","4","201130","0.0-4.0","1z04sepqyo","many_one","0","direct_first","1","on06rg09","1","21","1","1","3","1","Meine  Entscheidungen haben sich sehr wahllos angefühlt.","0","1","0","21559","","{""age"":""21"",""education"":""1"",""subject"":""3"",""gender"":""1"",""handedness"":""1"",""chinese"":""1""}","","","","","","","","","","","",""
"","survey-html-form","5","216730","0.0-5.0","1z04sepqyo","many_one","0","direct_first","1","on06rg09","1","21","1","1","3","1","Meine  Entscheidungen haben sich sehr wahllos angefühlt.","0","1","0","15598","","{}","","","","","","","","","","","",""
"","html-keyboard-response","6","220760","0.0-6.0-0.0-0.0","1z04sepqyo","many_one","0","direct_first","1","on06rg09","1","21","1","1","3","1","Meine  Entscheidungen haben sich sehr wahllos angefühlt.","0","1","0","null","","","<div class = 'row'><div class = 'column'><img src = 'category3/CS8.png' width = '70%;'></div><div class = 'column'><img src = 'usneg/9280.bmp' width = '100%;'></div></div>","null","neg","CS","CS","3","category3/CS8.png","","","","",""
"","html-keyboard-response","7","223299","0.0-6.0-0.0-0.1","1z04sepqyo","many_one","0","direct_first","1","on06rg09","1","21","1","1","3","1","Meine  Entscheidungen haben sich sehr wahllos angefühlt.","0","1","0","null","","","<div class = 'row'><div class = 'column'><img src = 'category3/CS9.png' width = '70%;'></div><div class = 'column'><img src = 'usneg/6838.bmp' width = '100%;'></div></div>","null","neg","CS","CS","3","category3/CS9.png","","","","",""
"","html-keyboard-response","8","225819","0.0-6.0-0.0-0.2","1z04sepqyo","many_one","0","direct_first","1","on06rg09","1","21","1","1","3","1","Meine  Entscheidungen haben sich sehr wahllos angefühlt.","0","1","0","null","","","<div class = 'row'><div class = 'column'><img src = 'category4/CS9.png' width = '70%;'></div><div class = 'column'><img src = 'uspos/8540.bmp' width = '100%;'></div></div>","null","pos","CS","CS","4","category4/CS9.png","","","","",""
"","html-keyboard-response","9","228349","0.0-6.0-0.0-0.3","1z04sepqyo","many_one","0","direct_first","1","on06rg09","1","21","1","1","3","1","Meine  Entscheidungen haben sich sehr wahllos angefühlt.","0","1","0","null","","","<div class = 'row'><div class = 'column'><img src = 'uspos/2208.bmp' width = '100%;'></div><div class = 'column'><img src = 'category1/CS3.png' width = '70%;'></div></div>","null","pos","CS","CS","1","category1/CS3.png","","","","",""
"","html-keyboard-response","10","230870","0.0-6.0-0.0-0.4","1z04sepqyo","many_one","0","direct_first","1","on06rg09","1","21","1","1","3","1","Meine  Entscheidungen haben sich sehr wahllos angefühlt.","0","1","0","null","","","<div class = 'row'><div class = 'column'><img src = 'uspos/2160.bmp' width = '100%;'></div><div class = 'column'><img src = 'category1/CS9.png' width = '70%;'></div></div>","null","pos","CS","CS","1","category1/CS9.png","","","","",""
"","html-keyboard-response","11","233386","0.0-6.0-0.0-0.5","1z04sepqyo","many_one","0","direct_first","1","on06rg09","1","21","1","1","3","1","Meine  Entscheidungen haben sich sehr wahllos angefühlt.","0","1","0","null","","","<div class = 'row'><div class = 'column'><img src = 'usneg/9415.bmp' width = '100%;'></div><div class = 'column'><img src = 'category2/CS6.png' width = '70%;'></div></div>","null","neg","CS","CS","2","category2/CS6.png","","","","",""
"","html-keyboard-response","12","235916","0.0-6.0-0.0-0.6","1z04sepqyo","many_one","0","direct_first","1","on06rg09","1","21","1","1","3","1","Meine  Entscheidungen haben sich sehr wahllos angefühlt.","0","1","0","null","","","<div class = 'row'><div class = 'column'><img src = 'uspos/1440.bmp' width = '100%;'></div><div class = 'column'><img src = 'category4/CS7.png' width = '70%;'></div></div>","null","pos","CS","CS","4","category4/CS7.png","","","","",""
"","html-keyboard-response","13","238446","0.0-6.0-0.0-0.7","1z04sepqyo","many_one","0","direct_first","1","on06rg09","1","21","1","1","3","1","Meine  Entscheidungen haben sich sehr wahllos angefühlt.","0","1","0","null","","","<div class = 'row'><div class = 'column'><img src = 'category3/CS2.png' width = '70%;'></div><div class = 'column'><img src = 'usneg/9561.bmp' width = '100%;'></div></div>","null","neg","CS","CS","3","category3/CS2.png","","","","",""
"","html-keyboard-response","14","240966","0.0-6.0-0.0-0.8","1z04sepqyo","many_one","0","direct_first","1","on06rg09","1","21","1","1","3","1","Meine  Entscheidungen haben sich sehr wahllos angefühlt.","0","1","0","null","","","<div class = 'row'><div class = 'column'><img src = 'category4/CS5.png' width = '70%;'></div><div class = 'column'><img src = 'uspos/1340.bmp' width = '100%;'></div></div>","null","pos","CS","CS","4","category4/CS5.png","","","","",""
"","html-keyboard-response","15","243485","0.0-6.0-0.0-0.9","1z04sepqyo","many_one","0","direct_first","1","on06rg09","1","21","1","1","3","1","Meine  Entscheidungen haben sich sehr wahllos angefühlt.","0","1","0","null","","","<div class = 'row'><div class = 'column'><img src = 'uspos/5830.bmp' width = '100%;'></div><div class = 'column'><img src = 'category4/CS10.png' width = '70%;'></div></div>","null","pos","CS","CS","4","category4/CS10.png","","","","",""
"","html-keyboard-response","16","246004","0.0-6.0-0.0-0.10","1z04sepqyo","many_one","0","direct_first","1","on06rg09","1","21","1","1","3","1","Meine  Entscheidungen haben sich sehr wahllos angefühlt.","0","1","0","null","","","<div class = 'row'><div class = 'column'><img src = 'category1/CS1.png' width = '70%;'></div><div class = 'column'><img src = 'uspos/5470.bmp' width = '100%;'></div></div>","null","pos","CS","CS","1","category1/CS1.png","","","","",""
"","html-keyboard-response","17","248524","0.0-6.0-0.0-0.11","1z04sepqyo","many_one","0","direct_first","1","on06rg09","1","21","1","1","3","1","Meine  Entscheidungen haben sich sehr wahllos angefühlt.","0","1","0","null","","","<div class = 'row'><div class = 'column'><img src = 'uspos/2165.bmp' width = '100%;'></div><div class = 'column'><img src = 'category4/CS1.png' width = '70%;'></div></div>","null","pos","CS","CS","4","category4/CS1.png","","","","",""
"","html-keyboard-response","18","251063","0.0-6.0-0.0-0.12","1z04sepqyo","many_one","0","direct_first","1","on06rg09","1","21","1","1","3","1","Meine  Entscheidungen haben sich sehr wahllos angefühlt.","0","1","0","null","","","<div class = 'row'><div class = 'column'><img src = 'usneg/9220.bmp' width = '100%;'></div><div class = 'column'><img src = 'category2/CS5.png' width = '70%;'></div></div>","null","neg","CS","CS","2","category2/CS5.png","","","","",""
"","html-keyboard-response","19","253572","0.0-6.0-0.0-0.13","1z04sepqyo","many_one","0","direct_first","1","on06rg09","1","21","1","1","3","1","Meine  Entscheidungen haben sich sehr wahllos angefühlt.","0","1","0","null","","","<div class = 'row'><div class = 'column'><img src = 'category3/CS7.png' width = '70%;'></div><div class = 'column'><img src = 'usneg/9330.bmp' width = '100%;'></div></div>","null","neg","CS","CS","3","category3/CS7.png","","","","",""
"","html-keyboard-response","20","256091","0.0-6.0-0.0-0.14","1z04sepqyo","many_one","0","direct_first","1","on06rg09","1","21","1","1","3","1","Meine  Entscheidungen haben sich sehr wahllos angefühlt.","0","1","0","null","","","<div class = 'row'><div class = 'column'><img src = 'category2/CS1.png' width = '70%;'></div><div class = 'column'><img src = 'usneg/2141.bmp' width = '100%;'></div></div>","null","neg","CS","CS","2","category2/CS1.png","","","","",""
"","html-keyboard-response","21","258601","0.0-6.0-0.0-0.15","1z04sepqyo","many_one","0","direct_first","1","on06rg09","1","21","1","1","3","1","Meine  Entscheidungen haben sich sehr wahllos angefühlt.","0","1","0","null","","","<div class = 'row'><div class = 'column'><img src = 'category2/CS2.png' width = '70%;'></div><div class = 'column'><img src = 'usneg/6212.bmp' width = '100%;'></div></div>","null","neg","CS","CS","2","category2/CS2.png","","","","",""
"","html-keyboard-response","22","261130","0.0-6.0-0.0-0.16","1z04sepqyo","many_one","0","direct_first","1","on06rg09","1","21","1","1","3","1","Meine  Entscheidungen haben sich sehr wahllos angefühlt.","0","1","0","null","","","<div class = 'row'><div class = 'column'><img src = 'category2/CS7.png' width = '70%;'></div><div class = 'column'><img src = 'usneg/9635.2.bmp' width = '100%;'></div></div>","null","neg","CS","CS","2","category2/CS7.png","","","","",""
"","html-keyboard-response","23","263640","0.0-6.0-0.0-0.17","1z04sepqyo","many_one","0","direct_first","1","on06rg09","1","21","1","1","3","1","Meine  Entscheidungen haben sich sehr wahllos angefühlt.","0","1","0","null","","","<div class = 'row'><div class = 'column'><img src = 'uspos/5600.bmp' width = '100%;'></div><div class = 'column'><img src = 'category1/CS8.png' width = '70%;'></div></div>","null","pos","CS","CS","1","category1/CS8.png","","","","",""
"","html-keyboard-response","24","266168","0.0-6.0-0.0-0.18","1z04sepqyo","many_one","0","direct_first","1","on06rg09","1","21","1","1","3","1","Meine  Entscheidungen haben sich sehr wahllos angefühlt.","0","1","0","null","","","<div class = 'row'><div class = 'column'><img src = 'usneg/9520.bmp' width = '100%;'></div><div class = 'column'><img src = 'category3/CS1.png' width = '70%;'></div></div>","null","neg","CS","CS","3","category3/CS1.png","","","","",""
"","html-keyboard-response","25","268678","0.0-6.0-0.0-0.19","1z04sepqyo","many_one","0","direct_first","1","on06rg09","1","21","1","1","3","1","Meine  Entscheidungen haben sich sehr wahllos angefühlt.","0","1","0","null","","","<div class = 'row'><div class = 'column'><img src = 'category1/CS4.png' width = '70%;'></div><div class = 'column'><img src = 'uspos/7580.bmp' width = '100%;'></div></div>","null","pos","CS","CS","1","category1/CS4.png","","","","",""
"","survey-html-form","26","297585","0.0-6.0-1.0","1z04sepqyo","many_one","0","direct_first","1","on06rg09","1","21","1","1","3","1","Meine  Entscheidungen haben sich sehr wahllos angefühlt.","0","1","0","28387","","{}","","","","","","","","","","","",""
"","html-keyboard-response","27","301613","0.0-6.0-2.0-0.0","1z04sepqyo","many_one","0","direct_first","1","on06rg09","1","21","1","1","3","1","Meine  Entscheidungen haben sich sehr wahllos angefühlt.","0","1","0","null","","","<div class = 'row'><div class = 'column'><img src = 'category3/CS1.png' width = '70%;'></div><div class = 'column'><img src = 'usneg/9520.bmp' width = '100%;'></div></div>","null","neg","CS","CS","3","category3/CS1.png","","","","",""
"","html-keyboard-response","28","304142","0.0-6.0-2.0-0.1","1z04sepqyo","many_one","0","direct_first","1","on06rg09","1","21","1","1","3","1","Meine  Entscheidungen haben sich sehr wahllos angefühlt.","0","1","0","null","","","<div class = 'row'><div class = 'column'><img src = 'category1/CS3.png' width = '70%;'></div><div class = 'column'><img src = 'uspos/2208.bmp' width = '100%;'></div></div>","null","pos","CS","CS","1","category1/CS3.png","","","","",""
"","html-keyboard-response","29","306672","0.0-6.0-2.0-0.2","1z04sepqyo","many_one","0","direct_first","1","on06rg09","1","21","1","1","3","1","Meine  Entscheidungen haben sich sehr wahllos angefühlt.","0","1","0","null","","","<div class = 'row'><div class = 'column'><img src = 'category2/CS6.png' width = '70%;'></div><div class = 'column'><img src = 'usneg/9415.bmp' width = '100%;'></div></div>","null","neg","CS","CS","2","category2/CS6.png","","","","",""
"","html-keyboard-response","30","309181","0.0-6.0-2.0-0.3","1z04sepqyo","many_one","0","direct_first","1","on06rg09","1","21","1","1","3","1","Meine  Entscheidungen haben sich sehr wahllos angefühlt.","0","1","0","null","","","<div class = 'row'><div class = 'column'><img src = 'uspos/2160.bmp' width = '100%;'></div><div class = 'column'><img src = 'category1/CS9.png' width = '70%;'></div></div>","null","pos","CS","CS","1","category1/CS9.png","","","","",""
"","html-keyboard-response","31","311711","0.0-6.0-2.0-0.4","1z04sepqyo","many_one","0","direct_first","1","on06rg09","1","21","1","1","3","1","Meine  Entscheidungen haben sich sehr wahllos angefühlt.","0","1","0","null","","","<div class = 'row'><div class = 'column'><img src = 'category3/CS8.png' width = '70%;'></div><div class = 'column'><img src = 'usneg/9280.bmp' width = '100%;'></div></div>","null","neg","CS","CS","3","category3/CS8.png","","","","",""
"","html-keyboard-response","32","314230","0.0-6.0-2.0-0.5","1z04sepqyo","many_one","0","direct_first","1","on06rg09","1","21","1","1","3","1","Meine  Entscheidungen haben sich sehr wahllos angefühlt.","0","1","0","null","","","<div class = 'row'><div class = 'column'><img src = 'category3/CS2.png' width = '70%;'></div><div class = 'column'><img src = 'usneg/9561.bmp' width = '100%;'></div></div>","null","neg","CS","CS","3","category3/CS2.png","","","","",""
"","html-keyboard-response","33","316749","0.0-6.0-2.0-0.6","1z04sepqyo","many_one","0","direct_first","1","on06rg09","1","21","1","1","3","1","Meine  Entscheidungen haben sich sehr wahllos angefühlt.","0","1","0","null","","","<div class = 'row'><div class = 'column'><img src = 'category3/CS9.png' width = '70%;'></div><div class = 'column'><img src = 'usneg/6838.bmp' width = '100%;'></div></div>","null","neg","CS","CS","3","category3/CS9.png","","","","",""
"","html-keyboard-response","34","319269","0.0-6.0-2.0-0.7","1z04sepqyo","many_one","0","direct_first","1","on06rg09","1","21","1","1","3","1","Meine  Entscheidungen haben sich sehr wahllos angefühlt.","0","1","0","null","","","<div class = 'row'><div class = 'column'><img src = 'usneg/9220.bmp' width = '100%;'></div><div class = 'column'><img src = 'category2/CS5.png' width = '70%;'></div></div>","null","neg","CS","CS","2","category2/CS5.png","","","","",""
"","html-keyboard-response","35","321799","0.0-6.0-2.0-0.8","1z04sepqyo","many_one","0","direct_first","1","on06rg09","1","21","1","1","3","1","Meine  Entscheidungen haben sich sehr wahllos angefühlt.","0","1","0","null","","","<div class = 'row'><div class = 'column'><img src = 'category3/CS7.png' width = '70%;'></div><div class = 'column'><img src = 'usneg/9330.bmp' width = '100%;'></div></div>","null","neg","CS","CS","3","category3/CS7.png","","","","",""
"","html-keyboard-response","36","324317","0.0-6.0-2.0-0.9","1z04sepqyo","many_one","0","direct_first","1","on06rg09","1","21","1","1","3","1","Meine  Entscheidungen haben sich sehr wahllos angefühlt.","0","1","0","null","","","<div class = 'row'><div class = 'column'><img src = 'uspos/2165.bmp' width = '100%;'></div><div class = 'column'><img src = 'category4/CS1.png' width = '70%;'></div></div>","null","pos","CS","CS","4","category4/CS1.png","","","","",""
"","html-keyboard-response","37","326847","0.0-6.0-2.0-0.10","1z04sepqyo","many_one","0","direct_first","1","on06rg09","1","21","1","1","3","1","Meine  Entscheidungen haben sich sehr wahllos angefühlt.","0","1","0","null","","","<div class = 'row'><div class = 'column'><img src = 'uspos/5600.bmp' width = '100%;'></div><div class = 'column'><img src = 'category1/CS8.png' width = '70%;'></div></div>","null","pos","CS","CS","1","category1/CS8.png","","","","",""
"","html-keyboard-response","38","329356","0.0-6.0-2.0-0.11","1z04sepqyo","many_one","0","direct_first","1","on06rg09","1","21","1","1","3","1","Meine  Entscheidungen haben sich sehr wahllos angefühlt.","0","1","0","null","","","<div class = 'row'><div class = 'column'><img src = 'usneg/2141.bmp' width = '100%;'></div><div class = 'column'><img src = 'category2/CS1.png' width = '70%;'></div></div>","null","neg","CS","CS","2","category2/CS1.png","","","","",""
"","html-keyboard-response","39","331875","0.0-6.0-2.0-0.12","1z04sepqyo","many_one","0","direct_first","1","on06rg09","1","21","1","1","3","1","Meine  Entscheidungen haben sich sehr wahllos angefühlt.","0","1","0","null","","","<div class = 'row'><div class = 'column'><img src = 'category4/CS5.png' width = '70%;'></div><div class = 'column'><img src = 'uspos/1340.bmp' width = '100%;'></div></div>","null","pos","CS","CS","4","category4/CS5.png","","","","",""
"","html-keyboard-response","40","334405","0.0-6.0-2.0-0.13","1z04sepqyo","many_one","0","direct_first","1","on06rg09","1","21","1","1","3","1","Meine  Entscheidungen haben sich sehr wahllos angefühlt.","0","1","0","null","","","<div class = 'row'><div class = 'column'><img src = 'uspos/5830.bmp' width = '100%;'></div><div class = 'column'><img src = 'category4/CS10.png' width = '70%;'></div></div>","null","pos","CS","CS","4","category4/CS10.png","","","","",""
"","html-keyboard-response","41","336934","0.0-6.0-2.0-0.14","1z04sepqyo","many_one","0","direct_first","1","on06rg09","1","21","1","1","3","1","Meine  Entscheidungen haben sich sehr wahllos angefühlt.","0","1","0","null","","","<div class = 'row'><div class = 'column'><img src = 'category4/CS9.png' width = '70%;'></div><div class = 'column'><img src = 'uspos/8540.bmp' width = '100%;'></div></div>","null","pos","CS","CS","4","category4/CS9.png","","","","",""
"","html-keyboard-response","42","339464","0.0-6.0-2.0-0.15","1z04sepqyo","many_one","0","direct_first","1","on06rg09","1","21","1","1","3","1","Meine  Entscheidungen haben sich sehr wahllos angefühlt.","0","1","0","null","","","<div class = 'row'><div class = 'column'><img src = 'uspos/7580.bmp' width = '100%;'></div><div class = 'column'><img src = 'category1/CS4.png' width = '70%;'></div></div>","null","pos","CS","CS","1","category1/CS4.png","","","","",""
"","html-keyboard-response","43","341974","0.0-6.0-2.0-0.16","1z04sepqyo","many_one","0","direct_first","1","on06rg09","1","21","1","1","3","1","Meine  Entscheidungen haben sich sehr wahllos angefühlt.","0","1","0","null","","","<div class = 'row'><div class = 'column'><img src = 'category2/CS2.png' width = '70%;'></div><div class = 'column'><img src = 'usneg/6212.bmp' width = '100%;'></div></div>","null","neg","CS","CS","2","category2/CS2.png","","","","",""
"","html-keyboard-response","44","344503","0.0-6.0-2.0-0.17","1z04sepqyo","many_one","0","direct_first","1","on06rg09","1","21","1","1","3","1","Meine  Entscheidungen haben sich sehr wahllos angefühlt.","0","1","0","null","","","<div class = 'row'><div class = 'column'><img src = 'usneg/9635.2.bmp' width = '100%;'></div><div class = 'column'><img src = 'category2/CS7.png' width = '70%;'></div></div>","null","neg","CS","CS","2","category2/CS7.png","","","","",""
"","html-keyboard-response","45","347022","0.0-6.0-2.0-0.18","1z04sepqyo","many_one","0","direct_first","1","on06rg09","1","21","1","1","3","1","Meine  Entscheidungen haben sich sehr wahllos angefühlt.","0","1","0","null","","","<div class = 'row'><div class = 'column'><img src = 'uspos/5470.bmp' width = '100%;'></div><div class = 'column'><img src = 'category1/CS1.png' width = '70%;'></div></div>","null","pos","CS","CS","1","category1/CS1.png","","","","",""
"","html-keyboard-response","46","349542","0.0-6.0-2.0-0.19","1z04sepqyo","many_one","0","direct_first","1","on06rg09","1","21","1","1","3","1","Meine  Entscheidungen haben sich sehr wahllos angefühlt.","0","1","0","null","","","<div class = 'row'><div class = 'column'><img src = 'category4/CS7.png' width = '70%;'></div><div class = 'column'><img src = 'uspos/1440.bmp' width = '100%;'></div></div>","null","pos","CS","CS","4","category4/CS7.png","","","","",""
"","survey-html-form","47","371201","0.0-6.0-3.0","1z04sepqyo","many_one","0","direct_first","1","on06rg09","1","21","1","1","3","1","Meine  Entscheidungen haben sich sehr wahllos angefühlt.","0","1","0","21141","","{}","","","","","","","","","","","",""
"","html-keyboard-response","48","375223","0.0-6.0-4.0-0.0","1z04sepqyo","many_one","0","direct_first","1","on06rg09","1","21","1","1","3","1","Meine  Entscheidungen haben sich sehr wahllos angefühlt.","0","1","0","null","","","<div class = 'row'><div class = 'column'><img src = 'category1/CS9.png' width = '70%;'></div><div class = 'column'><img src = 'uspos/2160.bmp' width = '100%;'></div></div>","null","pos","CS","CS","1","category1/CS9.png","","","","",""
"","html-keyboard-response","49","377753","0.0-6.0-4.0-0.1","1z04sepqyo","many_one","0","direct_first","1","on06rg09","1","21","1","1","3","1","Meine  Entscheidungen haben sich sehr wahllos angefühlt.","0","1","0","null","","","<div class = 'row'><div class = 'column'><img src = 'uspos/5600.bmp' width = '100%;'></div><div class = 'column'><img src = 'category1/CS8.png' width = '70%;'></div></div>","null","pos","CS","CS","1","category1/CS8.png","","","","",""
"","html-keyboard-response","50","380282","0.0-6.0-4.0-0.2","1z04sepqyo","many_one","0","direct_first","1","on06rg09","1","21","1","1","3","1","Meine  Entscheidungen haben sich sehr wahllos angefühlt.","0","1","0","null","","","<div class = 'row'><div class = 'column'><img src = 'uspos/2208.bmp' width = '100%;'></div><div class = 'column'><img src = 'category1/CS3.png' width = '70%;'></div></div>","null","pos","CS","CS","1","category1/CS3.png","","","","",""
"","html-keyboard-response","51","382791","0.0-6.0-4.0-0.3","1z04sepqyo","many_one","0","direct_first","1","on06rg09","1","21","1","1","3","1","Meine  Entscheidungen haben sich sehr wahllos angefühlt.","0","1","0","null","","","<div class = 'row'><div class = 'column'><img src = 'usneg/9280.bmp' width = '100%;'></div><div class = 'column'><img src = 'category3/CS8.png' width = '70%;'></div></div>","null","neg","CS","CS","3","category3/CS8.png","","","","",""
"","html-keyboard-response","52","385311","0.0-6.0-4.0-0.4","1z04sepqyo","many_one","0","direct_first","1","on06rg09","1","21","1","1","3","1","Meine  Entscheidungen haben sich sehr wahllos angefühlt.","0","1","0","null","","","<div class = 'row'><div class = 'column'><img src = 'uspos/7580.bmp' width = '100%;'></div><div class = 'column'><img src = 'category1/CS4.png' width = '70%;'></div></div>","null","pos","CS","CS","1","category1/CS4.png","","","","",""
"","html-keyboard-response","53","387820","0.0-6.0-4.0-0.5","1z04sepqyo","many_one","0","direct_first","1","on06rg09","1","21","1","1","3","1","Meine  Entscheidungen haben sich sehr wahllos angefühlt.","0","1","0","null","","","<div class = 'row'><div class = 'column'><img src = 'category3/CS9.png' width = '70%;'></div><div class = 'column'><img src = 'usneg/6838.bmp' width = '100%;'></div></div>","null","neg","CS","CS","3","category3/CS9.png","","","","",""
"","html-keyboard-response","54","390339","0.0-6.0-4.0-0.6","1z04sepqyo","many_one","0","direct_first","1","on06rg09","1","21","1","1","3","1","Meine  Entscheidungen haben sich sehr wahllos angefühlt.","0","1","0","null","","","<div class = 'row'><div class = 'column'><img src = 'usneg/9635.2.bmp' width = '100%;'></div><div class = 'column'><img src = 'category2/CS7.png' width = '70%;'></div></div>","null","neg","CS","CS","2","category2/CS7.png","","","","",""
"","html-keyboard-response","55","392858","0.0-6.0-4.0-0.7","1z04sepqyo","many_one","0","direct_first","1","on06rg09","1","21","1","1","3","1","Meine  Entscheidungen haben sich sehr wahllos angefühlt.","0","1","0","null","","","<div class = 'row'><div class = 'column'><img src = 'category4/CS7.png' width = '70%;'></div><div class = 'column'><img src = 'uspos/1440.bmp' width = '100%;'></div></div>","null","pos","CS","CS","4","category4/CS7.png","","","","",""
"","html-keyboard-response","56","395368","0.0-6.0-4.0-0.8","1z04sepqyo","many_one","0","direct_first","1","on06rg09","1","21","1","1","3","1","Meine  Entscheidungen haben sich sehr wahllos angefühlt.","0","1","0","null","","","<div class = 'row'><div class = 'column'><img src = 'uspos/5470.bmp' width = '100%;'></div><div class = 'column'><img src = 'category1/CS1.png' width = '70%;'></div></div>","null","pos","CS","CS","1","category1/CS1.png","","","","",""
"","html-keyboard-response","57","397877","0.0-6.0-4.0-0.9","1z04sepqyo","many_one","0","direct_first","1","on06rg09","1","21","1","1","3","1","Meine  Entscheidungen haben sich sehr wahllos angefühlt.","0","1","0","null","","","<div class = 'row'><div class = 'column'><img src = 'category4/CS9.png' width = '70%;'></div><div class = 'column'><img src = 'uspos/8540.bmp' width = '100%;'></div></div>","null","pos","CS","CS","4","category4/CS9.png","","","","",""
"","html-keyboard-response","58","400397","0.0-6.0-4.0-0.10","1z04sepqyo","many_one","0","direct_first","1","on06rg09","1","21","1","1","3","1","Meine  Entscheidungen haben sich sehr wahllos angefühlt.","0","1","0","null","","","<div class = 'row'><div class = 'column'><img src = 'usneg/9220.bmp' width = '100%;'></div><div class = 'column'><img src = 'category2/CS5.png' width = '70%;'></div></div>","null","neg","CS","CS","2","category2/CS5.png","","","","",""
"","html-keyboard-response","59","402926","0.0-6.0-4.0-0.11","1z04sepqyo","many_one","0","direct_first","1","on06rg09","1","21","1","1","3","1","Meine  Entscheidungen haben sich sehr wahllos angefühlt.","0","1","0","null","","","<div class = 'row'><div class = 'column'><img src = 'category3/CS7.png' width = '70%;'></div><div class = 'column'><img src = 'usneg/9330.bmp' width = '100%;'></div></div>","null","neg","CS","CS","3","category3/CS7.png","","","","",""
"","html-keyboard-response","60","405435","0.0-6.0-4.0-0.12","1z04sepqyo","many_one","0","direct_first","1","on06rg09","1","21","1","1","3","1","Meine  Entscheidungen haben sich sehr wahllos angefühlt.","0","1","0","null","","","<div class = 'row'><div class = 'column'><img src = 'category4/CS1.png' width = '70%;'></div><div class = 'column'><img src = 'uspos/2165.bmp' width = '100%;'></div></div>","null","pos","CS","CS","4","category4/CS1.png","","","","",""
"","html-keyboard-response","61","407965","0.0-6.0-4.0-0.13","1z04sepqyo","many_one","0","direct_first","1","on06rg09","1","21","1","1","3","1","Meine  Entscheidungen haben sich sehr wahllos angefühlt.","0","1","0","null","","","<div class = 'row'><div class = 'column'><img src = 'usneg/2141.bmp' width = '100%;'></div><div class = 'column'><img src = 'category2/CS1.png' width = '70%;'></div></div>","null","neg","CS","CS","2","category2/CS1.png","","","","",""
"","html-keyboard-response","62","410484","0.0-6.0-4.0-0.14","1z04sepqyo","many_one","0","direct_first","1","on06rg09","1","21","1","1","3","1","Meine  Entscheidungen haben sich sehr wahllos angefühlt.","0","1","0","null","","","<div class = 'row'><div class = 'column'><img src = 'usneg/9520.bmp' width = '100%;'></div><div class = 'column'><img src = 'category3/CS1.png' width = '70%;'></div></div>","null","neg","CS","CS","3","category3/CS1.png","","","","",""
"","html-keyboard-response","63","413003","0.0-6.0-4.0-0.15","1z04sepqyo","many_one","0","direct_first","1","on06rg09","1","21","1","1","3","1","Meine  Entscheidungen haben sich sehr wahllos angefühlt.","0","1","0","null","","","<div class = 'row'><div class = 'column'><img src = 'category2/CS2.png' width = '70%;'></div><div class = 'column'><img src = 'usneg/6212.bmp' width = '100%;'></div></div>","null","neg","CS","CS","2","category2/CS2.png","","","","",""
"","html-keyboard-response","64","415522","0.0-6.0-4.0-0.16","1z04sepqyo","many_one","0","direct_first","1","on06rg09","1","21","1","1","3","1","Meine  Entscheidungen haben sich sehr wahllos angefühlt.","0","1","0","null","","","<div class = 'row'><div class = 'column'><img src = 'uspos/1340.bmp' width = '100%;'></div><div class = 'column'><img src = 'category4/CS5.png' width = '70%;'></div></div>","null","pos","CS","CS","4","category4/CS5.png","","","","",""
"","html-keyboard-response","65","418052","0.0-6.0-4.0-0.17","1z04sepqyo","many_one","0","direct_first","1","on06rg09","1","21","1","1","3","1","Meine  Entscheidungen haben sich sehr wahllos angefühlt.","0","1","0","null","","","<div class = 'row'><div class = 'column'><img src = 'category2/CS6.png' width = '70%;'></div><div class = 'column'><img src = 'usneg/9415.bmp' width = '100%;'></div></div>","null","neg","CS","CS","2","category2/CS6.png","","","","",""
"","html-keyboard-response","66","420561","0.0-6.0-4.0-0.18","1z04sepqyo","many_one","0","direct_first","1","on06rg09","1","21","1","1","3","1","Meine  Entscheidungen haben sich sehr wahllos angefühlt.","0","1","0","null","","","<div class = 'row'><div class = 'column'><img src = 'uspos/5830.bmp' width = '100%;'></div><div class = 'column'><img src = 'category4/CS10.png' width = '70%;'></div></div>","null","pos","CS","CS","4","category4/CS10.png","","","","",""
"","html-keyboard-response","67","423091","0.0-6.0-4.0-0.19","1z04sepqyo","many_one","0","direct_first","1","on06rg09","1","21","1","1","3","1","Meine  Entscheidungen haben sich sehr wahllos angefühlt.","0","1","0","null","","","<div class = 'row'><div class = 'column'><img src = 'category3/CS2.png' width = '70%;'></div><div class = 'column'><img src = 'usneg/9561.bmp' width = '100%;'></div></div>","null","neg","CS","CS","3","category3/CS2.png","","","","",""
"","survey-html-form","68","474689","0.0-6.0-5.0","1z04sepqyo","many_one","0","direct_first","1","on06rg09","1","21","1","1","3","1","Meine  Entscheidungen haben sich sehr wahllos angefühlt.","0","1","0","51079","","{}","","","","","","","","","","","",""
"","html-keyboard-response","69","478710","0.0-6.0-6.0-0.0","1z04sepqyo","many_one","0","direct_first","1","on06rg09","1","21","1","1","3","1","Meine  Entscheidungen haben sich sehr wahllos angefühlt.","0","1","0","null","","","<div class = 'row'><div class = 'column'><img src = 'usneg/9520.bmp' width = '100%;'></div><div class = 'column'><img src = 'category3/CS1.png' width = '70%;'></div></div>","null","neg","CS","CS","3","category3/CS1.png","","","","",""
"","html-keyboard-response","70","481229","0.0-6.0-6.0-0.1","1z04sepqyo","many_one","0","direct_first","1","on06rg09","1","21","1","1","3","1","Meine  Entscheidungen haben sich sehr wahllos angefühlt.","0","1","0","null","","","<div class = 'row'><div class = 'column'><img src = 'category2/CS1.png' width = '70%;'></div><div class = 'column'><img src = 'usneg/2141.bmp' width = '100%;'></div></div>","null","neg","CS","CS","2","category2/CS1.png","","","","",""
"","html-keyboard-response","71","483769","0.0-6.0-6.0-0.2","1z04sepqyo","many_one","0","direct_first","1","on06rg09","1","21","1","1","3","1","Meine  Entscheidungen haben sich sehr wahllos angefühlt.","0","1","0","null","","","<div class = 'row'><div class = 'column'><img src = 'uspos/5830.bmp' width = '100%;'></div><div class = 'column'><img src = 'category4/CS10.png' width = '70%;'></div></div>","null","pos","CS","CS","4","category4/CS10.png","","","","",""
"","html-keyboard-response","72","486298","0.0-6.0-6.0-0.3","1z04sepqyo","many_one","0","direct_first","1","on06rg09","1","21","1","1","3","1","Meine  Entscheidungen haben sich sehr wahllos angefühlt.","0","1","0","null","","","<div class = 'row'><div class = 'column'><img src = 'category1/CS4.png' width = '70%;'></div><div class = 'column'><img src = 'uspos/7580.bmp' width = '100%;'></div></div>","null","pos","CS","CS","1","category1/CS4.png","","","","",""
"","html-keyboard-response","73","488819","0.0-6.0-6.0-0.4","1z04sepqyo","many_one","0","direct_first","1","on06rg09","1","21","1","1","3","1","Meine  Entscheidungen haben sich sehr wahllos angefühlt.","0","1","0","null","","","<div class = 'row'><div class = 'column'><img src = 'category2/CS5.png' width = '70%;'></div><div class = 'column'><img src = 'usneg/9220.bmp' width = '100%;'></div></div>","null","neg","CS","CS","2","category2/CS5.png","","","","",""
"","html-keyboard-response","74","491356","0.0-6.0-6.0-0.5","1z04sepqyo","many_one","0","direct_first","1","on06rg09","1","21","1","1","3","1","Meine  Entscheidungen haben sich sehr wahllos angefühlt.","0","1","0","null","","","<div class = 'row'><div class = 'column'><img src = 'category4/CS1.png' width = '70%;'></div><div class = 'column'><img src = 'uspos/2165.bmp' width = '100%;'></div></div>","null","pos","CS","CS","4","category4/CS1.png","","","","",""
"","html-keyboard-response","75","493878","0.0-6.0-6.0-0.6","1z04sepqyo","many_one","0","direct_first","1","on06rg09","1","21","1","1","3","1","Meine  Entscheidungen haben sich sehr wahllos angefühlt.","0","1","0","null","","","<div class = 'row'><div class = 'column'><img src = 'category2/CS7.png' width = '70%;'></div><div class = 'column'><img src = 'usneg/9635.2.bmp' width = '100%;'></div></div>","null","neg","CS","CS","2","category2/CS7.png","","","","",""
"","html-keyboard-response","76","496406","0.0-6.0-6.0-0.7","1z04sepqyo","many_one","0","direct_first","1","on06rg09","1","21","1","1","3","1","Meine  Entscheidungen haben sich sehr wahllos angefühlt.","0","1","0","null","","","<div class = 'row'><div class = 'column'><img src = 'uspos/5600.bmp' width = '100%;'></div><div class = 'column'><img src = 'category1/CS8.png' width = '70%;'></div></div>","null","pos","CS","CS","1","category1/CS8.png","","","","",""
"","html-keyboard-response","77","498936","0.0-6.0-6.0-0.8","1z04sepqyo","many_one","0","direct_first","1","on06rg09","1","21","1","1","3","1","Meine  Entscheidungen haben sich sehr wahllos angefühlt.","0","1","0","null","","","<div class = 'row'><div class = 'column'><img src = 'usneg/6212.bmp' width = '100%;'></div><div class = 'column'><img src = 'category2/CS2.png' width = '70%;'></div></div>","null","neg","CS","CS","2","category2/CS2.png","","","","",""
"","html-keyboard-response","78","501466","0.0-6.0-6.0-0.9","1z04sepqyo","many_one","0","direct_first","1","on06rg09","1","21","1","1","3","1","Meine  Entscheidungen haben sich sehr wahllos angefühlt.","0","1","0","null","","","<div class = 'row'><div class = 'column'><img src = 'usneg/6838.bmp' width = '100%;'></div><div class = 'column'><img src = 'category3/CS9.png' width = '70%;'></div></div>","null","neg","CS","CS","3","category3/CS9.png","","","","",""
"","html-keyboard-response","79","503985","0.0-6.0-6.0-0.10","1z04sepqyo","many_one","0","direct_first","1","on06rg09","1","21","1","1","3","1","Meine  Entscheidungen haben sich sehr wahllos angefühlt.","0","1","0","null","","","<div class = 'row'><div class = 'column'><img src = 'category3/CS8.png' width = '70%;'></div><div class = 'column'><img src = 'usneg/9280.bmp' width = '100%;'></div></div>","null","neg","CS","CS","3","category3/CS8.png","","","","",""
"","html-keyboard-response","80","506494","0.0-6.0-6.0-0.11","1z04sepqyo","many_one","0","direct_first","1","on06rg09","1","21","1","1","3","1","Meine  Entscheidungen haben sich sehr wahllos angefühlt.","0","1","0","null","","","<div class = 'row'><div class = 'column'><img src = 'usneg/9415.bmp' width = '100%;'></div><div class = 'column'><img src = 'category2/CS6.png' width = '70%;'></div></div>","null","neg","CS","CS","2","category2/CS6.png","","","","",""
"","html-keyboard-response","81","509003","0.0-6.0-6.0-0.12","1z04sepqyo","many_one","0","direct_first","1","on06rg09","1","21","1","1","3","1","Meine  Entscheidungen haben sich sehr wahllos angefühlt.","0","1","0","null","","","<div class = 'row'><div class = 'column'><img src = 'category1/CS1.png' width = '70%;'></div><div class = 'column'><img src = 'uspos/5470.bmp' width = '100%;'></div></div>","null","pos","CS","CS","1","category1/CS1.png","","","","",""
"","html-keyboard-response","82","511533","0.0-6.0-6.0-0.13","1z04sepqyo","many_one","0","direct_first","1","on06rg09","1","21","1","1","3","1","Meine  Entscheidungen haben sich sehr wahllos angefühlt.","0","1","0","null","","","<div class = 'row'><div class = 'column'><img src = 'uspos/1340.bmp' width = '100%;'></div><div class = 'column'><img src = 'category4/CS5.png' width = '70%;'></div></div>","null","pos","CS","CS","4","category4/CS5.png","","","","",""
"","html-keyboard-response","83","514062","0.0-6.0-6.0-0.14","1z04sepqyo","many_one","0","direct_first","1","on06rg09","1","21","1","1","3","1","Meine  Entscheidungen haben sich sehr wahllos angefühlt.","0","1","0","null","","","<div class = 'row'><div class = 'column'><img src = 'uspos/2160.bmp' width = '100%;'></div><div class = 'column'><img src = 'category1/CS9.png' width = '70%;'></div></div>","null","pos","CS","CS","1","category1/CS9.png","","","","",""
"","html-keyboard-response","84","516582","0.0-6.0-6.0-0.15","1z04sepqyo","many_one","0","direct_first","1","on06rg09","1","21","1","1","3","1","Meine  Entscheidungen haben sich sehr wahllos angefühlt.","0","1","0","null","","","<div class = 'row'><div class = 'column'><img src = 'category4/CS9.png' width = '70%;'></div><div class = 'column'><img src = 'uspos/8540.bmp' width = '100%;'></div></div>","null","pos","CS","CS","4","category4/CS9.png","","","","",""
"","html-keyboard-response","85","519101","0.0-6.0-6.0-0.16","1z04sepqyo","many_one","0","direct_first","1","on06rg09","1","21","1","1","3","1","Meine  Entscheidungen haben sich sehr wahllos angefühlt.","0","1","0","null","","","<div class = 'row'><div class = 'column'><img src = 'category4/CS7.png' width = '70%;'></div><div class = 'column'><img src = 'uspos/1440.bmp' width = '100%;'></div></div>","null","pos","CS","CS","4","category4/CS7.png","","","","",""
"","html-keyboard-response","86","521620","0.0-6.0-6.0-0.17","1z04sepqyo","many_one","0","direct_first","1","on06rg09","1","21","1","1","3","1","Meine  Entscheidungen haben sich sehr wahllos angefühlt.","0","1","0","null","","","<div class = 'row'><div class = 'column'><img src = 'usneg/9561.bmp' width = '100%;'></div><div class = 'column'><img src = 'category3/CS2.png' width = '70%;'></div></div>","null","neg","CS","CS","3","category3/CS2.png","","","","",""
"","html-keyboard-response","87","524150","0.0-6.0-6.0-0.18","1z04sepqyo","many_one","0","direct_first","1","on06rg09","1","21","1","1","3","1","Meine  Entscheidungen haben sich sehr wahllos angefühlt.","0","1","0","null","","","<div class = 'row'><div class = 'column'><img src = 'category3/CS7.png' width = '70%;'></div><div class = 'column'><img src = 'usneg/9330.bmp' width = '100%;'></div></div>","null","neg","CS","CS","3","category3/CS7.png","","","","",""
"","html-keyboard-response","88","526669","0.0-6.0-6.0-0.19","1z04sepqyo","many_one","0","direct_first","1","on06rg09","1","21","1","1","3","1","Meine  Entscheidungen haben sich sehr wahllos angefühlt.","0","1","0","null","","","<div class = 'row'><div class = 'column'><img src = 'uspos/2208.bmp' width = '100%;'></div><div class = 'column'><img src = 'category1/CS3.png' width = '70%;'></div></div>","null","pos","CS","CS","1","category1/CS3.png","","","","",""
"","survey-html-form","89","543897","0.0-7.0","1z04sepqyo","many_one","0","direct_first","1","on06rg09","1","21","1","1","3","1","Meine  Entscheidungen haben sich sehr wahllos angefühlt.","0","1","0","16719","","{}","","","","","","","","","","","",""
"","image-slider-response","90","552737","0.0-8.0-0.0","1z04sepqyo","many_one","0","direct_first","1","on06rg09","1","21","1","1","3","1","Meine  Entscheidungen haben sich sehr wahllos angefühlt.","0","1","0","6830","","","","","pos","GS","GSnew","4","category4/GS1.png","-43","targets/31.png","direct","",""
"","image-slider-response","91","563384","0.0-8.0-0.1","1z04sepqyo","many_one","0","direct_first","1","on06rg09","1","21","1","1","3","1","Meine  Entscheidungen haben sich sehr wahllos angefühlt.","0","1","0","10646","","","","","neg","CS","CS","3","category3/CS1.png","17","targets/5.png","direct","",""
"","image-slider-response","92","571009","0.0-8.0-0.2","1z04sepqyo","many_one","0","direct_first","1","on06rg09","1","21","1","1","3","1","Meine  Entscheidungen haben sich sehr wahllos angefühlt.","0","1","0","7622","","","","","pos","CS","CS","1","category1/CS4.png","-54","targets/25.png","direct","",""
"","image-slider-response","93","592737","0.0-8.0-0.3","1z04sepqyo","many_one","0","direct_first","1","on06rg09","1","21","1","1","3","1","Meine  Entscheidungen haben sich sehr wahllos angefühlt.","0","1","0","21725","","","","","neg","GS","GSold","3","category3/CS4.png","-40","targets/1.png","direct","",""
"","image-slider-response","94","599632","0.0-8.0-0.4","1z04sepqyo","many_one","0","direct_first","1","on06rg09","1","21","1","1","3","1","Meine  Entscheidungen haben sich sehr wahllos angefühlt.","0","1","0","6893","","","","","pos","GS","GSnew","1","category1/GS3.png","73","targets/12.png","direct","",""
"","image-slider-response","95","606584","0.0-8.0-0.5","1z04sepqyo","many_one","0","direct_first","1","on06rg09","1","21","1","1","3","1","Meine  Entscheidungen haben sich sehr wahllos angefühlt.","0","1","0","6950","","","","","pos","GS","GSnew","1","category1/GS2.png","76","targets/37.png","direct","",""
"","image-slider-response","96","611705","0.0-8.0-0.6","1z04sepqyo","many_one","0","direct_first","1","on06rg09","1","21","1","1","3","1","Meine  Entscheidungen haben sich sehr wahllos angefühlt.","0","1","0","5119","","","","","neg","GS","GSold","3","category3/CS10.png","-58","targets/39.png","direct","",""
"","image-slider-response","97","619017","0.0-8.0-0.7","1z04sepqyo","many_one","0","direct_first","1","on06rg09","1","21","1","1","3","1","Meine  Entscheidungen haben sich sehr wahllos angefühlt.","0","1","0","7308","","","","","pos","CS","CS","4","category4/CS7.png","81","targets/16.png","direct","",""
"","image-slider-response","98","623224","0.0-8.0-0.8","1z04sepqyo","many_one","0","direct_first","1","on06rg09","1","21","1","1","3","1","Meine  Entscheidungen haben sich sehr wahllos angefühlt.","0","1","0","4205","","","","","pos","GS","GSold","1","category1/CS10.png","-54","targets/9.png","direct","",""
"","image-slider-response","99","630193","0.0-8.0-0.9","1z04sepqyo","many_one","0","direct_first","1","on06rg09","1","21","1","1","3","1","Meine  Entscheidungen haben sich sehr wahllos angefühlt.","0","1","0","6966","","","","","neg","GS","GSnew","3","category3/GS1.png","-57","targets/21.png","direct","",""
"","image-slider-response","100","634409","0.0-8.0-0.10","1z04sepqyo","many_one","0","direct_first","1","on06rg09","1","21","1","1","3","1","Meine  Entscheidungen haben sich sehr wahllos angefühlt.","0","1","0","4214","","","","","pos","CS","CS","1","category1/CS9.png","57","targets/10.png","direct","",""
"","image-slider-response","101","639337","0.0-8.0-0.11","1z04sepqyo","many_one","0","direct_first","1","on06rg09","1","21","1","1","3","1","Meine  Entscheidungen haben sich sehr wahllos angefühlt.","0","1","0","4925","","","","","neg","GS","abstract","3","category3/wang.png","-73","targets/38.png","direct","",""
"","image-slider-response","102","645776","0.0-8.0-0.12","1z04sepqyo","many_one","0","direct_first","1","on06rg09","1","21","1","1","3","1","Meine  Entscheidungen haben sich sehr wahllos angefühlt.","0","1","0","6437","","","","","pos","CS","CS","4","category4/CS10.png","100","targets/7.png","direct","",""
"","image-slider-response","103","648881","0.0-8.0-0.13","1z04sepqyo","many_one","0","direct_first","1","on06rg09","1","21","1","1","3","1","Meine  Entscheidungen haben sich sehr wahllos angefühlt.","0","1","0","3101","","","","","pos","GS","abstract","4","category4/lin.png","100","targets/42.png","direct","",""
"","image-slider-response","104","656217","0.0-8.0-0.14","1z04sepqyo","many_one","0","direct_first","1","on06rg09","1","21","1","1","3","1","Meine  Entscheidungen haben sich sehr wahllos angefühlt.","0","1","0","7335","","","","","neg","CS","CS","2","category2/CS6.png","-100","targets/14.png","direct","",""
"","image-slider-response","105","661632","0.0-8.0-0.15","1z04sepqyo","many_one","0","direct_first","1","on06rg09","1","21","1","1","3","1","Meine  Entscheidungen haben sich sehr wahllos angefühlt.","0","1","0","5414","","","","","pos","CS","CS","1","category1/CS3.png","8","targets/15.png","direct","",""
"","image-slider-response","106","664992","0.0-8.0-0.16","1z04sepqyo","many_one","0","direct_first","1","on06rg09","1","21","1","1","3","1","Meine  Entscheidungen haben sich sehr wahllos angefühlt.","0","1","0","3358","","","","","pos","GS","GSnew","1","category1/GS1.png","53","targets/34.png","direct","",""
"","image-slider-response","107","669720","0.0-8.0-0.17","1z04sepqyo","many_one","0","direct_first","1","on06rg09","1","21","1","1","3","1","Meine  Entscheidungen haben sich sehr wahllos angefühlt.","0","1","0","4726","","","","","pos","GS","GSold","4","category4/CS8.png","45","targets/13.png","direct","",""
"","image-slider-response","108","674449","0.0-8.0-0.18","1z04sepqyo","many_one","0","direct_first","1","on06rg09","1","21","1","1","3","1","Meine  Entscheidungen haben sich sehr wahllos angefühlt.","0","1","0","4726","","","","","pos","GS","GSnew","4","category4/GS2.png","-55","targets/8.png","direct","",""
"","image-slider-response","109","681552","0.0-8.0-0.19","1z04sepqyo","many_one","0","direct_first","1","on06rg09","1","21","1","1","3","1","Meine  Entscheidungen haben sich sehr wahllos angefühlt.","0","1","0","7101","","","","","neg","CS","CS","2","category2/CS1.png","-58","targets/22.png","direct","",""
"","image-slider-response","110","686833","0.0-8.0-0.20","1z04sepqyo","many_one","0","direct_first","1","on06rg09","1","21","1","1","3","1","Meine  Entscheidungen haben sich sehr wahllos angefühlt.","0","1","0","5279","","","","","neg","CS","CS","3","category3/CS2.png","52","targets/20.png","direct","",""
"","image-slider-response","111","693888","0.0-8.0-0.21","1z04sepqyo","many_one","0","direct_first","1","on06rg09","1","21","1","1","3","1","Meine  Entscheidungen haben sich sehr wahllos angefühlt.","0","1","0","7053","","","","","neg","GS","GSnew","2","category2/GS1.png","10","targets/19.png","direct","",""
"","image-slider-response","112","697073","0.0-8.0-0.22","1z04sepqyo","many_one","0","direct_first","1","on06rg09","1","21","1","1","3","1","Meine  Entscheidungen haben sich sehr wahllos angefühlt.","0","1","0","3184","","","","","pos","CS","CS","4","category4/CS1.png","38","targets/30.png","direct","",""
"","image-slider-response","113","700528","0.0-8.0-0.23","1z04sepqyo","many_one","0","direct_first","1","on06rg09","1","21","1","1","3","1","Meine  Entscheidungen haben sich sehr wahllos angefühlt.","0","1","0","3451","","","","","pos","GS","GSnew","4","category4/GS3.png","57","targets/41.png","direct","",""
"","image-slider-response","114","705480","0.0-8.0-0.24","1z04sepqyo","many_one","0","direct_first","1","on06rg09","1","21","1","1","3","1","Meine  Entscheidungen haben sich sehr wahllos angefühlt.","0","1","0","4950","","","","","neg","GS","GSnew","3","category3/GS3.png","-34","targets/45.png","direct","",""
"","image-slider-response","115","708585","0.0-8.0-0.25","1z04sepqyo","many_one","0","direct_first","1","on06rg09","1","21","1","1","3","1","Meine  Entscheidungen haben sich sehr wahllos angefühlt.","0","1","0","3102","","","","","pos","CS","CS","1","category1/CS8.png","45","targets/18.png","direct","",""
"","image-slider-response","116","712208","0.0-8.0-0.26","1z04sepqyo","many_one","0","direct_first","1","on06rg09","1","21","1","1","3","1","Meine  Entscheidungen haben sich sehr wahllos angefühlt.","0","1","0","3622","","","","","neg","GS","GSnew","2","category2/GS3.png","52","targets/36.png","direct","",""
"","image-slider-response","117","714617","0.0-8.0-0.27","1z04sepqyo","many_one","0","direct_first","1","on06rg09","1","21","1","1","3","1","Meine  Entscheidungen haben sich sehr wahllos angefühlt.","0","1","0","2406","","","","","pos","GS","GSold","1","category1/CS6.png","43","targets/24.png","direct","",""
"","image-slider-response","118","717098","0.0-8.0-0.28","1z04sepqyo","many_one","0","direct_first","1","on06rg09","1","21","1","1","3","1","Meine  Entscheidungen haben sich sehr wahllos angefühlt.","0","1","0","2478","","","","","pos","CS","CS","1","category1/CS1.png","-30","targets/2.png","direct","",""
"","image-slider-response","119","721040","0.0-8.0-0.29","1z04sepqyo","many_one","0","direct_first","1","on06rg09","1","21","1","1","3","1","Meine  Entscheidungen haben sich sehr wahllos angefühlt.","0","1","0","3940","","","","","pos","GS","abstract","1","category1/ma.png","-45","targets/48.png","direct","",""
"","image-slider-response","120","723545","0.0-8.0-0.30","1z04sepqyo","many_one","0","direct_first","1","on06rg09","1","21","1","1","3","1","Meine  Entscheidungen haben sich sehr wahllos angefühlt.","0","1","0","2503","","","","","neg","CS","CS","2","category2/CS7.png","45","targets/3.png","direct","",""
"","image-slider-response","121","726713","0.0-8.0-0.31","1z04sepqyo","many_one","0","direct_first","1","on06rg09","1","21","1","1","3","1","Meine  Entscheidungen haben sich sehr wahllos angefühlt.","0","1","0","3164","","","","","neg","GS","GSnew","3","category3/GS2.png","-46","targets/28.png","direct","",""
"","image-slider-response","122","730761","0.0-8.0-0.32","1z04sepqyo","many_one","0","direct_first","1","on06rg09","1","21","1","1","3","1","Meine  Entscheidungen haben sich sehr wahllos angefühlt.","0","1","0","4045","","","","","neg","GS","GSold","2","category2/CS4.png","-36","targets/23.png","direct","",""
"","image-slider-response","123","734233","0.0-8.0-0.33","1z04sepqyo","many_one","0","direct_first","1","on06rg09","1","21","1","1","3","1","Meine  Entscheidungen haben sich sehr wahllos angefühlt.","0","1","0","3470","","","","","neg","CS","CS","3","category3/CS8.png","-100","targets/46.png","direct","",""
"","image-slider-response","124","737105","0.0-8.0-0.34","1z04sepqyo","many_one","0","direct_first","1","on06rg09","1","21","1","1","3","1","Meine  Entscheidungen haben sich sehr wahllos angefühlt.","0","1","0","2870","","","","","neg","GS","GSnew","2","category2/GS2.png","-59","targets/11.png","direct","",""
"","image-slider-response","125","739304","0.0-8.0-0.35","1z04sepqyo","many_one","0","direct_first","1","on06rg09","1","21","1","1","3","1","Meine  Entscheidungen haben sich sehr wahllos angefühlt.","0","1","0","2198","","","","","neg","CS","CS","2","category2/CS2.png","-50","targets/6.png","direct","",""
"","image-slider-response","126","741753","0.0-8.0-0.36","1z04sepqyo","many_one","0","direct_first","1","on06rg09","1","21","1","1","3","1","Meine  Entscheidungen haben sich sehr wahllos angefühlt.","0","1","0","2446","","","","","pos","GS","GSold","4","category4/CS4.png","71","targets/17.png","direct","",""
"","image-slider-response","127","744929","0.0-8.0-0.37","1z04sepqyo","many_one","0","direct_first","1","on06rg09","1","21","1","1","3","1","Meine  Entscheidungen haben sich sehr wahllos angefühlt.","0","1","0","3175","","","","","neg","GS","GSold","2","category2/CS9.png","-62","targets/44.png","direct","",""
"","image-slider-response","128","748032","0.0-8.0-0.38","1z04sepqyo","many_one","0","direct_first","1","on06rg09","1","21","1","1","3","1","Meine  Entscheidungen haben sich sehr wahllos angefühlt.","0","1","0","3101","","","","","neg","CS","CS","3","category3/CS9.png","-54","targets/47.png","direct","",""
"","image-slider-response","129","750354","0.0-8.0-0.39","1z04sepqyo","many_one","0","direct_first","1","on06rg09","1","21","1","1","3","1","Meine  Entscheidungen haben sich sehr wahllos angefühlt.","0","1","0","2319","","","","","neg","CS","CS","2","category2/CS5.png","-51","targets/33.png","direct","",""
"","image-slider-response","130","753240","0.0-8.0-0.40","1z04sepqyo","many_one","0","direct_first","1","on06rg09","1","21","1","1","3","1","Meine  Entscheidungen haben sich sehr wahllos angefühlt.","0","1","0","2885","","","","","pos","GS","GSold","1","category1/CS2.png","38","targets/4.png","direct","",""
"","image-slider-response","131","755530","0.0-8.0-0.41","1z04sepqyo","many_one","0","direct_first","1","on06rg09","1","21","1","1","3","1","Meine  Entscheidungen haben sich sehr wahllos angefühlt.","0","1","0","2287","","","","","neg","GS","GSold","3","category3/CS6.png","-64","targets/43.png","direct","",""
"","image-slider-response","132","757857","0.0-8.0-0.42","1z04sepqyo","many_one","0","direct_first","1","on06rg09","1","21","1","1","3","1","Meine  Entscheidungen haben sich sehr wahllos angefühlt.","0","1","0","2325","","","","","pos","CS","CS","4","category4/CS5.png","64","targets/32.png","direct","",""
"","image-slider-response","133","761049","0.0-8.0-0.43","1z04sepqyo","many_one","0","direct_first","1","on06rg09","1","21","1","1","3","1","Meine  Entscheidungen haben sich sehr wahllos angefühlt.","0","1","0","3190","","","","","neg","CS","CS","3","category3/CS7.png","-38","targets/40.png","direct","",""
"","image-slider-response","134","764082","0.0-8.0-0.44","1z04sepqyo","many_one","0","direct_first","1","on06rg09","1","21","1","1","3","1","Meine  Entscheidungen haben sich sehr wahllos angefühlt.","0","1","0","3031","","","","","neg","GS","GSold","2","category2/CS8.png","-49","targets/27.png","direct","",""
"","image-slider-response","135","767129","0.0-8.0-0.45","1z04sepqyo","many_one","0","direct_first","1","on06rg09","1","21","1","1","3","1","Meine  Entscheidungen haben sich sehr wahllos angefühlt.","0","1","0","3044","","","","","pos","CS","CS","4","category4/CS9.png","84","targets/29.png","direct","",""
"","image-slider-response","136","770537","0.0-8.0-0.46","1z04sepqyo","many_one","0","direct_first","1","on06rg09","1","21","1","1","3","1","Meine  Entscheidungen haben sich sehr wahllos angefühlt.","0","1","0","3405","","","","","pos","GS","GSold","4","category4/CS3.png","100","targets/35.png","direct","",""
"","image-slider-response","137","775384","0.0-8.0-0.47","1z04sepqyo","many_one","0","direct_first","1","on06rg09","1","21","1","1","3","1","Meine  Entscheidungen haben sich sehr wahllos angefühlt.","0","1","0","4846","","","","","neg","GS","abstract","2","category2/men.png","-100","targets/26.png","direct","",""
"","html-keyboard-response","138","816473","0.0-9.0","1z04sepqyo","many_one","0","direct_first","1","on06rg09","1","21","1","1","3","1","Meine  Entscheidungen haben sich sehr wahllos angefühlt.","0","1","0","41086","","","<p>Sie sehen nun die chinesischen Zeichen nur ganz kurz. Danach sehen Sie die jeweilige Aussprache der Zeichen als Silbe auf dem Bildschrim. Ihre Aufgabe ist es, für jede Silbe anzugeben, ob diese etwas angenehmes, oder unangenehmes bedeuten könnte. Verlassen Sie sich hier vor allem auf Ihre Intuition.<br><br>Die Zeichen werden nur zur Orientierung dargestellt, beachten Sie sie deshalb nicht. Konzentrieren Sie sich vor allem auf die Silben. <br>Reagieren Sie mit folgenden zwei Tasten: <br><br><b>'D' </b> wenn die Silbe etwas <b>unangenehmes</b> bedeuten könnte. <br><b>'K'</b> wenn die Silbe etwas <b>angenehmes</b> bedeuten könnte. <br><br>Bitte legen Sie nun den Zeigefinger der linken Hand auf die Taste 'D' und den Zeigefinger der rechten Hand auf die Taste 'K'. <br>Reagieren Sie auf jede Silbe so schnell wie möglich. Uns interessiert Ihre spontane Reaktion. <br> <br> <br>Drücken Sie 'D' oder 'K', um die nächste Aufgabe zu starten. </p>","68","","","","","","","","","",""
"","html-keyboard-response","139","819499","0.0-10.0-0.0","1z04sepqyo","many_one","0","direct_first","1","on06rg09","1","21","1","1","3","1","Meine  Entscheidungen haben sich sehr wahllos angefühlt.","0","1","0","null","","","<div style=""font-size:60px;"">+</div>","null","","","","","","","","","",""
"","html-keyboard-response","140","819601","0.0-10.0-1.0","1z04sepqyo","many_one","0","direct_first","1","on06rg09","1","21","1","1","3","1","Meine  Entscheidungen haben sich sehr wahllos angefühlt.","0","1","0","null","","","<img src = 'category4/CS1.png' width = '100%;'>","null","","","","","","","","","",""
"","html-keyboard-response","141","819867","0.0-10.0-2.0","1z04sepqyo","many_one","0","direct_first","1","on06rg09","1","21","1","1","3","1","Meine  Entscheidungen haben sich sehr wahllos angefühlt.","0","1","0","null","","","<img src = 'targets/30.png' width = '100%;'>","null","","","","","","","","","",""
"","html-keyboard-response","142","824001","0.0-10.0-3.0","1z04sepqyo","many_one","0","direct_first","1","on06rg09","1","21","1","1","3","1","Meine  Entscheidungen haben sich sehr wahllos angefühlt.","0","1","0","4132","","","<img src = 'targets/mask.png' width = '100%;'>","75","pos","CS","CS","4","category4/CS1.png","","targets/30.png","indirect","1","0"
"","html-keyboard-response","143","825519","0.0-10.0-0.1","1z04sepqyo","many_one","0","direct_first","1","on06rg09","1","21","1","1","3","1","Meine  Entscheidungen haben sich sehr wahllos angefühlt.","0","1","0","null","","","<div style=""font-size:60px;"">+</div>","null","","","","","","","","","",""
"","html-keyboard-response","144","825613","0.0-10.0-1.1","1z04sepqyo","many_one","0","direct_first","1","on06rg09","1","21","1","1","3","1","Meine  Entscheidungen haben sich sehr wahllos angefühlt.","0","1","0","null","","","<img src = 'category4/CS5.png' width = '100%;'>","null","","","","","","","","","",""
"","html-keyboard-response","145","825881","0.0-10.0-2.1","1z04sepqyo","many_one","0","direct_first","1","on06rg09","1","21","1","1","3","1","Meine  Entscheidungen haben sich sehr wahllos angefühlt.","0","1","0","null","","","<img src = 'targets/32.png' width = '100%;'>","null","","","","","","","","","",""
"","html-keyboard-response","146","829474","0.0-10.0-3.1","1z04sepqyo","many_one","0","direct_first","1","on06rg09","1","21","1","1","3","1","Meine  Entscheidungen haben sich sehr wahllos angefühlt.","0","1","0","3591","","","<img src = 'targets/mask.png' width = '100%;'>","68","pos","CS","CS","4","category4/CS5.png","","targets/32.png","indirect","0","1"
"","html-keyboard-response","147","830994","0.0-10.0-0.2","1z04sepqyo","many_one","0","direct_first","1","on06rg09","1","21","1","1","3","1","Meine  Entscheidungen haben sich sehr wahllos angefühlt.","0","1","0","null","","","<div style=""font-size:60px;"">+</div>","null","","","","","","","","","",""
"","html-keyboard-response","148","831096","0.0-10.0-1.2","1z04sepqyo","many_one","0","direct_first","1","on06rg09","1","21","1","1","3","1","Meine  Entscheidungen haben sich sehr wahllos angefühlt.","0","1","0","null","","","<img src = 'category1/CS10.png' width = '100%;'>","null","","","","","","","","","",""
"","html-keyboard-response","149","831363","0.0-10.0-2.2","1z04sepqyo","many_one","0","direct_first","1","on06rg09","1","21","1","1","3","1","Meine  Entscheidungen haben sich sehr wahllos angefühlt.","0","1","0","null","","","<img src = 'targets/9.png' width = '100%;'>","null","","","","","","","","","",""
"","html-keyboard-response","150","832766","0.0-10.0-3.2","1z04sepqyo","many_one","0","direct_first","1","on06rg09","1","21","1","1","3","1","Meine  Entscheidungen haben sich sehr wahllos angefühlt.","0","1","0","1402","","","<img src = 'targets/mask.png' width = '100%;'>","75","pos","GS","GSold","1","category1/CS10.png","","targets/9.png","indirect","1","2"
"","html-keyboard-response","151","834296","0.0-10.0-0.3","1z04sepqyo","many_one","0","direct_first","1","on06rg09","1","21","1","1","3","1","Meine  Entscheidungen haben sich sehr wahllos angefühlt.","0","1","0","null","","","<div style=""font-size:60px;"">+</div>","null","","","","","","","","","",""
"","html-keyboard-response","152","834387","0.0-10.0-1.3","1z04sepqyo","many_one","0","direct_first","1","on06rg09","1","21","1","1","3","1","Meine  Entscheidungen haben sich sehr wahllos angefühlt.","0","1","0","null","","","<img src = 'category4/CS9.png' width = '100%;'>","null","","","","","","","","","",""
"","html-keyboard-response","153","834662","0.0-10.0-2.3","1z04sepqyo","many_one","0","direct_first","1","on06rg09","1","21","1","1","3","1","Meine  Entscheidungen haben sich sehr wahllos angefühlt.","0","1","0","null","","","<img src = 'targets/29.png' width = '100%;'>","null","","","","","","","","","",""
"","html-keyboard-response","154","835542","0.0-10.0-3.3","1z04sepqyo","many_one","0","direct_first","1","on06rg09","1","21","1","1","3","1","Meine  Entscheidungen haben sich sehr wahllos angefühlt.","0","1","0","880","","","<img src = 'targets/mask.png' width = '100%;'>","75","pos","CS","CS","4","category4/CS9.png","","targets/29.png","indirect","1","3"
"","html-keyboard-response","155","837059","0.0-10.0-0.4","1z04sepqyo","many_one","0","direct_first","1","on06rg09","1","21","1","1","3","1","Meine  Entscheidungen haben sich sehr wahllos angefühlt.","0","1","0","null","","","<div style=""font-size:60px;"">+</div>","null","","","","","","","","","",""
"","html-keyboard-response","156","837161","0.0-10.0-1.4","1z04sepqyo","many_one","0","direct_first","1","on06rg09","1","21","1","1","3","1","Meine  Entscheidungen haben sich sehr wahllos angefühlt.","0","1","0","null","","","<img src = 'category2/CS1.png' width = '100%;'>","null","","","","","","","","","",""
"","html-keyboard-response","157","837427","0.0-10.0-2.4","1z04sepqyo","many_one","0","direct_first","1","on06rg09","1","21","1","1","3","1","Meine  Entscheidungen haben sich sehr wahllos angefühlt.","0","1","0","null","","","<img src = 'targets/22.png' width = '100%;'>","null","","","","","","","","","",""
"","html-keyboard-response","158","838384","0.0-10.0-3.4","1z04sepqyo","many_one","0","direct_first","1","on06rg09","1","21","1","1","3","1","Meine  Entscheidungen haben sich sehr wahllos angefühlt.","0","1","0","955","","","<img src = 'targets/mask.png' width = '100%;'>","68","neg","CS","CS","2","category2/CS1.png","","targets/22.png","indirect","0","4"
"","html-keyboard-response","159","839903","0.0-10.0-0.5","1z04sepqyo","many_one","0","direct_first","1","on06rg09","1","21","1","1","3","1","Meine  Entscheidungen haben sich sehr wahllos angefühlt.","0","1","0","null","","","<div style=""font-size:60px;"">+</div>","null","","","","","","","","","",""
"","html-keyboard-response","160","840011","0.0-10.0-1.5","1z04sepqyo","many_one","0","direct_first","1","on06rg09","1","21","1","1","3","1","Meine  Entscheidungen haben sich sehr wahllos angefühlt.","0","1","0","null","","","<img src = 'category1/CS1.png' width = '100%;'>","null","","","","","","","","","",""
"","html-keyboard-response","161","840276","0.0-10.0-2.5","1z04sepqyo","many_one","0","direct_first","1","on06rg09","1","21","1","1","3","1","Meine  Entscheidungen haben sich sehr wahllos angefühlt.","0","1","0","null","","","<img src = 'targets/2.png' width = '100%;'>","null","","","","","","","","","",""
"","html-keyboard-response","162","841246","0.0-10.0-3.5","1z04sepqyo","many_one","0","direct_first","1","on06rg09","1","21","1","1","3","1","Meine  Entscheidungen haben sich sehr wahllos angefühlt.","0","1","0","969","","","<img src = 'targets/mask.png' width = '100%;'>","75","pos","CS","CS","1","category1/CS1.png","","targets/2.png","indirect","1","5"
"","html-keyboard-response","163","842768","0.0-10.0-0.6","1z04sepqyo","many_one","0","direct_first","1","on06rg09","1","21","1","1","3","1","Meine  Entscheidungen haben sich sehr wahllos angefühlt.","0","1","0","null","","","<div style=""font-size:60px;"">+</div>","null","","","","","","","","","",""
"","html-keyboard-response","164","842859","0.0-10.0-1.6","1z04sepqyo","many_one","0","direct_first","1","on06rg09","1","21","1","1","3","1","Meine  Entscheidungen haben sich sehr wahllos angefühlt.","0","1","0","null","","","<img src = 'category4/CS7.png' width = '100%;'>","null","","","","","","","","","",""
"","html-keyboard-response","165","843126","0.0-10.0-2.6","1z04sepqyo","many_one","0","direct_first","1","on06rg09","1","21","1","1","3","1","Meine  Entscheidungen haben sich sehr wahllos angefühlt.","0","1","0","null","","","<img src = 'targets/16.png' width = '100%;'>","null","","","","","","","","","",""
"","html-keyboard-response","166","843585","0.0-10.0-3.6","1z04sepqyo","many_one","0","direct_first","1","on06rg09","1","21","1","1","3","1","Meine  Entscheidungen haben sich sehr wahllos angefühlt.","0","1","0","459","","","<img src = 'targets/mask.png' width = '100%;'>","68","pos","CS","CS","4","category4/CS7.png","","targets/16.png","indirect","0","6"
"","html-keyboard-response","167","845115","0.0-10.0-0.7","1z04sepqyo","many_one","0","direct_first","1","on06rg09","1","21","1","1","3","1","Meine  Entscheidungen haben sich sehr wahllos angefühlt.","0","1","0","null","","","<div style=""font-size:60px;"">+</div>","null","","","","","","","","","",""
"","html-keyboard-response","168","845208","0.0-10.0-1.7","1z04sepqyo","many_one","0","direct_first","1","on06rg09","1","21","1","1","3","1","Meine  Entscheidungen haben sich sehr wahllos angefühlt.","0","1","0","null","","","<img src = 'category3/CS2.png' width = '100%;'>","null","","","","","","","","","",""
"","html-keyboard-response","169","845475","0.0-10.0-2.7","1z04sepqyo","many_one","0","direct_first","1","on06rg09","1","21","1","1","3","1","Meine  Entscheidungen haben sich sehr wahllos angefühlt.","0","1","0","null","","","<img src = 'targets/20.png' width = '100%;'>","null","","","","","","","","","",""
"","html-keyboard-response","170","846188","0.0-10.0-3.7","1z04sepqyo","many_one","0","direct_first","1","on06rg09","1","21","1","1","3","1","Meine  Entscheidungen haben sich sehr wahllos angefühlt.","0","1","0","711","","","<img src = 'targets/mask.png' width = '100%;'>","75","neg","CS","CS","3","category3/CS2.png","","targets/20.png","indirect","1","7"
"","html-keyboard-response","171","847705","0.0-10.0-0.8","1z04sepqyo","many_one","0","direct_first","1","on06rg09","1","21","1","1","3","1","Meine  Entscheidungen haben sich sehr wahllos angefühlt.","0","1","0","null","","","<div style=""font-size:60px;"">+</div>","null","","","","","","","","","",""
"","html-keyboard-response","172","847797","0.0-10.0-1.8","1z04sepqyo","many_one","0","direct_first","1","on06rg09","1","21","1","1","3","1","Meine  Entscheidungen haben sich sehr wahllos angefühlt.","0","1","0","null","","","<img src = 'category1/CS8.png' width = '100%;'>","null","","","","","","","","","",""
"","html-keyboard-response","173","848058","0.0-10.0-2.8","1z04sepqyo","many_one","0","direct_first","1","on06rg09","1","21","1","1","3","1","Meine  Entscheidungen haben sich sehr wahllos angefühlt.","0","1","0","null","","","<img src = 'targets/18.png' width = '100%;'>","null","","","","","","","","","",""
"","html-keyboard-response","174","848799","0.0-10.0-3.8","1z04sepqyo","many_one","0","direct_first","1","on06rg09","1","21","1","1","3","1","Meine  Entscheidungen haben sich sehr wahllos angefühlt.","0","1","0","740","","","<img src = 'targets/mask.png' width = '100%;'>","68","pos","CS","CS","1","category1/CS8.png","","targets/18.png","indirect","0","8"
"","html-keyboard-response","175","850307","0.0-10.0-0.9","1z04sepqyo","many_one","0","direct_first","1","on06rg09","1","21","1","1","3","1","Meine  Entscheidungen haben sich sehr wahllos angefühlt.","0","1","0","null","","","<div style=""font-size:60px;"">+</div>","null","","","","","","","","","",""
"","html-keyboard-response","176","850407","0.0-10.0-1.9","1z04sepqyo","many_one","0","direct_first","1","on06rg09","1","21","1","1","3","1","Meine  Entscheidungen haben sich sehr wahllos angefühlt.","0","1","0","null","","","<img src = 'category3/CS6.png' width = '100%;'>","null","","","","","","","","","",""
"","html-keyboard-response","177","850673","0.0-10.0-2.9","1z04sepqyo","many_one","0","direct_first","1","on06rg09","1","21","1","1","3","1","Meine  Entscheidungen haben sich sehr wahllos angefühlt.","0","1","0","null","","","<img src = 'targets/43.png' width = '100%;'>","null","","","","","","","","","",""
"","html-keyboard-response","178","851199","0.0-10.0-3.9","1z04sepqyo","many_one","0","direct_first","1","on06rg09","1","21","1","1","3","1","Meine  Entscheidungen haben sich sehr wahllos angefühlt.","0","1","0","524","","","<img src = 'targets/mask.png' width = '100%;'>","68","neg","GS","GSold","3","category3/CS6.png","","targets/43.png","indirect","0","9"
"","html-keyboard-response","179","852714","0.0-10.0-0.10","1z04sepqyo","many_one","0","direct_first","1","on06rg09","1","21","1","1","3","1","Meine  Entscheidungen haben sich sehr wahllos angefühlt.","0","1","0","null","","","<div style=""font-size:60px;"">+</div>","null","","","","","","","","","",""
"","html-keyboard-response","180","852805","0.0-10.0-1.10","1z04sepqyo","many_one","0","direct_first","1","on06rg09","1","21","1","1","3","1","Meine  Entscheidungen haben sich sehr wahllos angefühlt.","0","1","0","null","","","<img src = 'category3/CS7.png' width = '100%;'>","null","","","","","","","","","",""
"","html-keyboard-response","181","853073","0.0-10.0-2.10","1z04sepqyo","many_one","0","direct_first","1","on06rg09","1","21","1","1","3","1","Meine  Entscheidungen haben sich sehr wahllos angefühlt.","0","1","0","null","","","<img src = 'targets/40.png' width = '100%;'>","null","","","","","","","","","",""
"","html-keyboard-response","182","853875","0.0-10.0-3.10","1z04sepqyo","many_one","0","direct_first","1","on06rg09","1","21","1","1","3","1","Meine  Entscheidungen haben sich sehr wahllos angefühlt.","0","1","0","802","","","<img src = 'targets/mask.png' width = '100%;'>","68","neg","CS","CS","3","category3/CS7.png","","targets/40.png","indirect","0","10"
"","html-keyboard-response","183","855396","0.0-10.0-0.11","1z04sepqyo","many_one","0","direct_first","1","on06rg09","1","21","1","1","3","1","Meine  Entscheidungen haben sich sehr wahllos angefühlt.","0","1","0","null","","","<div style=""font-size:60px;"">+</div>","null","","","","","","","","","",""
"","html-keyboard-response","184","855488","0.0-10.0-1.11","1z04sepqyo","many_one","0","direct_first","1","on06rg09","1","21","1","1","3","1","Meine  Entscheidungen haben sich sehr wahllos angefühlt.","0","1","0","null","","","<img src = 'category3/CS9.png' width = '100%;'>","null","","","","","","","","","",""
"","html-keyboard-response","185","855754","0.0-10.0-2.11","1z04sepqyo","many_one","0","direct_first","1","on06rg09","1","21","1","1","3","1","Meine  Entscheidungen haben sich sehr wahllos angefühlt.","0","1","0","null","","","<img src = 'targets/47.png' width = '100%;'>","null","","","","","","","","","",""
"","html-keyboard-response","186","866811","0.0-10.0-3.11","1z04sepqyo","many_one","0","direct_first","1","on06rg09","1","21","1","1","3","1","Meine  Entscheidungen haben sich sehr wahllos angefühlt.","0","1","0","11055","","","<img src = 'targets/mask.png' width = '100%;'>","68","neg","CS","CS","3","category3/CS9.png","","targets/47.png","indirect","0","11"
"","html-keyboard-response","187","868328","0.0-10.0-0.12","1z04sepqyo","many_one","0","direct_first","1","on06rg09","1","21","1","1","3","1","Meine  Entscheidungen haben sich sehr wahllos angefühlt.","0","1","0","null","","","<div style=""font-size:60px;"">+</div>","null","","","","","","","","","",""
"","html-keyboard-response","188","868435","0.0-10.0-1.12","1z04sepqyo","many_one","0","direct_first","1","on06rg09","1","21","1","1","3","1","Meine  Entscheidungen haben sich sehr wahllos angefühlt.","0","1","0","null","","","<img src = 'category2/CS6.png' width = '100%;'>","null","","","","","","","","","",""
"","html-keyboard-response","189","868701","0.0-10.0-2.12","1z04sepqyo","many_one","0","direct_first","1","on06rg09","1","21","1","1","3","1","Meine  Entscheidungen haben sich sehr wahllos angefühlt.","0","1","0","null","","","<img src = 'targets/14.png' width = '100%;'>","null","","","","","","","","","",""
"","html-keyboard-response","190","869499","0.0-10.0-3.12","1z04sepqyo","many_one","0","direct_first","1","on06rg09","1","21","1","1","3","1","Meine  Entscheidungen haben sich sehr wahllos angefühlt.","0","1","0","796","","","<img src = 'targets/mask.png' width = '100%;'>","75","neg","CS","CS","2","category2/CS6.png","","targets/14.png","indirect","1","12"
"","html-keyboard-response","191","871019","0.0-10.0-0.13","1z04sepqyo","many_one","0","direct_first","1","on06rg09","1","21","1","1","3","1","Meine  Entscheidungen haben sich sehr wahllos angefühlt.","0","1","0","null","","","<div style=""font-size:60px;"">+</div>","null","","","","","","","","","",""
"","html-keyboard-response","192","871118","0.0-10.0-1.13","1z04sepqyo","many_one","0","direct_first","1","on06rg09","1","21","1","1","3","1","Meine  Entscheidungen haben sich sehr wahllos angefühlt.","0","1","0","null","","","<img src = 'category1/CS3.png' width = '100%;'>","null","","","","","","","","","",""
"","html-keyboard-response","193","871384","0.0-10.0-2.13","1z04sepqyo","many_one","0","direct_first","1","on06rg09","1","21","1","1","3","1","Meine  Entscheidungen haben sich sehr wahllos angefühlt.","0","1","0","null","","","<img src = 'targets/15.png' width = '100%;'>","null","","","","","","","","","",""
"","html-keyboard-response","194","872000","0.0-10.0-3.13","1z04sepqyo","many_one","0","direct_first","1","on06rg09","1","21","1","1","3","1","Meine  Entscheidungen haben sich sehr wahllos angefühlt.","0","1","0","616","","","<img src = 'targets/mask.png' width = '100%;'>","68","pos","CS","CS","1","category1/CS3.png","","targets/15.png","indirect","0","13"
"","html-keyboard-response","195","873519","0.0-10.0-0.14","1z04sepqyo","many_one","0","direct_first","1","on06rg09","1","21","1","1","3","1","Meine  Entscheidungen haben sich sehr wahllos angefühlt.","0","1","0","null","","","<div style=""font-size:60px;"">+</div>","null","","","","","","","","","",""
"","html-keyboard-response","196","873616","0.0-10.0-1.14","1z04sepqyo","many_one","0","direct_first","1","on06rg09","1","21","1","1","3","1","Meine  Entscheidungen haben sich sehr wahllos angefühlt.","0","1","0","null","","","<img src = 'category3/CS8.png' width = '100%;'>","null","","","","","","","","","",""
"","html-keyboard-response","197","873883","0.0-10.0-2.14","1z04sepqyo","many_one","0","direct_first","1","on06rg09","1","21","1","1","3","1","Meine  Entscheidungen haben sich sehr wahllos angefühlt.","0","1","0","null","","","<img src = 'targets/46.png' width = '100%;'>","null","","","","","","","","","",""
"","html-keyboard-response","198","874840","0.0-10.0-3.14","1z04sepqyo","many_one","0","direct_first","1","on06rg09","1","21","1","1","3","1","Meine  Entscheidungen haben sich sehr wahllos angefühlt.","0","1","0","956","","","<img src = 'targets/mask.png' width = '100%;'>","68","neg","CS","CS","3","category3/CS8.png","","targets/46.png","indirect","0","14"
"","html-keyboard-response","199","876360","0.0-10.0-0.15","1z04sepqyo","many_one","0","direct_first","1","on06rg09","1","21","1","1","3","1","Meine  Entscheidungen haben sich sehr wahllos angefühlt.","0","1","0","null","","","<div style=""font-size:60px;"">+</div>","null","","","","","","","","","",""
"","html-keyboard-response","200","876465","0.0-10.0-1.15","1z04sepqyo","many_one","0","direct_first","1","on06rg09","1","21","1","1","3","1","Meine  Entscheidungen haben sich sehr wahllos angefühlt.","0","1","0","null","","","<img src = 'category3/CS1.png' width = '100%;'>","null","","","","","","","","","",""
"","html-keyboard-response","201","876731","0.0-10.0-2.15","1z04sepqyo","many_one","0","direct_first","1","on06rg09","1","21","1","1","3","1","Meine  Entscheidungen haben sich sehr wahllos angefühlt.","0","1","0","null","","","<img src = 'targets/5.png' width = '100%;'>","null","","","","","","","","","",""
"","html-keyboard-response","202","877836","0.0-10.0-3.15","1z04sepqyo","many_one","0","direct_first","1","on06rg09","1","21","1","1","3","1","Meine  Entscheidungen haben sich sehr wahllos angefühlt.","0","1","0","1104","","","<img src = 'targets/mask.png' width = '100%;'>","75","neg","CS","CS","3","category3/CS1.png","","targets/5.png","indirect","1","15"
"","html-keyboard-response","203","879350","0.0-10.0-0.16","1z04sepqyo","many_one","0","direct_first","1","on06rg09","1","21","1","1","3","1","Meine  Entscheidungen haben sich sehr wahllos angefühlt.","0","1","0","null","","","<div style=""font-size:60px;"">+</div>","null","","","","","","","","","",""
"","html-keyboard-response","204","879448","0.0-10.0-1.16","1z04sepqyo","many_one","0","direct_first","1","on06rg09","1","21","1","1","3","1","Meine  Entscheidungen haben sich sehr wahllos angefühlt.","0","1","0","null","","","<img src = 'category1/CS4.png' width = '100%;'>","null","","","","","","","","","",""
"","html-keyboard-response","205","879714","0.0-10.0-2.16","1z04sepqyo","many_one","0","direct_first","1","on06rg09","1","21","1","1","3","1","Meine  Entscheidungen haben sich sehr wahllos angefühlt.","0","1","0","null","","","<img src = 'targets/25.png' width = '100%;'>","null","","","","","","","","","",""
"","html-keyboard-response","206","880754","0.0-10.0-3.16","1z04sepqyo","many_one","0","direct_first","1","on06rg09","1","21","1","1","3","1","Meine  Entscheidungen haben sich sehr wahllos angefühlt.","0","1","0","1038","","","<img src = 'targets/mask.png' width = '100%;'>","75","pos","CS","CS","1","category1/CS4.png","","targets/25.png","indirect","1","16"
"","html-keyboard-response","207","882276","0.0-10.0-0.17","1z04sepqyo","many_one","0","direct_first","1","on06rg09","1","21","1","1","3","1","Meine  Entscheidungen haben sich sehr wahllos angefühlt.","0","1","0","null","","","<div style=""font-size:60px;"">+</div>","null","","","","","","","","","",""
"","html-keyboard-response","208","882379","0.0-10.0-1.17","1z04sepqyo","many_one","0","direct_first","1","on06rg09","1","21","1","1","3","1","Meine  Entscheidungen haben sich sehr wahllos angefühlt.","0","1","0","null","","","<img src = 'category3/CS10.png' width = '100%;'>","null","","","","","","","","","",""
"","html-keyboard-response","209","882647","0.0-10.0-2.17","1z04sepqyo","many_one","0","direct_first","1","on06rg09","1","21","1","1","3","1","Meine  Entscheidungen haben sich sehr wahllos angefühlt.","0","1","0","null","","","<img src = 'targets/39.png' width = '100%;'>","null","","","","","","","","","",""
"","html-keyboard-response","210","883593","0.0-10.0-3.17","1z04sepqyo","many_one","0","direct_first","1","on06rg09","1","21","1","1","3","1","Meine  Entscheidungen haben sich sehr wahllos angefühlt.","0","1","0","944","","","<img src = 'targets/mask.png' width = '100%;'>","68","neg","GS","GSold","3","category3/CS10.png","","targets/39.png","indirect","0","17"
"","html-keyboard-response","211","885109","0.0-10.0-0.18","1z04sepqyo","many_one","0","direct_first","1","on06rg09","1","21","1","1","3","1","Meine  Entscheidungen haben sich sehr wahllos angefühlt.","0","1","0","null","","","<div style=""font-size:60px;"">+</div>","null","","","","","","","","","",""
"","html-keyboard-response","212","885211","0.0-10.0-1.18","1z04sepqyo","many_one","0","direct_first","1","on06rg09","1","21","1","1","3","1","Meine  Entscheidungen haben sich sehr wahllos angefühlt.","0","1","0","null","","","<img src = 'category2/CS5.png' width = '100%;'>","null","","","","","","","","","",""
"","html-keyboard-response","213","885479","0.0-10.0-2.18","1z04sepqyo","many_one","0","direct_first","1","on06rg09","1","21","1","1","3","1","Meine  Entscheidungen haben sich sehr wahllos angefühlt.","0","1","0","null","","","<img src = 'targets/33.png' width = '100%;'>","null","","","","","","","","","",""
"","html-keyboard-response","214","886882","0.0-10.0-3.18","1z04sepqyo","many_one","0","direct_first","1","on06rg09","1","21","1","1","3","1","Meine  Entscheidungen haben sich sehr wahllos angefühlt.","0","1","0","1402","","","<img src = 'targets/mask.png' width = '100%;'>","75","neg","CS","CS","2","category2/CS5.png","","targets/33.png","indirect","1","18"
"","html-keyboard-response","215","888401","0.0-10.0-0.19","1z04sepqyo","many_one","0","direct_first","1","on06rg09","1","21","1","1","3","1","Meine  Entscheidungen haben sich sehr wahllos angefühlt.","0","1","0","null","","","<div style=""font-size:60px;"">+</div>","null","","","","","","","","","",""
"","html-keyboard-response","216","888494","0.0-10.0-1.19","1z04sepqyo","many_one","0","direct_first","1","on06rg09","1","21","1","1","3","1","Meine  Entscheidungen haben sich sehr wahllos angefühlt.","0","1","0","null","","","<img src = 'category2/CS7.png' width = '100%;'>","null","","","","","","","","","",""
"","html-keyboard-response","217","888761","0.0-10.0-2.19","1z04sepqyo","many_one","0","direct_first","1","on06rg09","1","21","1","1","3","1","Meine  Entscheidungen haben sich sehr wahllos angefühlt.","0","1","0","null","","","<img src = 'targets/3.png' width = '100%;'>","null","","","","","","","","","",""
"","html-keyboard-response","218","889816","0.0-10.0-3.19","1z04sepqyo","many_one","0","direct_first","1","on06rg09","1","21","1","1","3","1","Meine  Entscheidungen haben sich sehr wahllos angefühlt.","0","1","0","1055","","","<img src = 'targets/mask.png' width = '100%;'>","68","neg","CS","CS","2","category2/CS7.png","","targets/3.png","indirect","0","19"
"","html-keyboard-response","219","891337","0.0-10.0-0.20","1z04sepqyo","many_one","0","direct_first","1","on06rg09","1","21","1","1","3","1","Meine  Entscheidungen haben sich sehr wahllos angefühlt.","0","1","0","null","","","<div style=""font-size:60px;"">+</div>","null","","","","","","","","","",""
"","html-keyboard-response","220","891445","0.0-10.0-1.20","1z04sepqyo","many_one","0","direct_first","1","on06rg09","1","21","1","1","3","1","Meine  Entscheidungen haben sich sehr wahllos angefühlt.","0","1","0","null","","","<img src = 'category1/CS9.png' width = '100%;'>","null","","","","","","","","","",""
"","html-keyboard-response","221","891703","0.0-10.0-2.20","1z04sepqyo","many_one","0","direct_first","1","on06rg09","1","21","1","1","3","1","Meine  Entscheidungen haben sich sehr wahllos angefühlt.","0","1","0","null","","","<img src = 'targets/10.png' width = '100%;'>","null","","","","","","","","","",""
"","html-keyboard-response","222","893064","0.0-10.0-3.20","1z04sepqyo","many_one","0","direct_first","1","on06rg09","1","21","1","1","3","1","Meine  Entscheidungen haben sich sehr wahllos angefühlt.","0","1","0","1360","","","<img src = 'targets/mask.png' width = '100%;'>","68","pos","CS","CS","1","category1/CS9.png","","targets/10.png","indirect","0","20"
"","html-keyboard-response","223","894588","0.0-10.0-0.21","1z04sepqyo","many_one","0","direct_first","1","on06rg09","1","21","1","1","3","1","Meine  Entscheidungen haben sich sehr wahllos angefühlt.","0","1","0","null","","","<div style=""font-size:60px;"">+</div>","null","","","","","","","","","",""
"","html-keyboard-response","224","894692","0.0-10.0-1.21","1z04sepqyo","many_one","0","direct_first","1","on06rg09","1","21","1","1","3","1","Meine  Entscheidungen haben sich sehr wahllos angefühlt.","0","1","0","null","","","<img src = 'category2/CS2.png' width = '100%;'>","null","","","","","","","","","",""
"","html-keyboard-response","225","894960","0.0-10.0-2.21","1z04sepqyo","many_one","0","direct_first","1","on06rg09","1","21","1","1","3","1","Meine  Entscheidungen haben sich sehr wahllos angefühlt.","0","1","0","null","","","<img src = 'targets/6.png' width = '100%;'>","null","","","","","","","","","",""
"","html-keyboard-response","226","895374","0.0-10.0-3.21","1z04sepqyo","many_one","0","direct_first","1","on06rg09","1","21","1","1","3","1","Meine  Entscheidungen haben sich sehr wahllos angefühlt.","0","1","0","413","","","<img src = 'targets/mask.png' width = '100%;'>","75","neg","CS","CS","2","category2/CS2.png","","targets/6.png","indirect","1","21"
"","html-keyboard-response","227","896884","0.0-10.0-0.22","1z04sepqyo","many_one","0","direct_first","1","on06rg09","1","21","1","1","3","1","Meine  Entscheidungen haben sich sehr wahllos angefühlt.","0","1","0","null","","","<div style=""font-size:60px;"">+</div>","null","","","","","","","","","",""
"","html-keyboard-response","228","896975","0.0-10.0-1.22","1z04sepqyo","many_one","0","direct_first","1","on06rg09","1","21","1","1","3","1","Meine  Entscheidungen haben sich sehr wahllos angefühlt.","0","1","0","null","","","<img src = 'category4/CS10.png' width = '100%;'>","null","","","","","","","","","",""
"","html-keyboard-response","229","897242","0.0-10.0-2.22","1z04sepqyo","many_one","0","direct_first","1","on06rg09","1","21","1","1","3","1","Meine  Entscheidungen haben sich sehr wahllos angefühlt.","0","1","0","null","","","<img src = 'targets/7.png' width = '100%;'>","null","","","","","","","","","",""
"","html-keyboard-response","230","898627","0.0-10.0-3.22","1z04sepqyo","many_one","0","direct_first","1","on06rg09","1","21","1","1","3","1","Meine  Entscheidungen haben sich sehr wahllos angefühlt.","0","1","0","1385","","","<img src = 'targets/mask.png' width = '100%;'>","75","pos","CS","CS","4","category4/CS10.png","","targets/7.png","indirect","1","22"
"","html-keyboard-response","231","900145","0.0-10.0-0.23","1z04sepqyo","many_one","0","direct_first","1","on06rg09","1","21","1","1","3","1","Meine  Entscheidungen haben sich sehr wahllos angefühlt.","0","1","0","null","","","<div style=""font-size:60px;"">+</div>","null","","","","","","","","","",""
"","html-keyboard-response","232","900242","0.0-10.0-1.23","1z04sepqyo","many_one","0","direct_first","1","on06rg09","1","21","1","1","3","1","Meine  Entscheidungen haben sich sehr wahllos angefühlt.","0","1","0","null","","","<img src = 'category3/CS4.png' width = '100%;'>","null","","","","","","","","","",""
"","html-keyboard-response","233","900501","0.0-10.0-2.23","1z04sepqyo","many_one","0","direct_first","1","on06rg09","1","21","1","1","3","1","Meine  Entscheidungen haben sich sehr wahllos angefühlt.","0","1","0","null","","","<img src = 'targets/1.png' width = '100%;'>","null","","","","","","","","","",""
"","html-keyboard-response","234","901025","0.0-10.0-3.23","1z04sepqyo","many_one","0","direct_first","1","on06rg09","1","21","1","1","3","1","Meine  Entscheidungen haben sich sehr wahllos angefühlt.","0","1","0","524","","","<img src = 'targets/mask.png' width = '100%;'>","68","neg","GS","GSold","3","category3/CS4.png","","targets/1.png","indirect","0","23"
"","survey-html-form","235","924698","0.0-11.0","1z04sepqyo","many_one","0","direct_first","1","on06rg09","1","21","1","1","3","1","Meine  Entscheidungen haben sich sehr wahllos angefühlt.","0","1","0","23171","","{}","","","","","","","","","","","",""
"","html-keyboard-response","236","927716","0.0-12.0-0.0","1z04sepqyo","many_one","0","direct_first","1","on06rg09","1","21","1","1","3","1","Meine  Entscheidungen haben sich sehr wahllos angefühlt.","0","1","0","null","","","<div style=""font-size:60px;"">+</div>","null","","","","","","","","","",""
"","html-keyboard-response","237","927817","0.0-12.0-1.0","1z04sepqyo","many_one","0","direct_first","1","on06rg09","1","21","1","1","3","1","Meine  Entscheidungen haben sich sehr wahllos angefühlt.","0","1","0","null","","","<img src = 'category3/wang.png' width = '100%;'>","null","","","","","","","","","",""
"","html-keyboard-response","238","928083","0.0-12.0-2.0","1z04sepqyo","many_one","0","direct_first","1","on06rg09","1","21","1","1","3","1","Meine  Entscheidungen haben sich sehr wahllos angefühlt.","0","1","0","null","","","<img src = 'targets/38.png' width = '100%;'>","null","","","","","","","","","",""
"","html-keyboard-response","239","933641","0.0-12.0-3.0","1z04sepqyo","many_one","0","direct_first","1","on06rg09","1","21","1","1","3","1","Meine  Entscheidungen haben sich sehr wahllos angefühlt.","0","1","0","5558","","","<img src = 'targets/mask.png' width = '100%;'>","75","neg","GS","abstract","3","category3/wang.png","","targets/38.png","indirect","1","24"
"","html-keyboard-response","240","935162","0.0-12.0-0.1","1z04sepqyo","many_one","0","direct_first","1","on06rg09","1","21","1","1","3","1","Meine  Entscheidungen haben sich sehr wahllos angefühlt.","0","1","0","null","","","<div style=""font-size:60px;"">+</div>","null","","","","","","","","","",""
"","html-keyboard-response","241","935263","0.0-12.0-1.1","1z04sepqyo","many_one","0","direct_first","1","on06rg09","1","21","1","1","3","1","Meine  Entscheidungen haben sich sehr wahllos angefühlt.","0","1","0","null","","","<img src = 'category2/men.png' width = '100%;'>","null","","","","","","","","","",""
"","html-keyboard-response","242","935530","0.0-12.0-2.1","1z04sepqyo","many_one","0","direct_first","1","on06rg09","1","21","1","1","3","1","Meine  Entscheidungen haben sich sehr wahllos angefühlt.","0","1","0","null","","","<img src = 'targets/26.png' width = '100%;'>","null","","","","","","","","","",""
"","html-keyboard-response","243","936248","0.0-12.0-3.1","1z04sepqyo","many_one","0","direct_first","1","on06rg09","1","21","1","1","3","1","Meine  Entscheidungen haben sich sehr wahllos angefühlt.","0","1","0","718","","","<img src = 'targets/mask.png' width = '100%;'>","75","neg","GS","abstract","2","category2/men.png","","targets/26.png","indirect","1","25"
"","html-keyboard-response","244","937763","0.0-12.0-0.2","1z04sepqyo","many_one","0","direct_first","1","on06rg09","1","21","1","1","3","1","Meine  Entscheidungen haben sich sehr wahllos angefühlt.","0","1","0","null","","","<div style=""font-size:60px;"">+</div>","null","","","","","","","","","",""
"","html-keyboard-response","245","937863","0.0-12.0-1.2","1z04sepqyo","many_one","0","direct_first","1","on06rg09","1","21","1","1","3","1","Meine  Entscheidungen haben sich sehr wahllos angefühlt.","0","1","0","null","","","<img src = 'category2/CS8.png' width = '100%;'>","null","","","","","","","","","",""
"","html-keyboard-response","246","938129","0.0-12.0-2.2","1z04sepqyo","many_one","0","direct_first","1","on06rg09","1","21","1","1","3","1","Meine  Entscheidungen haben sich sehr wahllos angefühlt.","0","1","0","null","","","<img src = 'targets/27.png' width = '100%;'>","null","","","","","","","","","",""
"","html-keyboard-response","247","939391","0.0-12.0-3.2","1z04sepqyo","many_one","0","direct_first","1","on06rg09","1","21","1","1","3","1","Meine  Entscheidungen haben sich sehr wahllos angefühlt.","0","1","0","1260","","","<img src = 'targets/mask.png' width = '100%;'>","75","neg","GS","GSold","2","category2/CS8.png","","targets/27.png","indirect","1","26"
"","html-keyboard-response","248","940902","0.0-12.0-0.3","1z04sepqyo","many_one","0","direct_first","1","on06rg09","1","21","1","1","3","1","Meine  Entscheidungen haben sich sehr wahllos angefühlt.","0","1","0","null","","","<div style=""font-size:60px;"">+</div>","null","","","","","","","","","",""
"","html-keyboard-response","249","940995","0.0-12.0-1.3","1z04sepqyo","many_one","0","direct_first","1","on06rg09","1","21","1","1","3","1","Meine  Entscheidungen haben sich sehr wahllos angefühlt.","0","1","0","null","","","<img src = 'category3/GS1.png' width = '100%;'>","null","","","","","","","","","",""
"","html-keyboard-response","250","941260","0.0-12.0-2.3","1z04sepqyo","many_one","0","direct_first","1","on06rg09","1","21","1","1","3","1","Meine  Entscheidungen haben sich sehr wahllos angefühlt.","0","1","0","null","","","<img src = 'targets/21.png' width = '100%;'>","null","","","","","","","","","",""
"","html-keyboard-response","251","941851","0.0-12.0-3.3","1z04sepqyo","many_one","0","direct_first","1","on06rg09","1","21","1","1","3","1","Meine  Entscheidungen haben sich sehr wahllos angefühlt.","0","1","0","589","","","<img src = 'targets/mask.png' width = '100%;'>","68","neg","GS","GSnew","3","category3/GS1.png","","targets/21.png","indirect","0","27"
"","html-keyboard-response","252","943360","0.0-12.0-0.4","1z04sepqyo","many_one","0","direct_first","1","on06rg09","1","21","1","1","3","1","Meine  Entscheidungen haben sich sehr wahllos angefühlt.","0","1","0","null","","","<div style=""font-size:60px;"">+</div>","null","","","","","","","","","",""
"","html-keyboard-response","253","943461","0.0-12.0-1.4","1z04sepqyo","many_one","0","direct_first","1","on06rg09","1","21","1","1","3","1","Meine  Entscheidungen haben sich sehr wahllos angefühlt.","0","1","0","null","","","<img src = 'category4/CS3.png' width = '100%;'>","null","","","","","","","","","",""
"","html-keyboard-response","254","943728","0.0-12.0-2.4","1z04sepqyo","many_one","0","direct_first","1","on06rg09","1","21","1","1","3","1","Meine  Entscheidungen haben sich sehr wahllos angefühlt.","0","1","0","null","","","<img src = 'targets/35.png' width = '100%;'>","null","","","","","","","","","",""
"","html-keyboard-response","255","944569","0.0-12.0-3.4","1z04sepqyo","many_one","0","direct_first","1","on06rg09","1","21","1","1","3","1","Meine  Entscheidungen haben sich sehr wahllos angefühlt.","0","1","0","839","","","<img src = 'targets/mask.png' width = '100%;'>","75","pos","GS","GSold","4","category4/CS3.png","","targets/35.png","indirect","1","28"
"","html-keyboard-response","256","946082","0.0-12.0-0.5","1z04sepqyo","many_one","0","direct_first","1","on06rg09","1","21","1","1","3","1","Meine  Entscheidungen haben sich sehr wahllos angefühlt.","0","1","0","null","","","<div style=""font-size:60px;"">+</div>","null","","","","","","","","","",""
"","html-keyboard-response","257","946176","0.0-12.0-1.5","1z04sepqyo","many_one","0","direct_first","1","on06rg09","1","21","1","1","3","1","Meine  Entscheidungen haben sich sehr wahllos angefühlt.","0","1","0","null","","","<img src = 'category4/GS1.png' width = '100%;'>","null","","","","","","","","","",""
"","html-keyboard-response","258","946444","0.0-12.0-2.5","1z04sepqyo","many_one","0","direct_first","1","on06rg09","1","21","1","1","3","1","Meine  Entscheidungen haben sich sehr wahllos angefühlt.","0","1","0","null","","","<img src = 'targets/31.png' width = '100%;'>","null","","","","","","","","","",""
"","html-keyboard-response","259","947559","0.0-12.0-3.5","1z04sepqyo","many_one","0","direct_first","1","on06rg09","1","21","1","1","3","1","Meine  Entscheidungen haben sich sehr wahllos angefühlt.","0","1","0","1114","","","<img src = 'targets/mask.png' width = '100%;'>","68","pos","GS","GSnew","4","category4/GS1.png","","targets/31.png","indirect","0","29"
"","html-keyboard-response","260","949079","0.0-12.0-0.6","1z04sepqyo","many_one","0","direct_first","1","on06rg09","1","21","1","1","3","1","Meine  Entscheidungen haben sich sehr wahllos angefühlt.","0","1","0","null","","","<div style=""font-size:60px;"">+</div>","null","","","","","","","","","",""
"","html-keyboard-response","261","949176","0.0-12.0-1.6","1z04sepqyo","many_one","0","direct_first","1","on06rg09","1","21","1","1","3","1","Meine  Entscheidungen haben sich sehr wahllos angefühlt.","0","1","0","null","","","<img src = 'category4/GS3.png' width = '100%;'>","null","","","","","","","","","",""
"","html-keyboard-response","262","949436","0.0-12.0-2.6","1z04sepqyo","many_one","0","direct_first","1","on06rg09","1","21","1","1","3","1","Meine  Entscheidungen haben sich sehr wahllos angefühlt.","0","1","0","null","","","<img src = 'targets/41.png' width = '100%;'>","null","","","","","","","","","",""
"","html-keyboard-response","263","950067","0.0-12.0-3.6","1z04sepqyo","many_one","0","direct_first","1","on06rg09","1","21","1","1","3","1","Meine  Entscheidungen haben sich sehr wahllos angefühlt.","0","1","0","630","","","<img src = 'targets/mask.png' width = '100%;'>","75","pos","GS","GSnew","4","category4/GS3.png","","targets/41.png","indirect","1","30"
"","html-keyboard-response","264","951588","0.0-12.0-0.7","1z04sepqyo","many_one","0","direct_first","1","on06rg09","1","21","1","1","3","1","Meine  Entscheidungen haben sich sehr wahllos angefühlt.","0","1","0","null","","","<div style=""font-size:60px;"">+</div>","null","","","","","","","","","",""
"","html-keyboard-response","265","951690","0.0-12.0-1.7","1z04sepqyo","many_one","0","direct_first","1","on06rg09","1","21","1","1","3","1","Meine  Entscheidungen haben sich sehr wahllos angefühlt.","0","1","0","null","","","<img src = 'category3/GS2.png' width = '100%;'>","null","","","","","","","","","",""
"","html-keyboard-response","266","951957","0.0-12.0-2.7","1z04sepqyo","many_one","0","direct_first","1","on06rg09","1","21","1","1","3","1","Meine  Entscheidungen haben sich sehr wahllos angefühlt.","0","1","0","null","","","<img src = 'targets/28.png' width = '100%;'>","null","","","","","","","","","",""
"","html-keyboard-response","267","952343","0.0-12.0-3.7","1z04sepqyo","many_one","0","direct_first","1","on06rg09","1","21","1","1","3","1","Meine  Entscheidungen haben sich sehr wahllos angefühlt.","0","1","0","384","","","<img src = 'targets/mask.png' width = '100%;'>","68","neg","GS","GSnew","3","category3/GS2.png","","targets/28.png","indirect","0","31"
"","html-keyboard-response","268","953861","0.0-12.0-0.8","1z04sepqyo","many_one","0","direct_first","1","on06rg09","1","21","1","1","3","1","Meine  Entscheidungen haben sich sehr wahllos angefühlt.","0","1","0","null","","","<div style=""font-size:60px;"">+</div>","null","","","","","","","","","",""
"","html-keyboard-response","269","953958","0.0-12.0-1.8","1z04sepqyo","many_one","0","direct_first","1","on06rg09","1","21","1","1","3","1","Meine  Entscheidungen haben sich sehr wahllos angefühlt.","0","1","0","null","","","<img src = 'category4/GS2.png' width = '100%;'>","null","","","","","","","","","",""
"","html-keyboard-response","270","954225","0.0-12.0-2.8","1z04sepqyo","many_one","0","direct_first","1","on06rg09","1","21","1","1","3","1","Meine  Entscheidungen haben sich sehr wahllos angefühlt.","0","1","0","null","","","<img src = 'targets/8.png' width = '100%;'>","null","","","","","","","","","",""
"","html-keyboard-response","271","954751","0.0-12.0-3.8","1z04sepqyo","many_one","0","direct_first","1","on06rg09","1","21","1","1","3","1","Meine  Entscheidungen haben sich sehr wahllos angefühlt.","0","1","0","525","","","<img src = 'targets/mask.png' width = '100%;'>","75","pos","GS","GSnew","4","category4/GS2.png","","targets/8.png","indirect","1","32"
"","html-keyboard-response","272","956282","0.0-12.0-0.9","1z04sepqyo","many_one","0","direct_first","1","on06rg09","1","21","1","1","3","1","Meine  Entscheidungen haben sich sehr wahllos angefühlt.","0","1","0","null","","","<div style=""font-size:60px;"">+</div>","null","","","","","","","","","",""
"","html-keyboard-response","273","956374","0.0-12.0-1.9","1z04sepqyo","many_one","0","direct_first","1","on06rg09","1","21","1","1","3","1","Meine  Entscheidungen haben sich sehr wahllos angefühlt.","0","1","0","null","","","<img src = 'category1/GS2.png' width = '100%;'>","null","","","","","","","","","",""
"","html-keyboard-response","274","956639","0.0-12.0-2.9","1z04sepqyo","many_one","0","direct_first","1","on06rg09","1","21","1","1","3","1","Meine  Entscheidungen haben sich sehr wahllos angefühlt.","0","1","0","null","","","<img src = 'targets/37.png' width = '100%;'>","null","","","","","","","","","",""
