"success","trial_type","trial_index","time_elapsed","internal_node_id","subject","condition","condition_code","measure","measure_code","codeword","gender","age","education","chinese","fach","handedness","comment","hinschauen","ablenkung","gewissenhaft","rt","url","responses","stimulus","key_press","val","type","type_specific","category","cs_selected","response","target","task","indirect","nr_pres"
"true","fullscreen","0","5812","0.0-0.0","gqu9j3c27l","one_one","1","direct_first","1","konian02","0","23","1","1","3","1","","0","1","0","","","","","","","","","","","","","","",""
"","external-html","1","162987","0.0-1.0","gqu9j3c27l","one_one","1","direct_first","1","konian02","0","23","1","1","3","1","","0","1","0","157063","text/information.html","","","","","","","","","","","","",""
"","external-html","2","177465","0.0-2.0","gqu9j3c27l","one_one","1","direct_first","1","konian02","0","23","1","1","3","1","","0","1","0","14321","text/consent.html","","","","","","","","","","","","",""
"","survey-html-form","3","222125","0.0-3.0","gqu9j3c27l","one_one","1","direct_first","1","konian02","0","23","1","1","3","1","","0","1","0","44653","","{""codeword_enter"":""konian02""}","","","","","","","","","","","",""
"","survey-html-form","4","245489","0.0-4.0","gqu9j3c27l","one_one","1","direct_first","1","konian02","0","23","1","1","3","1","","0","1","0","23359","","{""age"":""23"",""education"":""1"",""subject"":""3"",""gender"":""0"",""handedness"":""1"",""chinese"":""1""}","","","","","","","","","","","",""
"","survey-html-form","5","261307","0.0-5.0","gqu9j3c27l","one_one","1","direct_first","1","konian02","0","23","1","1","3","1","","0","1","0","15815","","{}","","","","","","","","","","","",""
"","html-keyboard-response","6","265343","0.0-6.0-0.0-0.0","gqu9j3c27l","one_one","1","direct_first","1","konian02","0","23","1","1","3","1","","0","1","0","null","","","<div class = 'row'><div class = 'column'><img src = 'usneg/9520.bmp' width = '100%;'></div><div class = 'column'><img src = 'category3/CS2.png' width = '70%;'></div></div>","null","neg","CS","CS","3","category3/CS2.png","","","","",""
"","html-keyboard-response","7","267872","0.0-6.0-0.0-0.1","gqu9j3c27l","one_one","1","direct_first","1","konian02","0","23","1","1","3","1","","0","1","0","null","","","<div class = 'row'><div class = 'column'><img src = 'category2/CS1.png' width = '70%;'></div><div class = 'column'><img src = 'usneg/8485.bmp' width = '100%;'></div></div>","null","neg","CS","CS","2","category2/CS1.png","","","","",""
"","html-keyboard-response","8","270411","0.0-6.0-0.0-0.2","gqu9j3c27l","one_one","1","direct_first","1","konian02","0","23","1","1","3","1","","0","1","0","null","","","<div class = 'row'><div class = 'column'><img src = 'category3/CS2.png' width = '70%;'></div><div class = 'column'><img src = 'usneg/9520.bmp' width = '100%;'></div></div>","null","neg","CS","CS","3","category3/CS2.png","","","","",""
"","html-keyboard-response","9","272952","0.0-6.0-0.0-0.3","gqu9j3c27l","one_one","1","direct_first","1","konian02","0","23","1","1","3","1","","0","1","0","null","","","<div class = 'row'><div class = 'column'><img src = 'category1/CS1.png' width = '70%;'></div><div class = 'column'><img src = 'uspos/5621.bmp' width = '100%;'></div></div>","null","pos","CS","CS","1","category1/CS1.png","","","","",""
"","html-keyboard-response","10","275480","0.0-6.0-0.0-0.4","gqu9j3c27l","one_one","1","direct_first","1","konian02","0","23","1","1","3","1","","0","1","0","null","","","<div class = 'row'><div class = 'column'><img src = 'category4/CS2.png' width = '70%;'></div><div class = 'column'><img src = 'uspos/8190.bmp' width = '100%;'></div></div>","null","pos","CS","CS","4","category4/CS2.png","","","","",""
"","html-keyboard-response","11","278002","0.0-6.0-0.0-0.5","gqu9j3c27l","one_one","1","direct_first","1","konian02","0","23","1","1","3","1","","0","1","0","null","","","<div class = 'row'><div class = 'column'><img src = 'category3/CS2.png' width = '70%;'></div><div class = 'column'><img src = 'usneg/9520.bmp' width = '100%;'></div></div>","null","neg","CS","CS","3","category3/CS2.png","","","","",""
"","html-keyboard-response","12","280542","0.0-6.0-0.0-0.6","gqu9j3c27l","one_one","1","direct_first","1","konian02","0","23","1","1","3","1","","0","1","0","null","","","<div class = 'row'><div class = 'column'><img src = 'category2/CS1.png' width = '70%;'></div><div class = 'column'><img src = 'usneg/8485.bmp' width = '100%;'></div></div>","null","neg","CS","CS","2","category2/CS1.png","","","","",""
"","html-keyboard-response","13","283072","0.0-6.0-0.0-0.7","gqu9j3c27l","one_one","1","direct_first","1","konian02","0","23","1","1","3","1","","0","1","0","null","","","<div class = 'row'><div class = 'column'><img src = 'uspos/5621.bmp' width = '100%;'></div><div class = 'column'><img src = 'category1/CS1.png' width = '70%;'></div></div>","null","pos","CS","CS","1","category1/CS1.png","","","","",""
"","html-keyboard-response","14","285612","0.0-6.0-0.0-0.8","gqu9j3c27l","one_one","1","direct_first","1","konian02","0","23","1","1","3","1","","0","1","0","null","","","<div class = 'row'><div class = 'column'><img src = 'category2/CS1.png' width = '70%;'></div><div class = 'column'><img src = 'usneg/8485.bmp' width = '100%;'></div></div>","null","neg","CS","CS","2","category2/CS1.png","","","","",""
"","html-keyboard-response","15","288141","0.0-6.0-0.0-0.9","gqu9j3c27l","one_one","1","direct_first","1","konian02","0","23","1","1","3","1","","0","1","0","null","","","<div class = 'row'><div class = 'column'><img src = 'uspos/5621.bmp' width = '100%;'></div><div class = 'column'><img src = 'category1/CS1.png' width = '70%;'></div></div>","null","pos","CS","CS","1","category1/CS1.png","","","","",""
"","html-keyboard-response","16","290682","0.0-6.0-0.0-0.10","gqu9j3c27l","one_one","1","direct_first","1","konian02","0","23","1","1","3","1","","0","1","0","null","","","<div class = 'row'><div class = 'column'><img src = 'category4/CS2.png' width = '70%;'></div><div class = 'column'><img src = 'uspos/8190.bmp' width = '100%;'></div></div>","null","pos","CS","CS","4","category4/CS2.png","","","","",""
"","html-keyboard-response","17","293211","0.0-6.0-0.0-0.11","gqu9j3c27l","one_one","1","direct_first","1","konian02","0","23","1","1","3","1","","0","1","0","null","","","<div class = 'row'><div class = 'column'><img src = 'uspos/5621.bmp' width = '100%;'></div><div class = 'column'><img src = 'category1/CS1.png' width = '70%;'></div></div>","null","pos","CS","CS","1","category1/CS1.png","","","","",""
"","html-keyboard-response","18","295742","0.0-6.0-0.0-0.12","gqu9j3c27l","one_one","1","direct_first","1","konian02","0","23","1","1","3","1","","0","1","0","null","","","<div class = 'row'><div class = 'column'><img src = 'category3/CS2.png' width = '70%;'></div><div class = 'column'><img src = 'usneg/9520.bmp' width = '100%;'></div></div>","null","neg","CS","CS","3","category3/CS2.png","","","","",""
"","html-keyboard-response","19","298282","0.0-6.0-0.0-0.13","gqu9j3c27l","one_one","1","direct_first","1","konian02","0","23","1","1","3","1","","0","1","0","null","","","<div class = 'row'><div class = 'column'><img src = 'category2/CS1.png' width = '70%;'></div><div class = 'column'><img src = 'usneg/8485.bmp' width = '100%;'></div></div>","null","neg","CS","CS","2","category2/CS1.png","","","","",""
"","html-keyboard-response","20","300822","0.0-6.0-0.0-0.14","gqu9j3c27l","one_one","1","direct_first","1","konian02","0","23","1","1","3","1","","0","1","0","null","","","<div class = 'row'><div class = 'column'><img src = 'uspos/5621.bmp' width = '100%;'></div><div class = 'column'><img src = 'category1/CS1.png' width = '70%;'></div></div>","null","pos","CS","CS","1","category1/CS1.png","","","","",""
"","html-keyboard-response","21","303352","0.0-6.0-0.0-0.15","gqu9j3c27l","one_one","1","direct_first","1","konian02","0","23","1","1","3","1","","0","1","0","null","","","<div class = 'row'><div class = 'column'><img src = 'category4/CS2.png' width = '70%;'></div><div class = 'column'><img src = 'uspos/8190.bmp' width = '100%;'></div></div>","null","pos","CS","CS","4","category4/CS2.png","","","","",""
"","html-keyboard-response","22","305892","0.0-6.0-0.0-0.16","gqu9j3c27l","one_one","1","direct_first","1","konian02","0","23","1","1","3","1","","0","1","0","null","","","<div class = 'row'><div class = 'column'><img src = 'usneg/8485.bmp' width = '100%;'></div><div class = 'column'><img src = 'category2/CS1.png' width = '70%;'></div></div>","null","neg","CS","CS","2","category2/CS1.png","","","","",""
"","html-keyboard-response","23","308432","0.0-6.0-0.0-0.17","gqu9j3c27l","one_one","1","direct_first","1","konian02","0","23","1","1","3","1","","0","1","0","null","","","<div class = 'row'><div class = 'column'><img src = 'uspos/8190.bmp' width = '100%;'></div><div class = 'column'><img src = 'category4/CS2.png' width = '70%;'></div></div>","null","pos","CS","CS","4","category4/CS2.png","","","","",""
"","html-keyboard-response","24","310972","0.0-6.0-0.0-0.18","gqu9j3c27l","one_one","1","direct_first","1","konian02","0","23","1","1","3","1","","0","1","0","null","","","<div class = 'row'><div class = 'column'><img src = 'category3/CS2.png' width = '70%;'></div><div class = 'column'><img src = 'usneg/9520.bmp' width = '100%;'></div></div>","null","neg","CS","CS","3","category3/CS2.png","","","","",""
"","html-keyboard-response","25","313511","0.0-6.0-0.0-0.19","gqu9j3c27l","one_one","1","direct_first","1","konian02","0","23","1","1","3","1","","0","1","0","null","","","<div class = 'row'><div class = 'column'><img src = 'uspos/8190.bmp' width = '100%;'></div><div class = 'column'><img src = 'category4/CS2.png' width = '70%;'></div></div>","null","pos","CS","CS","4","category4/CS2.png","","","","",""
"","survey-html-form","26","317856","0.0-6.0-1.0","gqu9j3c27l","one_one","1","direct_first","1","konian02","0","23","1","1","3","1","","0","1","0","3824","","{}","","","","","","","","","","","",""
"","html-keyboard-response","27","321882","0.0-6.0-2.0-0.0","gqu9j3c27l","one_one","1","direct_first","1","konian02","0","23","1","1","3","1","","0","1","0","null","","","<div class = 'row'><div class = 'column'><img src = 'usneg/8485.bmp' width = '100%;'></div><div class = 'column'><img src = 'category2/CS1.png' width = '70%;'></div></div>","null","neg","CS","CS","2","category2/CS1.png","","","","",""
"","html-keyboard-response","28","324421","0.0-6.0-2.0-0.1","gqu9j3c27l","one_one","1","direct_first","1","konian02","0","23","1","1","3","1","","0","1","0","null","","","<div class = 'row'><div class = 'column'><img src = 'category3/CS2.png' width = '70%;'></div><div class = 'column'><img src = 'usneg/9520.bmp' width = '100%;'></div></div>","null","neg","CS","CS","3","category3/CS2.png","","","","",""
"","html-keyboard-response","29","326961","0.0-6.0-2.0-0.2","gqu9j3c27l","one_one","1","direct_first","1","konian02","0","23","1","1","3","1","","0","1","0","null","","","<div class = 'row'><div class = 'column'><img src = 'usneg/8485.bmp' width = '100%;'></div><div class = 'column'><img src = 'category2/CS1.png' width = '70%;'></div></div>","null","neg","CS","CS","2","category2/CS1.png","","","","",""
"","html-keyboard-response","30","329501","0.0-6.0-2.0-0.3","gqu9j3c27l","one_one","1","direct_first","1","konian02","0","23","1","1","3","1","","0","1","0","null","","","<div class = 'row'><div class = 'column'><img src = 'category1/CS1.png' width = '70%;'></div><div class = 'column'><img src = 'uspos/5621.bmp' width = '100%;'></div></div>","null","pos","CS","CS","1","category1/CS1.png","","","","",""
"","html-keyboard-response","31","332042","0.0-6.0-2.0-0.4","gqu9j3c27l","one_one","1","direct_first","1","konian02","0","23","1","1","3","1","","0","1","0","null","","","<div class = 'row'><div class = 'column'><img src = 'uspos/8190.bmp' width = '100%;'></div><div class = 'column'><img src = 'category4/CS2.png' width = '70%;'></div></div>","null","pos","CS","CS","4","category4/CS2.png","","","","",""
"","html-keyboard-response","32","334571","0.0-6.0-2.0-0.5","gqu9j3c27l","one_one","1","direct_first","1","konian02","0","23","1","1","3","1","","0","1","0","null","","","<div class = 'row'><div class = 'column'><img src = 'category2/CS1.png' width = '70%;'></div><div class = 'column'><img src = 'usneg/8485.bmp' width = '100%;'></div></div>","null","neg","CS","CS","2","category2/CS1.png","","","","",""
"","html-keyboard-response","33","337111","0.0-6.0-2.0-0.6","gqu9j3c27l","one_one","1","direct_first","1","konian02","0","23","1","1","3","1","","0","1","0","null","","","<div class = 'row'><div class = 'column'><img src = 'category4/CS2.png' width = '70%;'></div><div class = 'column'><img src = 'uspos/8190.bmp' width = '100%;'></div></div>","null","pos","CS","CS","4","category4/CS2.png","","","","",""
"","html-keyboard-response","34","339651","0.0-6.0-2.0-0.7","gqu9j3c27l","one_one","1","direct_first","1","konian02","0","23","1","1","3","1","","0","1","0","null","","","<div class = 'row'><div class = 'column'><img src = 'usneg/9520.bmp' width = '100%;'></div><div class = 'column'><img src = 'category3/CS2.png' width = '70%;'></div></div>","null","neg","CS","CS","3","category3/CS2.png","","","","",""
"","html-keyboard-response","35","342186","0.0-6.0-2.0-0.8","gqu9j3c27l","one_one","1","direct_first","1","konian02","0","23","1","1","3","1","","0","1","0","null","","","<div class = 'row'><div class = 'column'><img src = 'category4/CS2.png' width = '70%;'></div><div class = 'column'><img src = 'uspos/8190.bmp' width = '100%;'></div></div>","null","pos","CS","CS","4","category4/CS2.png","","","","",""
"","html-keyboard-response","36","344721","0.0-6.0-2.0-0.9","gqu9j3c27l","one_one","1","direct_first","1","konian02","0","23","1","1","3","1","","0","1","0","null","","","<div class = 'row'><div class = 'column'><img src = 'category1/CS1.png' width = '70%;'></div><div class = 'column'><img src = 'uspos/5621.bmp' width = '100%;'></div></div>","null","pos","CS","CS","1","category1/CS1.png","","","","",""
"","html-keyboard-response","37","347252","0.0-6.0-2.0-0.10","gqu9j3c27l","one_one","1","direct_first","1","konian02","0","23","1","1","3","1","","0","1","0","null","","","<div class = 'row'><div class = 'column'><img src = 'uspos/8190.bmp' width = '100%;'></div><div class = 'column'><img src = 'category4/CS2.png' width = '70%;'></div></div>","null","pos","CS","CS","4","category4/CS2.png","","","","",""
"","html-keyboard-response","38","349790","0.0-6.0-2.0-0.11","gqu9j3c27l","one_one","1","direct_first","1","konian02","0","23","1","1","3","1","","0","1","0","null","","","<div class = 'row'><div class = 'column'><img src = 'usneg/9520.bmp' width = '100%;'></div><div class = 'column'><img src = 'category3/CS2.png' width = '70%;'></div></div>","null","neg","CS","CS","3","category3/CS2.png","","","","",""
"","html-keyboard-response","39","352321","0.0-6.0-2.0-0.12","gqu9j3c27l","one_one","1","direct_first","1","konian02","0","23","1","1","3","1","","0","1","0","null","","","<div class = 'row'><div class = 'column'><img src = 'uspos/5621.bmp' width = '100%;'></div><div class = 'column'><img src = 'category1/CS1.png' width = '70%;'></div></div>","null","pos","CS","CS","1","category1/CS1.png","","","","",""
"","html-keyboard-response","40","354852","0.0-6.0-2.0-0.13","gqu9j3c27l","one_one","1","direct_first","1","konian02","0","23","1","1","3","1","","0","1","0","null","","","<div class = 'row'><div class = 'column'><img src = 'category3/CS2.png' width = '70%;'></div><div class = 'column'><img src = 'usneg/9520.bmp' width = '100%;'></div></div>","null","neg","CS","CS","3","category3/CS2.png","","","","",""
"","html-keyboard-response","41","357391","0.0-6.0-2.0-0.14","gqu9j3c27l","one_one","1","direct_first","1","konian02","0","23","1","1","3","1","","0","1","0","null","","","<div class = 'row'><div class = 'column'><img src = 'usneg/8485.bmp' width = '100%;'></div><div class = 'column'><img src = 'category2/CS1.png' width = '70%;'></div></div>","null","neg","CS","CS","2","category2/CS1.png","","","","",""
"","html-keyboard-response","42","359932","0.0-6.0-2.0-0.15","gqu9j3c27l","one_one","1","direct_first","1","konian02","0","23","1","1","3","1","","0","1","0","null","","","<div class = 'row'><div class = 'column'><img src = 'uspos/8190.bmp' width = '100%;'></div><div class = 'column'><img src = 'category4/CS2.png' width = '70%;'></div></div>","null","pos","CS","CS","4","category4/CS2.png","","","","",""
"","html-keyboard-response","43","362451","0.0-6.0-2.0-0.16","gqu9j3c27l","one_one","1","direct_first","1","konian02","0","23","1","1","3","1","","0","1","0","null","","","<div class = 'row'><div class = 'column'><img src = 'category1/CS1.png' width = '70%;'></div><div class = 'column'><img src = 'uspos/5621.bmp' width = '100%;'></div></div>","null","pos","CS","CS","1","category1/CS1.png","","","","",""
"","html-keyboard-response","44","364981","0.0-6.0-2.0-0.17","gqu9j3c27l","one_one","1","direct_first","1","konian02","0","23","1","1","3","1","","0","1","0","null","","","<div class = 'row'><div class = 'column'><img src = 'category2/CS1.png' width = '70%;'></div><div class = 'column'><img src = 'usneg/8485.bmp' width = '100%;'></div></div>","null","neg","CS","CS","2","category2/CS1.png","","","","",""
"","html-keyboard-response","45","367521","0.0-6.0-2.0-0.18","gqu9j3c27l","one_one","1","direct_first","1","konian02","0","23","1","1","3","1","","0","1","0","null","","","<div class = 'row'><div class = 'column'><img src = 'usneg/9520.bmp' width = '100%;'></div><div class = 'column'><img src = 'category3/CS2.png' width = '70%;'></div></div>","null","neg","CS","CS","3","category3/CS2.png","","","","",""
"","html-keyboard-response","46","370052","0.0-6.0-2.0-0.19","gqu9j3c27l","one_one","1","direct_first","1","konian02","0","23","1","1","3","1","","0","1","0","null","","","<div class = 'row'><div class = 'column'><img src = 'category1/CS1.png' width = '70%;'></div><div class = 'column'><img src = 'uspos/5621.bmp' width = '100%;'></div></div>","null","pos","CS","CS","1","category1/CS1.png","","","","",""
"","survey-html-form","47","373406","0.0-6.0-3.0","gqu9j3c27l","one_one","1","direct_first","1","konian02","0","23","1","1","3","1","","0","1","0","2833","","{}","","","","","","","","","","","",""
"","html-keyboard-response","48","377441","0.0-6.0-4.0-0.0","gqu9j3c27l","one_one","1","direct_first","1","konian02","0","23","1","1","3","1","","0","1","0","null","","","<div class = 'row'><div class = 'column'><img src = 'category3/CS2.png' width = '70%;'></div><div class = 'column'><img src = 'usneg/9520.bmp' width = '100%;'></div></div>","null","neg","CS","CS","3","category3/CS2.png","","","","",""
"","html-keyboard-response","49","379982","0.0-6.0-4.0-0.1","gqu9j3c27l","one_one","1","direct_first","1","konian02","0","23","1","1","3","1","","0","1","0","null","","","<div class = 'row'><div class = 'column'><img src = 'category2/CS1.png' width = '70%;'></div><div class = 'column'><img src = 'usneg/8485.bmp' width = '100%;'></div></div>","null","neg","CS","CS","2","category2/CS1.png","","","","",""
"","html-keyboard-response","50","382521","0.0-6.0-4.0-0.2","gqu9j3c27l","one_one","1","direct_first","1","konian02","0","23","1","1","3","1","","0","1","0","null","","","<div class = 'row'><div class = 'column'><img src = 'uspos/8190.bmp' width = '100%;'></div><div class = 'column'><img src = 'category4/CS2.png' width = '70%;'></div></div>","null","pos","CS","CS","4","category4/CS2.png","","","","",""
"","html-keyboard-response","51","385062","0.0-6.0-4.0-0.3","gqu9j3c27l","one_one","1","direct_first","1","konian02","0","23","1","1","3","1","","0","1","0","null","","","<div class = 'row'><div class = 'column'><img src = 'usneg/8485.bmp' width = '100%;'></div><div class = 'column'><img src = 'category2/CS1.png' width = '70%;'></div></div>","null","neg","CS","CS","2","category2/CS1.png","","","","",""
"","html-keyboard-response","52","387601","0.0-6.0-4.0-0.4","gqu9j3c27l","one_one","1","direct_first","1","konian02","0","23","1","1","3","1","","0","1","0","null","","","<div class = 'row'><div class = 'column'><img src = 'uspos/5621.bmp' width = '100%;'></div><div class = 'column'><img src = 'category1/CS1.png' width = '70%;'></div></div>","null","pos","CS","CS","1","category1/CS1.png","","","","",""
"","html-keyboard-response","53","390142","0.0-6.0-4.0-0.5","gqu9j3c27l","one_one","1","direct_first","1","konian02","0","23","1","1","3","1","","0","1","0","null","","","<div class = 'row'><div class = 'column'><img src = 'category2/CS1.png' width = '70%;'></div><div class = 'column'><img src = 'usneg/8485.bmp' width = '100%;'></div></div>","null","neg","CS","CS","2","category2/CS1.png","","","","",""
"","html-keyboard-response","54","392681","0.0-6.0-4.0-0.6","gqu9j3c27l","one_one","1","direct_first","1","konian02","0","23","1","1","3","1","","0","1","0","null","","","<div class = 'row'><div class = 'column'><img src = 'usneg/9520.bmp' width = '100%;'></div><div class = 'column'><img src = 'category3/CS2.png' width = '70%;'></div></div>","null","neg","CS","CS","3","category3/CS2.png","","","","",""
"","html-keyboard-response","55","395222","0.0-6.0-4.0-0.7","gqu9j3c27l","one_one","1","direct_first","1","konian02","0","23","1","1","3","1","","0","1","0","null","","","<div class = 'row'><div class = 'column'><img src = 'uspos/5621.bmp' width = '100%;'></div><div class = 'column'><img src = 'category1/CS1.png' width = '70%;'></div></div>","null","pos","CS","CS","1","category1/CS1.png","","","","",""
"","html-keyboard-response","56","397752","0.0-6.0-4.0-0.8","gqu9j3c27l","one_one","1","direct_first","1","konian02","0","23","1","1","3","1","","0","1","0","null","","","<div class = 'row'><div class = 'column'><img src = 'category4/CS2.png' width = '70%;'></div><div class = 'column'><img src = 'uspos/8190.bmp' width = '100%;'></div></div>","null","pos","CS","CS","4","category4/CS2.png","","","","",""
"","html-keyboard-response","57","400281","0.0-6.0-4.0-0.9","gqu9j3c27l","one_one","1","direct_first","1","konian02","0","23","1","1","3","1","","0","1","0","null","","","<div class = 'row'><div class = 'column'><img src = 'usneg/8485.bmp' width = '100%;'></div><div class = 'column'><img src = 'category2/CS1.png' width = '70%;'></div></div>","null","neg","CS","CS","2","category2/CS1.png","","","","",""
"","html-keyboard-response","58","402812","0.0-6.0-4.0-0.10","gqu9j3c27l","one_one","1","direct_first","1","konian02","0","23","1","1","3","1","","0","1","0","null","","","<div class = 'row'><div class = 'column'><img src = 'uspos/8190.bmp' width = '100%;'></div><div class = 'column'><img src = 'category4/CS2.png' width = '70%;'></div></div>","null","pos","CS","CS","4","category4/CS2.png","","","","",""
"","html-keyboard-response","59","405351","0.0-6.0-4.0-0.11","gqu9j3c27l","one_one","1","direct_first","1","konian02","0","23","1","1","3","1","","0","1","0","null","","","<div class = 'row'><div class = 'column'><img src = 'category3/CS2.png' width = '70%;'></div><div class = 'column'><img src = 'usneg/9520.bmp' width = '100%;'></div></div>","null","neg","CS","CS","3","category3/CS2.png","","","","",""
"","html-keyboard-response","60","407881","0.0-6.0-4.0-0.12","gqu9j3c27l","one_one","1","direct_first","1","konian02","0","23","1","1","3","1","","0","1","0","null","","","<div class = 'row'><div class = 'column'><img src = 'uspos/5621.bmp' width = '100%;'></div><div class = 'column'><img src = 'category1/CS1.png' width = '70%;'></div></div>","null","pos","CS","CS","1","category1/CS1.png","","","","",""
"","html-keyboard-response","61","410422","0.0-6.0-4.0-0.13","gqu9j3c27l","one_one","1","direct_first","1","konian02","0","23","1","1","3","1","","0","1","0","null","","","<div class = 'row'><div class = 'column'><img src = 'usneg/9520.bmp' width = '100%;'></div><div class = 'column'><img src = 'category3/CS2.png' width = '70%;'></div></div>","null","neg","CS","CS","3","category3/CS2.png","","","","",""
"","html-keyboard-response","62","412961","0.0-6.0-4.0-0.14","gqu9j3c27l","one_one","1","direct_first","1","konian02","0","23","1","1","3","1","","0","1","0","null","","","<div class = 'row'><div class = 'column'><img src = 'usneg/8485.bmp' width = '100%;'></div><div class = 'column'><img src = 'category2/CS1.png' width = '70%;'></div></div>","null","neg","CS","CS","2","category2/CS1.png","","","","",""
"","html-keyboard-response","63","415481","0.0-6.0-4.0-0.15","gqu9j3c27l","one_one","1","direct_first","1","konian02","0","23","1","1","3","1","","0","1","0","null","","","<div class = 'row'><div class = 'column'><img src = 'category1/CS1.png' width = '70%;'></div><div class = 'column'><img src = 'uspos/5621.bmp' width = '100%;'></div></div>","null","pos","CS","CS","1","category1/CS1.png","","","","",""
"","html-keyboard-response","64","418022","0.0-6.0-4.0-0.16","gqu9j3c27l","one_one","1","direct_first","1","konian02","0","23","1","1","3","1","","0","1","0","null","","","<div class = 'row'><div class = 'column'><img src = 'uspos/8190.bmp' width = '100%;'></div><div class = 'column'><img src = 'category4/CS2.png' width = '70%;'></div></div>","null","pos","CS","CS","4","category4/CS2.png","","","","",""
"","html-keyboard-response","65","420561","0.0-6.0-4.0-0.17","gqu9j3c27l","one_one","1","direct_first","1","konian02","0","23","1","1","3","1","","0","1","0","null","","","<div class = 'row'><div class = 'column'><img src = 'uspos/5621.bmp' width = '100%;'></div><div class = 'column'><img src = 'category1/CS1.png' width = '70%;'></div></div>","null","pos","CS","CS","1","category1/CS1.png","","","","",""
"","html-keyboard-response","66","423092","0.0-6.0-4.0-0.18","gqu9j3c27l","one_one","1","direct_first","1","konian02","0","23","1","1","3","1","","0","1","0","null","","","<div class = 'row'><div class = 'column'><img src = 'uspos/8190.bmp' width = '100%;'></div><div class = 'column'><img src = 'category4/CS2.png' width = '70%;'></div></div>","null","pos","CS","CS","4","category4/CS2.png","","","","",""
"","html-keyboard-response","67","425631","0.0-6.0-4.0-0.19","gqu9j3c27l","one_one","1","direct_first","1","konian02","0","23","1","1","3","1","","0","1","0","null","","","<div class = 'row'><div class = 'column'><img src = 'usneg/9520.bmp' width = '100%;'></div><div class = 'column'><img src = 'category3/CS2.png' width = '70%;'></div></div>","null","neg","CS","CS","3","category3/CS2.png","","","","",""
"","survey-html-form","68","428675","0.0-6.0-5.0","gqu9j3c27l","one_one","1","direct_first","1","konian02","0","23","1","1","3","1","","0","1","0","2543","","{}","","","","","","","","","","","",""
"","html-keyboard-response","69","432709","0.0-6.0-6.0-0.0","gqu9j3c27l","one_one","1","direct_first","1","konian02","0","23","1","1","3","1","","0","1","0","null","","","<div class = 'row'><div class = 'column'><img src = 'uspos/8190.bmp' width = '100%;'></div><div class = 'column'><img src = 'category4/CS2.png' width = '70%;'></div></div>","null","pos","CS","CS","4","category4/CS2.png","","","","",""
"","html-keyboard-response","70","435232","0.0-6.0-6.0-0.1","gqu9j3c27l","one_one","1","direct_first","1","konian02","0","23","1","1","3","1","","0","1","0","null","","","<div class = 'row'><div class = 'column'><img src = 'usneg/9520.bmp' width = '100%;'></div><div class = 'column'><img src = 'category3/CS2.png' width = '70%;'></div></div>","null","neg","CS","CS","3","category3/CS2.png","","","","",""
"","html-keyboard-response","71","437772","0.0-6.0-6.0-0.2","gqu9j3c27l","one_one","1","direct_first","1","konian02","0","23","1","1","3","1","","0","1","0","null","","","<div class = 'row'><div class = 'column'><img src = 'uspos/5621.bmp' width = '100%;'></div><div class = 'column'><img src = 'category1/CS1.png' width = '70%;'></div></div>","null","pos","CS","CS","1","category1/CS1.png","","","","",""
"","html-keyboard-response","72","440302","0.0-6.0-6.0-0.3","gqu9j3c27l","one_one","1","direct_first","1","konian02","0","23","1","1","3","1","","0","1","0","null","","","<div class = 'row'><div class = 'column'><img src = 'uspos/8190.bmp' width = '100%;'></div><div class = 'column'><img src = 'category4/CS2.png' width = '70%;'></div></div>","null","pos","CS","CS","4","category4/CS2.png","","","","",""
"","html-keyboard-response","73","442831","0.0-6.0-6.0-0.4","gqu9j3c27l","one_one","1","direct_first","1","konian02","0","23","1","1","3","1","","0","1","0","null","","","<div class = 'row'><div class = 'column'><img src = 'usneg/8485.bmp' width = '100%;'></div><div class = 'column'><img src = 'category2/CS1.png' width = '70%;'></div></div>","null","neg","CS","CS","2","category2/CS1.png","","","","",""
"","html-keyboard-response","74","445371","0.0-6.0-6.0-0.5","gqu9j3c27l","one_one","1","direct_first","1","konian02","0","23","1","1","3","1","","0","1","0","null","","","<div class = 'row'><div class = 'column'><img src = 'uspos/5621.bmp' width = '100%;'></div><div class = 'column'><img src = 'category1/CS1.png' width = '70%;'></div></div>","null","pos","CS","CS","1","category1/CS1.png","","","","",""
"","html-keyboard-response","75","447912","0.0-6.0-6.0-0.6","gqu9j3c27l","one_one","1","direct_first","1","konian02","0","23","1","1","3","1","","0","1","0","null","","","<div class = 'row'><div class = 'column'><img src = 'category2/CS1.png' width = '70%;'></div><div class = 'column'><img src = 'usneg/8485.bmp' width = '100%;'></div></div>","null","neg","CS","CS","2","category2/CS1.png","","","","",""
"","html-keyboard-response","76","450441","0.0-6.0-6.0-0.7","gqu9j3c27l","one_one","1","direct_first","1","konian02","0","23","1","1","3","1","","0","1","0","null","","","<div class = 'row'><div class = 'column'><img src = 'category3/CS2.png' width = '70%;'></div><div class = 'column'><img src = 'usneg/9520.bmp' width = '100%;'></div></div>","null","neg","CS","CS","3","category3/CS2.png","","","","",""
"","html-keyboard-response","77","452981","0.0-6.0-6.0-0.8","gqu9j3c27l","one_one","1","direct_first","1","konian02","0","23","1","1","3","1","","0","1","0","null","","","<div class = 'row'><div class = 'column'><img src = 'uspos/5621.bmp' width = '100%;'></div><div class = 'column'><img src = 'category1/CS1.png' width = '70%;'></div></div>","null","pos","CS","CS","1","category1/CS1.png","","","","",""
"","html-keyboard-response","78","455521","0.0-6.0-6.0-0.9","gqu9j3c27l","one_one","1","direct_first","1","konian02","0","23","1","1","3","1","","0","1","0","null","","","<div class = 'row'><div class = 'column'><img src = 'usneg/9520.bmp' width = '100%;'></div><div class = 'column'><img src = 'category3/CS2.png' width = '70%;'></div></div>","null","neg","CS","CS","3","category3/CS2.png","","","","",""
"","html-keyboard-response","79","458061","0.0-6.0-6.0-0.10","gqu9j3c27l","one_one","1","direct_first","1","konian02","0","23","1","1","3","1","","0","1","0","null","","","<div class = 'row'><div class = 'column'><img src = 'uspos/5621.bmp' width = '100%;'></div><div class = 'column'><img src = 'category1/CS1.png' width = '70%;'></div></div>","null","pos","CS","CS","1","category1/CS1.png","","","","",""
"","html-keyboard-response","80","460602","0.0-6.0-6.0-0.11","gqu9j3c27l","one_one","1","direct_first","1","konian02","0","23","1","1","3","1","","0","1","0","null","","","<div class = 'row'><div class = 'column'><img src = 'category2/CS1.png' width = '70%;'></div><div class = 'column'><img src = 'usneg/8485.bmp' width = '100%;'></div></div>","null","neg","CS","CS","2","category2/CS1.png","","","","",""
"","html-keyboard-response","81","463141","0.0-6.0-6.0-0.12","gqu9j3c27l","one_one","1","direct_first","1","konian02","0","23","1","1","3","1","","0","1","0","null","","","<div class = 'row'><div class = 'column'><img src = 'category4/CS2.png' width = '70%;'></div><div class = 'column'><img src = 'uspos/8190.bmp' width = '100%;'></div></div>","null","pos","CS","CS","4","category4/CS2.png","","","","",""
"","html-keyboard-response","82","465681","0.0-6.0-6.0-0.13","gqu9j3c27l","one_one","1","direct_first","1","konian02","0","23","1","1","3","1","","0","1","0","null","","","<div class = 'row'><div class = 'column'><img src = 'category3/CS2.png' width = '70%;'></div><div class = 'column'><img src = 'usneg/9520.bmp' width = '100%;'></div></div>","null","neg","CS","CS","3","category3/CS2.png","","","","",""
"","html-keyboard-response","83","468221","0.0-6.0-6.0-0.14","gqu9j3c27l","one_one","1","direct_first","1","konian02","0","23","1","1","3","1","","0","1","0","null","","","<div class = 'row'><div class = 'column'><img src = 'category4/CS2.png' width = '70%;'></div><div class = 'column'><img src = 'uspos/8190.bmp' width = '100%;'></div></div>","null","pos","CS","CS","4","category4/CS2.png","","","","",""
"","html-keyboard-response","84","470731","0.0-6.0-6.0-0.15","gqu9j3c27l","one_one","1","direct_first","1","konian02","0","23","1","1","3","1","","0","1","0","null","","","<div class = 'row'><div class = 'column'><img src = 'category1/CS1.png' width = '70%;'></div><div class = 'column'><img src = 'uspos/5621.bmp' width = '100%;'></div></div>","null","pos","CS","CS","1","category1/CS1.png","","","","",""
"","html-keyboard-response","85","473271","0.0-6.0-6.0-0.16","gqu9j3c27l","one_one","1","direct_first","1","konian02","0","23","1","1","3","1","","0","1","0","null","","","<div class = 'row'><div class = 'column'><img src = 'usneg/8485.bmp' width = '100%;'></div><div class = 'column'><img src = 'category2/CS1.png' width = '70%;'></div></div>","null","neg","CS","CS","2","category2/CS1.png","","","","",""
"","html-keyboard-response","86","475811","0.0-6.0-6.0-0.17","gqu9j3c27l","one_one","1","direct_first","1","konian02","0","23","1","1","3","1","","0","1","0","null","","","<div class = 'row'><div class = 'column'><img src = 'uspos/8190.bmp' width = '100%;'></div><div class = 'column'><img src = 'category4/CS2.png' width = '70%;'></div></div>","null","pos","CS","CS","4","category4/CS2.png","","","","",""
"","html-keyboard-response","87","478321","0.0-6.0-6.0-0.18","gqu9j3c27l","one_one","1","direct_first","1","konian02","0","23","1","1","3","1","","0","1","0","null","","","<div class = 'row'><div class = 'column'><img src = 'category3/CS2.png' width = '70%;'></div><div class = 'column'><img src = 'usneg/9520.bmp' width = '100%;'></div></div>","null","neg","CS","CS","3","category3/CS2.png","","","","",""
"","html-keyboard-response","88","480861","0.0-6.0-6.0-0.19","gqu9j3c27l","one_one","1","direct_first","1","konian02","0","23","1","1","3","1","","0","1","0","null","","","<div class = 'row'><div class = 'column'><img src = 'usneg/8485.bmp' width = '100%;'></div><div class = 'column'><img src = 'category2/CS1.png' width = '70%;'></div></div>","null","neg","CS","CS","2","category2/CS1.png","","","","",""
"","survey-html-form","89","495166","0.0-7.0","gqu9j3c27l","one_one","1","direct_first","1","konian02","0","23","1","1","3","1","","0","1","0","13785","","{}","","","","","","","","","","","",""
"","image-slider-response","90","512380","0.0-8.0-0.0","gqu9j3c27l","one_one","1","direct_first","1","konian02","0","23","1","1","3","1","","0","1","0","15198","","","","","pos","GS","GSold","1","category1/CS6.png","78","targets/32.png","direct","",""
"","image-slider-response","91","519444","0.0-8.0-0.1","gqu9j3c27l","one_one","1","direct_first","1","konian02","0","23","1","1","3","1","","0","1","0","7063","","","","","pos","GS","GSold","4","category4/CS5.png","77","targets/11.png","direct","",""
"","image-slider-response","92","531674","0.0-8.0-0.2","gqu9j3c27l","one_one","1","direct_first","1","konian02","0","23","1","1","3","1","","0","1","0","12225","","","","","pos","GS","GSnew","4","category4/GS1.png","26","targets/45.png","direct","",""
"","image-slider-response","93","535834","0.0-8.0-0.3","gqu9j3c27l","one_one","1","direct_first","1","konian02","0","23","1","1","3","1","","0","1","0","4157","","","","","neg","GS","GSold","3","category3/CS7.png","-79","targets/30.png","direct","",""
"","image-slider-response","94","539754","0.0-8.0-0.4","gqu9j3c27l","one_one","1","direct_first","1","konian02","0","23","1","1","3","1","","0","1","0","3916","","","","","neg","GS","GSold","2","category2/CS4.png","-55","targets/33.png","direct","",""
"","image-slider-response","95","548605","0.0-8.0-0.5","gqu9j3c27l","one_one","1","direct_first","1","konian02","0","23","1","1","3","1","","0","1","0","8846","","","","","neg","GS","GSnew","2","category2/GS3.png","-79","targets/40.png","direct","",""
"","image-slider-response","96","552735","0.0-8.0-0.6","gqu9j3c27l","one_one","1","direct_first","1","konian02","0","23","1","1","3","1","","0","1","0","4126","","","","","neg","CS","CS","2","category2/CS1.png","-77","targets/27.png","direct","",""
"","image-slider-response","97","559574","0.0-8.0-0.7","gqu9j3c27l","one_one","1","direct_first","1","konian02","0","23","1","1","3","1","","0","1","0","6834","","","","","neg","GS","abstract","2","category2/men.png","-40","targets/34.png","direct","",""
"","image-slider-response","98","563424","0.0-8.0-0.8","gqu9j3c27l","one_one","1","direct_first","1","konian02","0","23","1","1","3","1","","0","1","0","3847","","","","","neg","GS","GSnew","3","category3/GS2.png","-31","targets/14.png","direct","",""
"","image-slider-response","99","567364","0.0-8.0-0.9","gqu9j3c27l","one_one","1","direct_first","1","konian02","0","23","1","1","3","1","","0","1","0","3936","","","","","neg","GS","GSold","2","category2/CS5.png","-40","targets/31.png","direct","",""
"","image-slider-response","100","571655","0.0-8.0-0.10","gqu9j3c27l","one_one","1","direct_first","1","konian02","0","23","1","1","3","1","","0","1","0","4286","","","","","pos","GS","GSnew","1","category1/GS2.png","44","targets/37.png","direct","",""
"","image-slider-response","101","578334","0.0-8.0-0.11","gqu9j3c27l","one_one","1","direct_first","1","konian02","0","23","1","1","3","1","","0","1","0","6675","","","","","neg","GS","abstract","3","category3/wang.png","-5","targets/3.png","direct","",""
"","image-slider-response","102","582695","0.0-8.0-0.12","gqu9j3c27l","one_one","1","direct_first","1","konian02","0","23","1","1","3","1","","0","1","0","4355","","","","","pos","GS","abstract","1","category1/ma.png","49","targets/2.png","direct","",""
"","image-slider-response","103","588355","0.0-8.0-0.13","gqu9j3c27l","one_one","1","direct_first","1","konian02","0","23","1","1","3","1","","0","1","0","5657","","","","","pos","GS","GSold","4","category4/CS6.png","86","targets/8.png","direct","",""
"","image-slider-response","104","592834","0.0-8.0-0.14","gqu9j3c27l","one_one","1","direct_first","1","konian02","0","23","1","1","3","1","","0","1","0","4476","","","","","neg","GS","GSnew","3","category3/GS1.png","-49","targets/13.png","direct","",""
"","image-slider-response","105","597604","0.0-8.0-0.15","gqu9j3c27l","one_one","1","direct_first","1","konian02","0","23","1","1","3","1","","0","1","0","4764","","","","","neg","GS","GSold","3","category3/CS4.png","-6","targets/7.png","direct","",""
"","image-slider-response","106","601564","0.0-8.0-0.16","gqu9j3c27l","one_one","1","direct_first","1","konian02","0","23","1","1","3","1","","0","1","0","3956","","","","","pos","GS","GSold","1","category1/CS9.png","55","targets/29.png","direct","",""
"","image-slider-response","107","605534","0.0-8.0-0.17","gqu9j3c27l","one_one","1","direct_first","1","konian02","0","23","1","1","3","1","","0","1","0","3966","","","","","pos","GS","abstract","4","category4/lin.png","37","targets/10.png","direct","",""
"","image-slider-response","108","608394","0.0-8.0-0.18","gqu9j3c27l","one_one","1","direct_first","1","konian02","0","23","1","1","3","1","","0","1","0","2856","","","","","neg","GS","GSold","3","category3/CS1.png","-20","targets/23.png","direct","",""
"","image-slider-response","109","611584","0.0-8.0-0.19","gqu9j3c27l","one_one","1","direct_first","1","konian02","0","23","1","1","3","1","","0","1","0","3187","","","","","pos","GS","GSnew","4","category4/GS3.png","36","targets/42.png","direct","",""
"","image-slider-response","110","614565","0.0-8.0-0.20","gqu9j3c27l","one_one","1","direct_first","1","konian02","0","23","1","1","3","1","","0","1","0","2977","","","","","neg","GS","GSnew","3","category3/GS3.png","-41","targets/38.png","direct","",""
"","image-slider-response","111","617884","0.0-8.0-0.21","gqu9j3c27l","one_one","1","direct_first","1","konian02","0","23","1","1","3","1","","0","1","0","3316","","","","","neg","GS","GSnew","2","category2/GS2.png","33","targets/5.png","direct","",""
"","image-slider-response","112","620844","0.0-8.0-0.22","gqu9j3c27l","one_one","1","direct_first","1","konian02","0","23","1","1","3","1","","0","1","0","2956","","","","","pos","CS","CS","4","category4/CS2.png","51","targets/35.png","direct","",""
"","image-slider-response","113","623675","0.0-8.0-0.23","gqu9j3c27l","one_one","1","direct_first","1","konian02","0","23","1","1","3","1","","0","1","0","2828","","","","","neg","GS","GSold","2","category2/CS8.png","-49","targets/18.png","direct","",""
"","image-slider-response","114","628084","0.0-8.0-0.24","gqu9j3c27l","one_one","1","direct_first","1","konian02","0","23","1","1","3","1","","0","1","0","4406","","","","","neg","GS","GSnew","2","category2/GS1.png","-47","targets/16.png","direct","",""
"","image-slider-response","115","630984","0.0-8.0-0.25","gqu9j3c27l","one_one","1","direct_first","1","konian02","0","23","1","1","3","1","","0","1","0","2897","","","","","pos","GS","GSold","1","category1/CS4.png","52","targets/44.png","direct","",""
"","image-slider-response","116","634614","0.0-8.0-0.26","gqu9j3c27l","one_one","1","direct_first","1","konian02","0","23","1","1","3","1","","0","1","0","3626","","","","","pos","GS","GSnew","1","category1/GS3.png","33","targets/15.png","direct","",""
"","image-slider-response","117","638314","0.0-8.0-0.27","gqu9j3c27l","one_one","1","direct_first","1","konian02","0","23","1","1","3","1","","0","1","0","3695","","","","","pos","GS","GSold","4","category4/CS9.png","34","targets/1.png","direct","",""
"","image-slider-response","118","642614","0.0-8.0-0.28","gqu9j3c27l","one_one","1","direct_first","1","konian02","0","23","1","1","3","1","","0","1","0","4297","","","","","pos","CS","CS","1","category1/CS1.png","34","targets/48.png","direct","",""
"","image-slider-response","119","646496","0.0-8.0-0.29","gqu9j3c27l","one_one","1","direct_first","1","konian02","0","23","1","1","3","1","","0","1","0","3879","","","","","pos","GS","GSnew","1","category1/GS1.png","33","targets/21.png","direct","",""
"","image-slider-response","120","649753","0.0-8.0-0.30","gqu9j3c27l","one_one","1","direct_first","1","konian02","0","23","1","1","3","1","","0","1","0","3255","","","","","pos","GS","GSnew","4","category4/GS2.png","-27","targets/20.png","direct","",""
"","image-slider-response","121","656014","0.0-8.0-0.31","gqu9j3c27l","one_one","1","direct_first","1","konian02","0","23","1","1","3","1","","0","1","0","6257","","","","","neg","CS","CS","3","category3/CS2.png","-21","targets/36.png","direct","",""
"","html-keyboard-response","122","707489","0.0-9.0","gqu9j3c27l","one_one","1","direct_first","1","konian02","0","23","1","1","3","1","","0","1","0","51473","","","<p>Sie sehen nun die chinesischen Zeichen nur ganz kurz. Danach sehen Sie die jeweilige Aussprache der Zeichen als Silbe auf dem Bildschrim. Ihre Aufgabe ist es, für jede Silbe anzugeben, ob diese etwas angenehmes, oder unangenehmes bedeuten könnte. Verlassen Sie sich hier vor allem auf Ihre Intuition.<br><br>Die Zeichen werden nur zur Orientierung dargestellt, beachten Sie sie deshalb nicht. Konzentrieren Sie sich vor allem auf die Silben. <br>Reagieren Sie mit folgenden zwei Tasten: <br><br><b>'D' </b> wenn die Silbe etwas <b>unangenehmes</b> bedeuten könnte. <br><b>'K'</b> wenn die Silbe etwas <b>angenehmes</b> bedeuten könnte. <br><br>Bitte legen Sie nun den Zeigefinger der linken Hand auf die Taste 'D' und den Zeigefinger der rechten Hand auf die Taste 'K'. <br>Reagieren Sie auf jede Silbe so schnell wie möglich. Uns interessiert Ihre spontane Reaktion. <br> <br> <br>Drücken Sie 'D' oder 'K', um die nächste Aufgabe zu starten. </p>","75","","","","","","","","","",""
"","html-keyboard-response","123","710521","0.0-10.0-0.0","gqu9j3c27l","one_one","1","direct_first","1","konian02","0","23","1","1","3","1","","0","1","0","null","","","<div style=""font-size:60px;"">+</div>","null","","","","","","","","","",""
"","html-keyboard-response","124","710621","0.0-10.0-1.0","gqu9j3c27l","one_one","1","direct_first","1","konian02","0","23","1","1","3","1","","0","1","0","null","","","<img src = 'category2/CS5.png' width = '100%;'>","null","","","","","","","","","",""
"","html-keyboard-response","125","710901","0.0-10.0-2.0","gqu9j3c27l","one_one","1","direct_first","1","konian02","0","23","1","1","3","1","","0","1","0","null","","","<img src = 'targets/31.png' width = '100%;'>","null","","","","","","","","","",""
"","html-keyboard-response","126","713123","0.0-10.0-3.0","gqu9j3c27l","one_one","1","direct_first","1","konian02","0","23","1","1","3","1","","0","1","0","2220","","","<img src = 'targets/mask.png' width = '100%;'>","75","neg","GS","GSold","2","category2/CS5.png","","targets/31.png","indirect","1","0"
"","html-keyboard-response","127","714641","0.0-10.0-0.1","gqu9j3c27l","one_one","1","direct_first","1","konian02","0","23","1","1","3","1","","0","1","0","null","","","<div style=""font-size:60px;"">+</div>","null","","","","","","","","","",""
"","html-keyboard-response","128","714741","0.0-10.0-1.1","gqu9j3c27l","one_one","1","direct_first","1","konian02","0","23","1","1","3","1","","0","1","0","null","","","<img src = 'category4/CS9.png' width = '100%;'>","null","","","","","","","","","",""
"","html-keyboard-response","129","715021","0.0-10.0-2.1","gqu9j3c27l","one_one","1","direct_first","1","konian02","0","23","1","1","3","1","","0","1","0","null","","","<img src = 'targets/1.png' width = '100%;'>","null","","","","","","","","","",""
"","html-keyboard-response","130","724545","0.0-10.0-3.1","gqu9j3c27l","one_one","1","direct_first","1","konian02","0","23","1","1","3","1","","0","1","0","9524","","","<img src = 'targets/mask.png' width = '100%;'>","68","pos","GS","GSold","4","category4/CS9.png","","targets/1.png","indirect","0","1"
"","html-keyboard-response","131","726071","0.0-10.0-0.2","gqu9j3c27l","one_one","1","direct_first","1","konian02","0","23","1","1","3","1","","0","1","0","null","","","<div style=""font-size:60px;"">+</div>","null","","","","","","","","","",""
"","html-keyboard-response","132","726171","0.0-10.0-1.2","gqu9j3c27l","one_one","1","direct_first","1","konian02","0","23","1","1","3","1","","0","1","0","null","","","<img src = 'category1/CS4.png' width = '100%;'>","null","","","","","","","","","",""
"","html-keyboard-response","133","726450","0.0-10.0-2.2","gqu9j3c27l","one_one","1","direct_first","1","konian02","0","23","1","1","3","1","","0","1","0","null","","","<img src = 'targets/44.png' width = '100%;'>","null","","","","","","","","","",""
"","html-keyboard-response","134","728594","0.0-10.0-3.2","gqu9j3c27l","one_one","1","direct_first","1","konian02","0","23","1","1","3","1","","0","1","0","2142","","","<img src = 'targets/mask.png' width = '100%;'>","75","pos","GS","GSold","1","category1/CS4.png","","targets/44.png","indirect","1","2"
"","html-keyboard-response","135","730131","0.0-10.0-0.3","gqu9j3c27l","one_one","1","direct_first","1","konian02","0","23","1","1","3","1","","0","1","0","null","","","<div style=""font-size:60px;"">+</div>","null","","","","","","","","","",""
"","html-keyboard-response","136","730231","0.0-10.0-1.3","gqu9j3c27l","one_one","1","direct_first","1","konian02","0","23","1","1","3","1","","0","1","0","null","","","<img src = 'category1/CS6.png' width = '100%;'>","null","","","","","","","","","",""
"","html-keyboard-response","137","730511","0.0-10.0-2.3","gqu9j3c27l","one_one","1","direct_first","1","konian02","0","23","1","1","3","1","","0","1","0","null","","","<img src = 'targets/32.png' width = '100%;'>","null","","","","","","","","","",""
"","html-keyboard-response","138","732555","0.0-10.0-3.3","gqu9j3c27l","one_one","1","direct_first","1","konian02","0","23","1","1","3","1","","0","1","0","2043","","","<img src = 'targets/mask.png' width = '100%;'>","68","pos","GS","GSold","1","category1/CS6.png","","targets/32.png","indirect","0","3"
"","html-keyboard-response","139","734081","0.0-10.0-0.4","gqu9j3c27l","one_one","1","direct_first","1","konian02","0","23","1","1","3","1","","0","1","0","null","","","<div style=""font-size:60px;"">+</div>","null","","","","","","","","","",""
"","html-keyboard-response","140","734180","0.0-10.0-1.4","gqu9j3c27l","one_one","1","direct_first","1","konian02","0","23","1","1","3","1","","0","1","0","null","","","<img src = 'category4/CS5.png' width = '100%;'>","null","","","","","","","","","",""
"","html-keyboard-response","141","734461","0.0-10.0-2.4","gqu9j3c27l","one_one","1","direct_first","1","konian02","0","23","1","1","3","1","","0","1","0","null","","","<img src = 'targets/11.png' width = '100%;'>","null","","","","","","","","","",""
"","html-keyboard-response","142","736657","0.0-10.0-3.4","gqu9j3c27l","one_one","1","direct_first","1","konian02","0","23","1","1","3","1","","0","1","0","2195","","","<img src = 'targets/mask.png' width = '100%;'>","75","pos","GS","GSold","4","category4/CS5.png","","targets/11.png","indirect","1","4"
"","html-keyboard-response","143","738180","0.0-10.0-0.5","gqu9j3c27l","one_one","1","direct_first","1","konian02","0","23","1","1","3","1","","0","1","0","null","","","<div style=""font-size:60px;"">+</div>","null","","","","","","","","","",""
"","html-keyboard-response","144","738280","0.0-10.0-1.5","gqu9j3c27l","one_one","1","direct_first","1","konian02","0","23","1","1","3","1","","0","1","0","null","","","<img src = 'category1/CS9.png' width = '100%;'>","null","","","","","","","","","",""
"","html-keyboard-response","145","738561","0.0-10.0-2.5","gqu9j3c27l","one_one","1","direct_first","1","konian02","0","23","1","1","3","1","","0","1","0","null","","","<img src = 'targets/29.png' width = '100%;'>","null","","","","","","","","","",""
"","html-keyboard-response","146","739699","0.0-10.0-3.5","gqu9j3c27l","one_one","1","direct_first","1","konian02","0","23","1","1","3","1","","0","1","0","1137","","","<img src = 'targets/mask.png' width = '100%;'>","68","pos","GS","GSold","1","category1/CS9.png","","targets/29.png","indirect","0","5"
"","html-keyboard-response","147","741221","0.0-10.0-0.6","gqu9j3c27l","one_one","1","direct_first","1","konian02","0","23","1","1","3","1","","0","1","0","null","","","<div style=""font-size:60px;"">+</div>","null","","","","","","","","","",""
"","html-keyboard-response","148","741316","0.0-10.0-1.6","gqu9j3c27l","one_one","1","direct_first","1","konian02","0","23","1","1","3","1","","0","1","0","null","","","<img src = 'category2/CS4.png' width = '100%;'>","null","","","","","","","","","",""
"","html-keyboard-response","149","741600","0.0-10.0-2.6","gqu9j3c27l","one_one","1","direct_first","1","konian02","0","23","1","1","3","1","","0","1","0","null","","","<img src = 'targets/33.png' width = '100%;'>","null","","","","","","","","","",""
"","html-keyboard-response","150","742730","0.0-10.0-3.6","gqu9j3c27l","one_one","1","direct_first","1","konian02","0","23","1","1","3","1","","0","1","0","1129","","","<img src = 'targets/mask.png' width = '100%;'>","75","neg","GS","GSold","2","category2/CS4.png","","targets/33.png","indirect","1","6"
"","html-keyboard-response","151","744251","0.0-10.0-0.7","gqu9j3c27l","one_one","1","direct_first","1","konian02","0","23","1","1","3","1","","0","1","0","null","","","<div style=""font-size:60px;"">+</div>","null","","","","","","","","","",""
"","html-keyboard-response","152","744350","0.0-10.0-1.7","gqu9j3c27l","one_one","1","direct_first","1","konian02","0","23","1","1","3","1","","0","1","0","null","","","<img src = 'category1/CS1.png' width = '100%;'>","null","","","","","","","","","",""
"","html-keyboard-response","153","744631","0.0-10.0-2.7","gqu9j3c27l","one_one","1","direct_first","1","konian02","0","23","1","1","3","1","","0","1","0","null","","","<img src = 'targets/48.png' width = '100%;'>","null","","","","","","","","","",""
"","html-keyboard-response","154","745377","0.0-10.0-3.7","gqu9j3c27l","one_one","1","direct_first","1","konian02","0","23","1","1","3","1","","0","1","0","745","","","<img src = 'targets/mask.png' width = '100%;'>","68","pos","CS","CS","1","category1/CS1.png","","targets/48.png","indirect","0","7"
"","html-keyboard-response","155","746911","0.0-10.0-0.8","gqu9j3c27l","one_one","1","direct_first","1","konian02","0","23","1","1","3","1","","0","1","0","null","","","<div style=""font-size:60px;"">+</div>","null","","","","","","","","","",""
"","html-keyboard-response","156","747011","0.0-10.0-1.8","gqu9j3c27l","one_one","1","direct_first","1","konian02","0","23","1","1","3","1","","0","1","0","null","","","<img src = 'category4/CS2.png' width = '100%;'>","null","","","","","","","","","",""
"","html-keyboard-response","157","747290","0.0-10.0-2.8","gqu9j3c27l","one_one","1","direct_first","1","konian02","0","23","1","1","3","1","","0","1","0","null","","","<img src = 'targets/35.png' width = '100%;'>","null","","","","","","","","","",""
"","html-keyboard-response","158","748960","0.0-10.0-3.8","gqu9j3c27l","one_one","1","direct_first","1","konian02","0","23","1","1","3","1","","0","1","0","1669","","","<img src = 'targets/mask.png' width = '100%;'>","75","pos","CS","CS","4","category4/CS2.png","","targets/35.png","indirect","1","8"
"","html-keyboard-response","159","750490","0.0-10.0-0.9","gqu9j3c27l","one_one","1","direct_first","1","konian02","0","23","1","1","3","1","","0","1","0","null","","","<div style=""font-size:60px;"">+</div>","null","","","","","","","","","",""
"","html-keyboard-response","160","750590","0.0-10.0-1.9","gqu9j3c27l","one_one","1","direct_first","1","konian02","0","23","1","1","3","1","","0","1","0","null","","","<img src = 'category3/CS7.png' width = '100%;'>","null","","","","","","","","","",""
"","html-keyboard-response","161","750871","0.0-10.0-2.9","gqu9j3c27l","one_one","1","direct_first","1","konian02","0","23","1","1","3","1","","0","1","0","null","","","<img src = 'targets/30.png' width = '100%;'>","null","","","","","","","","","",""
"","html-keyboard-response","162","751505","0.0-10.0-3.9","gqu9j3c27l","one_one","1","direct_first","1","konian02","0","23","1","1","3","1","","0","1","0","633","","","<img src = 'targets/mask.png' width = '100%;'>","68","neg","GS","GSold","3","category3/CS7.png","","targets/30.png","indirect","0","9"
"","html-keyboard-response","163","753030","0.0-10.0-0.10","gqu9j3c27l","one_one","1","direct_first","1","konian02","0","23","1","1","3","1","","0","1","0","null","","","<div style=""font-size:60px;"">+</div>","null","","","","","","","","","",""
"","html-keyboard-response","164","753131","0.0-10.0-1.10","gqu9j3c27l","one_one","1","direct_first","1","konian02","0","23","1","1","3","1","","0","1","0","null","","","<img src = 'category4/CS6.png' width = '100%;'>","null","","","","","","","","","",""
"","html-keyboard-response","165","753411","0.0-10.0-2.10","gqu9j3c27l","one_one","1","direct_first","1","konian02","0","23","1","1","3","1","","0","1","0","null","","","<img src = 'targets/8.png' width = '100%;'>","null","","","","","","","","","",""
"","html-keyboard-response","166","753931","0.0-10.0-3.10","gqu9j3c27l","one_one","1","direct_first","1","konian02","0","23","1","1","3","1","","0","1","0","517","","","<img src = 'targets/mask.png' width = '100%;'>","75","pos","GS","GSold","4","category4/CS6.png","","targets/8.png","indirect","1","10"
"","html-keyboard-response","167","755450","0.0-10.0-0.11","gqu9j3c27l","one_one","1","direct_first","1","konian02","0","23","1","1","3","1","","0","1","0","null","","","<div style=""font-size:60px;"">+</div>","null","","","","","","","","","",""
"","html-keyboard-response","168","755550","0.0-10.0-1.11","gqu9j3c27l","one_one","1","direct_first","1","konian02","0","23","1","1","3","1","","0","1","0","null","","","<img src = 'category2/CS8.png' width = '100%;'>","null","","","","","","","","","",""
"","html-keyboard-response","169","755830","0.0-10.0-2.11","gqu9j3c27l","one_one","1","direct_first","1","konian02","0","23","1","1","3","1","","0","1","0","null","","","<img src = 'targets/18.png' width = '100%;'>","null","","","","","","","","","",""
"","html-keyboard-response","170","756718","0.0-10.0-3.11","gqu9j3c27l","one_one","1","direct_first","1","konian02","0","23","1","1","3","1","","0","1","0","886","","","<img src = 'targets/mask.png' width = '100%;'>","68","neg","GS","GSold","2","category2/CS8.png","","targets/18.png","indirect","0","11"
"","html-keyboard-response","171","758251","0.0-10.0-0.12","gqu9j3c27l","one_one","1","direct_first","1","konian02","0","23","1","1","3","1","","0","1","0","null","","","<div style=""font-size:60px;"">+</div>","null","","","","","","","","","",""
"","html-keyboard-response","172","758350","0.0-10.0-1.12","gqu9j3c27l","one_one","1","direct_first","1","konian02","0","23","1","1","3","1","","0","1","0","null","","","<img src = 'category3/CS2.png' width = '100%;'>","null","","","","","","","","","",""
"","html-keyboard-response","173","758631","0.0-10.0-2.12","gqu9j3c27l","one_one","1","direct_first","1","konian02","0","23","1","1","3","1","","0","1","0","null","","","<img src = 'targets/36.png' width = '100%;'>","null","","","","","","","","","",""
"","html-keyboard-response","174","758883","0.0-10.0-3.12","gqu9j3c27l","one_one","1","direct_first","1","konian02","0","23","1","1","3","1","","0","1","0","251","","","<img src = 'targets/mask.png' width = '100%;'>","75","neg","CS","CS","3","category3/CS2.png","","targets/36.png","indirect","1","12"
"","html-keyboard-response","175","760391","0.0-10.0-0.13","gqu9j3c27l","one_one","1","direct_first","1","konian02","0","23","1","1","3","1","","0","1","0","null","","","<div style=""font-size:60px;"">+</div>","null","","","","","","","","","",""
"","html-keyboard-response","176","760490","0.0-10.0-1.13","gqu9j3c27l","one_one","1","direct_first","1","konian02","0","23","1","1","3","1","","0","1","0","null","","","<img src = 'category3/CS4.png' width = '100%;'>","null","","","","","","","","","",""
"","html-keyboard-response","177","760768","0.0-10.0-2.13","gqu9j3c27l","one_one","1","direct_first","1","konian02","0","23","1","1","3","1","","0","1","0","null","","","<img src = 'targets/7.png' width = '100%;'>","null","","","","","","","","","",""
"","html-keyboard-response","178","761340","0.0-10.0-3.13","gqu9j3c27l","one_one","1","direct_first","1","konian02","0","23","1","1","3","1","","0","1","0","570","","","<img src = 'targets/mask.png' width = '100%;'>","68","neg","GS","GSold","3","category3/CS4.png","","targets/7.png","indirect","0","13"
"","html-keyboard-response","179","762860","0.0-10.0-0.14","gqu9j3c27l","one_one","1","direct_first","1","konian02","0","23","1","1","3","1","","0","1","0","null","","","<div style=""font-size:60px;"">+</div>","null","","","","","","","","","",""
"","html-keyboard-response","180","762960","0.0-10.0-1.14","gqu9j3c27l","one_one","1","direct_first","1","konian02","0","23","1","1","3","1","","0","1","0","null","","","<img src = 'category2/CS1.png' width = '100%;'>","null","","","","","","","","","",""
"","html-keyboard-response","181","763240","0.0-10.0-2.14","gqu9j3c27l","one_one","1","direct_first","1","konian02","0","23","1","1","3","1","","0","1","0","null","","","<img src = 'targets/27.png' width = '100%;'>","null","","","","","","","","","",""
"","html-keyboard-response","182","763784","0.0-10.0-3.14","gqu9j3c27l","one_one","1","direct_first","1","konian02","0","23","1","1","3","1","","0","1","0","543","","","<img src = 'targets/mask.png' width = '100%;'>","75","neg","CS","CS","2","category2/CS1.png","","targets/27.png","indirect","1","14"
"","html-keyboard-response","183","765310","0.0-10.0-0.15","gqu9j3c27l","one_one","1","direct_first","1","konian02","0","23","1","1","3","1","","0","1","0","null","","","<div style=""font-size:60px;"">+</div>","null","","","","","","","","","",""
"","html-keyboard-response","184","765411","0.0-10.0-1.15","gqu9j3c27l","one_one","1","direct_first","1","konian02","0","23","1","1","3","1","","0","1","0","null","","","<img src = 'category3/CS1.png' width = '100%;'>","null","","","","","","","","","",""
"","html-keyboard-response","185","765691","0.0-10.0-2.15","gqu9j3c27l","one_one","1","direct_first","1","konian02","0","23","1","1","3","1","","0","1","0","null","","","<img src = 'targets/23.png' width = '100%;'>","null","","","","","","","","","",""
"","html-keyboard-response","186","766169","0.0-10.0-3.15","gqu9j3c27l","one_one","1","direct_first","1","konian02","0","23","1","1","3","1","","0","1","0","476","","","<img src = 'targets/mask.png' width = '100%;'>","68","neg","GS","GSold","3","category3/CS1.png","","targets/23.png","indirect","0","15"
"","survey-html-form","187","769165","0.0-11.0","gqu9j3c27l","one_one","1","direct_first","1","konian02","0","23","1","1","3","1","","0","1","0","2484","","{}","","","","","","","","","","","",""
"","html-keyboard-response","188","772190","0.0-12.0-0.0","gqu9j3c27l","one_one","1","direct_first","1","konian02","0","23","1","1","3","1","","0","1","0","null","","","<div style=""font-size:60px;"">+</div>","null","","","","","","","","","",""
"","html-keyboard-response","189","772290","0.0-12.0-1.0","gqu9j3c27l","one_one","1","direct_first","1","konian02","0","23","1","1","3","1","","0","1","0","null","","","<img src = 'category1/GS3.png' width = '100%;'>","null","","","","","","","","","",""
"","html-keyboard-response","190","772570","0.0-12.0-2.0","gqu9j3c27l","one_one","1","direct_first","1","konian02","0","23","1","1","3","1","","0","1","0","null","","","<img src = 'targets/15.png' width = '100%;'>","null","","","","","","","","","",""
"","html-keyboard-response","191","773776","0.0-12.0-3.0","gqu9j3c27l","one_one","1","direct_first","1","konian02","0","23","1","1","3","1","","0","1","0","1205","","","<img src = 'targets/mask.png' width = '100%;'>","68","pos","GS","GSnew","1","category1/GS3.png","","targets/15.png","indirect","0","16"
"","html-keyboard-response","192","775290","0.0-12.0-0.1","gqu9j3c27l","one_one","1","direct_first","1","konian02","0","23","1","1","3","1","","0","1","0","null","","","<div style=""font-size:60px;"">+</div>","null","","","","","","","","","",""
"","html-keyboard-response","193","775390","0.0-12.0-1.1","gqu9j3c27l","one_one","1","direct_first","1","konian02","0","23","1","1","3","1","","0","1","0","null","","","<img src = 'category1/GS1.png' width = '100%;'>","null","","","","","","","","","",""
"","html-keyboard-response","194","775671","0.0-12.0-2.1","gqu9j3c27l","one_one","1","direct_first","1","konian02","0","23","1","1","3","1","","0","1","0","null","","","<img src = 'targets/21.png' width = '100%;'>","null","","","","","","","","","",""
"","html-keyboard-response","195","776472","0.0-12.0-3.1","gqu9j3c27l","one_one","1","direct_first","1","konian02","0","23","1","1","3","1","","0","1","0","800","","","<img src = 'targets/mask.png' width = '100%;'>","75","pos","GS","GSnew","1","category1/GS1.png","","targets/21.png","indirect","1","17"
"","html-keyboard-response","196","778011","0.0-12.0-0.2","gqu9j3c27l","one_one","1","direct_first","1","konian02","0","23","1","1","3","1","","0","1","0","null","","","<div style=""font-size:60px;"">+</div>","null","","","","","","","","","",""
"","html-keyboard-response","197","778111","0.0-12.0-1.2","gqu9j3c27l","one_one","1","direct_first","1","konian02","0","23","1","1","3","1","","0","1","0","null","","","<img src = 'category4/GS1.png' width = '100%;'>","null","","","","","","","","","",""
"","html-keyboard-response","198","778390","0.0-12.0-2.2","gqu9j3c27l","one_one","1","direct_first","1","konian02","0","23","1","1","3","1","","0","1","0","null","","","<img src = 'targets/45.png' width = '100%;'>","null","","","","","","","","","",""
"","html-keyboard-response","199","778894","0.0-12.0-3.2","gqu9j3c27l","one_one","1","direct_first","1","konian02","0","23","1","1","3","1","","0","1","0","503","","","<img src = 'targets/mask.png' width = '100%;'>","75","pos","GS","GSnew","4","category4/GS1.png","","targets/45.png","indirect","1","18"
"","html-keyboard-response","200","780427","0.0-12.0-0.3","gqu9j3c27l","one_one","1","direct_first","1","konian02","0","23","1","1","3","1","","0","1","0","null","","","<div style=""font-size:60px;"">+</div>","null","","","","","","","","","",""
"","html-keyboard-response","201","780526","0.0-12.0-1.3","gqu9j3c27l","one_one","1","direct_first","1","konian02","0","23","1","1","3","1","","0","1","0","null","","","<img src = 'category4/GS2.png' width = '100%;'>","null","","","","","","","","","",""
"","html-keyboard-response","202","780811","0.0-12.0-2.3","gqu9j3c27l","one_one","1","direct_first","1","konian02","0","23","1","1","3","1","","0","1","0","null","","","<img src = 'targets/20.png' width = '100%;'>","null","","","","","","","","","",""
"","html-keyboard-response","203","781657","0.0-12.0-3.3","gqu9j3c27l","one_one","1","direct_first","1","konian02","0","23","1","1","3","1","","0","1","0","845","","","<img src = 'targets/mask.png' width = '100%;'>","75","pos","GS","GSnew","4","category4/GS2.png","","targets/20.png","indirect","1","19"
"","html-keyboard-response","204","783180","0.0-12.0-0.4","gqu9j3c27l","one_one","1","direct_first","1","konian02","0","23","1","1","3","1","","0","1","0","null","","","<div style=""font-size:60px;"">+</div>","null","","","","","","","","","",""
"","html-keyboard-response","205","783281","0.0-12.0-1.4","gqu9j3c27l","one_one","1","direct_first","1","konian02","0","23","1","1","3","1","","0","1","0","null","","","<img src = 'category1/ma.png' width = '100%;'>","null","","","","","","","","","",""
"","html-keyboard-response","206","783561","0.0-12.0-2.4","gqu9j3c27l","one_one","1","direct_first","1","konian02","0","23","1","1","3","1","","0","1","0","null","","","<img src = 'targets/2.png' width = '100%;'>","null","","","","","","","","","",""
"","html-keyboard-response","207","784031","0.0-12.0-3.4","gqu9j3c27l","one_one","1","direct_first","1","konian02","0","23","1","1","3","1","","0","1","0","468","","","<img src = 'targets/mask.png' width = '100%;'>","68","pos","GS","abstract","1","category1/ma.png","","targets/2.png","indirect","0","20"
"","html-keyboard-response","208","785561","0.0-12.0-0.5","gqu9j3c27l","one_one","1","direct_first","1","konian02","0","23","1","1","3","1","","0","1","0","null","","","<div style=""font-size:60px;"">+</div>","null","","","","","","","","","",""
"","html-keyboard-response","209","785661","0.0-12.0-1.5","gqu9j3c27l","one_one","1","direct_first","1","konian02","0","23","1","1","3","1","","0","1","0","null","","","<img src = 'category3/GS2.png' width = '100%;'>","null","","","","","","","","","",""
"","html-keyboard-response","210","785941","0.0-12.0-2.5","gqu9j3c27l","one_one","1","direct_first","1","konian02","0","23","1","1","3","1","","0","1","0","null","","","<img src = 'targets/14.png' width = '100%;'>","null","","","","","","","","","",""
"","html-keyboard-response","211","786428","0.0-12.0-3.5","gqu9j3c27l","one_one","1","direct_first","1","konian02","0","23","1","1","3","1","","0","1","0","487","","","<img src = 'targets/mask.png' width = '100%;'>","68","neg","GS","GSnew","3","category3/GS2.png","","targets/14.png","indirect","0","21"
"","html-keyboard-response","212","787931","0.0-12.0-0.6","gqu9j3c27l","one_one","1","direct_first","1","konian02","0","23","1","1","3","1","","0","1","0","null","","","<div style=""font-size:60px;"">+</div>","null","","","","","","","","","",""
"","html-keyboard-response","213","788031","0.0-12.0-1.6","gqu9j3c27l","one_one","1","direct_first","1","konian02","0","23","1","1","3","1","","0","1","0","null","","","<img src = 'category3/GS3.png' width = '100%;'>","null","","","","","","","","","",""
"","html-keyboard-response","214","788308","0.0-12.0-2.6","gqu9j3c27l","one_one","1","direct_first","1","konian02","0","23","1","1","3","1","","0","1","0","null","","","<img src = 'targets/38.png' width = '100%;'>","null","","","","","","","","","",""
"","html-keyboard-response","215","789165","0.0-12.0-3.6","gqu9j3c27l","one_one","1","direct_first","1","konian02","0","23","1","1","3","1","","0","1","0","855","","","<img src = 'targets/mask.png' width = '100%;'>","68","neg","GS","GSnew","3","category3/GS3.png","","targets/38.png","indirect","0","22"
"","html-keyboard-response","216","790690","0.0-12.0-0.7","gqu9j3c27l","one_one","1","direct_first","1","konian02","0","23","1","1","3","1","","0","1","0","null","","","<div style=""font-size:60px;"">+</div>","null","","","","","","","","","",""
"","html-keyboard-response","217","790791","0.0-12.0-1.7","gqu9j3c27l","one_one","1","direct_first","1","konian02","0","23","1","1","3","1","","0","1","0","null","","","<img src = 'category4/GS3.png' width = '100%;'>","null","","","","","","","","","",""
"","html-keyboard-response","218","791071","0.0-12.0-2.7","gqu9j3c27l","one_one","1","direct_first","1","konian02","0","23","1","1","3","1","","0","1","0","null","","","<img src = 'targets/42.png' width = '100%;'>","null","","","","","","","","","",""
"","html-keyboard-response","219","792344","0.0-12.0-3.7","gqu9j3c27l","one_one","1","direct_first","1","konian02","0","23","1","1","3","1","","0","1","0","1272","","","<img src = 'targets/mask.png' width = '100%;'>","75","pos","GS","GSnew","4","category4/GS3.png","","targets/42.png","indirect","1","23"
"","html-keyboard-response","220","793881","0.0-12.0-0.8","gqu9j3c27l","one_one","1","direct_first","1","konian02","0","23","1","1","3","1","","0","1","0","null","","","<div style=""font-size:60px;"">+</div>","null","","","","","","","","","",""
"","html-keyboard-response","221","793980","0.0-12.0-1.8","gqu9j3c27l","one_one","1","direct_first","1","konian02","0","23","1","1","3","1","","0","1","0","null","","","<img src = 'category2/GS2.png' width = '100%;'>","null","","","","","","","","","",""
"","html-keyboard-response","222","794261","0.0-12.0-2.8","gqu9j3c27l","one_one","1","direct_first","1","konian02","0","23","1","1","3","1","","0","1","0","null","","","<img src = 'targets/5.png' width = '100%;'>","null","","","","","","","","","",""
"","html-keyboard-response","223","795247","0.0-12.0-3.8","gqu9j3c27l","one_one","1","direct_first","1","konian02","0","23","1","1","3","1","","0","1","0","984","","","<img src = 'targets/mask.png' width = '100%;'>","75","neg","GS","GSnew","2","category2/GS2.png","","targets/5.png","indirect","1","24"
"","html-keyboard-response","224","796780","0.0-12.0-0.9","gqu9j3c27l","one_one","1","direct_first","1","konian02","0","23","1","1","3","1","","0","1","0","null","","","<div style=""font-size:60px;"">+</div>","null","","","","","","","","","",""
"","html-keyboard-response","225","796880","0.0-12.0-1.9","gqu9j3c27l","one_one","1","direct_first","1","konian02","0","23","1","1","3","1","","0","1","0","null","","","<img src = 'category2/GS1.png' width = '100%;'>","null","","","","","","","","","",""
"","html-keyboard-response","226","797160","0.0-12.0-2.9","gqu9j3c27l","one_one","1","direct_first","1","konian02","0","23","1","1","3","1","","0","1","0","null","","","<img src = 'targets/16.png' width = '100%;'>","null","","","","","","","","","",""
"","html-keyboard-response","227","797810","0.0-12.0-3.9","gqu9j3c27l","one_one","1","direct_first","1","konian02","0","23","1","1","3","1","","0","1","0","648","","","<img src = 'targets/mask.png' width = '100%;'>","68","neg","GS","GSnew","2","category2/GS1.png","","targets/16.png","indirect","0","25"
"","html-keyboard-response","228","799340","0.0-12.0-0.10","gqu9j3c27l","one_one","1","direct_first","1","konian02","0","23","1","1","3","1","","0","1","0","null","","","<div style=""font-size:60px;"">+</div>","null","","","","","","","","","",""
"","html-keyboard-response","229","799441","0.0-12.0-1.10","gqu9j3c27l","one_one","1","direct_first","1","konian02","0","23","1","1","3","1","","0","1","0","null","","","<img src = 'category2/men.png' width = '100%;'>","null","","","","","","","","","",""
"","html-keyboard-response","230","799721","0.0-12.0-2.10","gqu9j3c27l","one_one","1","direct_first","1","konian02","0","23","1","1","3","1","","0","1","0","null","","","<img src = 'targets/34.png' width = '100%;'>","null","","","","","","","","","",""
"","html-keyboard-response","231","800837","0.0-12.0-3.10","gqu9j3c27l","one_one","1","direct_first","1","konian02","0","23","1","1","3","1","","0","1","0","1116","","","<img src = 'targets/mask.png' width = '100%;'>","68","neg","GS","abstract","2","category2/men.png","","targets/34.png","indirect","0","26"
"","html-keyboard-response","232","802341","0.0-12.0-0.11","gqu9j3c27l","one_one","1","direct_first","1","konian02","0","23","1","1","3","1","","0","1","0","null","","","<div style=""font-size:60px;"">+</div>","null","","","","","","","","","",""
"","html-keyboard-response","233","802441","0.0-12.0-1.11","gqu9j3c27l","one_one","1","direct_first","1","konian02","0","23","1","1","3","1","","0","1","0","null","","","<img src = 'category4/lin.png' width = '100%;'>","null","","","","","","","","","",""
"","html-keyboard-response","234","802721","0.0-12.0-2.11","gqu9j3c27l","one_one","1","direct_first","1","konian02","0","23","1","1","3","1","","0","1","0","null","","","<img src = 'targets/10.png' width = '100%;'>","null","","","","","","","","","",""
"","html-keyboard-response","235","803199","0.0-12.0-3.11","gqu9j3c27l","one_one","1","direct_first","1","konian02","0","23","1","1","3","1","","0","1","0","476","","","<img src = 'targets/mask.png' width = '100%;'>","75","pos","GS","abstract","4","category4/lin.png","","targets/10.png","indirect","1","27"
"","html-keyboard-response","236","804720","0.0-12.0-0.12","gqu9j3c27l","one_one","1","direct_first","1","konian02","0","23","1","1","3","1","","0","1","0","null","","","<div style=""font-size:60px;"">+</div>","null","","","","","","","","","",""
"","html-keyboard-response","237","804820","0.0-12.0-1.12","gqu9j3c27l","one_one","1","direct_first","1","konian02","0","23","1","1","3","1","","0","1","0","null","","","<img src = 'category3/GS1.png' width = '100%;'>","null","","","","","","","","","",""
"","html-keyboard-response","238","805100","0.0-12.0-2.12","gqu9j3c27l","one_one","1","direct_first","1","konian02","0","23","1","1","3","1","","0","1","0","null","","","<img src = 'targets/13.png' width = '100%;'>","null","","","","","","","","","",""
"","html-keyboard-response","239","805986","0.0-12.0-3.12","gqu9j3c27l","one_one","1","direct_first","1","konian02","0","23","1","1","3","1","","0","1","0","885","","","<img src = 'targets/mask.png' width = '100%;'>","68","neg","GS","GSnew","3","category3/GS1.png","","targets/13.png","indirect","0","28"
"","html-keyboard-response","240","807500","0.0-12.0-0.13","gqu9j3c27l","one_one","1","direct_first","1","konian02","0","23","1","1","3","1","","0","1","0","null","","","<div style=""font-size:60px;"">+</div>","null","","","","","","","","","",""
"","html-keyboard-response","241","807601","0.0-12.0-1.13","gqu9j3c27l","one_one","1","direct_first","1","konian02","0","23","1","1","3","1","","0","1","0","null","","","<img src = 'category2/GS3.png' width = '100%;'>","null","","","","","","","","","",""
"","html-keyboard-response","242","807881","0.0-12.0-2.13","gqu9j3c27l","one_one","1","direct_first","1","konian02","0","23","1","1","3","1","","0","1","0","null","","","<img src = 'targets/40.png' width = '100%;'>","null","","","","","","","","","",""
"","html-keyboard-response","243","808449","0.0-12.0-3.13","gqu9j3c27l","one_one","1","direct_first","1","konian02","0","23","1","1","3","1","","0","1","0","567","","","<img src = 'targets/mask.png' width = '100%;'>","75","neg","GS","GSnew","2","category2/GS3.png","","targets/40.png","indirect","1","29"
"","html-keyboard-response","244","809971","0.0-12.0-0.14","gqu9j3c27l","one_one","1","direct_first","1","konian02","0","23","1","1","3","1","","0","1","0","null","","","<div style=""font-size:60px;"">+</div>","null","","","","","","","","","",""
"","html-keyboard-response","245","810070","0.0-12.0-1.14","gqu9j3c27l","one_one","1","direct_first","1","konian02","0","23","1","1","3","1","","0","1","0","null","","","<img src = 'category1/GS2.png' width = '100%;'>","null","","","","","","","","","",""
"","html-keyboard-response","246","810351","0.0-12.0-2.14","gqu9j3c27l","one_one","1","direct_first","1","konian02","0","23","1","1","3","1","","0","1","0","null","","","<img src = 'targets/37.png' width = '100%;'>","null","","","","","","","","","",""
"","html-keyboard-response","247","810974","0.0-12.0-3.14","gqu9j3c27l","one_one","1","direct_first","1","konian02","0","23","1","1","3","1","","0","1","0","622","","","<img src = 'targets/mask.png' width = '100%;'>","75","pos","GS","GSnew","1","category1/GS2.png","","targets/37.png","indirect","1","30"
"","html-keyboard-response","248","812511","0.0-12.0-0.15","gqu9j3c27l","one_one","1","direct_first","1","konian02","0","23","1","1","3","1","","0","1","0","null","","","<div style=""font-size:60px;"">+</div>","null","","","","","","","","","",""
"","html-keyboard-response","249","812610","0.0-12.0-1.15","gqu9j3c27l","one_one","1","direct_first","1","konian02","0","23","1","1","3","1","","0","1","0","null","","","<img src = 'category3/wang.png' width = '100%;'>","null","","","","","","","","","",""
"","html-keyboard-response","250","812890","0.0-12.0-2.15","gqu9j3c27l","one_one","1","direct_first","1","konian02","0","23","1","1","3","1","","0","1","0","null","","","<img src = 'targets/3.png' width = '100%;'>","null","","","","","","","","","",""
"","html-keyboard-response","251","813247","0.0-12.0-3.15","gqu9j3c27l","one_one","1","direct_first","1","konian02","0","23","1","1","3","1","","0","1","0","355","","","<img src = 'targets/mask.png' width = '100%;'>","68","neg","GS","abstract","3","category3/wang.png","","targets/3.png","indirect","0","31"
"","survey-html-form","252","826123","0.0-13.0","gqu9j3c27l","one_one","1","direct_first","1","konian02","0","23","1","1","3","1","","0","1","0","12371","","{}","","","","","","","","","","","",""
"","image-slider-response","253","832544","0.0-14.0-0.0","gqu9j3c27l","one_one","1","direct_first","1","konian02","0","23","1","1","3","1","","0","1","0","5397","","","","","pos","All","all","1","category1/ma_all.png","-40","","all","",""
"","image-slider-response","254","837594","0.0-14.0-0.1","gqu9j3c27l","one_one","1","direct_first","1","konian02","0","23","1","1","3","1","","0","1","0","5047","","","","","neg","All","all","3","category3/wang_all.png","-49","","all","",""
"","image-slider-response","255","841434","0.0-14.0-0.2","gqu9j3c27l","one_one","1","direct_first","1","konian02","0","23","1","1","3","1","","0","1","0","3835","","","","","neg","All","all","2","category2/men_all.png","49","","all","",""
"","image-slider-response","256","844627","0.0-14.0-0.3","gqu9j3c27l","one_one","1","direct_first","1","konian02","0","23","1","1","3","1","","0","1","0","3189","","","","","pos","All","all","4","category4/lin_all.png","40","","all","",""
"","survey-text","257","867247","0.0-15.0","gqu9j3c27l","one_one","1","direct_first","1","konian02","0","23","1","1","3","1","","0","1","0","22611","","{""comment"":""""}","","","","","","","","","","","",""
"","survey-html-form","258","893266","0.0-16.0","gqu9j3c27l","one_one","1","direct_first","1","konian02","0","23","1","1","3","1","","0","1","0","26016","","{""hinschauen"":""0"",""ablenkung"":""1"",""gewissenhaft"":""0""}","","","","","","","","","","","",""
