"success","trial_type","trial_index","time_elapsed","internal_node_id","subject","condition","condition_code","measure","measure_code","codeword","gender","age","education","chinese","fach","handedness","comment","hinschauen","ablenkung","gewissenhaft","rt","url","responses","stimulus","key_press","val","type","type_specific","category","cs_selected","response","target","task","indirect","nr_pres"
"true","fullscreen","0","6435","0.0-0.0","zblz46rx0s","many_one","0","direct_first","1","la06us30","0","19","1","0","3","1","","0","1","0","","","","","","","","","","","","","","",""
"","external-html","1","62274","0.0-1.0","zblz46rx0s","many_one","0","direct_first","1","la06us30","0","19","1","0","3","1","","0","1","0","55797","text/information.html","","","","","","","","","","","","",""
"","external-html","2","88158","0.0-2.0","zblz46rx0s","many_one","0","direct_first","1","la06us30","0","19","1","0","3","1","","0","1","0","25801","text/consent.html","","","","","","","","","","","","",""
"","survey-html-form","3","135151","0.0-3.0","zblz46rx0s","many_one","0","direct_first","1","la06us30","0","19","1","0","3","1","","0","1","0","46988","","{""codeword_enter"":""la06us30""}","","","","","","","","","","","",""
"","survey-html-form","4","165777","0.0-4.0","zblz46rx0s","many_one","0","direct_first","1","la06us30","0","19","1","0","3","1","","0","1","0","30620","","{""age"":""19"",""education"":""1"",""subject"":""3"",""gender"":""0"",""handedness"":""1"",""chinese"":""0""}","","","","","","","","","","","",""
"","survey-html-form","5","174048","0.0-5.0","zblz46rx0s","many_one","0","direct_first","1","la06us30","0","19","1","0","3","1","","0","1","0","8268","","{}","","","","","","","","","","","",""
"","html-keyboard-response","6","178054","0.0-6.0-0.0-0.0","zblz46rx0s","many_one","0","direct_first","1","la06us30","0","19","1","0","3","1","","0","1","0","null","","","<div class = 'row'><div class = 'column'><img src = 'usneg/9404.bmp' width = '100%;'></div><div class = 'column'><img src = 'category1/CS5.png' width = '70%;'></div></div>","null","neg","CS","CS","1","category1/CS5.png","","","","",""
"","html-keyboard-response","7","180563","0.0-6.0-0.0-0.1","zblz46rx0s","many_one","0","direct_first","1","la06us30","0","19","1","0","3","1","","0","1","0","null","","","<div class = 'row'><div class = 'column'><img src = 'uspos/1463.bmp' width = '100%;'></div><div class = 'column'><img src = 'category3/CS6.png' width = '70%;'></div></div>","null","pos","CS","CS","3","category3/CS6.png","","","","",""
"","html-keyboard-response","8","183069","0.0-6.0-0.0-0.2","zblz46rx0s","many_one","0","direct_first","1","la06us30","0","19","1","0","3","1","","0","1","0","null","","","<div class = 'row'><div class = 'column'><img src = 'uspos/7325.bmp' width = '100%;'></div><div class = 'column'><img src = 'category2/CS10.png' width = '70%;'></div></div>","null","pos","CS","CS","2","category2/CS10.png","","","","",""
"","html-keyboard-response","9","185578","0.0-6.0-0.0-0.3","zblz46rx0s","many_one","0","direct_first","1","la06us30","0","19","1","0","3","1","","0","1","0","null","","","<div class = 'row'><div class = 'column'><img src = 'usneg/9561.bmp' width = '100%;'></div><div class = 'column'><img src = 'category4/CS7.png' width = '70%;'></div></div>","null","neg","CS","CS","4","category4/CS7.png","","","","",""
"","html-keyboard-response","10","188082","0.0-6.0-0.0-0.4","zblz46rx0s","many_one","0","direct_first","1","la06us30","0","19","1","0","3","1","","0","1","0","null","","","<div class = 'row'><div class = 'column'><img src = 'uspos/5830.bmp' width = '100%;'></div><div class = 'column'><img src = 'category3/CS1.png' width = '70%;'></div></div>","null","pos","CS","CS","3","category3/CS1.png","","","","",""
"","html-keyboard-response","11","190598","0.0-6.0-0.0-0.5","zblz46rx0s","many_one","0","direct_first","1","la06us30","0","19","1","0","3","1","","0","1","0","null","","","<div class = 'row'><div class = 'column'><img src = 'category1/CS8.png' width = '70%;'></div><div class = 'column'><img src = 'usneg/9220.bmp' width = '100%;'></div></div>","null","neg","CS","CS","1","category1/CS8.png","","","","",""
"","html-keyboard-response","12","193108","0.0-6.0-0.0-0.6","zblz46rx0s","many_one","0","direct_first","1","la06us30","0","19","1","0","3","1","","0","1","0","null","","","<div class = 'row'><div class = 'column'><img src = 'usneg/8485.bmp' width = '100%;'></div><div class = 'column'><img src = 'category4/CS6.png' width = '70%;'></div></div>","null","neg","CS","CS","4","category4/CS6.png","","","","",""
"","html-keyboard-response","13","195613","0.0-6.0-0.0-0.7","zblz46rx0s","many_one","0","direct_first","1","la06us30","0","19","1","0","3","1","","0","1","0","null","","","<div class = 'row'><div class = 'column'><img src = 'usneg/9041.bmp' width = '100%;'></div><div class = 'column'><img src = 'category4/CS2.png' width = '70%;'></div></div>","null","neg","CS","CS","4","category4/CS2.png","","","","",""
"","html-keyboard-response","14","198118","0.0-6.0-0.0-0.8","zblz46rx0s","many_one","0","direct_first","1","la06us30","0","19","1","0","3","1","","0","1","0","null","","","<div class = 'row'><div class = 'column'><img src = 'category3/CS10.png' width = '70%;'></div><div class = 'column'><img src = 'uspos/7580.bmp' width = '100%;'></div></div>","null","pos","CS","CS","3","category3/CS10.png","","","","",""
"","html-keyboard-response","15","200621","0.0-6.0-0.0-0.9","zblz46rx0s","many_one","0","direct_first","1","la06us30","0","19","1","0","3","1","","0","1","0","null","","","<div class = 'row'><div class = 'column'><img src = 'category2/CS4.png' width = '70%;'></div><div class = 'column'><img src = 'uspos/2160.bmp' width = '100%;'></div></div>","null","pos","CS","CS","2","category2/CS4.png","","","","",""
"","html-keyboard-response","16","203130","0.0-6.0-0.0-0.10","zblz46rx0s","many_one","0","direct_first","1","la06us30","0","19","1","0","3","1","","0","1","0","null","","","<div class = 'row'><div class = 'column'><img src = 'category4/CS5.png' width = '70%;'></div><div class = 'column'><img src = 'usneg/9000.bmp' width = '100%;'></div></div>","null","neg","CS","CS","4","category4/CS5.png","","","","",""
"","html-keyboard-response","17","205633","0.0-6.0-0.0-0.11","zblz46rx0s","many_one","0","direct_first","1","la06us30","0","19","1","0","3","1","","0","1","0","null","","","<div class = 'row'><div class = 'column'><img src = 'uspos/5629.bmp' width = '100%;'></div><div class = 'column'><img src = 'category2/CS9.png' width = '70%;'></div></div>","null","pos","CS","CS","2","category2/CS9.png","","","","",""
"","html-keyboard-response","18","208143","0.0-6.0-0.0-0.12","zblz46rx0s","many_one","0","direct_first","1","la06us30","0","19","1","0","3","1","","0","1","0","null","","","<div class = 'row'><div class = 'column'><img src = 'category3/CS8.png' width = '70%;'></div><div class = 'column'><img src = 'uspos/8080.bmp' width = '100%;'></div></div>","null","pos","CS","CS","3","category3/CS8.png","","","","",""
"","html-keyboard-response","19","210652","0.0-6.0-0.0-0.13","zblz46rx0s","many_one","0","direct_first","1","la06us30","0","19","1","0","3","1","","0","1","0","null","","","<div class = 'row'><div class = 'column'><img src = 'category1/CS4.png' width = '70%;'></div><div class = 'column'><img src = 'usneg/6838.bmp' width = '100%;'></div></div>","null","neg","CS","CS","1","category1/CS4.png","","","","",""
"","html-keyboard-response","20","213162","0.0-6.0-0.0-0.14","zblz46rx0s","many_one","0","direct_first","1","la06us30","0","19","1","0","3","1","","0","1","0","null","","","<div class = 'row'><div class = 'column'><img src = 'category4/CS4.png' width = '70%;'></div><div class = 'column'><img src = 'usneg/9421.bmp' width = '100%;'></div></div>","null","neg","CS","CS","4","category4/CS4.png","","","","",""
"","html-keyboard-response","21","215668","0.0-6.0-0.0-0.15","zblz46rx0s","many_one","0","direct_first","1","la06us30","0","19","1","0","3","1","","0","1","0","null","","","<div class = 'row'><div class = 'column'><img src = 'uspos/2058.bmp' width = '100%;'></div><div class = 'column'><img src = 'category2/CS5.png' width = '70%;'></div></div>","null","pos","CS","CS","2","category2/CS5.png","","","","",""
"","html-keyboard-response","22","218177","0.0-6.0-0.0-0.16","zblz46rx0s","many_one","0","direct_first","1","la06us30","0","19","1","0","3","1","","0","1","0","null","","","<div class = 'row'><div class = 'column'><img src = 'uspos/2340.bmp' width = '100%;'></div><div class = 'column'><img src = 'category3/CS4.png' width = '70%;'></div></div>","null","pos","CS","CS","3","category3/CS4.png","","","","",""
"","html-keyboard-response","23","220684","0.0-6.0-0.0-0.17","zblz46rx0s","many_one","0","direct_first","1","la06us30","0","19","1","0","3","1","","0","1","0","null","","","<div class = 'row'><div class = 'column'><img src = 'uspos/2311.bmp' width = '100%;'></div><div class = 'column'><img src = 'category2/CS7.png' width = '70%;'></div></div>","null","pos","CS","CS","2","category2/CS7.png","","","","",""
"","html-keyboard-response","24","223189","0.0-6.0-0.0-0.18","zblz46rx0s","many_one","0","direct_first","1","la06us30","0","19","1","0","3","1","","0","1","0","null","","","<div class = 'row'><div class = 'column'><img src = 'usneg/1280.bmp' width = '100%;'></div><div class = 'column'><img src = 'category1/CS9.png' width = '70%;'></div></div>","null","neg","CS","CS","1","category1/CS9.png","","","","",""
"","html-keyboard-response","25","225696","0.0-6.0-0.0-0.19","zblz46rx0s","many_one","0","direct_first","1","la06us30","0","19","1","0","3","1","","0","1","0","null","","","<div class = 'row'><div class = 'column'><img src = 'category1/CS10.png' width = '70%;'></div><div class = 'column'><img src = 'usneg/6212.bmp' width = '100%;'></div></div>","null","neg","CS","CS","1","category1/CS10.png","","","","",""
"","survey-html-form","26","240092","0.0-6.0-1.0","zblz46rx0s","many_one","0","direct_first","1","la06us30","0","19","1","0","3","1","","0","1","0","13894","","{}","","","","","","","","","","","",""
"","html-keyboard-response","27","244103","0.0-6.0-2.0-0.0","zblz46rx0s","many_one","0","direct_first","1","la06us30","0","19","1","0","3","1","","0","1","0","null","","","<div class = 'row'><div class = 'column'><img src = 'category3/CS8.png' width = '70%;'></div><div class = 'column'><img src = 'uspos/8080.bmp' width = '100%;'></div></div>","null","pos","CS","CS","3","category3/CS8.png","","","","",""
"","html-keyboard-response","28","246608","0.0-6.0-2.0-0.1","zblz46rx0s","many_one","0","direct_first","1","la06us30","0","19","1","0","3","1","","0","1","0","null","","","<div class = 'row'><div class = 'column'><img src = 'category2/CS9.png' width = '70%;'></div><div class = 'column'><img src = 'uspos/5629.bmp' width = '100%;'></div></div>","null","pos","CS","CS","2","category2/CS9.png","","","","",""
"","html-keyboard-response","29","249117","0.0-6.0-2.0-0.2","zblz46rx0s","many_one","0","direct_first","1","la06us30","0","19","1","0","3","1","","0","1","0","null","","","<div class = 'row'><div class = 'column'><img src = 'usneg/6838.bmp' width = '100%;'></div><div class = 'column'><img src = 'category1/CS4.png' width = '70%;'></div></div>","null","neg","CS","CS","1","category1/CS4.png","","","","",""
"","html-keyboard-response","30","251619","0.0-6.0-2.0-0.3","zblz46rx0s","many_one","0","direct_first","1","la06us30","0","19","1","0","3","1","","0","1","0","null","","","<div class = 'row'><div class = 'column'><img src = 'category3/CS4.png' width = '70%;'></div><div class = 'column'><img src = 'uspos/2340.bmp' width = '100%;'></div></div>","null","pos","CS","CS","3","category3/CS4.png","","","","",""
"","html-keyboard-response","31","254126","0.0-6.0-2.0-0.4","zblz46rx0s","many_one","0","direct_first","1","la06us30","0","19","1","0","3","1","","0","1","0","null","","","<div class = 'row'><div class = 'column'><img src = 'usneg/9404.bmp' width = '100%;'></div><div class = 'column'><img src = 'category1/CS5.png' width = '70%;'></div></div>","null","neg","CS","CS","1","category1/CS5.png","","","","",""
"","html-keyboard-response","32","256637","0.0-6.0-2.0-0.5","zblz46rx0s","many_one","0","direct_first","1","la06us30","0","19","1","0","3","1","","0","1","0","null","","","<div class = 'row'><div class = 'column'><img src = 'uspos/2311.bmp' width = '100%;'></div><div class = 'column'><img src = 'category2/CS7.png' width = '70%;'></div></div>","null","pos","CS","CS","2","category2/CS7.png","","","","",""
"","html-keyboard-response","33","259147","0.0-6.0-2.0-0.6","zblz46rx0s","many_one","0","direct_first","1","la06us30","0","19","1","0","3","1","","0","1","0","null","","","<div class = 'row'><div class = 'column'><img src = 'category1/CS10.png' width = '70%;'></div><div class = 'column'><img src = 'usneg/6212.bmp' width = '100%;'></div></div>","null","neg","CS","CS","1","category1/CS10.png","","","","",""
"","html-keyboard-response","34","261653","0.0-6.0-2.0-0.7","zblz46rx0s","many_one","0","direct_first","1","la06us30","0","19","1","0","3","1","","0","1","0","null","","","<div class = 'row'><div class = 'column'><img src = 'category2/CS10.png' width = '70%;'></div><div class = 'column'><img src = 'uspos/7325.bmp' width = '100%;'></div></div>","null","pos","CS","CS","2","category2/CS10.png","","","","",""
"","html-keyboard-response","35","264162","0.0-6.0-2.0-0.8","zblz46rx0s","many_one","0","direct_first","1","la06us30","0","19","1","0","3","1","","0","1","0","null","","","<div class = 'row'><div class = 'column'><img src = 'category3/CS6.png' width = '70%;'></div><div class = 'column'><img src = 'uspos/1463.bmp' width = '100%;'></div></div>","null","pos","CS","CS","3","category3/CS6.png","","","","",""
"","html-keyboard-response","36","266668","0.0-6.0-2.0-0.9","zblz46rx0s","many_one","0","direct_first","1","la06us30","0","19","1","0","3","1","","0","1","0","null","","","<div class = 'row'><div class = 'column'><img src = 'category4/CS5.png' width = '70%;'></div><div class = 'column'><img src = 'usneg/9000.bmp' width = '100%;'></div></div>","null","neg","CS","CS","4","category4/CS5.png","","","","",""
"","html-keyboard-response","37","269178","0.0-6.0-2.0-0.10","zblz46rx0s","many_one","0","direct_first","1","la06us30","0","19","1","0","3","1","","0","1","0","null","","","<div class = 'row'><div class = 'column'><img src = 'usneg/9561.bmp' width = '100%;'></div><div class = 'column'><img src = 'category4/CS7.png' width = '70%;'></div></div>","null","neg","CS","CS","4","category4/CS7.png","","","","",""
"","html-keyboard-response","38","271687","0.0-6.0-2.0-0.11","zblz46rx0s","many_one","0","direct_first","1","la06us30","0","19","1","0","3","1","","0","1","0","null","","","<div class = 'row'><div class = 'column'><img src = 'category1/CS8.png' width = '70%;'></div><div class = 'column'><img src = 'usneg/9220.bmp' width = '100%;'></div></div>","null","neg","CS","CS","1","category1/CS8.png","","","","",""
"","html-keyboard-response","39","274196","0.0-6.0-2.0-0.12","zblz46rx0s","many_one","0","direct_first","1","la06us30","0","19","1","0","3","1","","0","1","0","null","","","<div class = 'row'><div class = 'column'><img src = 'category3/CS1.png' width = '70%;'></div><div class = 'column'><img src = 'uspos/5830.bmp' width = '100%;'></div></div>","null","pos","CS","CS","3","category3/CS1.png","","","","",""
"","html-keyboard-response","40","276702","0.0-6.0-2.0-0.13","zblz46rx0s","many_one","0","direct_first","1","la06us30","0","19","1","0","3","1","","0","1","0","null","","","<div class = 'row'><div class = 'column'><img src = 'usneg/9041.bmp' width = '100%;'></div><div class = 'column'><img src = 'category4/CS2.png' width = '70%;'></div></div>","null","neg","CS","CS","4","category4/CS2.png","","","","",""
"","html-keyboard-response","41","279213","0.0-6.0-2.0-0.14","zblz46rx0s","many_one","0","direct_first","1","la06us30","0","19","1","0","3","1","","0","1","0","null","","","<div class = 'row'><div class = 'column'><img src = 'category2/CS4.png' width = '70%;'></div><div class = 'column'><img src = 'uspos/2160.bmp' width = '100%;'></div></div>","null","pos","CS","CS","2","category2/CS4.png","","","","",""
"","html-keyboard-response","42","281719","0.0-6.0-2.0-0.15","zblz46rx0s","many_one","0","direct_first","1","la06us30","0","19","1","0","3","1","","0","1","0","null","","","<div class = 'row'><div class = 'column'><img src = 'category2/CS5.png' width = '70%;'></div><div class = 'column'><img src = 'uspos/2058.bmp' width = '100%;'></div></div>","null","pos","CS","CS","2","category2/CS5.png","","","","",""
"","html-keyboard-response","43","284228","0.0-6.0-2.0-0.16","zblz46rx0s","many_one","0","direct_first","1","la06us30","0","19","1","0","3","1","","0","1","0","null","","","<div class = 'row'><div class = 'column'><img src = 'usneg/1280.bmp' width = '100%;'></div><div class = 'column'><img src = 'category1/CS9.png' width = '70%;'></div></div>","null","neg","CS","CS","1","category1/CS9.png","","","","",""
"","html-keyboard-response","44","286732","0.0-6.0-2.0-0.17","zblz46rx0s","many_one","0","direct_first","1","la06us30","0","19","1","0","3","1","","0","1","0","null","","","<div class = 'row'><div class = 'column'><img src = 'usneg/8485.bmp' width = '100%;'></div><div class = 'column'><img src = 'category4/CS6.png' width = '70%;'></div></div>","null","neg","CS","CS","4","category4/CS6.png","","","","",""
"","html-keyboard-response","45","289237","0.0-6.0-2.0-0.18","zblz46rx0s","many_one","0","direct_first","1","la06us30","0","19","1","0","3","1","","0","1","0","null","","","<div class = 'row'><div class = 'column'><img src = 'uspos/7580.bmp' width = '100%;'></div><div class = 'column'><img src = 'category3/CS10.png' width = '70%;'></div></div>","null","pos","CS","CS","3","category3/CS10.png","","","","",""
"","html-keyboard-response","46","291743","0.0-6.0-2.0-0.19","zblz46rx0s","many_one","0","direct_first","1","la06us30","0","19","1","0","3","1","","0","1","0","null","","","<div class = 'row'><div class = 'column'><img src = 'usneg/9421.bmp' width = '100%;'></div><div class = 'column'><img src = 'category4/CS4.png' width = '70%;'></div></div>","null","neg","CS","CS","4","category4/CS4.png","","","","",""
"","survey-html-form","47","296025","0.0-6.0-3.0","zblz46rx0s","many_one","0","direct_first","1","la06us30","0","19","1","0","3","1","","0","1","0","3777","","{}","","","","","","","","","","","",""
"","html-keyboard-response","48","300029","0.0-6.0-4.0-0.0","zblz46rx0s","many_one","0","direct_first","1","la06us30","0","19","1","0","3","1","","0","1","0","null","","","<div class = 'row'><div class = 'column'><img src = 'usneg/9404.bmp' width = '100%;'></div><div class = 'column'><img src = 'category1/CS5.png' width = '70%;'></div></div>","null","neg","CS","CS","1","category1/CS5.png","","","","",""
"","html-keyboard-response","49","302537","0.0-6.0-4.0-0.1","zblz46rx0s","many_one","0","direct_first","1","la06us30","0","19","1","0","3","1","","0","1","0","null","","","<div class = 'row'><div class = 'column'><img src = 'uspos/8080.bmp' width = '100%;'></div><div class = 'column'><img src = 'category3/CS8.png' width = '70%;'></div></div>","null","pos","CS","CS","3","category3/CS8.png","","","","",""
"","html-keyboard-response","50","305043","0.0-6.0-4.0-0.2","zblz46rx0s","many_one","0","direct_first","1","la06us30","0","19","1","0","3","1","","0","1","0","null","","","<div class = 'row'><div class = 'column'><img src = 'uspos/1463.bmp' width = '100%;'></div><div class = 'column'><img src = 'category3/CS6.png' width = '70%;'></div></div>","null","pos","CS","CS","3","category3/CS6.png","","","","",""
"","html-keyboard-response","51","307551","0.0-6.0-4.0-0.3","zblz46rx0s","many_one","0","direct_first","1","la06us30","0","19","1","0","3","1","","0","1","0","null","","","<div class = 'row'><div class = 'column'><img src = 'usneg/9041.bmp' width = '100%;'></div><div class = 'column'><img src = 'category4/CS2.png' width = '70%;'></div></div>","null","neg","CS","CS","4","category4/CS2.png","","","","",""
"","html-keyboard-response","52","310052","0.0-6.0-4.0-0.4","zblz46rx0s","many_one","0","direct_first","1","la06us30","0","19","1","0","3","1","","0","1","0","null","","","<div class = 'row'><div class = 'column'><img src = 'category4/CS4.png' width = '70%;'></div><div class = 'column'><img src = 'usneg/9421.bmp' width = '100%;'></div></div>","null","neg","CS","CS","4","category4/CS4.png","","","","",""
"","html-keyboard-response","53","312562","0.0-6.0-4.0-0.5","zblz46rx0s","many_one","0","direct_first","1","la06us30","0","19","1","0","3","1","","0","1","0","null","","","<div class = 'row'><div class = 'column'><img src = 'category4/CS7.png' width = '70%;'></div><div class = 'column'><img src = 'usneg/9561.bmp' width = '100%;'></div></div>","null","neg","CS","CS","4","category4/CS7.png","","","","",""
"","html-keyboard-response","54","315071","0.0-6.0-4.0-0.6","zblz46rx0s","many_one","0","direct_first","1","la06us30","0","19","1","0","3","1","","0","1","0","null","","","<div class = 'row'><div class = 'column'><img src = 'uspos/2160.bmp' width = '100%;'></div><div class = 'column'><img src = 'category2/CS4.png' width = '70%;'></div></div>","null","pos","CS","CS","2","category2/CS4.png","","","","",""
"","html-keyboard-response","55","317582","0.0-6.0-4.0-0.7","zblz46rx0s","many_one","0","direct_first","1","la06us30","0","19","1","0","3","1","","0","1","0","null","","","<div class = 'row'><div class = 'column'><img src = 'category1/CS8.png' width = '70%;'></div><div class = 'column'><img src = 'usneg/9220.bmp' width = '100%;'></div></div>","null","neg","CS","CS","1","category1/CS8.png","","","","",""
"","html-keyboard-response","56","320088","0.0-6.0-4.0-0.8","zblz46rx0s","many_one","0","direct_first","1","la06us30","0","19","1","0","3","1","","0","1","0","null","","","<div class = 'row'><div class = 'column'><img src = 'category2/CS9.png' width = '70%;'></div><div class = 'column'><img src = 'uspos/5629.bmp' width = '100%;'></div></div>","null","pos","CS","CS","2","category2/CS9.png","","","","",""
"","html-keyboard-response","57","322597","0.0-6.0-4.0-0.9","zblz46rx0s","many_one","0","direct_first","1","la06us30","0","19","1","0","3","1","","0","1","0","null","","","<div class = 'row'><div class = 'column'><img src = 'category2/CS7.png' width = '70%;'></div><div class = 'column'><img src = 'uspos/2311.bmp' width = '100%;'></div></div>","null","pos","CS","CS","2","category2/CS7.png","","","","",""
"","html-keyboard-response","58","325100","0.0-6.0-4.0-0.10","zblz46rx0s","many_one","0","direct_first","1","la06us30","0","19","1","0","3","1","","0","1","0","null","","","<div class = 'row'><div class = 'column'><img src = 'category2/CS5.png' width = '70%;'></div><div class = 'column'><img src = 'uspos/2058.bmp' width = '100%;'></div></div>","null","pos","CS","CS","2","category2/CS5.png","","","","",""
"","html-keyboard-response","59","327611","0.0-6.0-4.0-0.11","zblz46rx0s","many_one","0","direct_first","1","la06us30","0","19","1","0","3","1","","0","1","0","null","","","<div class = 'row'><div class = 'column'><img src = 'category4/CS6.png' width = '70%;'></div><div class = 'column'><img src = 'usneg/8485.bmp' width = '100%;'></div></div>","null","neg","CS","CS","4","category4/CS6.png","","","","",""
"","html-keyboard-response","60","330121","0.0-6.0-4.0-0.12","zblz46rx0s","many_one","0","direct_first","1","la06us30","0","19","1","0","3","1","","0","1","0","null","","","<div class = 'row'><div class = 'column'><img src = 'category1/CS4.png' width = '70%;'></div><div class = 'column'><img src = 'usneg/6838.bmp' width = '100%;'></div></div>","null","neg","CS","CS","1","category1/CS4.png","","","","",""
"","html-keyboard-response","61","332630","0.0-6.0-4.0-0.13","zblz46rx0s","many_one","0","direct_first","1","la06us30","0","19","1","0","3","1","","0","1","0","null","","","<div class = 'row'><div class = 'column'><img src = 'uspos/7580.bmp' width = '100%;'></div><div class = 'column'><img src = 'category3/CS10.png' width = '70%;'></div></div>","null","pos","CS","CS","3","category3/CS10.png","","","","",""
"","html-keyboard-response","62","335142","0.0-6.0-4.0-0.14","zblz46rx0s","many_one","0","direct_first","1","la06us30","0","19","1","0","3","1","","0","1","0","null","","","<div class = 'row'><div class = 'column'><img src = 'category3/CS4.png' width = '70%;'></div><div class = 'column'><img src = 'uspos/2340.bmp' width = '100%;'></div></div>","null","pos","CS","CS","3","category3/CS4.png","","","","",""
"","html-keyboard-response","63","337652","0.0-6.0-4.0-0.15","zblz46rx0s","many_one","0","direct_first","1","la06us30","0","19","1","0","3","1","","0","1","0","null","","","<div class = 'row'><div class = 'column'><img src = 'usneg/6212.bmp' width = '100%;'></div><div class = 'column'><img src = 'category1/CS10.png' width = '70%;'></div></div>","null","neg","CS","CS","1","category1/CS10.png","","","","",""
"","html-keyboard-response","64","340159","0.0-6.0-4.0-0.16","zblz46rx0s","many_one","0","direct_first","1","la06us30","0","19","1","0","3","1","","0","1","0","null","","","<div class = 'row'><div class = 'column'><img src = 'category3/CS1.png' width = '70%;'></div><div class = 'column'><img src = 'uspos/5830.bmp' width = '100%;'></div></div>","null","pos","CS","CS","3","category3/CS1.png","","","","",""
"","html-keyboard-response","65","342668","0.0-6.0-4.0-0.17","zblz46rx0s","many_one","0","direct_first","1","la06us30","0","19","1","0","3","1","","0","1","0","null","","","<div class = 'row'><div class = 'column'><img src = 'category2/CS10.png' width = '70%;'></div><div class = 'column'><img src = 'uspos/7325.bmp' width = '100%;'></div></div>","null","pos","CS","CS","2","category2/CS10.png","","","","",""
"","html-keyboard-response","66","345179","0.0-6.0-4.0-0.18","zblz46rx0s","many_one","0","direct_first","1","la06us30","0","19","1","0","3","1","","0","1","0","null","","","<div class = 'row'><div class = 'column'><img src = 'category1/CS9.png' width = '70%;'></div><div class = 'column'><img src = 'usneg/1280.bmp' width = '100%;'></div></div>","null","neg","CS","CS","1","category1/CS9.png","","","","",""
"","html-keyboard-response","67","347683","0.0-6.0-4.0-0.19","zblz46rx0s","many_one","0","direct_first","1","la06us30","0","19","1","0","3","1","","0","1","0","null","","","<div class = 'row'><div class = 'column'><img src = 'usneg/9000.bmp' width = '100%;'></div><div class = 'column'><img src = 'category4/CS5.png' width = '70%;'></div></div>","null","neg","CS","CS","4","category4/CS5.png","","","","",""
"","survey-html-form","68","353018","0.0-6.0-5.0","zblz46rx0s","many_one","0","direct_first","1","la06us30","0","19","1","0","3","1","","0","1","0","4831","","{}","","","","","","","","","","","",""
"","html-keyboard-response","69","357028","0.0-6.0-6.0-0.0","zblz46rx0s","many_one","0","direct_first","1","la06us30","0","19","1","0","3","1","","0","1","0","null","","","<div class = 'row'><div class = 'column'><img src = 'usneg/6838.bmp' width = '100%;'></div><div class = 'column'><img src = 'category1/CS4.png' width = '70%;'></div></div>","null","neg","CS","CS","1","category1/CS4.png","","","","",""
"","html-keyboard-response","70","359530","0.0-6.0-6.0-0.1","zblz46rx0s","many_one","0","direct_first","1","la06us30","0","19","1","0","3","1","","0","1","0","null","","","<div class = 'row'><div class = 'column'><img src = 'category4/CS4.png' width = '70%;'></div><div class = 'column'><img src = 'usneg/9421.bmp' width = '100%;'></div></div>","null","neg","CS","CS","4","category4/CS4.png","","","","",""
"","html-keyboard-response","71","362038","0.0-6.0-6.0-0.2","zblz46rx0s","many_one","0","direct_first","1","la06us30","0","19","1","0","3","1","","0","1","0","null","","","<div class = 'row'><div class = 'column'><img src = 'category3/CS8.png' width = '70%;'></div><div class = 'column'><img src = 'uspos/8080.bmp' width = '100%;'></div></div>","null","pos","CS","CS","3","category3/CS8.png","","","","",""
"","html-keyboard-response","72","364541","0.0-6.0-6.0-0.3","zblz46rx0s","many_one","0","direct_first","1","la06us30","0","19","1","0","3","1","","0","1","0","null","","","<div class = 'row'><div class = 'column'><img src = 'uspos/7325.bmp' width = '100%;'></div><div class = 'column'><img src = 'category2/CS10.png' width = '70%;'></div></div>","null","pos","CS","CS","2","category2/CS10.png","","","","",""
"","html-keyboard-response","73","367048","0.0-6.0-6.0-0.4","zblz46rx0s","many_one","0","direct_first","1","la06us30","0","19","1","0","3","1","","0","1","0","null","","","<div class = 'row'><div class = 'column'><img src = 'category2/CS7.png' width = '70%;'></div><div class = 'column'><img src = 'uspos/2311.bmp' width = '100%;'></div></div>","null","pos","CS","CS","2","category2/CS7.png","","","","",""
"","html-keyboard-response","74","369551","0.0-6.0-6.0-0.5","zblz46rx0s","many_one","0","direct_first","1","la06us30","0","19","1","0","3","1","","0","1","0","null","","","<div class = 'row'><div class = 'column'><img src = 'uspos/1463.bmp' width = '100%;'></div><div class = 'column'><img src = 'category3/CS6.png' width = '70%;'></div></div>","null","pos","CS","CS","3","category3/CS6.png","","","","",""
"","html-keyboard-response","75","372057","0.0-6.0-6.0-0.6","zblz46rx0s","many_one","0","direct_first","1","la06us30","0","19","1","0","3","1","","0","1","0","null","","","<div class = 'row'><div class = 'column'><img src = 'usneg/9000.bmp' width = '100%;'></div><div class = 'column'><img src = 'category4/CS5.png' width = '70%;'></div></div>","null","neg","CS","CS","4","category4/CS5.png","","","","",""
"","html-keyboard-response","76","374567","0.0-6.0-6.0-0.7","zblz46rx0s","many_one","0","direct_first","1","la06us30","0","19","1","0","3","1","","0","1","0","null","","","<div class = 'row'><div class = 'column'><img src = 'category3/CS10.png' width = '70%;'></div><div class = 'column'><img src = 'uspos/7580.bmp' width = '100%;'></div></div>","null","pos","CS","CS","3","category3/CS10.png","","","","",""
"","html-keyboard-response","77","377069","0.0-6.0-6.0-0.8","zblz46rx0s","many_one","0","direct_first","1","la06us30","0","19","1","0","3","1","","0","1","0","null","","","<div class = 'row'><div class = 'column'><img src = 'category1/CS9.png' width = '70%;'></div><div class = 'column'><img src = 'usneg/1280.bmp' width = '100%;'></div></div>","null","neg","CS","CS","1","category1/CS9.png","","","","",""
"","html-keyboard-response","78","379572","0.0-6.0-6.0-0.9","zblz46rx0s","many_one","0","direct_first","1","la06us30","0","19","1","0","3","1","","0","1","0","null","","","<div class = 'row'><div class = 'column'><img src = 'usneg/9561.bmp' width = '100%;'></div><div class = 'column'><img src = 'category4/CS7.png' width = '70%;'></div></div>","null","neg","CS","CS","4","category4/CS7.png","","","","",""
"","html-keyboard-response","79","382081","0.0-6.0-6.0-0.10","zblz46rx0s","many_one","0","direct_first","1","la06us30","0","19","1","0","3","1","","0","1","0","null","","","<div class = 'row'><div class = 'column'><img src = 'category3/CS4.png' width = '70%;'></div><div class = 'column'><img src = 'uspos/2340.bmp' width = '100%;'></div></div>","null","pos","CS","CS","3","category3/CS4.png","","","","",""
"","html-keyboard-response","80","384592","0.0-6.0-6.0-0.11","zblz46rx0s","many_one","0","direct_first","1","la06us30","0","19","1","0","3","1","","0","1","0","null","","","<div class = 'row'><div class = 'column'><img src = 'uspos/2160.bmp' width = '100%;'></div><div class = 'column'><img src = 'category2/CS4.png' width = '70%;'></div></div>","null","pos","CS","CS","2","category2/CS4.png","","","","",""
"","html-keyboard-response","81","387098","0.0-6.0-6.0-0.12","zblz46rx0s","many_one","0","direct_first","1","la06us30","0","19","1","0","3","1","","0","1","0","null","","","<div class = 'row'><div class = 'column'><img src = 'uspos/5629.bmp' width = '100%;'></div><div class = 'column'><img src = 'category2/CS9.png' width = '70%;'></div></div>","null","pos","CS","CS","2","category2/CS9.png","","","","",""
"","html-keyboard-response","82","389602","0.0-6.0-6.0-0.13","zblz46rx0s","many_one","0","direct_first","1","la06us30","0","19","1","0","3","1","","0","1","0","null","","","<div class = 'row'><div class = 'column'><img src = 'category1/CS8.png' width = '70%;'></div><div class = 'column'><img src = 'usneg/9220.bmp' width = '100%;'></div></div>","null","neg","CS","CS","1","category1/CS8.png","","","","",""
"","html-keyboard-response","83","392109","0.0-6.0-6.0-0.14","zblz46rx0s","many_one","0","direct_first","1","la06us30","0","19","1","0","3","1","","0","1","0","null","","","<div class = 'row'><div class = 'column'><img src = 'category1/CS5.png' width = '70%;'></div><div class = 'column'><img src = 'usneg/9404.bmp' width = '100%;'></div></div>","null","neg","CS","CS","1","category1/CS5.png","","","","",""
"","html-keyboard-response","84","394617","0.0-6.0-6.0-0.15","zblz46rx0s","many_one","0","direct_first","1","la06us30","0","19","1","0","3","1","","0","1","0","null","","","<div class = 'row'><div class = 'column'><img src = 'uspos/2058.bmp' width = '100%;'></div><div class = 'column'><img src = 'category2/CS5.png' width = '70%;'></div></div>","null","pos","CS","CS","2","category2/CS5.png","","","","",""
"","html-keyboard-response","85","397127","0.0-6.0-6.0-0.16","zblz46rx0s","many_one","0","direct_first","1","la06us30","0","19","1","0","3","1","","0","1","0","null","","","<div class = 'row'><div class = 'column'><img src = 'category4/CS2.png' width = '70%;'></div><div class = 'column'><img src = 'usneg/9041.bmp' width = '100%;'></div></div>","null","neg","CS","CS","4","category4/CS2.png","","","","",""
"","html-keyboard-response","86","399631","0.0-6.0-6.0-0.17","zblz46rx0s","many_one","0","direct_first","1","la06us30","0","19","1","0","3","1","","0","1","0","null","","","<div class = 'row'><div class = 'column'><img src = 'category1/CS10.png' width = '70%;'></div><div class = 'column'><img src = 'usneg/6212.bmp' width = '100%;'></div></div>","null","neg","CS","CS","1","category1/CS10.png","","","","",""
"","html-keyboard-response","87","402140","0.0-6.0-6.0-0.18","zblz46rx0s","many_one","0","direct_first","1","la06us30","0","19","1","0","3","1","","0","1","0","null","","","<div class = 'row'><div class = 'column'><img src = 'uspos/5830.bmp' width = '100%;'></div><div class = 'column'><img src = 'category3/CS1.png' width = '70%;'></div></div>","null","pos","CS","CS","3","category3/CS1.png","","","","",""
"","html-keyboard-response","88","404650","0.0-6.0-6.0-0.19","zblz46rx0s","many_one","0","direct_first","1","la06us30","0","19","1","0","3","1","","0","1","0","null","","","<div class = 'row'><div class = 'column'><img src = 'usneg/8485.bmp' width = '100%;'></div><div class = 'column'><img src = 'category4/CS6.png' width = '70%;'></div></div>","null","neg","CS","CS","4","category4/CS6.png","","","","",""
"","survey-html-form","89","415132","0.0-7.0","zblz46rx0s","many_one","0","direct_first","1","la06us30","0","19","1","0","3","1","","0","1","0","9980","","{}","","","","","","","","","","","",""
"","image-slider-response","90","433973","0.0-8.0-0.0","zblz46rx0s","many_one","0","direct_first","1","la06us30","0","19","1","0","3","1","","0","1","0","16810","","","","","pos","CS","CS","2","category2/CS9.png","-78","targets/47.png","direct","",""
"","image-slider-response","91","445351","0.0-8.0-0.1","zblz46rx0s","many_one","0","direct_first","1","la06us30","0","19","1","0","3","1","","0","1","0","11374","","","","","neg","CS","CS","4","category4/CS7.png","70","targets/10.png","direct","",""
"","image-slider-response","92","455682","0.0-8.0-0.2","zblz46rx0s","many_one","0","direct_first","1","la06us30","0","19","1","0","3","1","","0","1","0","10327","","","","","pos","CS","CS","3","category3/CS8.png","-27","targets/35.png","direct","",""
"","image-slider-response","93","465124","0.0-8.0-0.3","zblz46rx0s","many_one","0","direct_first","1","la06us30","0","19","1","0","3","1","","0","1","0","9437","","","","","neg","GS","GSnew","4","category4/GS1.png","40","targets/28.png","direct","",""
"","image-slider-response","94","476495","0.0-8.0-0.4","zblz46rx0s","many_one","0","direct_first","1","la06us30","0","19","1","0","3","1","","0","1","0","11367","","","","","neg","CS","CS","1","category1/CS4.png","-61","targets/29.png","direct","",""
"","image-slider-response","95","483220","0.0-8.0-0.5","zblz46rx0s","many_one","0","direct_first","1","la06us30","0","19","1","0","3","1","","0","1","0","6722","","","","","pos","GS","GSold","2","category2/CS6.png","72","targets/3.png","direct","",""
"","image-slider-response","96","489562","0.0-8.0-0.6","zblz46rx0s","many_one","0","direct_first","1","la06us30","0","19","1","0","3","1","","0","1","0","6335","","","","","pos","CS","CS","2","category2/CS5.png","100","targets/16.png","direct","",""
"","image-slider-response","97","498699","0.0-8.0-0.7","zblz46rx0s","many_one","0","direct_first","1","la06us30","0","19","1","0","3","1","","0","1","0","9130","","","","","pos","GS","abstract","2","category2/men.png","50","targets/39.png","direct","",""
"","image-slider-response","98","506621","0.0-8.0-0.8","zblz46rx0s","many_one","0","direct_first","1","la06us30","0","19","1","0","3","1","","0","1","0","7919","","","","","pos","GS","GSold","3","category3/CS2.png","-47","targets/38.png","direct","",""
"","image-slider-response","99","514252","0.0-8.0-0.9","zblz46rx0s","many_one","0","direct_first","1","la06us30","0","19","1","0","3","1","","0","1","0","7626","","","","","neg","CS","CS","1","category1/CS9.png","-24","targets/26.png","direct","",""
"","image-slider-response","100","523272","0.0-8.0-0.10","zblz46rx0s","many_one","0","direct_first","1","la06us30","0","19","1","0","3","1","","0","1","0","9015","","","","","pos","GS","GSnew","2","category2/GS1.png","-74","targets/32.png","direct","",""
"","image-slider-response","101","531035","0.0-8.0-0.11","zblz46rx0s","many_one","0","direct_first","1","la06us30","0","19","1","0","3","1","","0","1","0","7760","","","","","pos","GS","GSnew","3","category3/GS1.png","-36","targets/37.png","direct","",""
"","image-slider-response","102","538552","0.0-8.0-0.12","zblz46rx0s","many_one","0","direct_first","1","la06us30","0","19","1","0","3","1","","0","1","0","7511","","","","","pos","CS","CS","3","category3/CS4.png","50","targets/44.png","direct","",""
"","image-slider-response","103","546774","0.0-8.0-0.13","zblz46rx0s","many_one","0","direct_first","1","la06us30","0","19","1","0","3","1","","0","1","0","8217","","","","","pos","CS","CS","3","category3/CS1.png","28","targets/5.png","direct","",""
"","image-slider-response","104","557460","0.0-8.0-0.14","zblz46rx0s","many_one","0","direct_first","1","la06us30","0","19","1","0","3","1","","0","1","0","10682","","","","","pos","GS","abstract","3","category3/wang.png","-5","targets/36.png","direct","",""
"","image-slider-response","105","565131","0.0-8.0-0.15","zblz46rx0s","many_one","0","direct_first","1","la06us30","0","19","1","0","3","1","","0","1","0","7666","","","","","pos","GS","GSnew","3","category3/GS3.png","-30","targets/18.png","direct","",""
"","image-slider-response","106","572223","0.0-8.0-0.16","zblz46rx0s","many_one","0","direct_first","1","la06us30","0","19","1","0","3","1","","0","1","0","7088","","","","","neg","CS","CS","4","category4/CS4.png","-45","targets/34.png","direct","",""
"","image-slider-response","107","584920","0.0-8.0-0.17","zblz46rx0s","many_one","0","direct_first","1","la06us30","0","19","1","0","3","1","","0","1","0","12693","","","","","neg","GS","GSnew","1","category1/GS3.png","100","targets/27.png","direct","",""
"","image-slider-response","108","593393","0.0-8.0-0.18","zblz46rx0s","many_one","0","direct_first","1","la06us30","0","19","1","0","3","1","","0","1","0","8467","","","","","pos","CS","CS","2","category2/CS10.png","32","targets/43.png","direct","",""
"","image-slider-response","109","601295","0.0-8.0-0.19","zblz46rx0s","many_one","0","direct_first","1","la06us30","0","19","1","0","3","1","","0","1","0","7899","","","","","pos","GS","GSnew","3","category3/GS2.png","-60","targets/6.png","direct","",""
"","image-slider-response","110","611731","0.0-8.0-0.20","zblz46rx0s","many_one","0","direct_first","1","la06us30","0","19","1","0","3","1","","0","1","0","10432","","","","","neg","CS","CS","1","category1/CS10.png","-54","targets/2.png","direct","",""
"","image-slider-response","111","621786","0.0-8.0-0.21","zblz46rx0s","many_one","0","direct_first","1","la06us30","0","19","1","0","3","1","","0","1","0","10052","","","","","neg","GS","GSold","4","category4/CS3.png","46","targets/25.png","direct","",""
"","image-slider-response","112","633587","0.0-8.0-0.22","zblz46rx0s","many_one","0","direct_first","1","la06us30","0","19","1","0","3","1","","0","1","0","11797","","","","","neg","GS","GSnew","1","category1/GS1.png","25","targets/46.png","direct","",""
"","image-slider-response","113","640139","0.0-8.0-0.23","zblz46rx0s","many_one","0","direct_first","1","la06us30","0","19","1","0","3","1","","0","1","0","6549","","","","","neg","GS","GSnew","4","category4/GS3.png","-51","targets/15.png","direct","",""
"","image-slider-response","114","647592","0.0-8.0-0.24","zblz46rx0s","many_one","0","direct_first","1","la06us30","0","19","1","0","3","1","","0","1","0","7448","","","","","neg","CS","CS","4","category4/CS2.png","-49","targets/33.png","direct","",""
"","image-slider-response","115","654252","0.0-8.0-0.25","zblz46rx0s","many_one","0","direct_first","1","la06us30","0","19","1","0","3","1","","0","1","0","6657","","","","","neg","GS","GSold","4","category4/CS1.png","-48","targets/21.png","direct","",""
"","image-slider-response","116","662637","0.0-8.0-0.26","zblz46rx0s","many_one","0","direct_first","1","la06us30","0","19","1","0","3","1","","0","1","0","8381","","","","","pos","CS","CS","2","category2/CS7.png","56","targets/11.png","direct","",""
"","image-slider-response","117","672455","0.0-8.0-0.27","zblz46rx0s","many_one","0","direct_first","1","la06us30","0","19","1","0","3","1","","0","1","0","9813","","","","","neg","CS","CS","1","category1/CS5.png","-40","targets/17.png","direct","",""
"","image-slider-response","118","678636","0.0-8.0-0.28","zblz46rx0s","many_one","0","direct_first","1","la06us30","0","19","1","0","3","1","","0","1","0","6177","","","","","pos","CS","CS","3","category3/CS10.png","-27","targets/45.png","direct","",""
"","image-slider-response","119","685651","0.0-8.0-0.29","zblz46rx0s","many_one","0","direct_first","1","la06us30","0","19","1","0","3","1","","0","1","0","7012","","","","","pos","GS","GSold","3","category3/CS7.png","-29","targets/7.png","direct","",""
"","image-slider-response","120","692060","0.0-8.0-0.30","zblz46rx0s","many_one","0","direct_first","1","la06us30","0","19","1","0","3","1","","0","1","0","6405","","","","","neg","GS","GSnew","1","category1/GS2.png","28","targets/19.png","direct","",""
"","image-slider-response","121","699590","0.0-8.0-0.31","zblz46rx0s","many_one","0","direct_first","1","la06us30","0","19","1","0","3","1","","0","1","0","7525","","","","","pos","GS","GSold","2","category2/CS2.png","55","targets/1.png","direct","",""
"","image-slider-response","122","706201","0.0-8.0-0.32","zblz46rx0s","many_one","0","direct_first","1","la06us30","0","19","1","0","3","1","","0","1","0","6606","","","","","neg","GS","GSnew","4","category4/GS2.png","-23","targets/31.png","direct","",""
"","image-slider-response","123","712756","0.0-8.0-0.33","zblz46rx0s","many_one","0","direct_first","1","la06us30","0","19","1","0","3","1","","0","1","0","6550","","","","","neg","CS","CS","1","category1/CS8.png","-34","targets/23.png","direct","",""
"","image-slider-response","124","718661","0.0-8.0-0.34","zblz46rx0s","many_one","0","direct_first","1","la06us30","0","19","1","0","3","1","","0","1","0","5901","","","","","neg","GS","GSold","1","category1/CS3.png","15","targets/40.png","direct","",""
"","image-slider-response","125","728267","0.0-8.0-0.35","zblz46rx0s","many_one","0","direct_first","1","la06us30","0","19","1","0","3","1","","0","1","0","9603","","","","","pos","GS","GSnew","2","category2/GS3.png","77","targets/41.png","direct","",""
"","image-slider-response","126","734142","0.0-8.0-0.36","zblz46rx0s","many_one","0","direct_first","1","la06us30","0","19","1","0","3","1","","0","1","0","5871","","","","","pos","CS","CS","3","category3/CS6.png","31","targets/42.png","direct","",""
"","image-slider-response","127","741357","0.0-8.0-0.37","zblz46rx0s","many_one","0","direct_first","1","la06us30","0","19","1","0","3","1","","0","1","0","7210","","","","","neg","GS","GSold","1","category1/CS6.png","-46","targets/9.png","direct","",""
"","image-slider-response","128","747822","0.0-8.0-0.38","zblz46rx0s","many_one","0","direct_first","1","la06us30","0","19","1","0","3","1","","0","1","0","6460","","","","","neg","GS","GSold","4","category4/CS8.png","38","targets/22.png","direct","",""
"","image-slider-response","129","756739","0.0-8.0-0.39","zblz46rx0s","many_one","0","direct_first","1","la06us30","0","19","1","0","3","1","","0","1","0","8913","","","","","neg","GS","abstract","1","category1/ma.png","52","targets/14.png","direct","",""
"","image-slider-response","130","764745","0.0-8.0-0.40","zblz46rx0s","many_one","0","direct_first","1","la06us30","0","19","1","0","3","1","","0","1","0","8001","","","","","neg","GS","GSold","1","category1/CS7.png","29","targets/30.png","direct","",""
"","image-slider-response","131","771247","0.0-8.0-0.41","zblz46rx0s","many_one","0","direct_first","1","la06us30","0","19","1","0","3","1","","0","1","0","6498","","","","","pos","GS","GSold","2","category2/CS1.png","67","targets/20.png","direct","",""
"","image-slider-response","132","778232","0.0-8.0-0.42","zblz46rx0s","many_one","0","direct_first","1","la06us30","0","19","1","0","3","1","","0","1","0","6981","","","","","neg","CS","CS","4","category4/CS5.png","-55","targets/8.png","direct","",""
"","image-slider-response","133","787090","0.0-8.0-0.43","zblz46rx0s","many_one","0","direct_first","1","la06us30","0","19","1","0","3","1","","0","1","0","8855","","","","","pos","CS","CS","2","category2/CS4.png","47","targets/13.png","direct","",""
"","image-slider-response","134","800051","0.0-8.0-0.44","zblz46rx0s","many_one","0","direct_first","1","la06us30","0","19","1","0","3","1","","0","1","0","12957","","","","","neg","CS","CS","4","category4/CS6.png","-33","targets/12.png","direct","",""
"","image-slider-response","135","809802","0.0-8.0-0.45","zblz46rx0s","many_one","0","direct_first","1","la06us30","0","19","1","0","3","1","","0","1","0","9748","","","","","pos","GS","GSnew","2","category2/GS2.png","-30","targets/48.png","direct","",""
"","image-slider-response","136","814761","0.0-8.0-0.46","zblz46rx0s","many_one","0","direct_first","1","la06us30","0","19","1","0","3","1","","0","1","0","4954","","","","","pos","GS","GSold","3","category3/CS5.png","-14","targets/24.png","direct","",""
"","image-slider-response","137","822989","0.0-8.0-0.47","zblz46rx0s","many_one","0","direct_first","1","la06us30","0","19","1","0","3","1","","0","1","0","8222","","","","","neg","GS","abstract","4","category4/lin.png","25","targets/4.png","direct","",""
"","html-keyboard-response","138","856765","0.0-9.0","zblz46rx0s","many_one","0","direct_first","1","la06us30","0","19","1","0","3","1","","0","1","0","33773","","","<p>Sie sehen nun die chinesischen Zeichen nur ganz kurz. Danach sehen Sie die jeweilige Aussprache der Zeichen als Silbe auf dem Bildschrim. Ihre Aufgabe ist es, für jede Silbe anzugeben, ob diese etwas angenehmes, oder unangenehmes bedeuten könnte. Verlassen Sie sich hier vor allem auf Ihre Intuition.<br><br>Die Zeichen werden nur zur Orientierung dargestellt, beachten Sie sie deshalb nicht. Konzentrieren Sie sich vor allem auf die Silben. <br>Reagieren Sie mit folgenden zwei Tasten: <br><br><b>'D' </b> wenn die Silbe etwas <b>unangenehmes</b> bedeuten könnte. <br><b>'K'</b> wenn die Silbe etwas <b>angenehmes</b> bedeuten könnte. <br><br>Bitte legen Sie nun den Zeigefinger der linken Hand auf die Taste 'D' und den Zeigefinger der rechten Hand auf die Taste 'K'. <br>Reagieren Sie auf jede Silbe so schnell wie möglich. Uns interessiert Ihre spontane Reaktion. <br> <br> <br>Drücken Sie 'D' oder 'K', um die nächste Aufgabe zu starten. </p>","75","","","","","","","","","",""
"","html-keyboard-response","139","859771","0.0-10.0-0.0","zblz46rx0s","many_one","0","direct_first","1","la06us30","0","19","1","0","3","1","","0","1","0","null","","","<div style=""font-size:60px;"">+</div>","null","","","","","","","","","",""
"","html-keyboard-response","140","859863","0.0-10.0-1.0","zblz46rx0s","many_one","0","direct_first","1","la06us30","0","19","1","0","3","1","","0","1","0","null","","","<img src = 'category1/CS5.png' width = '100%;'>","null","","","","","","","","","",""
"","html-keyboard-response","141","860121","0.0-10.0-2.0","zblz46rx0s","many_one","0","direct_first","1","la06us30","0","19","1","0","3","1","","0","1","0","null","","","<img src = 'targets/17.png' width = '100%;'>","null","","","","","","","","","",""
"","html-keyboard-response","142","863642","0.0-10.0-3.0","zblz46rx0s","many_one","0","direct_first","1","la06us30","0","19","1","0","3","1","","0","1","0","3520","","","<img src = 'targets/mask.png' width = '100%;'>","75","neg","CS","CS","1","category1/CS5.png","","targets/17.png","indirect","1","0"
"","html-keyboard-response","143","865151","0.0-10.0-0.1","zblz46rx0s","many_one","0","direct_first","1","la06us30","0","19","1","0","3","1","","0","1","0","null","","","<div style=""font-size:60px;"">+</div>","null","","","","","","","","","",""
"","html-keyboard-response","144","865242","0.0-10.0-1.1","zblz46rx0s","many_one","0","direct_first","1","la06us30","0","19","1","0","3","1","","0","1","0","null","","","<img src = 'category3/CS8.png' width = '100%;'>","null","","","","","","","","","",""
"","html-keyboard-response","145","865497","0.0-10.0-2.1","zblz46rx0s","many_one","0","direct_first","1","la06us30","0","19","1","0","3","1","","0","1","0","null","","","<img src = 'targets/35.png' width = '100%;'>","null","","","","","","","","","",""
"","html-keyboard-response","146","869376","0.0-10.0-3.1","zblz46rx0s","many_one","0","direct_first","1","la06us30","0","19","1","0","3","1","","0","1","0","3876","","","<img src = 'targets/mask.png' width = '100%;'>","75","pos","CS","CS","3","category3/CS8.png","","targets/35.png","indirect","1","1"
"","html-keyboard-response","147","870880","0.0-10.0-0.2","zblz46rx0s","many_one","0","direct_first","1","la06us30","0","19","1","0","3","1","","0","1","0","null","","","<div style=""font-size:60px;"">+</div>","null","","","","","","","","","",""
"","html-keyboard-response","148","870977","0.0-10.0-1.2","zblz46rx0s","many_one","0","direct_first","1","la06us30","0","19","1","0","3","1","","0","1","0","null","","","<img src = 'category3/CS10.png' width = '100%;'>","null","","","","","","","","","",""
"","html-keyboard-response","149","871233","0.0-10.0-2.2","zblz46rx0s","many_one","0","direct_first","1","la06us30","0","19","1","0","3","1","","0","1","0","null","","","<img src = 'targets/45.png' width = '100%;'>","null","","","","","","","","","",""
"","html-keyboard-response","150","875432","0.0-10.0-3.2","zblz46rx0s","many_one","0","direct_first","1","la06us30","0","19","1","0","3","1","","0","1","0","4197","","","<img src = 'targets/mask.png' width = '100%;'>","68","pos","CS","CS","3","category3/CS10.png","","targets/45.png","indirect","0","2"
"","html-keyboard-response","151","876940","0.0-10.0-0.3","zblz46rx0s","many_one","0","direct_first","1","la06us30","0","19","1","0","3","1","","0","1","0","null","","","<div style=""font-size:60px;"">+</div>","null","","","","","","","","","",""
"","html-keyboard-response","152","877032","0.0-10.0-1.3","zblz46rx0s","many_one","0","direct_first","1","la06us30","0","19","1","0","3","1","","0","1","0","null","","","<img src = 'category1/CS8.png' width = '100%;'>","null","","","","","","","","","",""
"","html-keyboard-response","153","877288","0.0-10.0-2.3","zblz46rx0s","many_one","0","direct_first","1","la06us30","0","19","1","0","3","1","","0","1","0","null","","","<img src = 'targets/23.png' width = '100%;'>","null","","","","","","","","","",""
"","html-keyboard-response","154","879110","0.0-10.0-3.3","zblz46rx0s","many_one","0","direct_first","1","la06us30","0","19","1","0","3","1","","0","1","0","1821","","","<img src = 'targets/mask.png' width = '100%;'>","68","neg","CS","CS","1","category1/CS8.png","","targets/23.png","indirect","0","3"
"","html-keyboard-response","155","880618","0.0-10.0-0.4","zblz46rx0s","many_one","0","direct_first","1","la06us30","0","19","1","0","3","1","","0","1","0","null","","","<div style=""font-size:60px;"">+</div>","null","","","","","","","","","",""
"","html-keyboard-response","156","880711","0.0-10.0-1.4","zblz46rx0s","many_one","0","direct_first","1","la06us30","0","19","1","0","3","1","","0","1","0","null","","","<img src = 'category4/CS7.png' width = '100%;'>","null","","","","","","","","","",""
"","html-keyboard-response","157","880968","0.0-10.0-2.4","zblz46rx0s","many_one","0","direct_first","1","la06us30","0","19","1","0","3","1","","0","1","0","null","","","<img src = 'targets/10.png' width = '100%;'>","null","","","","","","","","","",""
"","html-keyboard-response","158","883306","0.0-10.0-3.4","zblz46rx0s","many_one","0","direct_first","1","la06us30","0","19","1","0","3","1","","0","1","0","2336","","","<img src = 'targets/mask.png' width = '100%;'>","68","neg","CS","CS","4","category4/CS7.png","","targets/10.png","indirect","0","4"
"","html-keyboard-response","159","884808","0.0-10.0-0.5","zblz46rx0s","many_one","0","direct_first","1","la06us30","0","19","1","0","3","1","","0","1","0","null","","","<div style=""font-size:60px;"">+</div>","null","","","","","","","","","",""
"","html-keyboard-response","160","884907","0.0-10.0-1.5","zblz46rx0s","many_one","0","direct_first","1","la06us30","0","19","1","0","3","1","","0","1","0","null","","","<img src = 'category3/CS1.png' width = '100%;'>","null","","","","","","","","","",""
"","html-keyboard-response","161","885168","0.0-10.0-2.5","zblz46rx0s","many_one","0","direct_first","1","la06us30","0","19","1","0","3","1","","0","1","0","null","","","<img src = 'targets/5.png' width = '100%;'>","null","","","","","","","","","",""
"","html-keyboard-response","162","888414","0.0-10.0-3.5","zblz46rx0s","many_one","0","direct_first","1","la06us30","0","19","1","0","3","1","","0","1","0","3245","","","<img src = 'targets/mask.png' width = '100%;'>","75","pos","CS","CS","3","category3/CS1.png","","targets/5.png","indirect","1","5"
"","html-keyboard-response","163","889922","0.0-10.0-0.6","zblz46rx0s","many_one","0","direct_first","1","la06us30","0","19","1","0","3","1","","0","1","0","null","","","<div style=""font-size:60px;"">+</div>","null","","","","","","","","","",""
"","html-keyboard-response","164","890018","0.0-10.0-1.6","zblz46rx0s","many_one","0","direct_first","1","la06us30","0","19","1","0","3","1","","0","1","0","null","","","<img src = 'category1/CS7.png' width = '100%;'>","null","","","","","","","","","",""
"","html-keyboard-response","165","890276","0.0-10.0-2.6","zblz46rx0s","many_one","0","direct_first","1","la06us30","0","19","1","0","3","1","","0","1","0","null","","","<img src = 'targets/30.png' width = '100%;'>","null","","","","","","","","","",""
"","html-keyboard-response","166","892527","0.0-10.0-3.6","zblz46rx0s","many_one","0","direct_first","1","la06us30","0","19","1","0","3","1","","0","1","0","2249","","","<img src = 'targets/mask.png' width = '100%;'>","75","neg","GS","GSold","1","category1/CS7.png","","targets/30.png","indirect","1","6"
"","html-keyboard-response","167","894031","0.0-10.0-0.7","zblz46rx0s","many_one","0","direct_first","1","la06us30","0","19","1","0","3","1","","0","1","0","null","","","<div style=""font-size:60px;"">+</div>","null","","","","","","","","","",""
"","html-keyboard-response","168","894128","0.0-10.0-1.7","zblz46rx0s","many_one","0","direct_first","1","la06us30","0","19","1","0","3","1","","0","1","0","null","","","<img src = 'category4/CS4.png' width = '100%;'>","null","","","","","","","","","",""
"","html-keyboard-response","169","894383","0.0-10.0-2.7","zblz46rx0s","many_one","0","direct_first","1","la06us30","0","19","1","0","3","1","","0","1","0","null","","","<img src = 'targets/34.png' width = '100%;'>","null","","","","","","","","","",""
"","html-keyboard-response","170","896125","0.0-10.0-3.7","zblz46rx0s","many_one","0","direct_first","1","la06us30","0","19","1","0","3","1","","0","1","0","1741","","","<img src = 'targets/mask.png' width = '100%;'>","68","neg","CS","CS","4","category4/CS4.png","","targets/34.png","indirect","0","7"
"","html-keyboard-response","171","897631","0.0-10.0-0.8","zblz46rx0s","many_one","0","direct_first","1","la06us30","0","19","1","0","3","1","","0","1","0","null","","","<div style=""font-size:60px;"">+</div>","null","","","","","","","","","",""
"","html-keyboard-response","172","897728","0.0-10.0-1.8","zblz46rx0s","many_one","0","direct_first","1","la06us30","0","19","1","0","3","1","","0","1","0","null","","","<img src = 'category1/CS10.png' width = '100%;'>","null","","","","","","","","","",""
"","html-keyboard-response","173","897987","0.0-10.0-2.8","zblz46rx0s","many_one","0","direct_first","1","la06us30","0","19","1","0","3","1","","0","1","0","null","","","<img src = 'targets/2.png' width = '100%;'>","null","","","","","","","","","",""
"","html-keyboard-response","174","900552","0.0-10.0-3.8","zblz46rx0s","many_one","0","direct_first","1","la06us30","0","19","1","0","3","1","","0","1","0","2563","","","<img src = 'targets/mask.png' width = '100%;'>","68","neg","CS","CS","1","category1/CS10.png","","targets/2.png","indirect","0","8"
"","html-keyboard-response","175","902060","0.0-10.0-0.9","zblz46rx0s","many_one","0","direct_first","1","la06us30","0","19","1","0","3","1","","0","1","0","null","","","<div style=""font-size:60px;"">+</div>","null","","","","","","","","","",""
"","html-keyboard-response","176","902152","0.0-10.0-1.9","zblz46rx0s","many_one","0","direct_first","1","la06us30","0","19","1","0","3","1","","0","1","0","null","","","<img src = 'category2/CS5.png' width = '100%;'>","null","","","","","","","","","",""
"","html-keyboard-response","177","902408","0.0-10.0-2.9","zblz46rx0s","many_one","0","direct_first","1","la06us30","0","19","1","0","3","1","","0","1","0","null","","","<img src = 'targets/16.png' width = '100%;'>","null","","","","","","","","","",""
"","html-keyboard-response","178","904151","0.0-10.0-3.9","zblz46rx0s","many_one","0","direct_first","1","la06us30","0","19","1","0","3","1","","0","1","0","1739","","","<img src = 'targets/mask.png' width = '100%;'>","75","pos","CS","CS","2","category2/CS5.png","","targets/16.png","indirect","1","9"
"","html-keyboard-response","179","905657","0.0-10.0-0.10","zblz46rx0s","many_one","0","direct_first","1","la06us30","0","19","1","0","3","1","","0","1","0","null","","","<div style=""font-size:60px;"">+</div>","null","","","","","","","","","",""
"","html-keyboard-response","180","905751","0.0-10.0-1.10","zblz46rx0s","many_one","0","direct_first","1","la06us30","0","19","1","0","3","1","","0","1","0","null","","","<img src = 'category2/CS7.png' width = '100%;'>","null","","","","","","","","","",""
"","html-keyboard-response","181","906007","0.0-10.0-2.10","zblz46rx0s","many_one","0","direct_first","1","la06us30","0","19","1","0","3","1","","0","1","0","null","","","<img src = 'targets/11.png' width = '100%;'>","null","","","","","","","","","",""
"","html-keyboard-response","182","907709","0.0-10.0-3.10","zblz46rx0s","many_one","0","direct_first","1","la06us30","0","19","1","0","3","1","","0","1","0","1701","","","<img src = 'targets/mask.png' width = '100%;'>","75","pos","CS","CS","2","category2/CS7.png","","targets/11.png","indirect","1","10"
"","html-keyboard-response","183","909214","0.0-10.0-0.11","zblz46rx0s","many_one","0","direct_first","1","la06us30","0","19","1","0","3","1","","0","1","0","null","","","<div style=""font-size:60px;"">+</div>","null","","","","","","","","","",""
"","html-keyboard-response","184","909306","0.0-10.0-1.11","zblz46rx0s","many_one","0","direct_first","1","la06us30","0","19","1","0","3","1","","0","1","0","null","","","<img src = 'category4/CS5.png' width = '100%;'>","null","","","","","","","","","",""
"","html-keyboard-response","185","909560","0.0-10.0-2.11","zblz46rx0s","many_one","0","direct_first","1","la06us30","0","19","1","0","3","1","","0","1","0","null","","","<img src = 'targets/8.png' width = '100%;'>","null","","","","","","","","","",""
"","html-keyboard-response","186","913616","0.0-10.0-3.11","zblz46rx0s","many_one","0","direct_first","1","la06us30","0","19","1","0","3","1","","0","1","0","4054","","","<img src = 'targets/mask.png' width = '100%;'>","75","neg","CS","CS","4","category4/CS5.png","","targets/8.png","indirect","1","11"
"","html-keyboard-response","187","915118","0.0-10.0-0.12","zblz46rx0s","many_one","0","direct_first","1","la06us30","0","19","1","0","3","1","","0","1","0","null","","","<div style=""font-size:60px;"">+</div>","null","","","","","","","","","",""
"","html-keyboard-response","188","915212","0.0-10.0-1.12","zblz46rx0s","many_one","0","direct_first","1","la06us30","0","19","1","0","3","1","","0","1","0","null","","","<img src = 'category4/CS2.png' width = '100%;'>","null","","","","","","","","","",""
"","html-keyboard-response","189","915469","0.0-10.0-2.12","zblz46rx0s","many_one","0","direct_first","1","la06us30","0","19","1","0","3","1","","0","1","0","null","","","<img src = 'targets/33.png' width = '100%;'>","null","","","","","","","","","",""
"","html-keyboard-response","190","917464","0.0-10.0-3.12","zblz46rx0s","many_one","0","direct_first","1","la06us30","0","19","1","0","3","1","","0","1","0","1993","","","<img src = 'targets/mask.png' width = '100%;'>","68","neg","CS","CS","4","category4/CS2.png","","targets/33.png","indirect","0","12"
"","html-keyboard-response","191","918968","0.0-10.0-0.13","zblz46rx0s","many_one","0","direct_first","1","la06us30","0","19","1","0","3","1","","0","1","0","null","","","<div style=""font-size:60px;"">+</div>","null","","","","","","","","","",""
"","html-keyboard-response","192","919062","0.0-10.0-1.13","zblz46rx0s","many_one","0","direct_first","1","la06us30","0","19","1","0","3","1","","0","1","0","null","","","<img src = 'category3/CS6.png' width = '100%;'>","null","","","","","","","","","",""
"","html-keyboard-response","193","919317","0.0-10.0-2.13","zblz46rx0s","many_one","0","direct_first","1","la06us30","0","19","1","0","3","1","","0","1","0","null","","","<img src = 'targets/42.png' width = '100%;'>","null","","","","","","","","","",""
"","html-keyboard-response","194","922960","0.0-10.0-3.13","zblz46rx0s","many_one","0","direct_first","1","la06us30","0","19","1","0","3","1","","0","1","0","3642","","","<img src = 'targets/mask.png' width = '100%;'>","75","pos","CS","CS","3","category3/CS6.png","","targets/42.png","indirect","1","13"
"","html-keyboard-response","195","924468","0.0-10.0-0.14","zblz46rx0s","many_one","0","direct_first","1","la06us30","0","19","1","0","3","1","","0","1","0","null","","","<div style=""font-size:60px;"">+</div>","null","","","","","","","","","",""
"","html-keyboard-response","196","924560","0.0-10.0-1.14","zblz46rx0s","many_one","0","direct_first","1","la06us30","0","19","1","0","3","1","","0","1","0","null","","","<img src = 'category2/CS2.png' width = '100%;'>","null","","","","","","","","","",""
"","html-keyboard-response","197","924815","0.0-10.0-2.14","zblz46rx0s","many_one","0","direct_first","1","la06us30","0","19","1","0","3","1","","0","1","0","null","","","<img src = 'targets/1.png' width = '100%;'>","null","","","","","","","","","",""
"","html-keyboard-response","198","926636","0.0-10.0-3.14","zblz46rx0s","many_one","0","direct_first","1","la06us30","0","19","1","0","3","1","","0","1","0","1820","","","<img src = 'targets/mask.png' width = '100%;'>","75","pos","GS","GSold","2","category2/CS2.png","","targets/1.png","indirect","1","14"
"","html-keyboard-response","199","928143","0.0-10.0-0.15","zblz46rx0s","many_one","0","direct_first","1","la06us30","0","19","1","0","3","1","","0","1","0","null","","","<div style=""font-size:60px;"">+</div>","null","","","","","","","","","",""
"","html-keyboard-response","200","928239","0.0-10.0-1.15","zblz46rx0s","many_one","0","direct_first","1","la06us30","0","19","1","0","3","1","","0","1","0","null","","","<img src = 'category4/CS6.png' width = '100%;'>","null","","","","","","","","","",""
"","html-keyboard-response","201","928498","0.0-10.0-2.15","zblz46rx0s","many_one","0","direct_first","1","la06us30","0","19","1","0","3","1","","0","1","0","null","","","<img src = 'targets/12.png' width = '100%;'>","null","","","","","","","","","",""
"","html-keyboard-response","202","930946","0.0-10.0-3.15","zblz46rx0s","many_one","0","direct_first","1","la06us30","0","19","1","0","3","1","","0","1","0","2447","","","<img src = 'targets/mask.png' width = '100%;'>","68","neg","CS","CS","4","category4/CS6.png","","targets/12.png","indirect","0","15"
"","html-keyboard-response","203","932451","0.0-10.0-0.16","zblz46rx0s","many_one","0","direct_first","1","la06us30","0","19","1","0","3","1","","0","1","0","null","","","<div style=""font-size:60px;"">+</div>","null","","","","","","","","","",""
"","html-keyboard-response","204","932548","0.0-10.0-1.16","zblz46rx0s","many_one","0","direct_first","1","la06us30","0","19","1","0","3","1","","0","1","0","null","","","<img src = 'category3/CS4.png' width = '100%;'>","null","","","","","","","","","",""
"","html-keyboard-response","205","932801","0.0-10.0-2.16","zblz46rx0s","many_one","0","direct_first","1","la06us30","0","19","1","0","3","1","","0","1","0","null","","","<img src = 'targets/44.png' width = '100%;'>","null","","","","","","","","","",""
"","html-keyboard-response","206","934734","0.0-10.0-3.16","zblz46rx0s","many_one","0","direct_first","1","la06us30","0","19","1","0","3","1","","0","1","0","1933","","","<img src = 'targets/mask.png' width = '100%;'>","75","pos","CS","CS","3","category3/CS4.png","","targets/44.png","indirect","1","16"
"","html-keyboard-response","207","936237","0.0-10.0-0.17","zblz46rx0s","many_one","0","direct_first","1","la06us30","0","19","1","0","3","1","","0","1","0","null","","","<div style=""font-size:60px;"">+</div>","null","","","","","","","","","",""
"","html-keyboard-response","208","936331","0.0-10.0-1.17","zblz46rx0s","many_one","0","direct_first","1","la06us30","0","19","1","0","3","1","","0","1","0","null","","","<img src = 'category1/CS9.png' width = '100%;'>","null","","","","","","","","","",""
"","html-keyboard-response","209","936588","0.0-10.0-2.17","zblz46rx0s","many_one","0","direct_first","1","la06us30","0","19","1","0","3","1","","0","1","0","null","","","<img src = 'targets/26.png' width = '100%;'>","null","","","","","","","","","",""
"","html-keyboard-response","210","938373","0.0-10.0-3.17","zblz46rx0s","many_one","0","direct_first","1","la06us30","0","19","1","0","3","1","","0","1","0","1784","","","<img src = 'targets/mask.png' width = '100%;'>","68","neg","CS","CS","1","category1/CS9.png","","targets/26.png","indirect","0","17"
"","html-keyboard-response","211","939880","0.0-10.0-0.18","zblz46rx0s","many_one","0","direct_first","1","la06us30","0","19","1","0","3","1","","0","1","0","null","","","<div style=""font-size:60px;"">+</div>","null","","","","","","","","","",""
"","html-keyboard-response","212","939974","0.0-10.0-1.18","zblz46rx0s","many_one","0","direct_first","1","la06us30","0","19","1","0","3","1","","0","1","0","null","","","<img src = 'category2/CS10.png' width = '100%;'>","null","","","","","","","","","",""
"","html-keyboard-response","213","940231","0.0-10.0-2.18","zblz46rx0s","many_one","0","direct_first","1","la06us30","0","19","1","0","3","1","","0","1","0","null","","","<img src = 'targets/43.png' width = '100%;'>","null","","","","","","","","","",""
"","html-keyboard-response","214","942528","0.0-10.0-3.18","zblz46rx0s","many_one","0","direct_first","1","la06us30","0","19","1","0","3","1","","0","1","0","2296","","","<img src = 'targets/mask.png' width = '100%;'>","68","pos","CS","CS","2","category2/CS10.png","","targets/43.png","indirect","0","18"
"","html-keyboard-response","215","944029","0.0-10.0-0.19","zblz46rx0s","many_one","0","direct_first","1","la06us30","0","19","1","0","3","1","","0","1","0","null","","","<div style=""font-size:60px;"">+</div>","null","","","","","","","","","",""
"","html-keyboard-response","216","944121","0.0-10.0-1.19","zblz46rx0s","many_one","0","direct_first","1","la06us30","0","19","1","0","3","1","","0","1","0","null","","","<img src = 'category1/CS3.png' width = '100%;'>","null","","","","","","","","","",""
"","html-keyboard-response","217","944377","0.0-10.0-2.19","zblz46rx0s","many_one","0","direct_first","1","la06us30","0","19","1","0","3","1","","0","1","0","null","","","<img src = 'targets/40.png' width = '100%;'>","null","","","","","","","","","",""
"","html-keyboard-response","218","946155","0.0-10.0-3.19","zblz46rx0s","many_one","0","direct_first","1","la06us30","0","19","1","0","3","1","","0","1","0","1778","","","<img src = 'targets/mask.png' width = '100%;'>","68","neg","GS","GSold","1","category1/CS3.png","","targets/40.png","indirect","0","19"
"","html-keyboard-response","219","947658","0.0-10.0-0.20","zblz46rx0s","many_one","0","direct_first","1","la06us30","0","19","1","0","3","1","","0","1","0","null","","","<div style=""font-size:60px;"">+</div>","null","","","","","","","","","",""
"","html-keyboard-response","220","947752","0.0-10.0-1.20","zblz46rx0s","many_one","0","direct_first","1","la06us30","0","19","1","0","3","1","","0","1","0","null","","","<img src = 'category2/CS4.png' width = '100%;'>","null","","","","","","","","","",""
"","html-keyboard-response","221","948007","0.0-10.0-2.20","zblz46rx0s","many_one","0","direct_first","1","la06us30","0","19","1","0","3","1","","0","1","0","null","","","<img src = 'targets/13.png' width = '100%;'>","null","","","","","","","","","",""
"","html-keyboard-response","222","949497","0.0-10.0-3.20","zblz46rx0s","many_one","0","direct_first","1","la06us30","0","19","1","0","3","1","","0","1","0","1489","","","<img src = 'targets/mask.png' width = '100%;'>","75","pos","CS","CS","2","category2/CS4.png","","targets/13.png","indirect","1","20"
"","html-keyboard-response","223","951008","0.0-10.0-0.21","zblz46rx0s","many_one","0","direct_first","1","la06us30","0","19","1","0","3","1","","0","1","0","null","","","<div style=""font-size:60px;"">+</div>","null","","","","","","","","","",""
"","html-keyboard-response","224","951104","0.0-10.0-1.21","zblz46rx0s","many_one","0","direct_first","1","la06us30","0","19","1","0","3","1","","0","1","0","null","","","<img src = 'category2/CS9.png' width = '100%;'>","null","","","","","","","","","",""
"","html-keyboard-response","225","951358","0.0-10.0-2.21","zblz46rx0s","many_one","0","direct_first","1","la06us30","0","19","1","0","3","1","","0","1","0","null","","","<img src = 'targets/47.png' width = '100%;'>","null","","","","","","","","","",""
"","html-keyboard-response","226","955245","0.0-10.0-3.21","zblz46rx0s","many_one","0","direct_first","1","la06us30","0","19","1","0","3","1","","0","1","0","3886","","","<img src = 'targets/mask.png' width = '100%;'>","75","pos","CS","CS","2","category2/CS9.png","","targets/47.png","indirect","1","21"
"","html-keyboard-response","227","956751","0.0-10.0-0.22","zblz46rx0s","many_one","0","direct_first","1","la06us30","0","19","1","0","3","1","","0","1","0","null","","","<div style=""font-size:60px;"">+</div>","null","","","","","","","","","",""
"","html-keyboard-response","228","956845","0.0-10.0-1.22","zblz46rx0s","many_one","0","direct_first","1","la06us30","0","19","1","0","3","1","","0","1","0","null","","","<img src = 'category1/CS4.png' width = '100%;'>","null","","","","","","","","","",""
"","html-keyboard-response","229","957097","0.0-10.0-2.22","zblz46rx0s","many_one","0","direct_first","1","la06us30","0","19","1","0","3","1","","0","1","0","null","","","<img src = 'targets/29.png' width = '100%;'>","null","","","","","","","","","",""
"","html-keyboard-response","230","959352","0.0-10.0-3.22","zblz46rx0s","many_one","0","direct_first","1","la06us30","0","19","1","0","3","1","","0","1","0","2254","","","<img src = 'targets/mask.png' width = '100%;'>","68","neg","CS","CS","1","category1/CS4.png","","targets/29.png","indirect","0","22"
"","html-keyboard-response","231","960861","0.0-10.0-0.23","zblz46rx0s","many_one","0","direct_first","1","la06us30","0","19","1","0","3","1","","0","1","0","null","","","<div style=""font-size:60px;"">+</div>","null","","","","","","","","","",""
"","html-keyboard-response","232","960953","0.0-10.0-1.23","zblz46rx0s","many_one","0","direct_first","1","la06us30","0","19","1","0","3","1","","0","1","0","null","","","<img src = 'category1/CS6.png' width = '100%;'>","null","","","","","","","","","",""
"","html-keyboard-response","233","961208","0.0-10.0-2.23","zblz46rx0s","many_one","0","direct_first","1","la06us30","0","19","1","0","3","1","","0","1","0","null","","","<img src = 'targets/9.png' width = '100%;'>","null","","","","","","","","","",""
"","html-keyboard-response","234","963216","0.0-10.0-3.23","zblz46rx0s","many_one","0","direct_first","1","la06us30","0","19","1","0","3","1","","0","1","0","2007","","","<img src = 'targets/mask.png' width = '100%;'>","68","neg","GS","GSold","1","category1/CS6.png","","targets/9.png","indirect","0","23"
"","survey-html-form","235","984308","0.0-11.0","zblz46rx0s","many_one","0","direct_first","1","la06us30","0","19","1","0","3","1","","0","1","0","20590","","{}","","","","","","","","","","","",""
"","html-keyboard-response","236","987318","0.0-12.0-0.0","zblz46rx0s","many_one","0","direct_first","1","la06us30","0","19","1","0","3","1","","0","1","0","null","","","<div style=""font-size:60px;"">+</div>","null","","","","","","","","","",""
"","html-keyboard-response","237","987412","0.0-12.0-1.0","zblz46rx0s","many_one","0","direct_first","1","la06us30","0","19","1","0","3","1","","0","1","0","null","","","<img src = 'category2/GS3.png' width = '100%;'>","null","","","","","","","","","",""
"","html-keyboard-response","238","987667","0.0-12.0-2.0","zblz46rx0s","many_one","0","direct_first","1","la06us30","0","19","1","0","3","1","","0","1","0","null","","","<img src = 'targets/41.png' width = '100%;'>","null","","","","","","","","","",""
"","html-keyboard-response","239","989696","0.0-12.0-3.0","zblz46rx0s","many_one","0","direct_first","1","la06us30","0","19","1","0","3","1","","0","1","0","2027","","","<img src = 'targets/mask.png' width = '100%;'>","75","pos","GS","GSnew","2","category2/GS3.png","","targets/41.png","indirect","1","24"
"","html-keyboard-response","240","991201","0.0-12.0-0.1","zblz46rx0s","many_one","0","direct_first","1","la06us30","0","19","1","0","3","1","","0","1","0","null","","","<div style=""font-size:60px;"">+</div>","null","","","","","","","","","",""
"","html-keyboard-response","241","991296","0.0-12.0-1.1","zblz46rx0s","many_one","0","direct_first","1","la06us30","0","19","1","0","3","1","","0","1","0","null","","","<img src = 'category3/GS2.png' width = '100%;'>","null","","","","","","","","","",""
"","html-keyboard-response","242","991558","0.0-12.0-2.1","zblz46rx0s","many_one","0","direct_first","1","la06us30","0","19","1","0","3","1","","0","1","0","null","","","<img src = 'targets/6.png' width = '100%;'>","null","","","","","","","","","",""
"","html-keyboard-response","243","993764","0.0-12.0-3.1","zblz46rx0s","many_one","0","direct_first","1","la06us30","0","19","1","0","3","1","","0","1","0","2206","","","<img src = 'targets/mask.png' width = '100%;'>","68","pos","GS","GSnew","3","category3/GS2.png","","targets/6.png","indirect","0","25"
"","html-keyboard-response","244","995271","0.0-12.0-0.2","zblz46rx0s","many_one","0","direct_first","1","la06us30","0","19","1","0","3","1","","0","1","0","null","","","<div style=""font-size:60px;"">+</div>","null","","","","","","","","","",""
"","html-keyboard-response","245","995368","0.0-12.0-1.2","zblz46rx0s","many_one","0","direct_first","1","la06us30","0","19","1","0","3","1","","0","1","0","null","","","<img src = 'category4/GS3.png' width = '100%;'>","null","","","","","","","","","",""
"","html-keyboard-response","246","995622","0.0-12.0-2.2","zblz46rx0s","many_one","0","direct_first","1","la06us30","0","19","1","0","3","1","","0","1","0","null","","","<img src = 'targets/15.png' width = '100%;'>","null","","","","","","","","","",""
"","html-keyboard-response","247","998684","0.0-12.0-3.2","zblz46rx0s","many_one","0","direct_first","1","la06us30","0","19","1","0","3","1","","0","1","0","3060","","","<img src = 'targets/mask.png' width = '100%;'>","75","neg","GS","GSnew","4","category4/GS3.png","","targets/15.png","indirect","1","26"
"","html-keyboard-response","248","1000191","0.0-12.0-0.3","zblz46rx0s","many_one","0","direct_first","1","la06us30","0","19","1","0","3","1","","0","1","0","null","","","<div style=""font-size:60px;"">+</div>","null","","","","","","","","","",""
"","html-keyboard-response","249","1000287","0.0-12.0-1.3","zblz46rx0s","many_one","0","direct_first","1","la06us30","0","19","1","0","3","1","","0","1","0","null","","","<img src = 'category1/ma.png' width = '100%;'>","null","","","","","","","","","",""
"","html-keyboard-response","250","1000549","0.0-12.0-2.3","zblz46rx0s","many_one","0","direct_first","1","la06us30","0","19","1","0","3","1","","0","1","0","null","","","<img src = 'targets/14.png' width = '100%;'>","null","","","","","","","","","",""
"","html-keyboard-response","251","1004175","0.0-12.0-3.3","zblz46rx0s","many_one","0","direct_first","1","la06us30","0","19","1","0","3","1","","0","1","0","3624","","","<img src = 'targets/mask.png' width = '100%;'>","75","neg","GS","abstract","1","category1/ma.png","","targets/14.png","indirect","1","27"
"","html-keyboard-response","252","1005678","0.0-12.0-0.4","zblz46rx0s","many_one","0","direct_first","1","la06us30","0","19","1","0","3","1","","0","1","0","null","","","<div style=""font-size:60px;"">+</div>","null","","","","","","","","","",""
"","html-keyboard-response","253","1005770","0.0-12.0-1.4","zblz46rx0s","many_one","0","direct_first","1","la06us30","0","19","1","0","3","1","","0","1","0","null","","","<img src = 'category2/CS1.png' width = '100%;'>","null","","","","","","","","","",""
"","html-keyboard-response","254","1006029","0.0-12.0-2.4","zblz46rx0s","many_one","0","direct_first","1","la06us30","0","19","1","0","3","1","","0","1","0","null","","","<img src = 'targets/20.png' width = '100%;'>","null","","","","","","","","","",""
"","html-keyboard-response","255","1007576","0.0-12.0-3.4","zblz46rx0s","many_one","0","direct_first","1","la06us30","0","19","1","0","3","1","","0","1","0","1545","","","<img src = 'targets/mask.png' width = '100%;'>","75","pos","GS","GSold","2","category2/CS1.png","","targets/20.png","indirect","1","28"
"","html-keyboard-response","256","1009077","0.0-12.0-0.5","zblz46rx0s","many_one","0","direct_first","1","la06us30","0","19","1","0","3","1","","0","1","0","null","","","<div style=""font-size:60px;"">+</div>","null","","","","","","","","","",""
"","html-keyboard-response","257","1009172","0.0-12.0-1.5","zblz46rx0s","many_one","0","direct_first","1","la06us30","0","19","1","0","3","1","","0","1","0","null","","","<img src = 'category2/CS6.png' width = '100%;'>","null","","","","","","","","","",""
"","html-keyboard-response","258","1009427","0.0-12.0-2.5","zblz46rx0s","many_one","0","direct_first","1","la06us30","0","19","1","0","3","1","","0","1","0","null","","","<img src = 'targets/3.png' width = '100%;'>","null","","","","","","","","","",""
"","html-keyboard-response","259","1011377","0.0-12.0-3.5","zblz46rx0s","many_one","0","direct_first","1","la06us30","0","19","1","0","3","1","","0","1","0","1948","","","<img src = 'targets/mask.png' width = '100%;'>","68","pos","GS","GSold","2","category2/CS6.png","","targets/3.png","indirect","0","29"
"","html-keyboard-response","260","1012881","0.0-12.0-0.6","zblz46rx0s","many_one","0","direct_first","1","la06us30","0","19","1","0","3","1","","0","1","0","null","","","<div style=""font-size:60px;"">+</div>","null","","","","","","","","","",""
"","html-keyboard-response","261","1012977","0.0-12.0-1.6","zblz46rx0s","many_one","0","direct_first","1","la06us30","0","19","1","0","3","1","","0","1","0","null","","","<img src = 'category4/CS8.png' width = '100%;'>","null","","","","","","","","","",""
"","html-keyboard-response","262","1013237","0.0-12.0-2.6","zblz46rx0s","many_one","0","direct_first","1","la06us30","0","19","1","0","3","1","","0","1","0","null","","","<img src = 'targets/22.png' width = '100%;'>","null","","","","","","","","","",""
"","html-keyboard-response","263","1015212","0.0-12.0-3.6","zblz46rx0s","many_one","0","direct_first","1","la06us30","0","19","1","0","3","1","","0","1","0","1973","","","<img src = 'targets/mask.png' width = '100%;'>","68","neg","GS","GSold","4","category4/CS8.png","","targets/22.png","indirect","0","30"
"","html-keyboard-response","264","1016715","0.0-12.0-0.7","zblz46rx0s","many_one","0","direct_first","1","la06us30","0","19","1","0","3","1","","0","1","0","null","","","<div style=""font-size:60px;"">+</div>","null","","","","","","","","","",""
"","html-keyboard-response","265","1016807","0.0-12.0-1.7","zblz46rx0s","many_one","0","direct_first","1","la06us30","0","19","1","0","3","1","","0","1","0","null","","","<img src = 'category2/men.png' width = '100%;'>","null","","","","","","","","","",""
"","html-keyboard-response","266","1017062","0.0-12.0-2.7","zblz46rx0s","many_one","0","direct_first","1","la06us30","0","19","1","0","3","1","","0","1","0","null","","","<img src = 'targets/39.png' width = '100%;'>","null","","","","","","","","","",""
"","html-keyboard-response","267","1020827","0.0-12.0-3.7","zblz46rx0s","many_one","0","direct_first","1","la06us30","0","19","1","0","3","1","","0","1","0","3763","","","<img src = 'targets/mask.png' width = '100%;'>","75","pos","GS","abstract","2","category2/men.png","","targets/39.png","indirect","1","31"
"","html-keyboard-response","268","1022331","0.0-12.0-0.8","zblz46rx0s","many_one","0","direct_first","1","la06us30","0","19","1","0","3","1","","0","1","0","null","","","<div style=""font-size:60px;"">+</div>","null","","","","","","","","","",""
"","html-keyboard-response","269","1022427","0.0-12.0-1.8","zblz46rx0s","many_one","0","direct_first","1","la06us30","0","19","1","0","3","1","","0","1","0","null","","","<img src = 'category3/GS1.png' width = '100%;'>","null","","","","","","","","","",""
"","html-keyboard-response","270","1022685","0.0-12.0-2.8","zblz46rx0s","many_one","0","direct_first","1","la06us30","0","19","1","0","3","1","","0","1","0","null","","","<img src = 'targets/37.png' width = '100%;'>","null","","","","","","","","","",""
"","html-keyboard-response","271","1024597","0.0-12.0-3.8","zblz46rx0s","many_one","0","direct_first","1","la06us30","0","19","1","0","3","1","","0","1","0","1911","","","<img src = 'targets/mask.png' width = '100%;'>","75","pos","GS","GSnew","3","category3/GS1.png","","targets/37.png","indirect","1","32"
"","html-keyboard-response","272","1026107","0.0-12.0-0.9","zblz46rx0s","many_one","0","direct_first","1","la06us30","0","19","1","0","3","1","","0","1","0","null","","","<div style=""font-size:60px;"">+</div>","null","","","","","","","","","",""
"","html-keyboard-response","273","1026204","0.0-12.0-1.9","zblz46rx0s","many_one","0","direct_first","1","la06us30","0","19","1","0","3","1","","0","1","0","null","","","<img src = 'category3/CS7.png' width = '100%;'>","null","","","","","","","","","",""
"","html-keyboard-response","274","1026457","0.0-12.0-2.9","zblz46rx0s","many_one","0","direct_first","1","la06us30","0","19","1","0","3","1","","0","1","0","null","","","<img src = 'targets/7.png' width = '100%;'>","null","","","","","","","","","",""
"","html-keyboard-response","275","1029342","0.0-12.0-3.9","zblz46rx0s","many_one","0","direct_first","1","la06us30","0","19","1","0","3","1","","0","1","0","2882","","","<img src = 'targets/mask.png' width = '100%;'>","75","pos","GS","GSold","3","category3/CS7.png","","targets/7.png","indirect","1","33"
"","html-keyboard-response","276","1030851","0.0-12.0-0.10","zblz46rx0s","many_one","0","direct_first","1","la06us30","0","19","1","0","3","1","","0","1","0","null","","","<div style=""font-size:60px;"">+</div>","null","","","","","","","","","",""
"","html-keyboard-response","277","1030946","0.0-12.0-1.10","zblz46rx0s","many_one","0","direct_first","1","la06us30","0","19","1","0","3","1","","0","1","0","null","","","<img src = 'category1/GS1.png' width = '100%;'>","null","","","","","","","","","",""
"","html-keyboard-response","278","1031203","0.0-12.0-2.10","zblz46rx0s","many_one","0","direct_first","1","la06us30","0","19","1","0","3","1","","0","1","0","null","","","<img src = 'targets/46.png' width = '100%;'>","null","","","","","","","","","",""
"","html-keyboard-response","279","1032700","0.0-12.0-3.10","zblz46rx0s","many_one","0","direct_first","1","la06us30","0","19","1","0","3","1","","0","1","0","1497","","","<img src = 'targets/mask.png' width = '100%;'>","68","neg","GS","GSnew","1","category1/GS1.png","","targets/46.png","indirect","0","34"
"","html-keyboard-response","280","1034208","0.0-12.0-0.11","zblz46rx0s","many_one","0","direct_first","1","la06us30","0","19","1","0","3","1","","0","1","0","null","","","<div style=""font-size:60px;"">+</div>","null","","","","","","","","","",""
"","html-keyboard-response","281","1034303","0.0-12.0-1.11","zblz46rx0s","many_one","0","direct_first","1","la06us30","0","19","1","0","3","1","","0","1","0","null","","","<img src = 'category4/GS1.png' width = '100%;'>","null","","","","","","","","","",""
"","html-keyboard-response","282","1034561","0.0-12.0-2.11","zblz46rx0s","many_one","0","direct_first","1","la06us30","0","19","1","0","3","1","","0","1","0","null","","","<img src = 'targets/28.png' width = '100%;'>","null","","","","","","","","","",""
"","html-keyboard-response","283","1036356","0.0-12.0-3.11","zblz46rx0s","many_one","0","direct_first","1","la06us30","0","19","1","0","3","1","","0","1","0","1793","","","<img src = 'targets/mask.png' width = '100%;'>","68","neg","GS","GSnew","4","category4/GS1.png","","targets/28.png","indirect","0","35"
"","html-keyboard-response","284","1037861","0.0-12.0-0.12","zblz46rx0s","many_one","0","direct_first","1","la06us30","0","19","1","0","3","1","","0","1","0","null","","","<div style=""font-size:60px;"">+</div>","null","","","","","","","","","",""
"","html-keyboard-response","285","1037956","0.0-12.0-1.12","zblz46rx0s","many_one","0","direct_first","1","la06us30","0","19","1","0","3","1","","0","1","0","null","","","<img src = 'category2/GS2.png' width = '100%;'>","null","","","","","","","","","",""
"","html-keyboard-response","286","1038217","0.0-12.0-2.12","zblz46rx0s","many_one","0","direct_first","1","la06us30","0","19","1","0","3","1","","0","1","0","null","","","<img src = 'targets/48.png' width = '100%;'>","null","","","","","","","","","",""
"","html-keyboard-response","287","1039838","0.0-12.0-3.12","zblz46rx0s","many_one","0","direct_first","1","la06us30","0","19","1","0","3","1","","0","1","0","1619","","","<img src = 'targets/mask.png' width = '100%;'>","68","pos","GS","GSnew","2","category2/GS2.png","","targets/48.png","indirect","0","36"
"","html-keyboard-response","288","1041347","0.0-12.0-0.13","zblz46rx0s","many_one","0","direct_first","1","la06us30","0","19","1","0","3","1","","0","1","0","null","","","<div style=""font-size:60px;"">+</div>","null","","","","","","","","","",""
"","html-keyboard-response","289","1041441","0.0-12.0-1.13","zblz46rx0s","many_one","0","direct_first","1","la06us30","0","19","1","0","3","1","","0","1","0","null","","","<img src = 'category4/CS1.png' width = '100%;'>","null","","","","","","","","","",""
"","html-keyboard-response","290","1041698","0.0-12.0-2.13","zblz46rx0s","many_one","0","direct_first","1","la06us30","0","19","1","0","3","1","","0","1","0","null","","","<img src = 'targets/21.png' width = '100%;'>","null","","","","","","","","","",""
"","html-keyboard-response","291","1044582","0.0-12.0-3.13","zblz46rx0s","many_one","0","direct_first","1","la06us30","0","19","1","0","3","1","","0","1","0","2883","","","<img src = 'targets/mask.png' width = '100%;'>","68","neg","GS","GSold","4","category4/CS1.png","","targets/21.png","indirect","0","37"
"","html-keyboard-response","292","1046087","0.0-12.0-0.14","zblz46rx0s","many_one","0","direct_first","1","la06us30","0","19","1","0","3","1","","0","1","0","null","","","<div style=""font-size:60px;"">+</div>","null","","","","","","","","","",""
"","html-keyboard-response","293","1046179","0.0-12.0-1.14","zblz46rx0s","many_one","0","direct_first","1","la06us30","0","19","1","0","3","1","","0","1","0","null","","","<img src = 'category4/lin.png' width = '100%;'>","null","","","","","","","","","",""
"","html-keyboard-response","294","1046435","0.0-12.0-2.14","zblz46rx0s","many_one","0","direct_first","1","la06us30","0","19","1","0","3","1","","0","1","0","null","","","<img src = 'targets/4.png' width = '100%;'>","null","","","","","","","","","",""
"","html-keyboard-response","295","1048213","0.0-12.0-3.14","zblz46rx0s","many_one","0","direct_first","1","la06us30","0","19","1","0","3","1","","0","1","0","1777","","","<img src = 'targets/mask.png' width = '100%;'>","75","neg","GS","abstract","4","category4/lin.png","","targets/4.png","indirect","1","38"
"","html-keyboard-response","296","1049722","0.0-12.0-0.15","zblz46rx0s","many_one","0","direct_first","1","la06us30","0","19","1","0","3","1","","0","1","0","null","","","<div style=""font-size:60px;"">+</div>","null","","","","","","","","","",""
"","html-keyboard-response","297","1049818","0.0-12.0-1.15","zblz46rx0s","many_one","0","direct_first","1","la06us30","0","19","1","0","3","1","","0","1","0","null","","","<img src = 'category1/GS2.png' width = '100%;'>","null","","","","","","","","","",""
"","html-keyboard-response","298","1050073","0.0-12.0-2.15","zblz46rx0s","many_one","0","direct_first","1","la06us30","0","19","1","0","3","1","","0","1","0","null","","","<img src = 'targets/19.png' width = '100%;'>","null","","","","","","","","","",""
"","html-keyboard-response","299","1051981","0.0-12.0-3.15","zblz46rx0s","many_one","0","direct_first","1","la06us30","0","19","1","0","3","1","","0","1","0","1906","","","<img src = 'targets/mask.png' width = '100%;'>","75","neg","GS","GSnew","1","category1/GS2.png","","targets/19.png","indirect","1","39"
"","html-keyboard-response","300","1053487","0.0-12.0-0.16","zblz46rx0s","many_one","0","direct_first","1","la06us30","0","19","1","0","3","1","","0","1","0","null","","","<div style=""font-size:60px;"">+</div>","null","","","","","","","","","",""
"","html-keyboard-response","301","1053581","0.0-12.0-1.16","zblz46rx0s","many_one","0","direct_first","1","la06us30","0","19","1","0","3","1","","0","1","0","null","","","<img src = 'category3/CS5.png' width = '100%;'>","null","","","","","","","","","",""
"","html-keyboard-response","302","1053836","0.0-12.0-2.16","zblz46rx0s","many_one","0","direct_first","1","la06us30","0","19","1","0","3","1","","0","1","0","null","","","<img src = 'targets/24.png' width = '100%;'>","null","","","","","","","","","",""
"","html-keyboard-response","303","1056798","0.0-12.0-3.16","zblz46rx0s","many_one","0","direct_first","1","la06us30","0","19","1","0","3","1","","0","1","0","2962","","","<img src = 'targets/mask.png' width = '100%;'>","68","pos","GS","GSold","3","category3/CS5.png","","targets/24.png","indirect","0","40"
"","html-keyboard-response","304","1058307","0.0-12.0-0.17","zblz46rx0s","many_one","0","direct_first","1","la06us30","0","19","1","0","3","1","","0","1","0","null","","","<div style=""font-size:60px;"">+</div>","null","","","","","","","","","",""
"","html-keyboard-response","305","1058401","0.0-12.0-1.17","zblz46rx0s","many_one","0","direct_first","1","la06us30","0","19","1","0","3","1","","0","1","0","null","","","<img src = 'category4/GS2.png' width = '100%;'>","null","","","","","","","","","",""
"","html-keyboard-response","306","1058658","0.0-12.0-2.17","zblz46rx0s","many_one","0","direct_first","1","la06us30","0","19","1","0","3","1","","0","1","0","null","","","<img src = 'targets/31.png' width = '100%;'>","null","","","","","","","","","",""
"","html-keyboard-response","307","1060270","0.0-12.0-3.17","zblz46rx0s","many_one","0","direct_first","1","la06us30","0","19","1","0","3","1","","0","1","0","1611","","","<img src = 'targets/mask.png' width = '100%;'>","68","neg","GS","GSnew","4","category4/GS2.png","","targets/31.png","indirect","0","41"
"","html-keyboard-response","308","1061778","0.0-12.0-0.18","zblz46rx0s","many_one","0","direct_first","1","la06us30","0","19","1","0","3","1","","0","1","0","null","","","<div style=""font-size:60px;"">+</div>","null","","","","","","","","","",""
"","html-keyboard-response","309","1061869","0.0-12.0-1.18","zblz46rx0s","many_one","0","direct_first","1","la06us30","0","19","1","0","3","1","","0","1","0","null","","","<img src = 'category3/wang.png' width = '100%;'>","null","","","","","","","","","",""
"","html-keyboard-response","310","1062127","0.0-12.0-2.18","zblz46rx0s","many_one","0","direct_first","1","la06us30","0","19","1","0","3","1","","0","1","0","null","","","<img src = 'targets/36.png' width = '100%;'>","null","","","","","","","","","",""
"","html-keyboard-response","311","1064443","0.0-12.0-3.18","zblz46rx0s","many_one","0","direct_first","1","la06us30","0","19","1","0","3","1","","0","1","0","2314","","","<img src = 'targets/mask.png' width = '100%;'>","75","pos","GS","abstract","3","category3/wang.png","","targets/36.png","indirect","1","42"
"","html-keyboard-response","312","1065947","0.0-12.0-0.19","zblz46rx0s","many_one","0","direct_first","1","la06us30","0","19","1","0","3","1","","0","1","0","null","","","<div style=""font-size:60px;"">+</div>","null","","","","","","","","","",""
"","html-keyboard-response","313","1066041","0.0-12.0-1.19","zblz46rx0s","many_one","0","direct_first","1","la06us30","0","19","1","0","3","1","","0","1","0","null","","","<img src = 'category3/CS2.png' width = '100%;'>","null","","","","","","","","","",""
"","html-keyboard-response","314","1066297","0.0-12.0-2.19","zblz46rx0s","many_one","0","direct_first","1","la06us30","0","19","1","0","3","1","","0","1","0","null","","","<img src = 'targets/38.png' width = '100%;'>","null","","","","","","","","","",""
"","html-keyboard-response","315","1067781","0.0-12.0-3.19","zblz46rx0s","many_one","0","direct_first","1","la06us30","0","19","1","0","3","1","","0","1","0","1481","","","<img src = 'targets/mask.png' width = '100%;'>","68","pos","GS","GSold","3","category3/CS2.png","","targets/38.png","indirect","0","43"
"","html-keyboard-response","316","1069290","0.0-12.0-0.20","zblz46rx0s","many_one","0","direct_first","1","la06us30","0","19","1","0","3","1","","0","1","0","null","","","<div style=""font-size:60px;"">+</div>","null","","","","","","","","","",""
"","html-keyboard-response","317","1069382","0.0-12.0-1.20","zblz46rx0s","many_one","0","direct_first","1","la06us30","0","19","1","0","3","1","","0","1","0","null","","","<img src = 'category1/GS3.png' width = '100%;'>","null","","","","","","","","","",""
"","html-keyboard-response","318","1069637","0.0-12.0-2.20","zblz46rx0s","many_one","0","direct_first","1","la06us30","0","19","1","0","3","1","","0","1","0","null","","","<img src = 'targets/27.png' width = '100%;'>","null","","","","","","","","","",""
"","html-keyboard-response","319","1071249","0.0-12.0-3.20","zblz46rx0s","many_one","0","direct_first","1","la06us30","0","19","1","0","3","1","","0","1","0","1611","","","<img src = 'targets/mask.png' width = '100%;'>","75","neg","GS","GSnew","1","category1/GS3.png","","targets/27.png","indirect","1","44"
"","html-keyboard-response","320","1072752","0.0-12.0-0.21","zblz46rx0s","many_one","0","direct_first","1","la06us30","0","19","1","0","3","1","","0","1","0","null","","","<div style=""font-size:60px;"">+</div>","null","","","","","","","","","",""
"","html-keyboard-response","321","1072850","0.0-12.0-1.21","zblz46rx0s","many_one","0","direct_first","1","la06us30","0","19","1","0","3","1","","0","1","0","null","","","<img src = 'category2/GS1.png' width = '100%;'>","null","","","","","","","","","",""
"","html-keyboard-response","322","1073108","0.0-12.0-2.21","zblz46rx0s","many_one","0","direct_first","1","la06us30","0","19","1","0","3","1","","0","1","0","null","","","<img src = 'targets/32.png' width = '100%;'>","null","","","","","","","","","",""
"","html-keyboard-response","323","1074504","0.0-12.0-3.21","zblz46rx0s","many_one","0","direct_first","1","la06us30","0","19","1","0","3","1","","0","1","0","1395","","","<img src = 'targets/mask.png' width = '100%;'>","75","pos","GS","GSnew","2","category2/GS1.png","","targets/32.png","indirect","1","45"
"","html-keyboard-response","324","1076008","0.0-12.0-0.22","zblz46rx0s","many_one","0","direct_first","1","la06us30","0","19","1","0","3","1","","0","1","0","null","","","<div style=""font-size:60px;"">+</div>","null","","","","","","","","","",""
"","html-keyboard-response","325","1076099","0.0-12.0-1.22","zblz46rx0s","many_one","0","direct_first","1","la06us30","0","19","1","0","3","1","","0","1","0","null","","","<img src = 'category3/GS3.png' width = '100%;'>","null","","","","","","","","","",""
"","html-keyboard-response","326","1076357","0.0-12.0-2.22","zblz46rx0s","many_one","0","direct_first","1","la06us30","0","19","1","0","3","1","","0","1","0","null","","","<img src = 'targets/18.png' width = '100%;'>","null","","","","","","","","","",""
"","html-keyboard-response","327","1078165","0.0-12.0-3.22","zblz46rx0s","many_one","0","direct_first","1","la06us30","0","19","1","0","3","1","","0","1","0","1806","","","<img src = 'targets/mask.png' width = '100%;'>","75","pos","GS","GSnew","3","category3/GS3.png","","targets/18.png","indirect","1","46"
"","html-keyboard-response","328","1079671","0.0-12.0-0.23","zblz46rx0s","many_one","0","direct_first","1","la06us30","0","19","1","0","3","1","","0","1","0","null","","","<div style=""font-size:60px;"">+</div>","null","","","","","","","","","",""
"","html-keyboard-response","329","1079767","0.0-12.0-1.23","zblz46rx0s","many_one","0","direct_first","1","la06us30","0","19","1","0","3","1","","0","1","0","null","","","<img src = 'category4/CS3.png' width = '100%;'>","null","","","","","","","","","",""
"","html-keyboard-response","330","1080021","0.0-12.0-2.23","zblz46rx0s","many_one","0","direct_first","1","la06us30","0","19","1","0","3","1","","0","1","0","null","","","<img src = 'targets/25.png' width = '100%;'>","null","","","","","","","","","",""
"","html-keyboard-response","331","1081752","0.0-12.0-3.23","zblz46rx0s","many_one","0","direct_first","1","la06us30","0","19","1","0","3","1","","0","1","0","1729","","","<img src = 'targets/mask.png' width = '100%;'>","75","neg","GS","GSold","4","category4/CS3.png","","targets/25.png","indirect","1","47"
"","survey-html-form","332","1094842","0.0-13.0","zblz46rx0s","many_one","0","direct_first","1","la06us30","0","19","1","0","3","1","","0","1","0","12580","","{}","","","","","","","","","","","",""
