"success","trial_type","trial_index","time_elapsed","internal_node_id","subject","condition","condition_code","measure","measure_code","codeword","gender","age","education","chinese","fach","handedness","comment","hinschauen","ablenkung","gewissenhaft","rt","url","responses","stimulus","key_press","val","type","type_specific","category","cs_selected","target","indirect","task","nr_pres","response"
"true","fullscreen","0","34741","0.0-0.0","vrpt424exj","many_one","0","indirect_first","0","ER08ER04","0","21","1","1","3","1","","0","1","0","","","","","","","","","","","","","","",""
"","external-html","1","167914","0.0-1.0","vrpt424exj","many_one","0","indirect_first","0","ER08ER04","0","21","1","1","3","1","","0","1","0","133026.78499999456","text/information.html","","","","","","","","","","","","",""
"","external-html","2","191357","0.0-2.0","vrpt424exj","many_one","0","indirect_first","0","ER08ER04","0","21","1","1","3","1","","0","1","0","23229.289999930188","text/consent.html","","","","","","","","","","","","",""
"","survey-html-form","3","221857","0.0-3.0","vrpt424exj","many_one","0","indirect_first","0","ER08ER04","0","21","1","1","3","1","","0","1","0","30496.114999987185","","{""codeword_enter"":""ER08ER04""}","","","","","","","","","","","",""
"","survey-html-form","4","235508","0.0-4.0","vrpt424exj","many_one","0","indirect_first","0","ER08ER04","0","21","1","1","3","1","","0","1","0","13646.06499997899","","{""age"":""21"",""education"":""1"",""subject"":""3"",""gender"":""0"",""handedness"":""1"",""chinese"":""1""}","","","","","","","","","","","",""
"","survey-html-form","5","263343","0.0-5.0","vrpt424exj","many_one","0","indirect_first","0","ER08ER04","0","21","1","1","3","1","","0","1","0","27831.929999985732","","{}","","","","","","","","","","","",""
"","html-keyboard-response","6","267368","0.0-6.0-0.0-0.0","vrpt424exj","many_one","0","indirect_first","0","ER08ER04","0","21","1","1","3","1","","0","1","0","null","","","<div class = 'row'><div class = 'column'><img src = 'category1/CS6.png' width = '70%;'></div><div class = 'column'><img src = 'uspos/2160.bmp' width = '100%;'></div></div>","null","pos","CS","CS","1","category1/CS6.png","","","","",""
"","html-keyboard-response","7","269890","0.0-6.0-0.0-0.1","vrpt424exj","many_one","0","indirect_first","0","ER08ER04","0","21","1","1","3","1","","0","1","0","null","","","<div class = 'row'><div class = 'column'><img src = 'category1/CS9.png' width = '70%;'></div><div class = 'column'><img src = 'uspos/2530.bmp' width = '100%;'></div></div>","null","pos","CS","CS","1","category1/CS9.png","","","","",""
"","html-keyboard-response","8","272416","0.0-6.0-0.0-0.2","vrpt424exj","many_one","0","indirect_first","0","ER08ER04","0","21","1","1","3","1","","0","1","0","null","","","<div class = 'row'><div class = 'column'><img src = 'uspos/2030.bmp' width = '100%;'></div><div class = 'column'><img src = 'category1/CS3.png' width = '70%;'></div></div>","null","pos","CS","CS","1","category1/CS3.png","","","","",""
"","html-keyboard-response","9","274941","0.0-6.0-0.0-0.3","vrpt424exj","many_one","0","indirect_first","0","ER08ER04","0","21","1","1","3","1","","0","1","0","null","","","<div class = 'row'><div class = 'column'><img src = 'category3/CS5.png' width = '70%;'></div><div class = 'column'><img src = 'uspos/5830.bmp' width = '100%;'></div></div>","null","pos","CS","CS","3","category3/CS5.png","","","","",""
"","html-keyboard-response","10","277463","0.0-6.0-0.0-0.4","vrpt424exj","many_one","0","indirect_first","0","ER08ER04","0","21","1","1","3","1","","0","1","0","null","","","<div class = 'row'><div class = 'column'><img src = 'category2/CS2.png' width = '70%;'></div><div class = 'column'><img src = 'usneg/9181.bmp' width = '100%;'></div></div>","null","neg","CS","CS","2","category2/CS2.png","","","","",""
"","html-keyboard-response","11","279982","0.0-6.0-0.0-0.5","vrpt424exj","many_one","0","indirect_first","0","ER08ER04","0","21","1","1","3","1","","0","1","0","null","","","<div class = 'row'><div class = 'column'><img src = 'category4/CS8.png' width = '70%;'></div><div class = 'column'><img src = 'usneg/3300.bmp' width = '100%;'></div></div>","null","neg","CS","CS","4","category4/CS8.png","","","","",""
"","html-keyboard-response","12","282499","0.0-6.0-0.0-0.6","vrpt424exj","many_one","0","indirect_first","0","ER08ER04","0","21","1","1","3","1","","0","1","0","null","","","<div class = 'row'><div class = 'column'><img src = 'usneg/6838.bmp' width = '100%;'></div><div class = 'column'><img src = 'category4/CS1.png' width = '70%;'></div></div>","null","neg","CS","CS","4","category4/CS1.png","","","","",""
"","html-keyboard-response","13","285006","0.0-6.0-0.0-0.7","vrpt424exj","many_one","0","indirect_first","0","ER08ER04","0","21","1","1","3","1","","0","1","0","null","","","<div class = 'row'><div class = 'column'><img src = 'uspos/1463.bmp' width = '100%;'></div><div class = 'column'><img src = 'category1/CS8.png' width = '70%;'></div></div>","null","pos","CS","CS","1","category1/CS8.png","","","","",""
"","html-keyboard-response","14","287522","0.0-6.0-0.0-0.8","vrpt424exj","many_one","0","indirect_first","0","ER08ER04","0","21","1","1","3","1","","0","1","0","null","","","<div class = 'row'><div class = 'column'><img src = 'uspos/2208.bmp' width = '100%;'></div><div class = 'column'><img src = 'category1/CS10.png' width = '70%;'></div></div>","null","pos","CS","CS","1","category1/CS10.png","","","","",""
"","html-keyboard-response","15","290041","0.0-6.0-0.0-0.9","vrpt424exj","many_one","0","indirect_first","0","ER08ER04","0","21","1","1","3","1","","0","1","0","null","","","<div class = 'row'><div class = 'column'><img src = 'category3/CS3.png' width = '70%;'></div><div class = 'column'><img src = 'uspos/4599.bmp' width = '100%;'></div></div>","null","pos","CS","CS","3","category3/CS3.png","","","","",""
"","html-keyboard-response","16","292555","0.0-6.0-0.0-0.10","vrpt424exj","many_one","0","indirect_first","0","ER08ER04","0","21","1","1","3","1","","0","1","0","null","","","<div class = 'row'><div class = 'column'><img src = 'usneg/9561.bmp' width = '100%;'></div><div class = 'column'><img src = 'category4/CS10.png' width = '70%;'></div></div>","null","neg","CS","CS","4","category4/CS10.png","","","","",""
"","html-keyboard-response","17","295069","0.0-6.0-0.0-0.11","vrpt424exj","many_one","0","indirect_first","0","ER08ER04","0","21","1","1","3","1","","0","1","0","null","","","<div class = 'row'><div class = 'column'><img src = 'category4/CS9.png' width = '70%;'></div><div class = 'column'><img src = 'usneg/9830.bmp' width = '100%;'></div></div>","null","neg","CS","CS","4","category4/CS9.png","","","","",""
"","html-keyboard-response","18","297601","0.0-6.0-0.0-0.12","vrpt424exj","many_one","0","indirect_first","0","ER08ER04","0","21","1","1","3","1","","0","1","0","null","","","<div class = 'row'><div class = 'column'><img src = 'category3/CS8.png' width = '70%;'></div><div class = 'column'><img src = 'uspos/8461.bmp' width = '100%;'></div></div>","null","pos","CS","CS","3","category3/CS8.png","","","","",""
"","html-keyboard-response","19","300123","0.0-6.0-0.0-0.13","vrpt424exj","many_one","0","indirect_first","0","ER08ER04","0","21","1","1","3","1","","0","1","0","null","","","<div class = 'row'><div class = 'column'><img src = 'category4/CS6.png' width = '70%;'></div><div class = 'column'><img src = 'usneg/8485.bmp' width = '100%;'></div></div>","null","neg","CS","CS","4","category4/CS6.png","","","","",""
"","html-keyboard-response","20","302629","0.0-6.0-0.0-0.14","vrpt424exj","many_one","0","indirect_first","0","ER08ER04","0","21","1","1","3","1","","0","1","0","null","","","<div class = 'row'><div class = 'column'><img src = 'usneg/9404.bmp' width = '100%;'></div><div class = 'column'><img src = 'category2/CS5.png' width = '70%;'></div></div>","null","neg","CS","CS","2","category2/CS5.png","","","","",""
"","html-keyboard-response","21","305152","0.0-6.0-0.0-0.15","vrpt424exj","many_one","0","indirect_first","0","ER08ER04","0","21","1","1","3","1","","0","1","0","null","","","<div class = 'row'><div class = 'column'><img src = 'category2/CS7.png' width = '70%;'></div><div class = 'column'><img src = 'usneg/9182.bmp' width = '100%;'></div></div>","null","neg","CS","CS","2","category2/CS7.png","","","","",""
"","html-keyboard-response","22","307669","0.0-6.0-0.0-0.16","vrpt424exj","many_one","0","indirect_first","0","ER08ER04","0","21","1","1","3","1","","0","1","0","null","","","<div class = 'row'><div class = 'column'><img src = 'category3/CS7.png' width = '70%;'></div><div class = 'column'><img src = 'uspos/2150.bmp' width = '100%;'></div></div>","null","pos","CS","CS","3","category3/CS7.png","","","","",""
"","html-keyboard-response","23","310175","0.0-6.0-0.0-0.17","vrpt424exj","many_one","0","indirect_first","0","ER08ER04","0","21","1","1","3","1","","0","1","0","null","","","<div class = 'row'><div class = 'column'><img src = 'category2/CS1.png' width = '70%;'></div><div class = 'column'><img src = 'usneg/9000.bmp' width = '100%;'></div></div>","null","neg","CS","CS","2","category2/CS1.png","","","","",""
"","html-keyboard-response","24","312685","0.0-6.0-0.0-0.18","vrpt424exj","many_one","0","indirect_first","0","ER08ER04","0","21","1","1","3","1","","0","1","0","null","","","<div class = 'row'><div class = 'column'><img src = 'usneg/9560.bmp' width = '100%;'></div><div class = 'column'><img src = 'category2/CS6.png' width = '70%;'></div></div>","null","neg","CS","CS","2","category2/CS6.png","","","","",""
"","html-keyboard-response","25","315205","0.0-6.0-0.0-0.19","vrpt424exj","many_one","0","indirect_first","0","ER08ER04","0","21","1","1","3","1","","0","1","0","null","","","<div class = 'row'><div class = 'column'><img src = 'category3/CS2.png' width = '70%;'></div><div class = 'column'><img src = 'uspos/4625.bmp' width = '100%;'></div></div>","null","pos","CS","CS","3","category3/CS2.png","","","","",""
"","survey-html-form","26","349752","0.0-6.0-1.0","vrpt424exj","many_one","0","indirect_first","0","ER08ER04","0","21","1","1","3","1","","0","1","0","34029.59500008728","","{}","","","","","","","","","","","",""
"","html-keyboard-response","27","353763","0.0-6.0-2.0-0.0","vrpt424exj","many_one","0","indirect_first","0","ER08ER04","0","21","1","1","3","1","","0","1","0","null","","","<div class = 'row'><div class = 'column'><img src = 'category1/CS3.png' width = '70%;'></div><div class = 'column'><img src = 'uspos/2030.bmp' width = '100%;'></div></div>","null","pos","CS","CS","1","category1/CS3.png","","","","",""
"","html-keyboard-response","28","356285","0.0-6.0-2.0-0.1","vrpt424exj","many_one","0","indirect_first","0","ER08ER04","0","21","1","1","3","1","","0","1","0","null","","","<div class = 'row'><div class = 'column'><img src = 'usneg/9830.bmp' width = '100%;'></div><div class = 'column'><img src = 'category4/CS9.png' width = '70%;'></div></div>","null","neg","CS","CS","4","category4/CS9.png","","","","",""
"","html-keyboard-response","29","358803","0.0-6.0-2.0-0.2","vrpt424exj","many_one","0","indirect_first","0","ER08ER04","0","21","1","1","3","1","","0","1","0","null","","","<div class = 'row'><div class = 'column'><img src = 'uspos/1463.bmp' width = '100%;'></div><div class = 'column'><img src = 'category1/CS8.png' width = '70%;'></div></div>","null","pos","CS","CS","1","category1/CS8.png","","","","",""
"","html-keyboard-response","30","361330","0.0-6.0-2.0-0.3","vrpt424exj","many_one","0","indirect_first","0","ER08ER04","0","21","1","1","3","1","","0","1","0","null","","","<div class = 'row'><div class = 'column'><img src = 'category2/CS6.png' width = '70%;'></div><div class = 'column'><img src = 'usneg/9560.bmp' width = '100%;'></div></div>","null","neg","CS","CS","2","category2/CS6.png","","","","",""
"","html-keyboard-response","31","363858","0.0-6.0-2.0-0.4","vrpt424exj","many_one","0","indirect_first","0","ER08ER04","0","21","1","1","3","1","","0","1","0","null","","","<div class = 'row'><div class = 'column'><img src = 'category4/CS6.png' width = '70%;'></div><div class = 'column'><img src = 'usneg/8485.bmp' width = '100%;'></div></div>","null","neg","CS","CS","4","category4/CS6.png","","","","",""
"","html-keyboard-response","32","366387","0.0-6.0-2.0-0.5","vrpt424exj","many_one","0","indirect_first","0","ER08ER04","0","21","1","1","3","1","","0","1","0","null","","","<div class = 'row'><div class = 'column'><img src = 'uspos/8461.bmp' width = '100%;'></div><div class = 'column'><img src = 'category3/CS8.png' width = '70%;'></div></div>","null","pos","CS","CS","3","category3/CS8.png","","","","",""
"","html-keyboard-response","33","368906","0.0-6.0-2.0-0.6","vrpt424exj","many_one","0","indirect_first","0","ER08ER04","0","21","1","1","3","1","","0","1","0","null","","","<div class = 'row'><div class = 'column'><img src = 'category3/CS7.png' width = '70%;'></div><div class = 'column'><img src = 'uspos/2150.bmp' width = '100%;'></div></div>","null","pos","CS","CS","3","category3/CS7.png","","","","",""
"","html-keyboard-response","34","371435","0.0-6.0-2.0-0.7","vrpt424exj","many_one","0","indirect_first","0","ER08ER04","0","21","1","1","3","1","","0","1","0","null","","","<div class = 'row'><div class = 'column'><img src = 'uspos/2530.bmp' width = '100%;'></div><div class = 'column'><img src = 'category1/CS9.png' width = '70%;'></div></div>","null","pos","CS","CS","1","category1/CS9.png","","","","",""
"","html-keyboard-response","35","373959","0.0-6.0-2.0-0.8","vrpt424exj","many_one","0","indirect_first","0","ER08ER04","0","21","1","1","3","1","","0","1","0","null","","","<div class = 'row'><div class = 'column'><img src = 'category1/CS6.png' width = '70%;'></div><div class = 'column'><img src = 'uspos/2160.bmp' width = '100%;'></div></div>","null","pos","CS","CS","1","category1/CS6.png","","","","",""
"","html-keyboard-response","36","376484","0.0-6.0-2.0-0.9","vrpt424exj","many_one","0","indirect_first","0","ER08ER04","0","21","1","1","3","1","","0","1","0","null","","","<div class = 'row'><div class = 'column'><img src = 'usneg/9000.bmp' width = '100%;'></div><div class = 'column'><img src = 'category2/CS1.png' width = '70%;'></div></div>","null","neg","CS","CS","2","category2/CS1.png","","","","",""
"","html-keyboard-response","37","379003","0.0-6.0-2.0-0.10","vrpt424exj","many_one","0","indirect_first","0","ER08ER04","0","21","1","1","3","1","","0","1","0","null","","","<div class = 'row'><div class = 'column'><img src = 'usneg/6838.bmp' width = '100%;'></div><div class = 'column'><img src = 'category4/CS1.png' width = '70%;'></div></div>","null","neg","CS","CS","4","category4/CS1.png","","","","",""
"","html-keyboard-response","38","381527","0.0-6.0-2.0-0.11","vrpt424exj","many_one","0","indirect_first","0","ER08ER04","0","21","1","1","3","1","","0","1","0","null","","","<div class = 'row'><div class = 'column'><img src = 'uspos/5830.bmp' width = '100%;'></div><div class = 'column'><img src = 'category3/CS5.png' width = '70%;'></div></div>","null","pos","CS","CS","3","category3/CS5.png","","","","",""
"","html-keyboard-response","39","384055","0.0-6.0-2.0-0.12","vrpt424exj","many_one","0","indirect_first","0","ER08ER04","0","21","1","1","3","1","","0","1","0","null","","","<div class = 'row'><div class = 'column'><img src = 'usneg/9182.bmp' width = '100%;'></div><div class = 'column'><img src = 'category2/CS7.png' width = '70%;'></div></div>","null","neg","CS","CS","2","category2/CS7.png","","","","",""
"","html-keyboard-response","40","386575","0.0-6.0-2.0-0.13","vrpt424exj","many_one","0","indirect_first","0","ER08ER04","0","21","1","1","3","1","","0","1","0","null","","","<div class = 'row'><div class = 'column'><img src = 'usneg/9561.bmp' width = '100%;'></div><div class = 'column'><img src = 'category4/CS10.png' width = '70%;'></div></div>","null","neg","CS","CS","4","category4/CS10.png","","","","",""
"","html-keyboard-response","41","389089","0.0-6.0-2.0-0.14","vrpt424exj","many_one","0","indirect_first","0","ER08ER04","0","21","1","1","3","1","","0","1","0","null","","","<div class = 'row'><div class = 'column'><img src = 'usneg/9181.bmp' width = '100%;'></div><div class = 'column'><img src = 'category2/CS2.png' width = '70%;'></div></div>","null","neg","CS","CS","2","category2/CS2.png","","","","",""
"","html-keyboard-response","42","391606","0.0-6.0-2.0-0.15","vrpt424exj","many_one","0","indirect_first","0","ER08ER04","0","21","1","1","3","1","","0","1","0","null","","","<div class = 'row'><div class = 'column'><img src = 'category2/CS5.png' width = '70%;'></div><div class = 'column'><img src = 'usneg/9404.bmp' width = '100%;'></div></div>","null","neg","CS","CS","2","category2/CS5.png","","","","",""
"","html-keyboard-response","43","394120","0.0-6.0-2.0-0.16","vrpt424exj","many_one","0","indirect_first","0","ER08ER04","0","21","1","1","3","1","","0","1","0","null","","","<div class = 'row'><div class = 'column'><img src = 'category4/CS8.png' width = '70%;'></div><div class = 'column'><img src = 'usneg/3300.bmp' width = '100%;'></div></div>","null","neg","CS","CS","4","category4/CS8.png","","","","",""
"","html-keyboard-response","44","396633","0.0-6.0-2.0-0.17","vrpt424exj","many_one","0","indirect_first","0","ER08ER04","0","21","1","1","3","1","","0","1","0","null","","","<div class = 'row'><div class = 'column'><img src = 'category3/CS2.png' width = '70%;'></div><div class = 'column'><img src = 'uspos/4625.bmp' width = '100%;'></div></div>","null","pos","CS","CS","3","category3/CS2.png","","","","",""
"","html-keyboard-response","45","399156","0.0-6.0-2.0-0.18","vrpt424exj","many_one","0","indirect_first","0","ER08ER04","0","21","1","1","3","1","","0","1","0","null","","","<div class = 'row'><div class = 'column'><img src = 'category1/CS10.png' width = '70%;'></div><div class = 'column'><img src = 'uspos/2208.bmp' width = '100%;'></div></div>","null","pos","CS","CS","1","category1/CS10.png","","","","",""
"","html-keyboard-response","46","401675","0.0-6.0-2.0-0.19","vrpt424exj","many_one","0","indirect_first","0","ER08ER04","0","21","1","1","3","1","","0","1","0","null","","","<div class = 'row'><div class = 'column'><img src = 'uspos/4599.bmp' width = '100%;'></div><div class = 'column'><img src = 'category3/CS3.png' width = '70%;'></div></div>","null","pos","CS","CS","3","category3/CS3.png","","","","",""
"","survey-html-form","47","412587","0.0-6.0-3.0","vrpt424exj","many_one","0","indirect_first","0","ER08ER04","0","21","1","1","3","1","","0","1","0","10398.795000044629","","{}","","","","","","","","","","","",""
"","html-keyboard-response","48","416606","0.0-6.0-4.0-0.0","vrpt424exj","many_one","0","indirect_first","0","ER08ER04","0","21","1","1","3","1","","0","1","0","null","","","<div class = 'row'><div class = 'column'><img src = 'category3/CS8.png' width = '70%;'></div><div class = 'column'><img src = 'uspos/8461.bmp' width = '100%;'></div></div>","null","pos","CS","CS","3","category3/CS8.png","","","","",""
"","html-keyboard-response","49","419131","0.0-6.0-4.0-0.1","vrpt424exj","many_one","0","indirect_first","0","ER08ER04","0","21","1","1","3","1","","0","1","0","null","","","<div class = 'row'><div class = 'column'><img src = 'category1/CS10.png' width = '70%;'></div><div class = 'column'><img src = 'uspos/2208.bmp' width = '100%;'></div></div>","null","pos","CS","CS","1","category1/CS10.png","","","","",""
"","html-keyboard-response","50","421637","0.0-6.0-4.0-0.2","vrpt424exj","many_one","0","indirect_first","0","ER08ER04","0","21","1","1","3","1","","0","1","0","null","","","<div class = 'row'><div class = 'column'><img src = 'usneg/3300.bmp' width = '100%;'></div><div class = 'column'><img src = 'category4/CS8.png' width = '70%;'></div></div>","null","neg","CS","CS","4","category4/CS8.png","","","","",""
"","html-keyboard-response","51","424156","0.0-6.0-4.0-0.3","vrpt424exj","many_one","0","indirect_first","0","ER08ER04","0","21","1","1","3","1","","0","1","0","null","","","<div class = 'row'><div class = 'column'><img src = 'category1/CS9.png' width = '70%;'></div><div class = 'column'><img src = 'uspos/2530.bmp' width = '100%;'></div></div>","null","pos","CS","CS","1","category1/CS9.png","","","","",""
"","html-keyboard-response","52","426677","0.0-6.0-4.0-0.4","vrpt424exj","many_one","0","indirect_first","0","ER08ER04","0","21","1","1","3","1","","0","1","0","null","","","<div class = 'row'><div class = 'column'><img src = 'uspos/5830.bmp' width = '100%;'></div><div class = 'column'><img src = 'category3/CS5.png' width = '70%;'></div></div>","null","pos","CS","CS","3","category3/CS5.png","","","","",""
"","html-keyboard-response","53","429201","0.0-6.0-4.0-0.5","vrpt424exj","many_one","0","indirect_first","0","ER08ER04","0","21","1","1","3","1","","0","1","0","null","","","<div class = 'row'><div class = 'column'><img src = 'uspos/4599.bmp' width = '100%;'></div><div class = 'column'><img src = 'category3/CS3.png' width = '70%;'></div></div>","null","pos","CS","CS","3","category3/CS3.png","","","","",""
"","html-keyboard-response","54","431725","0.0-6.0-4.0-0.6","vrpt424exj","many_one","0","indirect_first","0","ER08ER04","0","21","1","1","3","1","","0","1","0","null","","","<div class = 'row'><div class = 'column'><img src = 'usneg/8485.bmp' width = '100%;'></div><div class = 'column'><img src = 'category4/CS6.png' width = '70%;'></div></div>","null","neg","CS","CS","4","category4/CS6.png","","","","",""
"","html-keyboard-response","55","434234","0.0-6.0-4.0-0.7","vrpt424exj","many_one","0","indirect_first","0","ER08ER04","0","21","1","1","3","1","","0","1","0","null","","","<div class = 'row'><div class = 'column'><img src = 'category1/CS3.png' width = '70%;'></div><div class = 'column'><img src = 'uspos/2030.bmp' width = '100%;'></div></div>","null","pos","CS","CS","1","category1/CS3.png","","","","",""
"","html-keyboard-response","56","436755","0.0-6.0-4.0-0.8","vrpt424exj","many_one","0","indirect_first","0","ER08ER04","0","21","1","1","3","1","","0","1","0","null","","","<div class = 'row'><div class = 'column'><img src = 'category2/CS6.png' width = '70%;'></div><div class = 'column'><img src = 'usneg/9560.bmp' width = '100%;'></div></div>","null","neg","CS","CS","2","category2/CS6.png","","","","",""
"","html-keyboard-response","57","439276","0.0-6.0-4.0-0.9","vrpt424exj","many_one","0","indirect_first","0","ER08ER04","0","21","1","1","3","1","","0","1","0","null","","","<div class = 'row'><div class = 'column'><img src = 'usneg/9404.bmp' width = '100%;'></div><div class = 'column'><img src = 'category2/CS5.png' width = '70%;'></div></div>","null","neg","CS","CS","2","category2/CS5.png","","","","",""
"","html-keyboard-response","58","441787","0.0-6.0-4.0-0.10","vrpt424exj","many_one","0","indirect_first","0","ER08ER04","0","21","1","1","3","1","","0","1","0","null","","","<div class = 'row'><div class = 'column'><img src = 'usneg/9182.bmp' width = '100%;'></div><div class = 'column'><img src = 'category2/CS7.png' width = '70%;'></div></div>","null","neg","CS","CS","2","category2/CS7.png","","","","",""
"","html-keyboard-response","59","444308","0.0-6.0-4.0-0.11","vrpt424exj","many_one","0","indirect_first","0","ER08ER04","0","21","1","1","3","1","","0","1","0","null","","","<div class = 'row'><div class = 'column'><img src = 'uspos/1463.bmp' width = '100%;'></div><div class = 'column'><img src = 'category1/CS8.png' width = '70%;'></div></div>","null","pos","CS","CS","1","category1/CS8.png","","","","",""
"","html-keyboard-response","60","446829","0.0-6.0-4.0-0.12","vrpt424exj","many_one","0","indirect_first","0","ER08ER04","0","21","1","1","3","1","","0","1","0","null","","","<div class = 'row'><div class = 'column'><img src = 'usneg/9561.bmp' width = '100%;'></div><div class = 'column'><img src = 'category4/CS10.png' width = '70%;'></div></div>","null","neg","CS","CS","4","category4/CS10.png","","","","",""
"","html-keyboard-response","61","449355","0.0-6.0-4.0-0.13","vrpt424exj","many_one","0","indirect_first","0","ER08ER04","0","21","1","1","3","1","","0","1","0","null","","","<div class = 'row'><div class = 'column'><img src = 'category4/CS1.png' width = '70%;'></div><div class = 'column'><img src = 'usneg/6838.bmp' width = '100%;'></div></div>","null","neg","CS","CS","4","category4/CS1.png","","","","",""
"","html-keyboard-response","62","451870","0.0-6.0-4.0-0.14","vrpt424exj","many_one","0","indirect_first","0","ER08ER04","0","21","1","1","3","1","","0","1","0","null","","","<div class = 'row'><div class = 'column'><img src = 'category4/CS9.png' width = '70%;'></div><div class = 'column'><img src = 'usneg/9830.bmp' width = '100%;'></div></div>","null","neg","CS","CS","4","category4/CS9.png","","","","",""
"","html-keyboard-response","63","454393","0.0-6.0-4.0-0.15","vrpt424exj","many_one","0","indirect_first","0","ER08ER04","0","21","1","1","3","1","","0","1","0","null","","","<div class = 'row'><div class = 'column'><img src = 'uspos/2150.bmp' width = '100%;'></div><div class = 'column'><img src = 'category3/CS7.png' width = '70%;'></div></div>","null","pos","CS","CS","3","category3/CS7.png","","","","",""
"","html-keyboard-response","64","456912","0.0-6.0-4.0-0.16","vrpt424exj","many_one","0","indirect_first","0","ER08ER04","0","21","1","1","3","1","","0","1","0","null","","","<div class = 'row'><div class = 'column'><img src = 'category3/CS2.png' width = '70%;'></div><div class = 'column'><img src = 'uspos/4625.bmp' width = '100%;'></div></div>","null","pos","CS","CS","3","category3/CS2.png","","","","",""
"","html-keyboard-response","65","459432","0.0-6.0-4.0-0.17","vrpt424exj","many_one","0","indirect_first","0","ER08ER04","0","21","1","1","3","1","","0","1","0","null","","","<div class = 'row'><div class = 'column'><img src = 'uspos/2160.bmp' width = '100%;'></div><div class = 'column'><img src = 'category1/CS6.png' width = '70%;'></div></div>","null","pos","CS","CS","1","category1/CS6.png","","","","",""
"","html-keyboard-response","66","461953","0.0-6.0-4.0-0.18","vrpt424exj","many_one","0","indirect_first","0","ER08ER04","0","21","1","1","3","1","","0","1","0","null","","","<div class = 'row'><div class = 'column'><img src = 'usneg/9181.bmp' width = '100%;'></div><div class = 'column'><img src = 'category2/CS2.png' width = '70%;'></div></div>","null","neg","CS","CS","2","category2/CS2.png","","","","",""
"","html-keyboard-response","67","464475","0.0-6.0-4.0-0.19","vrpt424exj","many_one","0","indirect_first","0","ER08ER04","0","21","1","1","3","1","","0","1","0","null","","","<div class = 'row'><div class = 'column'><img src = 'category2/CS1.png' width = '70%;'></div><div class = 'column'><img src = 'usneg/9000.bmp' width = '100%;'></div></div>","null","neg","CS","CS","2","category2/CS1.png","","","","",""
"","survey-html-form","68","467472","0.0-6.0-5.0","vrpt424exj","many_one","0","indirect_first","0","ER08ER04","0","21","1","1","3","1","","0","1","0","2485.5049999896437","","{}","","","","","","","","","","","",""
"","html-keyboard-response","69","471497","0.0-6.0-6.0-0.0","vrpt424exj","many_one","0","indirect_first","0","ER08ER04","0","21","1","1","3","1","","0","1","0","null","","","<div class = 'row'><div class = 'column'><img src = 'uspos/5830.bmp' width = '100%;'></div><div class = 'column'><img src = 'category3/CS5.png' width = '70%;'></div></div>","null","pos","CS","CS","3","category3/CS5.png","","","","",""
"","html-keyboard-response","70","474006","0.0-6.0-6.0-0.1","vrpt424exj","many_one","0","indirect_first","0","ER08ER04","0","21","1","1","3","1","","0","1","0","null","","","<div class = 'row'><div class = 'column'><img src = 'category4/CS8.png' width = '70%;'></div><div class = 'column'><img src = 'usneg/3300.bmp' width = '100%;'></div></div>","null","neg","CS","CS","4","category4/CS8.png","","","","",""
"","html-keyboard-response","71","476514","0.0-6.0-6.0-0.2","vrpt424exj","many_one","0","indirect_first","0","ER08ER04","0","21","1","1","3","1","","0","1","0","null","","","<div class = 'row'><div class = 'column'><img src = 'usneg/9181.bmp' width = '100%;'></div><div class = 'column'><img src = 'category2/CS2.png' width = '70%;'></div></div>","null","neg","CS","CS","2","category2/CS2.png","","","","",""
"","html-keyboard-response","72","479033","0.0-6.0-6.0-0.3","vrpt424exj","many_one","0","indirect_first","0","ER08ER04","0","21","1","1","3","1","","0","1","0","null","","","<div class = 'row'><div class = 'column'><img src = 'category1/CS10.png' width = '70%;'></div><div class = 'column'><img src = 'uspos/2208.bmp' width = '100%;'></div></div>","null","pos","CS","CS","1","category1/CS10.png","","","","",""
"","html-keyboard-response","73","481552","0.0-6.0-6.0-0.4","vrpt424exj","many_one","0","indirect_first","0","ER08ER04","0","21","1","1","3","1","","0","1","0","null","","","<div class = 'row'><div class = 'column'><img src = 'uspos/4599.bmp' width = '100%;'></div><div class = 'column'><img src = 'category3/CS3.png' width = '70%;'></div></div>","null","pos","CS","CS","3","category3/CS3.png","","","","",""
"","html-keyboard-response","74","484070","0.0-6.0-6.0-0.5","vrpt424exj","many_one","0","indirect_first","0","ER08ER04","0","21","1","1","3","1","","0","1","0","null","","","<div class = 'row'><div class = 'column'><img src = 'category1/CS6.png' width = '70%;'></div><div class = 'column'><img src = 'uspos/2160.bmp' width = '100%;'></div></div>","null","pos","CS","CS","1","category1/CS6.png","","","","",""
"","html-keyboard-response","75","486588","0.0-6.0-6.0-0.6","vrpt424exj","many_one","0","indirect_first","0","ER08ER04","0","21","1","1","3","1","","0","1","0","null","","","<div class = 'row'><div class = 'column'><img src = 'category3/CS8.png' width = '70%;'></div><div class = 'column'><img src = 'uspos/8461.bmp' width = '100%;'></div></div>","null","pos","CS","CS","3","category3/CS8.png","","","","",""
"","html-keyboard-response","76","489097","0.0-6.0-6.0-0.7","vrpt424exj","many_one","0","indirect_first","0","ER08ER04","0","21","1","1","3","1","","0","1","0","null","","","<div class = 'row'><div class = 'column'><img src = 'category3/CS2.png' width = '70%;'></div><div class = 'column'><img src = 'uspos/4625.bmp' width = '100%;'></div></div>","null","pos","CS","CS","3","category3/CS2.png","","","","",""
"","html-keyboard-response","77","491626","0.0-6.0-6.0-0.8","vrpt424exj","many_one","0","indirect_first","0","ER08ER04","0","21","1","1","3","1","","0","1","0","null","","","<div class = 'row'><div class = 'column'><img src = 'usneg/9182.bmp' width = '100%;'></div><div class = 'column'><img src = 'category2/CS7.png' width = '70%;'></div></div>","null","neg","CS","CS","2","category2/CS7.png","","","","",""
"","html-keyboard-response","78","494133","0.0-6.0-6.0-0.9","vrpt424exj","many_one","0","indirect_first","0","ER08ER04","0","21","1","1","3","1","","0","1","0","null","","","<div class = 'row'><div class = 'column'><img src = 'category1/CS9.png' width = '70%;'></div><div class = 'column'><img src = 'uspos/2530.bmp' width = '100%;'></div></div>","null","pos","CS","CS","1","category1/CS9.png","","","","",""
"","html-keyboard-response","79","496640","0.0-6.0-6.0-0.10","vrpt424exj","many_one","0","indirect_first","0","ER08ER04","0","21","1","1","3","1","","0","1","0","null","","","<div class = 'row'><div class = 'column'><img src = 'category4/CS6.png' width = '70%;'></div><div class = 'column'><img src = 'usneg/8485.bmp' width = '100%;'></div></div>","null","neg","CS","CS","4","category4/CS6.png","","","","",""
"","html-keyboard-response","80","499146","0.0-6.0-6.0-0.11","vrpt424exj","many_one","0","indirect_first","0","ER08ER04","0","21","1","1","3","1","","0","1","0","null","","","<div class = 'row'><div class = 'column'><img src = 'uspos/2150.bmp' width = '100%;'></div><div class = 'column'><img src = 'category3/CS7.png' width = '70%;'></div></div>","null","pos","CS","CS","3","category3/CS7.png","","","","",""
"","html-keyboard-response","81","501668","0.0-6.0-6.0-0.12","vrpt424exj","many_one","0","indirect_first","0","ER08ER04","0","21","1","1","3","1","","0","1","0","null","","","<div class = 'row'><div class = 'column'><img src = 'usneg/9000.bmp' width = '100%;'></div><div class = 'column'><img src = 'category2/CS1.png' width = '70%;'></div></div>","null","neg","CS","CS","2","category2/CS1.png","","","","",""
"","html-keyboard-response","82","504184","0.0-6.0-6.0-0.13","vrpt424exj","many_one","0","indirect_first","0","ER08ER04","0","21","1","1","3","1","","0","1","0","null","","","<div class = 'row'><div class = 'column'><img src = 'category2/CS6.png' width = '70%;'></div><div class = 'column'><img src = 'usneg/9560.bmp' width = '100%;'></div></div>","null","neg","CS","CS","2","category2/CS6.png","","","","",""
"","html-keyboard-response","83","506702","0.0-6.0-6.0-0.14","vrpt424exj","many_one","0","indirect_first","0","ER08ER04","0","21","1","1","3","1","","0","1","0","null","","","<div class = 'row'><div class = 'column'><img src = 'category1/CS3.png' width = '70%;'></div><div class = 'column'><img src = 'uspos/2030.bmp' width = '100%;'></div></div>","null","pos","CS","CS","1","category1/CS3.png","","","","",""
"","html-keyboard-response","84","509223","0.0-6.0-6.0-0.15","vrpt424exj","many_one","0","indirect_first","0","ER08ER04","0","21","1","1","3","1","","0","1","0","null","","","<div class = 'row'><div class = 'column'><img src = 'category4/CS10.png' width = '70%;'></div><div class = 'column'><img src = 'usneg/9561.bmp' width = '100%;'></div></div>","null","neg","CS","CS","4","category4/CS10.png","","","","",""
"","html-keyboard-response","85","511746","0.0-6.0-6.0-0.16","vrpt424exj","many_one","0","indirect_first","0","ER08ER04","0","21","1","1","3","1","","0","1","0","null","","","<div class = 'row'><div class = 'column'><img src = 'usneg/6838.bmp' width = '100%;'></div><div class = 'column'><img src = 'category4/CS1.png' width = '70%;'></div></div>","null","neg","CS","CS","4","category4/CS1.png","","","","",""
"","html-keyboard-response","86","514268","0.0-6.0-6.0-0.17","vrpt424exj","many_one","0","indirect_first","0","ER08ER04","0","21","1","1","3","1","","0","1","0","null","","","<div class = 'row'><div class = 'column'><img src = 'category2/CS5.png' width = '70%;'></div><div class = 'column'><img src = 'usneg/9404.bmp' width = '100%;'></div></div>","null","neg","CS","CS","2","category2/CS5.png","","","","",""
"","html-keyboard-response","87","516789","0.0-6.0-6.0-0.18","vrpt424exj","many_one","0","indirect_first","0","ER08ER04","0","21","1","1","3","1","","0","1","0","null","","","<div class = 'row'><div class = 'column'><img src = 'usneg/9830.bmp' width = '100%;'></div><div class = 'column'><img src = 'category4/CS9.png' width = '70%;'></div></div>","null","neg","CS","CS","4","category4/CS9.png","","","","",""
"","html-keyboard-response","88","519308","0.0-6.0-6.0-0.19","vrpt424exj","many_one","0","indirect_first","0","ER08ER04","0","21","1","1","3","1","","0","1","0","null","","","<div class = 'row'><div class = 'column'><img src = 'category1/CS8.png' width = '70%;'></div><div class = 'column'><img src = 'uspos/1463.bmp' width = '100%;'></div></div>","null","pos","CS","CS","1","category1/CS8.png","","","","",""
"","html-keyboard-response","89","555305","0.0-7.0","vrpt424exj","many_one","0","indirect_first","0","ER08ER04","0","21","1","1","3","1","","0","1","0","35484.35000004247","","","<p>Sie sehen nun die chinesischen Zeichen nur ganz kurz. Danach sehen Sie die jeweilige Aussprache der Zeichen als Silbe auf dem Bildschrim. Ihre Aufgabe ist es, für jede Silbe anzugeben, ob diese etwas angenehmes, oder unangenehmes bedeuten könnte. Verlassen Sie sich hier vor allem auf Ihre Intuition.<br><br>Die Zeichen werden nur zur Orientierung dargestellt, beachten Sie sie deshalb nicht. Konzentrieren Sie sich vor allem auf die Silben. <br>Reagieren Sie mit folgenden zwei Tasten: <br><br><b>'D' </b> wenn die Silbe etwas <b>unangenehmes</b> bedeuten könnte. <br><b>'K'</b> wenn die Silbe etwas <b>angenehmes</b> bedeuten könnte. <br><br>Bitte legen Sie nun den Zeigefinger der linken Hand auf die Taste 'D' und den Zeigefinger der rechten Hand auf die Taste 'K'. <br>Reagieren Sie auf jede Silbe so schnell wie möglich. Uns interessiert Ihre spontane Reaktion. <br> <br> <br>Drücken Sie 'D' oder 'K', um die nächste Aufgabe zu starten. </p>","75","","","","","","","","","",""
"","html-keyboard-response","90","558311","0.0-8.0-0.0","vrpt424exj","many_one","0","indirect_first","0","ER08ER04","0","21","1","1","3","1","","0","1","0","null","","","<div style=""font-size:60px;"">+</div>","null","","","","","","","","","",""
"","html-keyboard-response","91","558410","0.0-8.0-1.0","vrpt424exj","many_one","0","indirect_first","0","ER08ER04","0","21","1","1","3","1","","0","1","0","null","","","<img src = 'category4/CS1.png' width = '100%;'>","null","","","","","","","","","",""
"","html-keyboard-response","92","558676","0.0-8.0-2.0","vrpt424exj","many_one","0","indirect_first","0","ER08ER04","0","21","1","1","3","1","","0","1","0","null","","","<img src = 'targets/10.png' width = '100%;'>","null","","","","","","","","","",""
"","html-keyboard-response","93","567842","0.0-8.0-3.0","vrpt424exj","many_one","0","indirect_first","0","ER08ER04","0","21","1","1","3","1","","0","1","0","9165.445000049658","","","<img src = 'targets/mask.png' width = '100%;'>","75","neg","CS","CS","4","category4/CS1.png","targets/10.png","1","indirect","0",""
"","html-keyboard-response","94","569361","0.0-8.0-0.1","vrpt424exj","many_one","0","indirect_first","0","ER08ER04","0","21","1","1","3","1","","0","1","0","null","","","<div style=""font-size:60px;"">+</div>","null","","","","","","","","","",""
"","html-keyboard-response","95","569454","0.0-8.0-1.1","vrpt424exj","many_one","0","indirect_first","0","ER08ER04","0","21","1","1","3","1","","0","1","0","null","","","<img src = 'category3/CS2.png' width = '100%;'>","null","","","","","","","","","",""
"","html-keyboard-response","96","569707","0.0-8.0-2.1","vrpt424exj","many_one","0","indirect_first","0","ER08ER04","0","21","1","1","3","1","","0","1","0","null","","","<img src = 'targets/34.png' width = '100%;'>","null","","","","","","","","","",""
"","html-keyboard-response","97","572015","0.0-8.0-3.1","vrpt424exj","many_one","0","indirect_first","0","ER08ER04","0","21","1","1","3","1","","0","1","0","2305.889999959618","","","<img src = 'targets/mask.png' width = '100%;'>","75","pos","CS","CS","3","category3/CS2.png","targets/34.png","1","indirect","1",""
"","html-keyboard-response","98","573524","0.0-8.0-0.2","vrpt424exj","many_one","0","indirect_first","0","ER08ER04","0","21","1","1","3","1","","0","1","0","null","","","<div style=""font-size:60px;"">+</div>","null","","","","","","","","","",""
"","html-keyboard-response","99","573617","0.0-8.0-1.2","vrpt424exj","many_one","0","indirect_first","0","ER08ER04","0","21","1","1","3","1","","0","1","0","null","","","<img src = 'category4/CS9.png' width = '100%;'>","null","","","","","","","","","",""
"","html-keyboard-response","100","573896","0.0-8.0-2.2","vrpt424exj","many_one","0","indirect_first","0","ER08ER04","0","21","1","1","3","1","","0","1","0","null","","","<img src = 'targets/17.png' width = '100%;'>","null","","","","","","","","","",""
"","html-keyboard-response","101","575628","0.0-8.0-3.2","vrpt424exj","many_one","0","indirect_first","0","ER08ER04","0","21","1","1","3","1","","0","1","0","1729.1700000641868","","","<img src = 'targets/mask.png' width = '100%;'>","68","neg","CS","CS","4","category4/CS9.png","targets/17.png","0","indirect","2",""
"","html-keyboard-response","102","577143","0.0-8.0-0.3","vrpt424exj","many_one","0","indirect_first","0","ER08ER04","0","21","1","1","3","1","","0","1","0","null","","","<div style=""font-size:60px;"">+</div>","null","","","","","","","","","",""
"","html-keyboard-response","103","577250","0.0-8.0-1.3","vrpt424exj","many_one","0","indirect_first","0","ER08ER04","0","21","1","1","3","1","","0","1","0","null","","","<img src = 'category4/CS7.png' width = '100%;'>","null","","","","","","","","","",""
"","html-keyboard-response","104","577530","0.0-8.0-2.3","vrpt424exj","many_one","0","indirect_first","0","ER08ER04","0","21","1","1","3","1","","0","1","0","null","","","<img src = 'targets/30.png' width = '100%;'>","null","","","","","","","","","",""
"","html-keyboard-response","105","578322","0.0-8.0-3.3","vrpt424exj","many_one","0","indirect_first","0","ER08ER04","0","21","1","1","3","1","","0","1","0","789.4249999662861","","","<img src = 'targets/mask.png' width = '100%;'>","68","neg","GS","GSold","4","category4/CS7.png","targets/30.png","0","indirect","3",""
"","html-keyboard-response","106","579829","0.0-8.0-0.4","vrpt424exj","many_one","0","indirect_first","0","ER08ER04","0","21","1","1","3","1","","0","1","0","null","","","<div style=""font-size:60px;"">+</div>","null","","","","","","","","","",""
"","html-keyboard-response","107","579923","0.0-8.0-1.4","vrpt424exj","many_one","0","indirect_first","0","ER08ER04","0","21","1","1","3","1","","0","1","0","null","","","<img src = 'category4/CS8.png' width = '100%;'>","null","","","","","","","","","",""
"","html-keyboard-response","108","580202","0.0-8.0-2.4","vrpt424exj","many_one","0","indirect_first","0","ER08ER04","0","21","1","1","3","1","","0","1","0","null","","","<img src = 'targets/48.png' width = '100%;'>","null","","","","","","","","","",""
"","html-keyboard-response","109","582137","0.0-8.0-3.4","vrpt424exj","many_one","0","indirect_first","0","ER08ER04","0","21","1","1","3","1","","0","1","0","1931.8600000115111","","","<img src = 'targets/mask.png' width = '100%;'>","75","neg","CS","CS","4","category4/CS8.png","targets/48.png","1","indirect","4",""
"","html-keyboard-response","110","583654","0.0-8.0-0.5","vrpt424exj","many_one","0","indirect_first","0","ER08ER04","0","21","1","1","3","1","","0","1","0","null","","","<div style=""font-size:60px;"">+</div>","null","","","","","","","","","",""
"","html-keyboard-response","111","583747","0.0-8.0-1.5","vrpt424exj","many_one","0","indirect_first","0","ER08ER04","0","21","1","1","3","1","","0","1","0","null","","","<img src = 'category3/CS3.png' width = '100%;'>","null","","","","","","","","","",""
"","html-keyboard-response","112","584012","0.0-8.0-2.5","vrpt424exj","many_one","0","indirect_first","0","ER08ER04","0","21","1","1","3","1","","0","1","0","null","","","<img src = 'targets/19.png' width = '100%;'>","null","","","","","","","","","",""
"","html-keyboard-response","113","585092","0.0-8.0-3.5","vrpt424exj","many_one","0","indirect_first","0","ER08ER04","0","21","1","1","3","1","","0","1","0","1078.0050000175834","","","<img src = 'targets/mask.png' width = '100%;'>","75","pos","CS","CS","3","category3/CS3.png","targets/19.png","1","indirect","5",""
"","html-keyboard-response","114","586599","0.0-8.0-0.6","vrpt424exj","many_one","0","indirect_first","0","ER08ER04","0","21","1","1","3","1","","0","1","0","null","","","<div style=""font-size:60px;"">+</div>","null","","","","","","","","","",""
"","html-keyboard-response","115","586691","0.0-8.0-1.6","vrpt424exj","many_one","0","indirect_first","0","ER08ER04","0","21","1","1","3","1","","0","1","0","null","","","<img src = 'category2/CS7.png' width = '100%;'>","null","","","","","","","","","",""
"","html-keyboard-response","116","586958","0.0-8.0-2.6","vrpt424exj","many_one","0","indirect_first","0","ER08ER04","0","21","1","1","3","1","","0","1","0","null","","","<img src = 'targets/33.png' width = '100%;'>","null","","","","","","","","","",""
"","html-keyboard-response","117","587612","0.0-8.0-3.6","vrpt424exj","many_one","0","indirect_first","0","ER08ER04","0","21","1","1","3","1","","0","1","0","651.7999999923632","","","<img src = 'targets/mask.png' width = '100%;'>","68","neg","CS","CS","2","category2/CS7.png","targets/33.png","0","indirect","6",""
"","html-keyboard-response","118","589125","0.0-8.0-0.7","vrpt424exj","many_one","0","indirect_first","0","ER08ER04","0","21","1","1","3","1","","0","1","0","null","","","<div style=""font-size:60px;"">+</div>","null","","","","","","","","","",""
"","html-keyboard-response","119","589219","0.0-8.0-1.7","vrpt424exj","many_one","0","indirect_first","0","ER08ER04","0","21","1","1","3","1","","0","1","0","null","","","<img src = 'category1/CS3.png' width = '100%;'>","null","","","","","","","","","",""
"","html-keyboard-response","120","589472","0.0-8.0-2.7","vrpt424exj","many_one","0","indirect_first","0","ER08ER04","0","21","1","1","3","1","","0","1","0","null","","","<img src = 'targets/38.png' width = '100%;'>","null","","","","","","","","","",""
"","html-keyboard-response","121","590241","0.0-8.0-3.7","vrpt424exj","many_one","0","indirect_first","0","ER08ER04","0","21","1","1","3","1","","0","1","0","767.3649999778718","","","<img src = 'targets/mask.png' width = '100%;'>","75","pos","CS","CS","1","category1/CS3.png","targets/38.png","1","indirect","7",""
"","html-keyboard-response","122","591756","0.0-8.0-0.8","vrpt424exj","many_one","0","indirect_first","0","ER08ER04","0","21","1","1","3","1","","0","1","0","null","","","<div style=""font-size:60px;"">+</div>","null","","","","","","","","","",""
"","html-keyboard-response","123","591849","0.0-8.0-1.8","vrpt424exj","many_one","0","indirect_first","0","ER08ER04","0","21","1","1","3","1","","0","1","0","null","","","<img src = 'category4/CS6.png' width = '100%;'>","null","","","","","","","","","",""
"","html-keyboard-response","124","592129","0.0-8.0-2.8","vrpt424exj","many_one","0","indirect_first","0","ER08ER04","0","21","1","1","3","1","","0","1","0","null","","","<img src = 'targets/26.png' width = '100%;'>","null","","","","","","","","","",""
"","html-keyboard-response","125","592636","0.0-8.0-3.8","vrpt424exj","many_one","0","indirect_first","0","ER08ER04","0","21","1","1","3","1","","0","1","0","503.5999999381602","","","<img src = 'targets/mask.png' width = '100%;'>","68","neg","CS","CS","4","category4/CS6.png","targets/26.png","0","indirect","8",""
"","html-keyboard-response","126","594152","0.0-8.0-0.9","vrpt424exj","many_one","0","indirect_first","0","ER08ER04","0","21","1","1","3","1","","0","1","0","null","","","<div style=""font-size:60px;"">+</div>","null","","","","","","","","","",""
"","html-keyboard-response","127","594244","0.0-8.0-1.9","vrpt424exj","many_one","0","indirect_first","0","ER08ER04","0","21","1","1","3","1","","0","1","0","null","","","<img src = 'category3/CS1.png' width = '100%;'>","null","","","","","","","","","",""
"","html-keyboard-response","128","594526","0.0-8.0-2.9","vrpt424exj","many_one","0","indirect_first","0","ER08ER04","0","21","1","1","3","1","","0","1","0","null","","","<img src = 'targets/11.png' width = '100%;'>","null","","","","","","","","","",""
"","html-keyboard-response","129","595076","0.0-8.0-3.9","vrpt424exj","many_one","0","indirect_first","0","ER08ER04","0","21","1","1","3","1","","0","1","0","547.9000000050291","","","<img src = 'targets/mask.png' width = '100%;'>","75","pos","GS","GSold","3","category3/CS1.png","targets/11.png","1","indirect","9",""
"","html-keyboard-response","130","596595","0.0-8.0-0.10","vrpt424exj","many_one","0","indirect_first","0","ER08ER04","0","21","1","1","3","1","","0","1","0","null","","","<div style=""font-size:60px;"">+</div>","null","","","","","","","","","",""
"","html-keyboard-response","131","596688","0.0-8.0-1.10","vrpt424exj","many_one","0","indirect_first","0","ER08ER04","0","21","1","1","3","1","","0","1","0","null","","","<img src = 'category4/CS10.png' width = '100%;'>","null","","","","","","","","","",""
"","html-keyboard-response","132","596954","0.0-8.0-2.10","vrpt424exj","many_one","0","indirect_first","0","ER08ER04","0","21","1","1","3","1","","0","1","0","null","","","<img src = 'targets/39.png' width = '100%;'>","null","","","","","","","","","",""
"","html-keyboard-response","133","597791","0.0-8.0-3.10","vrpt424exj","many_one","0","indirect_first","0","ER08ER04","0","21","1","1","3","1","","0","1","0","834.7200000425801","","","<img src = 'targets/mask.png' width = '100%;'>","68","neg","CS","CS","4","category4/CS10.png","targets/39.png","0","indirect","10",""
"","html-keyboard-response","134","599311","0.0-8.0-0.11","vrpt424exj","many_one","0","indirect_first","0","ER08ER04","0","21","1","1","3","1","","0","1","0","null","","","<div style=""font-size:60px;"">+</div>","null","","","","","","","","","",""
"","html-keyboard-response","135","599406","0.0-8.0-1.11","vrpt424exj","many_one","0","indirect_first","0","ER08ER04","0","21","1","1","3","1","","0","1","0","null","","","<img src = 'category4/CS3.png' width = '100%;'>","null","","","","","","","","","",""
"","html-keyboard-response","136","599659","0.0-8.0-2.11","vrpt424exj","many_one","0","indirect_first","0","ER08ER04","0","21","1","1","3","1","","0","1","0","null","","","<img src = 'targets/2.png' width = '100%;'>","null","","","","","","","","","",""
"","html-keyboard-response","137","601878","0.0-8.0-3.11","vrpt424exj","many_one","0","indirect_first","0","ER08ER04","0","21","1","1","3","1","","0","1","0","2216.7650000192225","","","<img src = 'targets/mask.png' width = '100%;'>","68","neg","GS","GSold","4","category4/CS3.png","targets/2.png","0","indirect","11",""
"","html-keyboard-response","138","603390","0.0-8.0-0.12","vrpt424exj","many_one","0","indirect_first","0","ER08ER04","0","21","1","1","3","1","","0","1","0","null","","","<div style=""font-size:60px;"">+</div>","null","","","","","","","","","",""
"","html-keyboard-response","139","603484","0.0-8.0-1.12","vrpt424exj","many_one","0","indirect_first","0","ER08ER04","0","21","1","1","3","1","","0","1","0","null","","","<img src = 'category2/CS2.png' width = '100%;'>","null","","","","","","","","","",""
"","html-keyboard-response","140","603768","0.0-8.0-2.12","vrpt424exj","many_one","0","indirect_first","0","ER08ER04","0","21","1","1","3","1","","0","1","0","null","","","<img src = 'targets/25.png' width = '100%;'>","null","","","","","","","","","",""
"","html-keyboard-response","141","604426","0.0-8.0-3.12","vrpt424exj","many_one","0","indirect_first","0","ER08ER04","0","21","1","1","3","1","","0","1","0","655.3050000220537","","","<img src = 'targets/mask.png' width = '100%;'>","68","neg","CS","CS","2","category2/CS2.png","targets/25.png","0","indirect","12",""
"","html-keyboard-response","142","605947","0.0-8.0-0.13","vrpt424exj","many_one","0","indirect_first","0","ER08ER04","0","21","1","1","3","1","","0","1","0","null","","","<div style=""font-size:60px;"">+</div>","null","","","","","","","","","",""
"","html-keyboard-response","143","606040","0.0-8.0-1.13","vrpt424exj","many_one","0","indirect_first","0","ER08ER04","0","21","1","1","3","1","","0","1","0","null","","","<img src = 'category1/CS8.png' width = '100%;'>","null","","","","","","","","","",""
"","html-keyboard-response","144","606313","0.0-8.0-2.13","vrpt424exj","many_one","0","indirect_first","0","ER08ER04","0","21","1","1","3","1","","0","1","0","null","","","<img src = 'targets/24.png' width = '100%;'>","null","","","","","","","","","",""
"","html-keyboard-response","145","607371","0.0-8.0-3.13","vrpt424exj","many_one","0","indirect_first","0","ER08ER04","0","21","1","1","3","1","","0","1","0","1056.2499999068677","","","<img src = 'targets/mask.png' width = '100%;'>","75","pos","CS","CS","1","category1/CS8.png","targets/24.png","1","indirect","13",""
"","html-keyboard-response","146","608895","0.0-8.0-0.14","vrpt424exj","many_one","0","indirect_first","0","ER08ER04","0","21","1","1","3","1","","0","1","0","null","","","<div style=""font-size:60px;"">+</div>","null","","","","","","","","","",""
"","html-keyboard-response","147","608988","0.0-8.0-1.14","vrpt424exj","many_one","0","indirect_first","0","ER08ER04","0","21","1","1","3","1","","0","1","0","null","","","<img src = 'category4/CS4.png' width = '100%;'>","null","","","","","","","","","",""
"","html-keyboard-response","148","609255","0.0-8.0-2.14","vrpt424exj","many_one","0","indirect_first","0","ER08ER04","0","21","1","1","3","1","","0","1","0","null","","","<img src = 'targets/37.png' width = '100%;'>","null","","","","","","","","","",""
"","html-keyboard-response","149","609666","0.0-8.0-3.14","vrpt424exj","many_one","0","indirect_first","0","ER08ER04","0","21","1","1","3","1","","0","1","0","408.48999994341284","","","<img src = 'targets/mask.png' width = '100%;'>","68","neg","GS","GSold","4","category4/CS4.png","targets/37.png","0","indirect","14",""
"","html-keyboard-response","150","611176","0.0-8.0-0.15","vrpt424exj","many_one","0","indirect_first","0","ER08ER04","0","21","1","1","3","1","","0","1","0","null","","","<div style=""font-size:60px;"">+</div>","null","","","","","","","","","",""
"","html-keyboard-response","151","611268","0.0-8.0-1.15","vrpt424exj","many_one","0","indirect_first","0","ER08ER04","0","21","1","1","3","1","","0","1","0","null","","","<img src = 'category3/CS8.png' width = '100%;'>","null","","","","","","","","","",""
"","html-keyboard-response","152","611522","0.0-8.0-2.15","vrpt424exj","many_one","0","indirect_first","0","ER08ER04","0","21","1","1","3","1","","0","1","0","null","","","<img src = 'targets/27.png' width = '100%;'>","null","","","","","","","","","",""
"","html-keyboard-response","153","612023","0.0-8.0-3.15","vrpt424exj","many_one","0","indirect_first","0","ER08ER04","0","21","1","1","3","1","","0","1","0","499.3399999802932","","","<img src = 'targets/mask.png' width = '100%;'>","75","pos","CS","CS","3","category3/CS8.png","targets/27.png","1","indirect","15",""
"","html-keyboard-response","154","613543","0.0-8.0-0.16","vrpt424exj","many_one","0","indirect_first","0","ER08ER04","0","21","1","1","3","1","","0","1","0","null","","","<div style=""font-size:60px;"">+</div>","null","","","","","","","","","",""
"","html-keyboard-response","155","613651","0.0-8.0-1.16","vrpt424exj","many_one","0","indirect_first","0","ER08ER04","0","21","1","1","3","1","","0","1","0","null","","","<img src = 'category1/CS6.png' width = '100%;'>","null","","","","","","","","","",""
"","html-keyboard-response","156","613929","0.0-8.0-2.16","vrpt424exj","many_one","0","indirect_first","0","ER08ER04","0","21","1","1","3","1","","0","1","0","null","","","<img src = 'targets/22.png' width = '100%;'>","null","","","","","","","","","",""
"","html-keyboard-response","157","614788","0.0-8.0-3.16","vrpt424exj","many_one","0","indirect_first","0","ER08ER04","0","21","1","1","3","1","","0","1","0","856.220000074245","","","<img src = 'targets/mask.png' width = '100%;'>","75","pos","CS","CS","1","category1/CS6.png","targets/22.png","1","indirect","16",""
"","html-keyboard-response","158","616299","0.0-8.0-0.17","vrpt424exj","many_one","0","indirect_first","0","ER08ER04","0","21","1","1","3","1","","0","1","0","null","","","<div style=""font-size:60px;"">+</div>","null","","","","","","","","","",""
"","html-keyboard-response","159","616391","0.0-8.0-1.17","vrpt424exj","many_one","0","indirect_first","0","ER08ER04","0","21","1","1","3","1","","0","1","0","null","","","<img src = 'category3/CS5.png' width = '100%;'>","null","","","","","","","","","",""
"","html-keyboard-response","160","616658","0.0-8.0-2.17","vrpt424exj","many_one","0","indirect_first","0","ER08ER04","0","21","1","1","3","1","","0","1","0","null","","","<img src = 'targets/15.png' width = '100%;'>","null","","","","","","","","","",""
"","html-keyboard-response","161","617149","0.0-8.0-3.17","vrpt424exj","many_one","0","indirect_first","0","ER08ER04","0","21","1","1","3","1","","0","1","0","487.54500003997236","","","<img src = 'targets/mask.png' width = '100%;'>","75","pos","CS","CS","3","category3/CS5.png","targets/15.png","1","indirect","17",""
"","html-keyboard-response","162","618671","0.0-8.0-0.18","vrpt424exj","many_one","0","indirect_first","0","ER08ER04","0","21","1","1","3","1","","0","1","0","null","","","<div style=""font-size:60px;"">+</div>","null","","","","","","","","","",""
"","html-keyboard-response","163","618763","0.0-8.0-1.18","vrpt424exj","many_one","0","indirect_first","0","ER08ER04","0","21","1","1","3","1","","0","1","0","null","","","<img src = 'category1/CS9.png' width = '100%;'>","null","","","","","","","","","",""
"","html-keyboard-response","164","619043","0.0-8.0-2.18","vrpt424exj","many_one","0","indirect_first","0","ER08ER04","0","21","1","1","3","1","","0","1","0","null","","","<img src = 'targets/9.png' width = '100%;'>","null","","","","","","","","","",""
"","html-keyboard-response","165","619608","0.0-8.0-3.18","vrpt424exj","many_one","0","indirect_first","0","ER08ER04","0","21","1","1","3","1","","0","1","0","562.2999999905005","","","<img src = 'targets/mask.png' width = '100%;'>","75","pos","CS","CS","1","category1/CS9.png","targets/9.png","1","indirect","18",""
"","html-keyboard-response","166","621114","0.0-8.0-0.19","vrpt424exj","many_one","0","indirect_first","0","ER08ER04","0","21","1","1","3","1","","0","1","0","null","","","<div style=""font-size:60px;"">+</div>","null","","","","","","","","","",""
"","html-keyboard-response","167","621208","0.0-8.0-1.19","vrpt424exj","many_one","0","indirect_first","0","ER08ER04","0","21","1","1","3","1","","0","1","0","null","","","<img src = 'category3/CS7.png' width = '100%;'>","null","","","","","","","","","",""
"","html-keyboard-response","168","621469","0.0-8.0-2.19","vrpt424exj","many_one","0","indirect_first","0","ER08ER04","0","21","1","1","3","1","","0","1","0","null","","","<img src = 'targets/7.png' width = '100%;'>","null","","","","","","","","","",""
"","html-keyboard-response","169","621828","0.0-8.0-3.19","vrpt424exj","many_one","0","indirect_first","0","ER08ER04","0","21","1","1","3","1","","0","1","0","356.6049999790266","","","<img src = 'targets/mask.png' width = '100%;'>","75","pos","CS","CS","3","category3/CS7.png","targets/7.png","1","indirect","19",""
"","html-keyboard-response","170","623349","0.0-8.0-0.20","vrpt424exj","many_one","0","indirect_first","0","ER08ER04","0","21","1","1","3","1","","0","1","0","null","","","<div style=""font-size:60px;"">+</div>","null","","","","","","","","","",""
"","html-keyboard-response","171","623440","0.0-8.0-1.20","vrpt424exj","many_one","0","indirect_first","0","ER08ER04","0","21","1","1","3","1","","0","1","0","null","","","<img src = 'category2/CS1.png' width = '100%;'>","null","","","","","","","","","",""
"","html-keyboard-response","172","623708","0.0-8.0-2.20","vrpt424exj","many_one","0","indirect_first","0","ER08ER04","0","21","1","1","3","1","","0","1","0","null","","","<img src = 'targets/12.png' width = '100%;'>","null","","","","","","","","","",""
"","html-keyboard-response","173","624117","0.0-8.0-3.20","vrpt424exj","many_one","0","indirect_first","0","ER08ER04","0","21","1","1","3","1","","0","1","0","406.6099999472499","","","<img src = 'targets/mask.png' width = '100%;'>","68","neg","CS","CS","2","category2/CS1.png","targets/12.png","0","indirect","20",""
"","html-keyboard-response","174","625625","0.0-8.0-0.21","vrpt424exj","many_one","0","indirect_first","0","ER08ER04","0","21","1","1","3","1","","0","1","0","null","","","<div style=""font-size:60px;"">+</div>","null","","","","","","","","","",""
"","html-keyboard-response","175","625717","0.0-8.0-1.21","vrpt424exj","many_one","0","indirect_first","0","ER08ER04","0","21","1","1","3","1","","0","1","0","null","","","<img src = 'category1/CS10.png' width = '100%;'>","null","","","","","","","","","",""
"","html-keyboard-response","176","625979","0.0-8.0-2.21","vrpt424exj","many_one","0","indirect_first","0","ER08ER04","0","21","1","1","3","1","","0","1","0","null","","","<img src = 'targets/32.png' width = '100%;'>","null","","","","","","","","","",""
"","html-keyboard-response","177","626425","0.0-8.0-3.21","vrpt424exj","many_one","0","indirect_first","0","ER08ER04","0","21","1","1","3","1","","0","1","0","443.3200000785291","","","<img src = 'targets/mask.png' width = '100%;'>","75","pos","CS","CS","1","category1/CS10.png","targets/32.png","1","indirect","21",""
"","html-keyboard-response","178","627936","0.0-8.0-0.22","vrpt424exj","many_one","0","indirect_first","0","ER08ER04","0","21","1","1","3","1","","0","1","0","null","","","<div style=""font-size:60px;"">+</div>","null","","","","","","","","","",""
"","html-keyboard-response","179","628028","0.0-8.0-1.22","vrpt424exj","many_one","0","indirect_first","0","ER08ER04","0","21","1","1","3","1","","0","1","0","null","","","<img src = 'category2/CS6.png' width = '100%;'>","null","","","","","","","","","",""
"","html-keyboard-response","180","628293","0.0-8.0-2.22","vrpt424exj","many_one","0","indirect_first","0","ER08ER04","0","21","1","1","3","1","","0","1","0","null","","","<img src = 'targets/1.png' width = '100%;'>","null","","","","","","","","","",""
"","html-keyboard-response","181","628986","0.0-8.0-3.22","vrpt424exj","many_one","0","indirect_first","0","ER08ER04","0","21","1","1","3","1","","0","1","0","690.000000060536","","","<img src = 'targets/mask.png' width = '100%;'>","68","neg","CS","CS","2","category2/CS6.png","targets/1.png","0","indirect","22",""
"","html-keyboard-response","182","630505","0.0-8.0-0.23","vrpt424exj","many_one","0","indirect_first","0","ER08ER04","0","21","1","1","3","1","","0","1","0","null","","","<div style=""font-size:60px;"">+</div>","null","","","","","","","","","",""
"","html-keyboard-response","183","630598","0.0-8.0-1.23","vrpt424exj","many_one","0","indirect_first","0","ER08ER04","0","21","1","1","3","1","","0","1","0","null","","","<img src = 'category2/CS5.png' width = '100%;'>","null","","","","","","","","","",""
"","html-keyboard-response","184","630861","0.0-8.0-2.23","vrpt424exj","many_one","0","indirect_first","0","ER08ER04","0","21","1","1","3","1","","0","1","0","null","","","<img src = 'targets/45.png' width = '100%;'>","null","","","","","","","","","",""
"","html-keyboard-response","185","631188","0.0-8.0-3.23","vrpt424exj","many_one","0","indirect_first","0","ER08ER04","0","21","1","1","3","1","","0","1","0","324.5000001043081","","","<img src = 'targets/mask.png' width = '100%;'>","68","neg","CS","CS","2","category2/CS5.png","targets/45.png","0","indirect","23",""
"","survey-html-form","186","633739","0.0-9.0","vrpt424exj","many_one","0","indirect_first","0","ER08ER04","0","21","1","1","3","1","","0","1","0","2039.5349999889731","","{}","","","","","","","","","","","",""
"","html-keyboard-response","187","636760","0.0-10.0-0.0","vrpt424exj","many_one","0","indirect_first","0","ER08ER04","0","21","1","1","3","1","","0","1","0","null","","","<div style=""font-size:60px;"">+</div>","null","","","","","","","","","",""
"","html-keyboard-response","188","636852","0.0-10.0-1.0","vrpt424exj","many_one","0","indirect_first","0","ER08ER04","0","21","1","1","3","1","","0","1","0","null","","","<img src = 'category1/CS1.png' width = '100%;'>","null","","","","","","","","","",""
"","html-keyboard-response","189","637132","0.0-10.0-2.0","vrpt424exj","many_one","0","indirect_first","0","ER08ER04","0","21","1","1","3","1","","0","1","0","null","","","<img src = 'targets/31.png' width = '100%;'>","null","","","","","","","","","",""
"","html-keyboard-response","190","639058","0.0-10.0-3.0","vrpt424exj","many_one","0","indirect_first","0","ER08ER04","0","21","1","1","3","1","","0","1","0","1923.5150000313297","","","<img src = 'targets/mask.png' width = '100%;'>","68","pos","GS","GSold","1","category1/CS1.png","targets/31.png","0","indirect","24",""
"","html-keyboard-response","191","640578","0.0-10.0-0.1","vrpt424exj","many_one","0","indirect_first","0","ER08ER04","0","21","1","1","3","1","","0","1","0","null","","","<div style=""font-size:60px;"">+</div>","null","","","","","","","","","",""
"","html-keyboard-response","192","640670","0.0-10.0-1.1","vrpt424exj","many_one","0","indirect_first","0","ER08ER04","0","21","1","1","3","1","","0","1","0","null","","","<img src = 'category2/CS9.png' width = '100%;'>","null","","","","","","","","","",""
"","html-keyboard-response","193","640924","0.0-10.0-2.1","vrpt424exj","many_one","0","indirect_first","0","ER08ER04","0","21","1","1","3","1","","0","1","0","null","","","<img src = 'targets/35.png' width = '100%;'>","null","","","","","","","","","",""
"","html-keyboard-response","194","641293","0.0-10.0-3.1","vrpt424exj","many_one","0","indirect_first","0","ER08ER04","0","21","1","1","3","1","","0","1","0","367.4399999435991","","","<img src = 'targets/mask.png' width = '100%;'>","68","neg","GS","GSold","2","category2/CS9.png","targets/35.png","0","indirect","25",""
"","html-keyboard-response","195","642806","0.0-10.0-0.2","vrpt424exj","many_one","0","indirect_first","0","ER08ER04","0","21","1","1","3","1","","0","1","0","null","","","<div style=""font-size:60px;"">+</div>","null","","","","","","","","","",""
"","html-keyboard-response","196","642899","0.0-10.0-1.2","vrpt424exj","many_one","0","indirect_first","0","ER08ER04","0","21","1","1","3","1","","0","1","0","null","","","<img src = 'category2/GS3.png' width = '100%;'>","null","","","","","","","","","",""
"","html-keyboard-response","197","643165","0.0-10.0-2.2","vrpt424exj","many_one","0","indirect_first","0","ER08ER04","0","21","1","1","3","1","","0","1","0","null","","","<img src = 'targets/4.png' width = '100%;'>","null","","","","","","","","","",""
"","html-keyboard-response","198","643892","0.0-10.0-3.2","vrpt424exj","many_one","0","indirect_first","0","ER08ER04","0","21","1","1","3","1","","0","1","0","724.0100000053644","","","<img src = 'targets/mask.png' width = '100%;'>","75","neg","GS","GSnew","2","category2/GS3.png","targets/4.png","1","indirect","26",""
"","html-keyboard-response","199","645408","0.0-10.0-0.3","vrpt424exj","many_one","0","indirect_first","0","ER08ER04","0","21","1","1","3","1","","0","1","0","null","","","<div style=""font-size:60px;"">+</div>","null","","","","","","","","","",""
"","html-keyboard-response","200","645501","0.0-10.0-1.3","vrpt424exj","many_one","0","indirect_first","0","ER08ER04","0","21","1","1","3","1","","0","1","0","null","","","<img src = 'category3/GS2.png' width = '100%;'>","null","","","","","","","","","",""
"","html-keyboard-response","201","645780","0.0-10.0-2.3","vrpt424exj","many_one","0","indirect_first","0","ER08ER04","0","21","1","1","3","1","","0","1","0","null","","","<img src = 'targets/36.png' width = '100%;'>","null","","","","","","","","","",""
"","html-keyboard-response","202","646473","0.0-10.0-3.3","vrpt424exj","many_one","0","indirect_first","0","ER08ER04","0","21","1","1","3","1","","0","1","0","690.1849999558181","","","<img src = 'targets/mask.png' width = '100%;'>","75","pos","GS","GSnew","3","category3/GS2.png","targets/36.png","1","indirect","27",""
"","html-keyboard-response","203","647985","0.0-10.0-0.4","vrpt424exj","many_one","0","indirect_first","0","ER08ER04","0","21","1","1","3","1","","0","1","0","null","","","<div style=""font-size:60px;"">+</div>","null","","","","","","","","","",""
"","html-keyboard-response","204","648078","0.0-10.0-1.4","vrpt424exj","many_one","0","indirect_first","0","ER08ER04","0","21","1","1","3","1","","0","1","0","null","","","<img src = 'category2/GS1.png' width = '100%;'>","null","","","","","","","","","",""
"","html-keyboard-response","205","648342","0.0-10.0-2.4","vrpt424exj","many_one","0","indirect_first","0","ER08ER04","0","21","1","1","3","1","","0","1","0","null","","","<img src = 'targets/6.png' width = '100%;'>","null","","","","","","","","","",""
"","html-keyboard-response","206","649097","0.0-10.0-3.4","vrpt424exj","many_one","0","indirect_first","0","ER08ER04","0","21","1","1","3","1","","0","1","0","750.8750000270084","","","<img src = 'targets/mask.png' width = '100%;'>","75","neg","GS","GSnew","2","category2/GS1.png","targets/6.png","1","indirect","28",""
"","html-keyboard-response","207","650615","0.0-10.0-0.5","vrpt424exj","many_one","0","indirect_first","0","ER08ER04","0","21","1","1","3","1","","0","1","0","null","","","<div style=""font-size:60px;"">+</div>","null","","","","","","","","","",""
"","html-keyboard-response","208","650707","0.0-10.0-1.5","vrpt424exj","many_one","0","indirect_first","0","ER08ER04","0","21","1","1","3","1","","0","1","0","null","","","<img src = 'category1/ma.png' width = '100%;'>","null","","","","","","","","","",""
"","html-keyboard-response","209","650974","0.0-10.0-2.5","vrpt424exj","many_one","0","indirect_first","0","ER08ER04","0","21","1","1","3","1","","0","1","0","null","","","<img src = 'targets/23.png' width = '100%;'>","null","","","","","","","","","",""
"","html-keyboard-response","210","653178","0.0-10.0-3.5","vrpt424exj","many_one","0","indirect_first","0","ER08ER04","0","21","1","1","3","1","","0","1","0","2201.274999999441","","","<img src = 'targets/mask.png' width = '100%;'>","75","pos","GS","abstract","1","category1/ma.png","targets/23.png","1","indirect","29",""
"","html-keyboard-response","211","654689","0.0-10.0-0.6","vrpt424exj","many_one","0","indirect_first","0","ER08ER04","0","21","1","1","3","1","","0","1","0","null","","","<div style=""font-size:60px;"">+</div>","null","","","","","","","","","",""
"","html-keyboard-response","212","654783","0.0-10.0-1.6","vrpt424exj","many_one","0","indirect_first","0","ER08ER04","0","21","1","1","3","1","","0","1","0","null","","","<img src = 'category4/GS1.png' width = '100%;'>","null","","","","","","","","","",""
"","html-keyboard-response","213","655045","0.0-10.0-2.6","vrpt424exj","many_one","0","indirect_first","0","ER08ER04","0","21","1","1","3","1","","0","1","0","null","","","<img src = 'targets/18.png' width = '100%;'>","null","","","","","","","","","",""
"","html-keyboard-response","214","655783","0.0-10.0-3.6","vrpt424exj","many_one","0","indirect_first","0","ER08ER04","0","21","1","1","3","1","","0","1","0","735.0149999838322","","","<img src = 'targets/mask.png' width = '100%;'>","75","neg","GS","GSnew","4","category4/GS1.png","targets/18.png","1","indirect","30",""
"","html-keyboard-response","215","657303","0.0-10.0-0.7","vrpt424exj","many_one","0","indirect_first","0","ER08ER04","0","21","1","1","3","1","","0","1","0","null","","","<div style=""font-size:60px;"">+</div>","null","","","","","","","","","",""
"","html-keyboard-response","216","657396","0.0-10.0-1.7","vrpt424exj","many_one","0","indirect_first","0","ER08ER04","0","21","1","1","3","1","","0","1","0","null","","","<img src = 'category3/wang.png' width = '100%;'>","null","","","","","","","","","",""
"","html-keyboard-response","217","657660","0.0-10.0-2.7","vrpt424exj","many_one","0","indirect_first","0","ER08ER04","0","21","1","1","3","1","","0","1","0","null","","","<img src = 'targets/42.png' width = '100%;'>","null","","","","","","","","","",""
"","html-keyboard-response","218","658264","0.0-10.0-3.7","vrpt424exj","many_one","0","indirect_first","0","ER08ER04","0","21","1","1","3","1","","0","1","0","603.4700000891462","","","<img src = 'targets/mask.png' width = '100%;'>","75","pos","GS","abstract","3","category3/wang.png","targets/42.png","1","indirect","31",""
"","html-keyboard-response","219","659779","0.0-10.0-0.8","vrpt424exj","many_one","0","indirect_first","0","ER08ER04","0","21","1","1","3","1","","0","1","0","null","","","<div style=""font-size:60px;"">+</div>","null","","","","","","","","","",""
"","html-keyboard-response","220","659887","0.0-10.0-1.8","vrpt424exj","many_one","0","indirect_first","0","ER08ER04","0","21","1","1","3","1","","0","1","0","null","","","<img src = 'category2/CS8.png' width = '100%;'>","null","","","","","","","","","",""
"","html-keyboard-response","221","660140","0.0-10.0-2.8","vrpt424exj","many_one","0","indirect_first","0","ER08ER04","0","21","1","1","3","1","","0","1","0","null","","","<img src = 'targets/13.png' width = '100%;'>","null","","","","","","","","","",""
"","html-keyboard-response","222","660542","0.0-10.0-3.8","vrpt424exj","many_one","0","indirect_first","0","ER08ER04","0","21","1","1","3","1","","0","1","0","399.9700000276789","","","<img src = 'targets/mask.png' width = '100%;'>","68","neg","GS","GSold","2","category2/CS8.png","targets/13.png","0","indirect","32",""
"","html-keyboard-response","223","662054","0.0-10.0-0.9","vrpt424exj","many_one","0","indirect_first","0","ER08ER04","0","21","1","1","3","1","","0","1","0","null","","","<div style=""font-size:60px;"">+</div>","null","","","","","","","","","",""
"","html-keyboard-response","224","662147","0.0-10.0-1.9","vrpt424exj","many_one","0","indirect_first","0","ER08ER04","0","21","1","1","3","1","","0","1","0","null","","","<img src = 'category4/GS2.png' width = '100%;'>","null","","","","","","","","","",""
"","html-keyboard-response","225","662410","0.0-10.0-2.9","vrpt424exj","many_one","0","indirect_first","0","ER08ER04","0","21","1","1","3","1","","0","1","0","null","","","<img src = 'targets/8.png' width = '100%;'>","null","","","","","","","","","",""
"","html-keyboard-response","226","663284","0.0-10.0-3.9","vrpt424exj","many_one","0","indirect_first","0","ER08ER04","0","21","1","1","3","1","","0","1","0","870.9800000069663","","","<img src = 'targets/mask.png' width = '100%;'>","75","neg","GS","GSnew","4","category4/GS2.png","targets/8.png","1","indirect","33",""
"","html-keyboard-response","227","664802","0.0-10.0-0.10","vrpt424exj","many_one","0","indirect_first","0","ER08ER04","0","21","1","1","3","1","","0","1","0","null","","","<div style=""font-size:60px;"">+</div>","null","","","","","","","","","",""
"","html-keyboard-response","228","664896","0.0-10.0-1.10","vrpt424exj","many_one","0","indirect_first","0","ER08ER04","0","21","1","1","3","1","","0","1","0","null","","","<img src = 'category3/GS3.png' width = '100%;'>","null","","","","","","","","","",""
"","html-keyboard-response","229","665175","0.0-10.0-2.10","vrpt424exj","many_one","0","indirect_first","0","ER08ER04","0","21","1","1","3","1","","0","1","0","null","","","<img src = 'targets/5.png' width = '100%;'>","null","","","","","","","","","",""
"","html-keyboard-response","230","665497","0.0-10.0-3.10","vrpt424exj","many_one","0","indirect_first","0","ER08ER04","0","21","1","1","3","1","","0","1","0","321.2350000394508","","","<img src = 'targets/mask.png' width = '100%;'>","75","pos","GS","GSnew","3","category3/GS3.png","targets/5.png","1","indirect","34",""
"","html-keyboard-response","231","667017","0.0-10.0-0.11","vrpt424exj","many_one","0","indirect_first","0","ER08ER04","0","21","1","1","3","1","","0","1","0","null","","","<div style=""font-size:60px;"">+</div>","null","","","","","","","","","",""
"","html-keyboard-response","232","667109","0.0-10.0-1.11","vrpt424exj","many_one","0","indirect_first","0","ER08ER04","0","21","1","1","3","1","","0","1","0","null","","","<img src = 'category1/GS2.png' width = '100%;'>","null","","","","","","","","","",""
"","html-keyboard-response","233","667388","0.0-10.0-2.11","vrpt424exj","many_one","0","indirect_first","0","ER08ER04","0","21","1","1","3","1","","0","1","0","null","","","<img src = 'targets/43.png' width = '100%;'>","null","","","","","","","","","",""
"","html-keyboard-response","234","667867","0.0-10.0-3.11","vrpt424exj","many_one","0","indirect_first","0","ER08ER04","0","21","1","1","3","1","","0","1","0","476.0199999436736","","","<img src = 'targets/mask.png' width = '100%;'>","75","pos","GS","GSnew","1","category1/GS2.png","targets/43.png","1","indirect","35",""
"","html-keyboard-response","235","669383","0.0-10.0-0.12","vrpt424exj","many_one","0","indirect_first","0","ER08ER04","0","21","1","1","3","1","","0","1","0","null","","","<div style=""font-size:60px;"">+</div>","null","","","","","","","","","",""
"","html-keyboard-response","236","669475","0.0-10.0-1.12","vrpt424exj","many_one","0","indirect_first","0","ER08ER04","0","21","1","1","3","1","","0","1","0","null","","","<img src = 'category3/GS1.png' width = '100%;'>","null","","","","","","","","","",""
"","html-keyboard-response","237","669741","0.0-10.0-2.12","vrpt424exj","many_one","0","indirect_first","0","ER08ER04","0","21","1","1","3","1","","0","1","0","null","","","<img src = 'targets/40.png' width = '100%;'>","null","","","","","","","","","",""
"","html-keyboard-response","238","670311","0.0-10.0-3.12","vrpt424exj","many_one","0","indirect_first","0","ER08ER04","0","21","1","1","3","1","","0","1","0","567.8700000280514","","","<img src = 'targets/mask.png' width = '100%;'>","75","pos","GS","GSnew","3","category3/GS1.png","targets/40.png","1","indirect","36",""
"","html-keyboard-response","239","671824","0.0-10.0-0.13","vrpt424exj","many_one","0","indirect_first","0","ER08ER04","0","21","1","1","3","1","","0","1","0","null","","","<div style=""font-size:60px;"">+</div>","null","","","","","","","","","",""
"","html-keyboard-response","240","671922","0.0-10.0-1.13","vrpt424exj","many_one","0","indirect_first","0","ER08ER04","0","21","1","1","3","1","","0","1","0","null","","","<img src = 'category4/lin.png' width = '100%;'>","null","","","","","","","","","",""
"","html-keyboard-response","241","672188","0.0-10.0-2.13","vrpt424exj","many_one","0","indirect_first","0","ER08ER04","0","21","1","1","3","1","","0","1","0","null","","","<img src = 'targets/16.png' width = '100%;'>","null","","","","","","","","","",""
"","html-keyboard-response","242","673417","0.0-10.0-3.13","vrpt424exj","many_one","0","indirect_first","0","ER08ER04","0","21","1","1","3","1","","0","1","0","1226.9300000043586","","","<img src = 'targets/mask.png' width = '100%;'>","68","neg","GS","abstract","4","category4/lin.png","targets/16.png","0","indirect","37",""
"","html-keyboard-response","243","674928","0.0-10.0-0.14","vrpt424exj","many_one","0","indirect_first","0","ER08ER04","0","21","1","1","3","1","","0","1","0","null","","","<div style=""font-size:60px;"">+</div>","null","","","","","","","","","",""
"","html-keyboard-response","244","675022","0.0-10.0-1.14","vrpt424exj","many_one","0","indirect_first","0","ER08ER04","0","21","1","1","3","1","","0","1","0","null","","","<img src = 'category1/CS4.png' width = '100%;'>","null","","","","","","","","","",""
"","html-keyboard-response","245","675299","0.0-10.0-2.14","vrpt424exj","many_one","0","indirect_first","0","ER08ER04","0","21","1","1","3","1","","0","1","0","null","","","<img src = 'targets/47.png' width = '100%;'>","null","","","","","","","","","",""
"","html-keyboard-response","246","676393","0.0-10.0-3.14","vrpt424exj","many_one","0","indirect_first","0","ER08ER04","0","21","1","1","3","1","","0","1","0","1090.7950000837445","","","<img src = 'targets/mask.png' width = '100%;'>","75","pos","GS","GSold","1","category1/CS4.png","targets/47.png","1","indirect","38",""
"","html-keyboard-response","247","677910","0.0-10.0-0.15","vrpt424exj","many_one","0","indirect_first","0","ER08ER04","0","21","1","1","3","1","","0","1","0","null","","","<div style=""font-size:60px;"">+</div>","null","","","","","","","","","",""
"","html-keyboard-response","248","678018","0.0-10.0-1.15","vrpt424exj","many_one","0","indirect_first","0","ER08ER04","0","21","1","1","3","1","","0","1","0","null","","","<img src = 'category2/GS2.png' width = '100%;'>","null","","","","","","","","","",""
"","html-keyboard-response","249","678297","0.0-10.0-2.15","vrpt424exj","many_one","0","indirect_first","0","ER08ER04","0","21","1","1","3","1","","0","1","0","null","","","<img src = 'targets/3.png' width = '100%;'>","null","","","","","","","","","",""
"","html-keyboard-response","250","679034","0.0-10.0-3.15","vrpt424exj","many_one","0","indirect_first","0","ER08ER04","0","21","1","1","3","1","","0","1","0","734.3300000065938","","","<img src = 'targets/mask.png' width = '100%;'>","75","neg","GS","GSnew","2","category2/GS2.png","targets/3.png","1","indirect","39",""
"","html-keyboard-response","251","680541","0.0-10.0-0.16","vrpt424exj","many_one","0","indirect_first","0","ER08ER04","0","21","1","1","3","1","","0","1","0","null","","","<div style=""font-size:60px;"">+</div>","null","","","","","","","","","",""
"","html-keyboard-response","252","680634","0.0-10.0-1.16","vrpt424exj","many_one","0","indirect_first","0","ER08ER04","0","21","1","1","3","1","","0","1","0","null","","","<img src = 'category2/men.png' width = '100%;'>","null","","","","","","","","","",""
"","html-keyboard-response","253","680898","0.0-10.0-2.16","vrpt424exj","many_one","0","indirect_first","0","ER08ER04","0","21","1","1","3","1","","0","1","0","null","","","<img src = 'targets/28.png' width = '100%;'>","null","","","","","","","","","",""
"","html-keyboard-response","254","684071","0.0-10.0-3.16","vrpt424exj","many_one","0","indirect_first","0","ER08ER04","0","21","1","1","3","1","","0","1","0","3171.470000059344","","","<img src = 'targets/mask.png' width = '100%;'>","75","neg","GS","abstract","2","category2/men.png","targets/28.png","1","indirect","40",""
"","html-keyboard-response","255","685584","0.0-10.0-0.17","vrpt424exj","many_one","0","indirect_first","0","ER08ER04","0","21","1","1","3","1","","0","1","0","null","","","<div style=""font-size:60px;"">+</div>","null","","","","","","","","","",""
"","html-keyboard-response","256","685678","0.0-10.0-1.17","vrpt424exj","many_one","0","indirect_first","0","ER08ER04","0","21","1","1","3","1","","0","1","0","null","","","<img src = 'category1/CS5.png' width = '100%;'>","null","","","","","","","","","",""
"","html-keyboard-response","257","685943","0.0-10.0-2.17","vrpt424exj","many_one","0","indirect_first","0","ER08ER04","0","21","1","1","3","1","","0","1","0","null","","","<img src = 'targets/46.png' width = '100%;'>","null","","","","","","","","","",""
"","html-keyboard-response","258","686570","0.0-10.0-3.17","vrpt424exj","many_one","0","indirect_first","0","ER08ER04","0","21","1","1","3","1","","0","1","0","623.7500000279397","","","<img src = 'targets/mask.png' width = '100%;'>","75","pos","GS","GSold","1","category1/CS5.png","targets/46.png","1","indirect","41",""
"","html-keyboard-response","259","688075","0.0-10.0-0.18","vrpt424exj","many_one","0","indirect_first","0","ER08ER04","0","21","1","1","3","1","","0","1","0","null","","","<div style=""font-size:60px;"">+</div>","null","","","","","","","","","",""
"","html-keyboard-response","260","688168","0.0-10.0-1.18","vrpt424exj","many_one","0","indirect_first","0","ER08ER04","0","21","1","1","3","1","","0","1","0","null","","","<img src = 'category2/CS3.png' width = '100%;'>","null","","","","","","","","","",""
"","html-keyboard-response","261","688446","0.0-10.0-2.18","vrpt424exj","many_one","0","indirect_first","0","ER08ER04","0","21","1","1","3","1","","0","1","0","null","","","<img src = 'targets/44.png' width = '100%;'>","null","","","","","","","","","",""
"","html-keyboard-response","262","688766","0.0-10.0-3.18","vrpt424exj","many_one","0","indirect_first","0","ER08ER04","0","21","1","1","3","1","","0","1","0","316.87500001862645","","","<img src = 'targets/mask.png' width = '100%;'>","68","neg","GS","GSold","2","category2/CS3.png","targets/44.png","0","indirect","42",""
"","html-keyboard-response","263","690277","0.0-10.0-0.19","vrpt424exj","many_one","0","indirect_first","0","ER08ER04","0","21","1","1","3","1","","0","1","0","null","","","<div style=""font-size:60px;"">+</div>","null","","","","","","","","","",""
"","html-keyboard-response","264","690370","0.0-10.0-1.19","vrpt424exj","many_one","0","indirect_first","0","ER08ER04","0","21","1","1","3","1","","0","1","0","null","","","<img src = 'category3/CS10.png' width = '100%;'>","null","","","","","","","","","",""
"","html-keyboard-response","265","690649","0.0-10.0-2.19","vrpt424exj","many_one","0","indirect_first","0","ER08ER04","0","21","1","1","3","1","","0","1","0","null","","","<img src = 'targets/20.png' width = '100%;'>","null","","","","","","","","","",""
"","html-keyboard-response","266","691002","0.0-10.0-3.19","vrpt424exj","many_one","0","indirect_first","0","ER08ER04","0","21","1","1","3","1","","0","1","0","350.80500005278736","","","<img src = 'targets/mask.png' width = '100%;'>","75","pos","GS","GSold","3","category3/CS10.png","targets/20.png","1","indirect","43",""
"","html-keyboard-response","267","692521","0.0-10.0-0.20","vrpt424exj","many_one","0","indirect_first","0","ER08ER04","0","21","1","1","3","1","","0","1","0","null","","","<div style=""font-size:60px;"">+</div>","null","","","","","","","","","",""
"","html-keyboard-response","268","692614","0.0-10.0-1.20","vrpt424exj","many_one","0","indirect_first","0","ER08ER04","0","21","1","1","3","1","","0","1","0","null","","","<img src = 'category1/GS3.png' width = '100%;'>","null","","","","","","","","","",""
"","html-keyboard-response","269","692880","0.0-10.0-2.20","vrpt424exj","many_one","0","indirect_first","0","ER08ER04","0","21","1","1","3","1","","0","1","0","null","","","<img src = 'targets/41.png' width = '100%;'>","null","","","","","","","","","",""
"","html-keyboard-response","270","693462","0.0-10.0-3.20","vrpt424exj","many_one","0","indirect_first","0","ER08ER04","0","21","1","1","3","1","","0","1","0","579.9800000386313","","","<img src = 'targets/mask.png' width = '100%;'>","75","pos","GS","GSnew","1","category1/GS3.png","targets/41.png","1","indirect","44",""
"","html-keyboard-response","271","694973","0.0-10.0-0.21","vrpt424exj","many_one","0","indirect_first","0","ER08ER04","0","21","1","1","3","1","","0","1","0","null","","","<div style=""font-size:60px;"">+</div>","null","","","","","","","","","",""
"","html-keyboard-response","272","695067","0.0-10.0-1.21","vrpt424exj","many_one","0","indirect_first","0","ER08ER04","0","21","1","1","3","1","","0","1","0","null","","","<img src = 'category3/CS6.png' width = '100%;'>","null","","","","","","","","","",""
"","html-keyboard-response","273","695347","0.0-10.0-2.21","vrpt424exj","many_one","0","indirect_first","0","ER08ER04","0","21","1","1","3","1","","0","1","0","null","","","<img src = 'targets/14.png' width = '100%;'>","null","","","","","","","","","",""
"","html-keyboard-response","274","695792","0.0-10.0-3.21","vrpt424exj","many_one","0","indirect_first","0","ER08ER04","0","21","1","1","3","1","","0","1","0","442.86499998997897","","","<img src = 'targets/mask.png' width = '100%;'>","75","pos","GS","GSold","3","category3/CS6.png","targets/14.png","1","indirect","45",""
"","html-keyboard-response","275","697311","0.0-10.0-0.22","vrpt424exj","many_one","0","indirect_first","0","ER08ER04","0","21","1","1","3","1","","0","1","0","null","","","<div style=""font-size:60px;"">+</div>","null","","","","","","","","","",""
"","html-keyboard-response","276","697404","0.0-10.0-1.22","vrpt424exj","many_one","0","indirect_first","0","ER08ER04","0","21","1","1","3","1","","0","1","0","null","","","<img src = 'category4/GS3.png' width = '100%;'>","null","","","","","","","","","",""
"","html-keyboard-response","277","697684","0.0-10.0-2.22","vrpt424exj","many_one","0","indirect_first","0","ER08ER04","0","21","1","1","3","1","","0","1","0","null","","","<img src = 'targets/29.png' width = '100%;'>","null","","","","","","","","","",""
"","html-keyboard-response","278","698402","0.0-10.0-3.22","vrpt424exj","many_one","0","indirect_first","0","ER08ER04","0","21","1","1","3","1","","0","1","0","715.1850000955164","","","<img src = 'targets/mask.png' width = '100%;'>","68","neg","GS","GSnew","4","category4/GS3.png","targets/29.png","0","indirect","46",""
"","html-keyboard-response","279","699912","0.0-10.0-0.23","vrpt424exj","many_one","0","indirect_first","0","ER08ER04","0","21","1","1","3","1","","0","1","0","null","","","<div style=""font-size:60px;"">+</div>","null","","","","","","","","","",""
"","html-keyboard-response","280","700004","0.0-10.0-1.23","vrpt424exj","many_one","0","indirect_first","0","ER08ER04","0","21","1","1","3","1","","0","1","0","null","","","<img src = 'category1/GS1.png' width = '100%;'>","null","","","","","","","","","",""
"","html-keyboard-response","281","700283","0.0-10.0-2.23","vrpt424exj","many_one","0","indirect_first","0","ER08ER04","0","21","1","1","3","1","","0","1","0","null","","","<img src = 'targets/21.png' width = '100%;'>","null","","","","","","","","","",""
"","html-keyboard-response","282","700938","0.0-10.0-3.23","vrpt424exj","many_one","0","indirect_first","0","ER08ER04","0","21","1","1","3","1","","0","1","0","652.7400000486523","","","<img src = 'targets/mask.png' width = '100%;'>","75","pos","GS","GSnew","1","category1/GS1.png","targets/21.png","1","indirect","47",""
"","survey-html-form","283","709280","0.0-11.0","vrpt424exj","many_one","0","indirect_first","0","ER08ER04","0","21","1","1","3","1","","0","1","0","7837.954999995418","","{}","","","","","","","","","","","",""
"","image-slider-response","284","718224","0.0-12.0-0.0","vrpt424exj","many_one","0","indirect_first","0","ER08ER04","0","21","1","1","3","1","","0","1","0","6928.715000045486","","","","","pos","CS","CS","3","category3/CS8.png","targets/27.png","","direct","","29"
"","image-slider-response","285","724047","0.0-12.0-0.1","vrpt424exj","many_one","0","indirect_first","0","ER08ER04","0","21","1","1","3","1","","0","1","0","5819.404999958351","","","","","neg","CS","CS","4","category4/CS8.png","targets/48.png","","direct","","-44"
"","image-slider-response","286","729273","0.0-12.0-0.2","vrpt424exj","many_one","0","indirect_first","0","ER08ER04","0","21","1","1","3","1","","0","1","0","5222.260000067763","","","","","pos","GS","GSold","1","category1/CS5.png","targets/46.png","","direct","","41"
"","image-slider-response","287","735364","0.0-12.0-0.3","vrpt424exj","many_one","0","indirect_first","0","ER08ER04","0","21","1","1","3","1","","0","1","0","6087.7699999837205","","","","","neg","CS","CS","4","category4/CS1.png","targets/10.png","","direct","","-84"
"","image-slider-response","288","740083","0.0-12.0-0.4","vrpt424exj","many_one","0","indirect_first","0","ER08ER04","0","21","1","1","3","1","","0","1","0","4715.094999992289","","","","","neg","CS","CS","4","category4/CS6.png","targets/26.png","","direct","","-31"
"","image-slider-response","289","743024","0.0-12.0-0.5","vrpt424exj","many_one","0","indirect_first","0","ER08ER04","0","21","1","1","3","1","","0","1","0","2937.2099998872727","","","","","pos","CS","CS","1","category1/CS10.png","targets/32.png","","direct","","50"
"","image-slider-response","290","752021","0.0-12.0-0.6","vrpt424exj","many_one","0","indirect_first","0","ER08ER04","0","21","1","1","3","1","","0","1","0","8994.484999915585","","","","","neg","GS","GSnew","4","category4/GS3.png","targets/29.png","","direct","","-46"
"","image-slider-response","291","755958","0.0-12.0-0.7","vrpt424exj","many_one","0","indirect_first","0","ER08ER04","0","21","1","1","3","1","","0","1","0","3933.904999983497","","","","","neg","GS","abstract","2","category2/men.png","targets/28.png","","direct","","-2"
"","image-slider-response","292","758612","0.0-12.0-0.8","vrpt424exj","many_one","0","indirect_first","0","ER08ER04","0","21","1","1","3","1","","0","1","0","2651.7100000055507","","","","","neg","CS","CS","4","category4/CS9.png","targets/17.png","","direct","","-26"
"","image-slider-response","293","763678","0.0-12.0-0.9","vrpt424exj","many_one","0","indirect_first","0","ER08ER04","0","21","1","1","3","1","","0","1","0","5063.064999994822","","","","","neg","GS","GSold","2","category2/CS3.png","targets/44.png","","direct","","-17"
"","image-slider-response","294","766011","0.0-12.0-0.10","vrpt424exj","many_one","0","indirect_first","0","ER08ER04","0","21","1","1","3","1","","0","1","0","2329.6449999324977","","","","","neg","CS","CS","2","category2/CS1.png","targets/12.png","","direct","","-3"
"","image-slider-response","295","769861","0.0-12.0-0.11","vrpt424exj","many_one","0","indirect_first","0","ER08ER04","0","21","1","1","3","1","","0","1","0","3847.554999985732","","","","","neg","GS","GSnew","4","category4/GS2.png","targets/8.png","","direct","","-34"
"","image-slider-response","296","773618","0.0-12.0-0.12","vrpt424exj","many_one","0","indirect_first","0","ER08ER04","0","21","1","1","3","1","","0","1","0","3754.5300000347197","","","","","neg","GS","GSold","4","category4/CS7.png","targets/30.png","","direct","","-17"
"","image-slider-response","297","777269","0.0-12.0-0.13","vrpt424exj","many_one","0","indirect_first","0","ER08ER04","0","21","1","1","3","1","","0","1","0","3647.319999989122","","","","","neg","CS","CS","2","category2/CS6.png","targets/1.png","","direct","","-16"
"","image-slider-response","298","779937","0.0-12.0-0.14","vrpt424exj","many_one","0","indirect_first","0","ER08ER04","0","21","1","1","3","1","","0","1","0","2665.694999974221","","","","","neg","CS","CS","2","category2/CS7.png","targets/33.png","","direct","","-5"
"","image-slider-response","299","783321","0.0-12.0-0.15","vrpt424exj","many_one","0","indirect_first","0","ER08ER04","0","21","1","1","3","1","","0","1","0","3380.0000000046566","","","","","pos","GS","GSold","1","category1/CS1.png","targets/31.png","","direct","","-12"
"","image-slider-response","300","787294","0.0-12.0-0.16","vrpt424exj","many_one","0","indirect_first","0","ER08ER04","0","21","1","1","3","1","","0","1","0","3969.4199999794364","","","","","pos","CS","CS","1","category1/CS6.png","targets/22.png","","direct","","16"
"","image-slider-response","301","790584","0.0-12.0-0.17","vrpt424exj","many_one","0","indirect_first","0","ER08ER04","0","21","1","1","3","1","","0","1","0","3286.6200000280514","","","","","pos","GS","GSold","3","category3/CS6.png","targets/14.png","","direct","","22"
"","image-slider-response","302","796670","0.0-12.0-0.18","vrpt424exj","many_one","0","indirect_first","0","ER08ER04","0","21","1","1","3","1","","0","1","0","6083.504999987781","","","","","neg","GS","GSold","2","category2/CS9.png","targets/35.png","","direct","","-25"
"","image-slider-response","303","799716","0.0-12.0-0.19","vrpt424exj","many_one","0","indirect_first","0","ER08ER04","0","21","1","1","3","1","","0","1","0","3043.070000014268","","","","","neg","GS","GSnew","2","category2/GS3.png","targets/4.png","","direct","","29"
"","image-slider-response","304","806391","0.0-12.0-0.20","vrpt424exj","many_one","0","indirect_first","0","ER08ER04","0","21","1","1","3","1","","0","1","0","6672.090000007302","","","","","neg","CS","CS","2","category2/CS5.png","targets/45.png","","direct","","-9"
"","image-slider-response","305","812358","0.0-12.0-0.21","vrpt424exj","many_one","0","indirect_first","0","ER08ER04","0","21","1","1","3","1","","0","1","0","5963.149999966845","","","","","pos","CS","CS","3","category3/CS3.png","targets/19.png","","direct","","75"
"","image-slider-response","306","815135","0.0-12.0-0.22","vrpt424exj","many_one","0","indirect_first","0","ER08ER04","0","21","1","1","3","1","","0","1","0","2774.169999989681","","","","","pos","GS","GSnew","1","category1/GS2.png","targets/43.png","","direct","","23"
"","image-slider-response","307","817809","0.0-12.0-0.23","vrpt424exj","many_one","0","indirect_first","0","ER08ER04","0","21","1","1","3","1","","0","1","0","2670.825000037439","","","","","neg","GS","GSnew","4","category4/GS1.png","targets/18.png","","direct","","-30"
"","image-slider-response","308","820090","0.0-12.0-0.24","vrpt424exj","many_one","0","indirect_first","0","ER08ER04","0","21","1","1","3","1","","0","1","0","2278.52999989409","","","","","pos","GS","GSold","3","category3/CS1.png","targets/11.png","","direct","","28"
"","image-slider-response","309","822375","0.0-12.0-0.25","vrpt424exj","many_one","0","indirect_first","0","ER08ER04","0","21","1","1","3","1","","0","1","0","2282.975000096485","","","","","pos","GS","GSnew","3","category3/GS3.png","targets/5.png","","direct","","24"
"","image-slider-response","310","825140","0.0-12.0-0.26","vrpt424exj","many_one","0","indirect_first","0","ER08ER04","0","21","1","1","3","1","","0","1","0","2762.8399999812245","","","","","pos","GS","abstract","1","category1/ma.png","targets/23.png","","direct","","25"
"","image-slider-response","311","829374","0.0-12.0-0.27","vrpt424exj","many_one","0","indirect_first","0","ER08ER04","0","21","1","1","3","1","","0","1","0","4231.205000076443","","","","","pos","GS","GSnew","3","category3/GS1.png","targets/40.png","","direct","","23"
"","image-slider-response","312","833504","0.0-12.0-0.28","vrpt424exj","many_one","0","indirect_first","0","ER08ER04","0","21","1","1","3","1","","0","1","0","4127.055000048131","","","","","neg","GS","GSnew","2","category2/GS2.png","targets/3.png","","direct","","-4"
"","image-slider-response","313","836546","0.0-12.0-0.29","vrpt424exj","many_one","0","indirect_first","0","ER08ER04","0","21","1","1","3","1","","0","1","0","3038.7249999912456","","","","","neg","GS","GSnew","2","category2/GS1.png","targets/6.png","","direct","","-19"
"","image-slider-response","314","840300","0.0-12.0-0.30","vrpt424exj","many_one","0","indirect_first","0","ER08ER04","0","21","1","1","3","1","","0","1","0","3751.0550000006333","","","","","pos","GS","GSold","3","category3/CS10.png","targets/20.png","","direct","","-4"
"","image-slider-response","315","843113","0.0-12.0-0.31","vrpt424exj","many_one","0","indirect_first","0","ER08ER04","0","21","1","1","3","1","","0","1","0","2810.4599999496713","","","","","pos","CS","CS","1","category1/CS9.png","targets/9.png","","direct","","30"
"","image-slider-response","316","847027","0.0-12.0-0.32","vrpt424exj","many_one","0","indirect_first","0","ER08ER04","0","21","1","1","3","1","","0","1","0","3909.9350000033155","","","","","pos","CS","CS","3","category3/CS7.png","targets/7.png","","direct","","38"
"","image-slider-response","317","850288","0.0-12.0-0.33","vrpt424exj","many_one","0","indirect_first","0","ER08ER04","0","21","1","1","3","1","","0","1","0","3257.689999998547","","","","","neg","GS","GSold","4","category4/CS4.png","targets/37.png","","direct","","-40"
"","image-slider-response","318","856732","0.0-12.0-0.34","vrpt424exj","many_one","0","indirect_first","0","ER08ER04","0","21","1","1","3","1","","0","1","0","6441.5599999483675","","","","","pos","GS","GSnew","3","category3/GS2.png","targets/36.png","","direct","","24"
"","image-slider-response","319","860561","0.0-12.0-0.35","vrpt424exj","many_one","0","indirect_first","0","ER08ER04","0","21","1","1","3","1","","0","1","0","3825.2849999116734","","","","","pos","CS","CS","1","category1/CS3.png","targets/38.png","","direct","","22"
"","image-slider-response","320","864860","0.0-12.0-0.36","vrpt424exj","many_one","0","indirect_first","0","ER08ER04","0","21","1","1","3","1","","0","1","0","4296.24000005424","","","","","pos","GS","GSnew","1","category1/GS3.png","targets/41.png","","direct","","20"
"","image-slider-response","321","866780","0.0-12.0-0.37","vrpt424exj","many_one","0","indirect_first","0","ER08ER04","0","21","1","1","3","1","","0","1","0","1916.6800000239164","","","","","pos","CS","CS","3","category3/CS5.png","targets/15.png","","direct","","20"
"","image-slider-response","322","869257","0.0-12.0-0.38","vrpt424exj","many_one","0","indirect_first","0","ER08ER04","0","21","1","1","3","1","","0","1","0","2475.689999992028","","","","","pos","CS","CS","3","category3/CS2.png","targets/34.png","","direct","","27"
"","image-slider-response","323","873155","0.0-12.0-0.39","vrpt424exj","many_one","0","indirect_first","0","ER08ER04","0","21","1","1","3","1","","0","1","0","3895.4899999080226","","","","","pos","GS","GSold","1","category1/CS4.png","targets/47.png","","direct","","-9"
"","image-slider-response","324","875973","0.0-12.0-0.40","vrpt424exj","many_one","0","indirect_first","0","ER08ER04","0","21","1","1","3","1","","0","1","0","2815.3150000143796","","","","","pos","GS","GSnew","1","category1/GS1.png","targets/21.png","","direct","","9"
