"success","trial_type","trial_index","time_elapsed","internal_node_id","subject","condition","condition_code","measure","measure_code","codeword","gender","age","education","chinese","fach","handedness","comment","hinschauen","ablenkung","gewissenhaft","rt","url","responses","stimulus","key_press","val","type","type_specific","category","cs_selected","target","indirect","task","nr_pres","response"
"true","fullscreen","0","3091","0.0-0.0","h085msm1gk","one_one","1","indirect_first","0","NK04IM21","0","25","2","1","3","1","","0","1","0","","","","","","","","","","","","","","",""
"","external-html","1","7815","0.0-1.0","h085msm1gk","one_one","1","indirect_first","0","NK04IM21","0","25","2","1","3","1","","0","1","0","4624","text/information.html","","","","","","","","","","","","",""
"","external-html","2","18251","0.0-2.0","h085msm1gk","one_one","1","indirect_first","0","NK04IM21","0","25","2","1","3","1","","0","1","0","10386","text/consent.html","","","","","","","","","","","","",""
"","survey-html-form","3","45930","0.0-3.0","h085msm1gk","one_one","1","indirect_first","0","NK04IM21","0","25","2","1","3","1","","0","1","0","27675.000000000007","","{""codeword_enter"":""NK04IM21""}","","","","","","","","","","","",""
"","survey-html-form","4","65049","0.0-4.0","h085msm1gk","one_one","1","indirect_first","0","NK04IM21","0","25","2","1","3","1","","0","1","0","19116","","{""age"":""25"",""education"":""2"",""subject"":""3"",""gender"":""0"",""handedness"":""1"",""chinese"":""1""}","","","","","","","","","","","",""
"","survey-html-form","5","66885","0.0-5.0","h085msm1gk","one_one","1","indirect_first","0","NK04IM21","0","25","2","1","3","1","","0","1","0","1835.0000000000073","","{}","","","","","","","","","","","",""
"","html-keyboard-response","6","70891","0.0-6.0-0.0-0.0","h085msm1gk","one_one","1","indirect_first","0","NK04IM21","0","25","2","1","3","1","","0","1","0","null","","","<div class = 'row'><div class = 'column'><img src = 'usneg/2900.bmp' width = '100%;'></div><div class = 'column'><img src = 'category2/CS4.png' width = '70%;'></div></div>","null","neg","CS","CS","2","category2/CS4.png","","","","",""
"","html-keyboard-response","7","73395","0.0-6.0-0.0-0.1","h085msm1gk","one_one","1","indirect_first","0","NK04IM21","0","25","2","1","3","1","","0","1","0","null","","","<div class = 'row'><div class = 'column'><img src = 'category3/CS9.png' width = '70%;'></div><div class = 'column'><img src = 'usneg/2205.bmp' width = '100%;'></div></div>","null","neg","CS","CS","3","category3/CS9.png","","","","",""
"","html-keyboard-response","8","75899","0.0-6.0-0.0-0.2","h085msm1gk","one_one","1","indirect_first","0","NK04IM21","0","25","2","1","3","1","","0","1","0","null","","","<div class = 'row'><div class = 'column'><img src = 'category4/CS9.png' width = '70%;'></div><div class = 'column'><img src = 'uspos/8190.bmp' width = '100%;'></div></div>","null","pos","CS","CS","4","category4/CS9.png","","","","",""
"","html-keyboard-response","9","78403","0.0-6.0-0.0-0.3","h085msm1gk","one_one","1","indirect_first","0","NK04IM21","0","25","2","1","3","1","","0","1","0","null","","","<div class = 'row'><div class = 'column'><img src = 'category2/CS4.png' width = '70%;'></div><div class = 'column'><img src = 'usneg/2900.bmp' width = '100%;'></div></div>","null","neg","CS","CS","2","category2/CS4.png","","","","",""
"","html-keyboard-response","10","80907","0.0-6.0-0.0-0.4","h085msm1gk","one_one","1","indirect_first","0","NK04IM21","0","25","2","1","3","1","","0","1","0","null","","","<div class = 'row'><div class = 'column'><img src = 'category1/CS7.png' width = '70%;'></div><div class = 'column'><img src = 'uspos/1710.bmp' width = '100%;'></div></div>","null","pos","CS","CS","1","category1/CS7.png","","","","",""
"","html-keyboard-response","11","83413","0.0-6.0-0.0-0.5","h085msm1gk","one_one","1","indirect_first","0","NK04IM21","0","25","2","1","3","1","","0","1","0","null","","","<div class = 'row'><div class = 'column'><img src = 'category4/CS9.png' width = '70%;'></div><div class = 'column'><img src = 'uspos/8190.bmp' width = '100%;'></div></div>","null","pos","CS","CS","4","category4/CS9.png","","","","",""
"","html-keyboard-response","12","85917","0.0-6.0-0.0-0.6","h085msm1gk","one_one","1","indirect_first","0","NK04IM21","0","25","2","1","3","1","","0","1","0","null","","","<div class = 'row'><div class = 'column'><img src = 'category2/CS4.png' width = '70%;'></div><div class = 'column'><img src = 'usneg/2900.bmp' width = '100%;'></div></div>","null","neg","CS","CS","2","category2/CS4.png","","","","",""
"","html-keyboard-response","13","88421","0.0-6.0-0.0-0.7","h085msm1gk","one_one","1","indirect_first","0","NK04IM21","0","25","2","1","3","1","","0","1","0","null","","","<div class = 'row'><div class = 'column'><img src = 'category1/CS7.png' width = '70%;'></div><div class = 'column'><img src = 'uspos/1710.bmp' width = '100%;'></div></div>","null","pos","CS","CS","1","category1/CS7.png","","","","",""
"","html-keyboard-response","14","90925","0.0-6.0-0.0-0.8","h085msm1gk","one_one","1","indirect_first","0","NK04IM21","0","25","2","1","3","1","","0","1","0","null","","","<div class = 'row'><div class = 'column'><img src = 'uspos/8190.bmp' width = '100%;'></div><div class = 'column'><img src = 'category4/CS9.png' width = '70%;'></div></div>","null","pos","CS","CS","4","category4/CS9.png","","","","",""
"","html-keyboard-response","15","93429","0.0-6.0-0.0-0.9","h085msm1gk","one_one","1","indirect_first","0","NK04IM21","0","25","2","1","3","1","","0","1","0","null","","","<div class = 'row'><div class = 'column'><img src = 'usneg/2205.bmp' width = '100%;'></div><div class = 'column'><img src = 'category3/CS9.png' width = '70%;'></div></div>","null","neg","CS","CS","3","category3/CS9.png","","","","",""
"","html-keyboard-response","16","95933","0.0-6.0-0.0-0.10","h085msm1gk","one_one","1","indirect_first","0","NK04IM21","0","25","2","1","3","1","","0","1","0","null","","","<div class = 'row'><div class = 'column'><img src = 'uspos/1710.bmp' width = '100%;'></div><div class = 'column'><img src = 'category1/CS7.png' width = '70%;'></div></div>","null","pos","CS","CS","1","category1/CS7.png","","","","",""
"","html-keyboard-response","17","98437","0.0-6.0-0.0-0.11","h085msm1gk","one_one","1","indirect_first","0","NK04IM21","0","25","2","1","3","1","","0","1","0","null","","","<div class = 'row'><div class = 'column'><img src = 'usneg/2205.bmp' width = '100%;'></div><div class = 'column'><img src = 'category3/CS9.png' width = '70%;'></div></div>","null","neg","CS","CS","3","category3/CS9.png","","","","",""
"","html-keyboard-response","18","100939","0.0-6.0-0.0-0.12","h085msm1gk","one_one","1","indirect_first","0","NK04IM21","0","25","2","1","3","1","","0","1","0","null","","","<div class = 'row'><div class = 'column'><img src = 'category4/CS9.png' width = '70%;'></div><div class = 'column'><img src = 'uspos/8190.bmp' width = '100%;'></div></div>","null","pos","CS","CS","4","category4/CS9.png","","","","",""
"","html-keyboard-response","19","103443","0.0-6.0-0.0-0.13","h085msm1gk","one_one","1","indirect_first","0","NK04IM21","0","25","2","1","3","1","","0","1","0","null","","","<div class = 'row'><div class = 'column'><img src = 'usneg/2205.bmp' width = '100%;'></div><div class = 'column'><img src = 'category3/CS9.png' width = '70%;'></div></div>","null","neg","CS","CS","3","category3/CS9.png","","","","",""
"","html-keyboard-response","20","105946","0.0-6.0-0.0-0.14","h085msm1gk","one_one","1","indirect_first","0","NK04IM21","0","25","2","1","3","1","","0","1","0","null","","","<div class = 'row'><div class = 'column'><img src = 'uspos/8190.bmp' width = '100%;'></div><div class = 'column'><img src = 'category4/CS9.png' width = '70%;'></div></div>","null","pos","CS","CS","4","category4/CS9.png","","","","",""
"","html-keyboard-response","21","108450","0.0-6.0-0.0-0.15","h085msm1gk","one_one","1","indirect_first","0","NK04IM21","0","25","2","1","3","1","","0","1","0","null","","","<div class = 'row'><div class = 'column'><img src = 'category1/CS7.png' width = '70%;'></div><div class = 'column'><img src = 'uspos/1710.bmp' width = '100%;'></div></div>","null","pos","CS","CS","1","category1/CS7.png","","","","",""
"","html-keyboard-response","22","110954","0.0-6.0-0.0-0.16","h085msm1gk","one_one","1","indirect_first","0","NK04IM21","0","25","2","1","3","1","","0","1","0","null","","","<div class = 'row'><div class = 'column'><img src = 'usneg/2900.bmp' width = '100%;'></div><div class = 'column'><img src = 'category2/CS4.png' width = '70%;'></div></div>","null","neg","CS","CS","2","category2/CS4.png","","","","",""
"","html-keyboard-response","23","113458","0.0-6.0-0.0-0.17","h085msm1gk","one_one","1","indirect_first","0","NK04IM21","0","25","2","1","3","1","","0","1","0","null","","","<div class = 'row'><div class = 'column'><img src = 'usneg/2205.bmp' width = '100%;'></div><div class = 'column'><img src = 'category3/CS9.png' width = '70%;'></div></div>","null","neg","CS","CS","3","category3/CS9.png","","","","",""
"","html-keyboard-response","24","115962","0.0-6.0-0.0-0.18","h085msm1gk","one_one","1","indirect_first","0","NK04IM21","0","25","2","1","3","1","","0","1","0","null","","","<div class = 'row'><div class = 'column'><img src = 'uspos/1710.bmp' width = '100%;'></div><div class = 'column'><img src = 'category1/CS7.png' width = '70%;'></div></div>","null","pos","CS","CS","1","category1/CS7.png","","","","",""
"","html-keyboard-response","25","118465","0.0-6.0-0.0-0.19","h085msm1gk","one_one","1","indirect_first","0","NK04IM21","0","25","2","1","3","1","","0","1","0","null","","","<div class = 'row'><div class = 'column'><img src = 'category2/CS4.png' width = '70%;'></div><div class = 'column'><img src = 'usneg/2900.bmp' width = '100%;'></div></div>","null","neg","CS","CS","2","category2/CS4.png","","","","",""
"","survey-html-form","26","139867","0.0-6.0-1.0","h085msm1gk","one_one","1","indirect_first","0","NK04IM21","0","25","2","1","3","1","","0","1","0","20899","","{}","","","","","","","","","","","",""
"","html-keyboard-response","27","143871","0.0-6.0-2.0-0.0","h085msm1gk","one_one","1","indirect_first","0","NK04IM21","0","25","2","1","3","1","","0","1","0","null","","","<div class = 'row'><div class = 'column'><img src = 'category4/CS9.png' width = '70%;'></div><div class = 'column'><img src = 'uspos/8190.bmp' width = '100%;'></div></div>","null","pos","CS","CS","4","category4/CS9.png","","","","",""
"","html-keyboard-response","28","146375","0.0-6.0-2.0-0.1","h085msm1gk","one_one","1","indirect_first","0","NK04IM21","0","25","2","1","3","1","","0","1","0","null","","","<div class = 'row'><div class = 'column'><img src = 'category1/CS7.png' width = '70%;'></div><div class = 'column'><img src = 'uspos/1710.bmp' width = '100%;'></div></div>","null","pos","CS","CS","1","category1/CS7.png","","","","",""
"","html-keyboard-response","29","148879","0.0-6.0-2.0-0.2","h085msm1gk","one_one","1","indirect_first","0","NK04IM21","0","25","2","1","3","1","","0","1","0","null","","","<div class = 'row'><div class = 'column'><img src = 'category2/CS4.png' width = '70%;'></div><div class = 'column'><img src = 'usneg/2900.bmp' width = '100%;'></div></div>","null","neg","CS","CS","2","category2/CS4.png","","","","",""
"","html-keyboard-response","30","151383","0.0-6.0-2.0-0.3","h085msm1gk","one_one","1","indirect_first","0","NK04IM21","0","25","2","1","3","1","","0","1","0","null","","","<div class = 'row'><div class = 'column'><img src = 'category4/CS9.png' width = '70%;'></div><div class = 'column'><img src = 'uspos/8190.bmp' width = '100%;'></div></div>","null","pos","CS","CS","4","category4/CS9.png","","","","",""
"","html-keyboard-response","31","153886","0.0-6.0-2.0-0.4","h085msm1gk","one_one","1","indirect_first","0","NK04IM21","0","25","2","1","3","1","","0","1","0","null","","","<div class = 'row'><div class = 'column'><img src = 'usneg/2205.bmp' width = '100%;'></div><div class = 'column'><img src = 'category3/CS9.png' width = '70%;'></div></div>","null","neg","CS","CS","3","category3/CS9.png","","","","",""
"","html-keyboard-response","32","156390","0.0-6.0-2.0-0.5","h085msm1gk","one_one","1","indirect_first","0","NK04IM21","0","25","2","1","3","1","","0","1","0","null","","","<div class = 'row'><div class = 'column'><img src = 'uspos/1710.bmp' width = '100%;'></div><div class = 'column'><img src = 'category1/CS7.png' width = '70%;'></div></div>","null","pos","CS","CS","1","category1/CS7.png","","","","",""
"","html-keyboard-response","33","158894","0.0-6.0-2.0-0.6","h085msm1gk","one_one","1","indirect_first","0","NK04IM21","0","25","2","1","3","1","","0","1","0","null","","","<div class = 'row'><div class = 'column'><img src = 'category4/CS9.png' width = '70%;'></div><div class = 'column'><img src = 'uspos/8190.bmp' width = '100%;'></div></div>","null","pos","CS","CS","4","category4/CS9.png","","","","",""
"","html-keyboard-response","34","161398","0.0-6.0-2.0-0.7","h085msm1gk","one_one","1","indirect_first","0","NK04IM21","0","25","2","1","3","1","","0","1","0","null","","","<div class = 'row'><div class = 'column'><img src = 'category2/CS4.png' width = '70%;'></div><div class = 'column'><img src = 'usneg/2900.bmp' width = '100%;'></div></div>","null","neg","CS","CS","2","category2/CS4.png","","","","",""
"","html-keyboard-response","35","163902","0.0-6.0-2.0-0.8","h085msm1gk","one_one","1","indirect_first","0","NK04IM21","0","25","2","1","3","1","","0","1","0","null","","","<div class = 'row'><div class = 'column'><img src = 'usneg/2205.bmp' width = '100%;'></div><div class = 'column'><img src = 'category3/CS9.png' width = '70%;'></div></div>","null","neg","CS","CS","3","category3/CS9.png","","","","",""
"","html-keyboard-response","36","166406","0.0-6.0-2.0-0.9","h085msm1gk","one_one","1","indirect_first","0","NK04IM21","0","25","2","1","3","1","","0","1","0","null","","","<div class = 'row'><div class = 'column'><img src = 'uspos/1710.bmp' width = '100%;'></div><div class = 'column'><img src = 'category1/CS7.png' width = '70%;'></div></div>","null","pos","CS","CS","1","category1/CS7.png","","","","",""
"","html-keyboard-response","37","168910","0.0-6.0-2.0-0.10","h085msm1gk","one_one","1","indirect_first","0","NK04IM21","0","25","2","1","3","1","","0","1","0","null","","","<div class = 'row'><div class = 'column'><img src = 'usneg/2205.bmp' width = '100%;'></div><div class = 'column'><img src = 'category3/CS9.png' width = '70%;'></div></div>","null","neg","CS","CS","3","category3/CS9.png","","","","",""
"","html-keyboard-response","38","171414","0.0-6.0-2.0-0.11","h085msm1gk","one_one","1","indirect_first","0","NK04IM21","0","25","2","1","3","1","","0","1","0","null","","","<div class = 'row'><div class = 'column'><img src = 'uspos/8190.bmp' width = '100%;'></div><div class = 'column'><img src = 'category4/CS9.png' width = '70%;'></div></div>","null","pos","CS","CS","4","category4/CS9.png","","","","",""
"","html-keyboard-response","39","173918","0.0-6.0-2.0-0.12","h085msm1gk","one_one","1","indirect_first","0","NK04IM21","0","25","2","1","3","1","","0","1","0","null","","","<div class = 'row'><div class = 'column'><img src = 'usneg/2900.bmp' width = '100%;'></div><div class = 'column'><img src = 'category2/CS4.png' width = '70%;'></div></div>","null","neg","CS","CS","2","category2/CS4.png","","","","",""
"","html-keyboard-response","40","176421","0.0-6.0-2.0-0.13","h085msm1gk","one_one","1","indirect_first","0","NK04IM21","0","25","2","1","3","1","","0","1","0","null","","","<div class = 'row'><div class = 'column'><img src = 'usneg/2205.bmp' width = '100%;'></div><div class = 'column'><img src = 'category3/CS9.png' width = '70%;'></div></div>","null","neg","CS","CS","3","category3/CS9.png","","","","",""
"","html-keyboard-response","41","178925","0.0-6.0-2.0-0.14","h085msm1gk","one_one","1","indirect_first","0","NK04IM21","0","25","2","1","3","1","","0","1","0","null","","","<div class = 'row'><div class = 'column'><img src = 'uspos/1710.bmp' width = '100%;'></div><div class = 'column'><img src = 'category1/CS7.png' width = '70%;'></div></div>","null","pos","CS","CS","1","category1/CS7.png","","","","",""
"","html-keyboard-response","42","181428","0.0-6.0-2.0-0.15","h085msm1gk","one_one","1","indirect_first","0","NK04IM21","0","25","2","1","3","1","","0","1","0","null","","","<div class = 'row'><div class = 'column'><img src = 'usneg/2900.bmp' width = '100%;'></div><div class = 'column'><img src = 'category2/CS4.png' width = '70%;'></div></div>","null","neg","CS","CS","2","category2/CS4.png","","","","",""
"","html-keyboard-response","43","183931","0.0-6.0-2.0-0.16","h085msm1gk","one_one","1","indirect_first","0","NK04IM21","0","25","2","1","3","1","","0","1","0","null","","","<div class = 'row'><div class = 'column'><img src = 'usneg/2205.bmp' width = '100%;'></div><div class = 'column'><img src = 'category3/CS9.png' width = '70%;'></div></div>","null","neg","CS","CS","3","category3/CS9.png","","","","",""
"","html-keyboard-response","44","186435","0.0-6.0-2.0-0.17","h085msm1gk","one_one","1","indirect_first","0","NK04IM21","0","25","2","1","3","1","","0","1","0","null","","","<div class = 'row'><div class = 'column'><img src = 'uspos/1710.bmp' width = '100%;'></div><div class = 'column'><img src = 'category1/CS7.png' width = '70%;'></div></div>","null","pos","CS","CS","1","category1/CS7.png","","","","",""
"","html-keyboard-response","45","188939","0.0-6.0-2.0-0.18","h085msm1gk","one_one","1","indirect_first","0","NK04IM21","0","25","2","1","3","1","","0","1","0","null","","","<div class = 'row'><div class = 'column'><img src = 'uspos/8190.bmp' width = '100%;'></div><div class = 'column'><img src = 'category4/CS9.png' width = '70%;'></div></div>","null","pos","CS","CS","4","category4/CS9.png","","","","",""
"","html-keyboard-response","46","191443","0.0-6.0-2.0-0.19","h085msm1gk","one_one","1","indirect_first","0","NK04IM21","0","25","2","1","3","1","","0","1","0","null","","","<div class = 'row'><div class = 'column'><img src = 'category2/CS4.png' width = '70%;'></div><div class = 'column'><img src = 'usneg/2900.bmp' width = '100%;'></div></div>","null","neg","CS","CS","2","category2/CS4.png","","","","",""
"","survey-html-form","47","197565","0.0-6.0-3.0","h085msm1gk","one_one","1","indirect_first","0","NK04IM21","0","25","2","1","3","1","","0","1","0","5620","","{}","","","","","","","","","","","",""
"","html-keyboard-response","48","201568","0.0-6.0-4.0-0.0","h085msm1gk","one_one","1","indirect_first","0","NK04IM21","0","25","2","1","3","1","","0","1","0","null","","","<div class = 'row'><div class = 'column'><img src = 'uspos/1710.bmp' width = '100%;'></div><div class = 'column'><img src = 'category1/CS7.png' width = '70%;'></div></div>","null","pos","CS","CS","1","category1/CS7.png","","","","",""
"","html-keyboard-response","49","204072","0.0-6.0-4.0-0.1","h085msm1gk","one_one","1","indirect_first","0","NK04IM21","0","25","2","1","3","1","","0","1","0","null","","","<div class = 'row'><div class = 'column'><img src = 'usneg/2900.bmp' width = '100%;'></div><div class = 'column'><img src = 'category2/CS4.png' width = '70%;'></div></div>","null","neg","CS","CS","2","category2/CS4.png","","","","",""
"","html-keyboard-response","50","206575","0.0-6.0-4.0-0.2","h085msm1gk","one_one","1","indirect_first","0","NK04IM21","0","25","2","1","3","1","","0","1","0","null","","","<div class = 'row'><div class = 'column'><img src = 'uspos/1710.bmp' width = '100%;'></div><div class = 'column'><img src = 'category1/CS7.png' width = '70%;'></div></div>","null","pos","CS","CS","1","category1/CS7.png","","","","",""
"","html-keyboard-response","51","209079","0.0-6.0-4.0-0.3","h085msm1gk","one_one","1","indirect_first","0","NK04IM21","0","25","2","1","3","1","","0","1","0","null","","","<div class = 'row'><div class = 'column'><img src = 'category4/CS9.png' width = '70%;'></div><div class = 'column'><img src = 'uspos/8190.bmp' width = '100%;'></div></div>","null","pos","CS","CS","4","category4/CS9.png","","","","",""
"","html-keyboard-response","52","211583","0.0-6.0-4.0-0.4","h085msm1gk","one_one","1","indirect_first","0","NK04IM21","0","25","2","1","3","1","","0","1","0","null","","","<div class = 'row'><div class = 'column'><img src = 'category2/CS4.png' width = '70%;'></div><div class = 'column'><img src = 'usneg/2900.bmp' width = '100%;'></div></div>","null","neg","CS","CS","2","category2/CS4.png","","","","",""
"","html-keyboard-response","53","214085","0.0-6.0-4.0-0.5","h085msm1gk","one_one","1","indirect_first","0","NK04IM21","0","25","2","1","3","1","","0","1","0","null","","","<div class = 'row'><div class = 'column'><img src = 'category4/CS9.png' width = '70%;'></div><div class = 'column'><img src = 'uspos/8190.bmp' width = '100%;'></div></div>","null","pos","CS","CS","4","category4/CS9.png","","","","",""
"","html-keyboard-response","54","216589","0.0-6.0-4.0-0.6","h085msm1gk","one_one","1","indirect_first","0","NK04IM21","0","25","2","1","3","1","","0","1","0","null","","","<div class = 'row'><div class = 'column'><img src = 'usneg/2205.bmp' width = '100%;'></div><div class = 'column'><img src = 'category3/CS9.png' width = '70%;'></div></div>","null","neg","CS","CS","3","category3/CS9.png","","","","",""
"","html-keyboard-response","55","219093","0.0-6.0-4.0-0.7","h085msm1gk","one_one","1","indirect_first","0","NK04IM21","0","25","2","1","3","1","","0","1","0","null","","","<div class = 'row'><div class = 'column'><img src = 'category1/CS7.png' width = '70%;'></div><div class = 'column'><img src = 'uspos/1710.bmp' width = '100%;'></div></div>","null","pos","CS","CS","1","category1/CS7.png","","","","",""
"","html-keyboard-response","56","221596","0.0-6.0-4.0-0.8","h085msm1gk","one_one","1","indirect_first","0","NK04IM21","0","25","2","1","3","1","","0","1","0","null","","","<div class = 'row'><div class = 'column'><img src = 'category3/CS9.png' width = '70%;'></div><div class = 'column'><img src = 'usneg/2205.bmp' width = '100%;'></div></div>","null","neg","CS","CS","3","category3/CS9.png","","","","",""
"","html-keyboard-response","57","224099","0.0-6.0-4.0-0.9","h085msm1gk","one_one","1","indirect_first","0","NK04IM21","0","25","2","1","3","1","","0","1","0","null","","","<div class = 'row'><div class = 'column'><img src = 'category1/CS7.png' width = '70%;'></div><div class = 'column'><img src = 'uspos/1710.bmp' width = '100%;'></div></div>","null","pos","CS","CS","1","category1/CS7.png","","","","",""
"","html-keyboard-response","58","226602","0.0-6.0-4.0-0.10","h085msm1gk","one_one","1","indirect_first","0","NK04IM21","0","25","2","1","3","1","","0","1","0","null","","","<div class = 'row'><div class = 'column'><img src = 'category2/CS4.png' width = '70%;'></div><div class = 'column'><img src = 'usneg/2900.bmp' width = '100%;'></div></div>","null","neg","CS","CS","2","category2/CS4.png","","","","",""
"","html-keyboard-response","59","229105","0.0-6.0-4.0-0.11","h085msm1gk","one_one","1","indirect_first","0","NK04IM21","0","25","2","1","3","1","","0","1","0","null","","","<div class = 'row'><div class = 'column'><img src = 'category1/CS7.png' width = '70%;'></div><div class = 'column'><img src = 'uspos/1710.bmp' width = '100%;'></div></div>","null","pos","CS","CS","1","category1/CS7.png","","","","",""
"","html-keyboard-response","60","231608","0.0-6.0-4.0-0.12","h085msm1gk","one_one","1","indirect_first","0","NK04IM21","0","25","2","1","3","1","","0","1","0","null","","","<div class = 'row'><div class = 'column'><img src = 'usneg/2205.bmp' width = '100%;'></div><div class = 'column'><img src = 'category3/CS9.png' width = '70%;'></div></div>","null","neg","CS","CS","3","category3/CS9.png","","","","",""
"","html-keyboard-response","61","234111","0.0-6.0-4.0-0.13","h085msm1gk","one_one","1","indirect_first","0","NK04IM21","0","25","2","1","3","1","","0","1","0","null","","","<div class = 'row'><div class = 'column'><img src = 'category2/CS4.png' width = '70%;'></div><div class = 'column'><img src = 'usneg/2900.bmp' width = '100%;'></div></div>","null","neg","CS","CS","2","category2/CS4.png","","","","",""
"","html-keyboard-response","62","236615","0.0-6.0-4.0-0.14","h085msm1gk","one_one","1","indirect_first","0","NK04IM21","0","25","2","1","3","1","","0","1","0","null","","","<div class = 'row'><div class = 'column'><img src = 'uspos/8190.bmp' width = '100%;'></div><div class = 'column'><img src = 'category4/CS9.png' width = '70%;'></div></div>","null","pos","CS","CS","4","category4/CS9.png","","","","",""
"","html-keyboard-response","63","239118","0.0-6.0-4.0-0.15","h085msm1gk","one_one","1","indirect_first","0","NK04IM21","0","25","2","1","3","1","","0","1","0","null","","","<div class = 'row'><div class = 'column'><img src = 'category3/CS9.png' width = '70%;'></div><div class = 'column'><img src = 'usneg/2205.bmp' width = '100%;'></div></div>","null","neg","CS","CS","3","category3/CS9.png","","","","",""
"","html-keyboard-response","64","241624","0.0-6.0-4.0-0.16","h085msm1gk","one_one","1","indirect_first","0","NK04IM21","0","25","2","1","3","1","","0","1","0","null","","","<div class = 'row'><div class = 'column'><img src = 'category4/CS9.png' width = '70%;'></div><div class = 'column'><img src = 'uspos/8190.bmp' width = '100%;'></div></div>","null","pos","CS","CS","4","category4/CS9.png","","","","",""
"","html-keyboard-response","65","244128","0.0-6.0-4.0-0.17","h085msm1gk","one_one","1","indirect_first","0","NK04IM21","0","25","2","1","3","1","","0","1","0","null","","","<div class = 'row'><div class = 'column'><img src = 'usneg/2900.bmp' width = '100%;'></div><div class = 'column'><img src = 'category2/CS4.png' width = '70%;'></div></div>","null","neg","CS","CS","2","category2/CS4.png","","","","",""
"","html-keyboard-response","66","246632","0.0-6.0-4.0-0.18","h085msm1gk","one_one","1","indirect_first","0","NK04IM21","0","25","2","1","3","1","","0","1","0","null","","","<div class = 'row'><div class = 'column'><img src = 'usneg/2205.bmp' width = '100%;'></div><div class = 'column'><img src = 'category3/CS9.png' width = '70%;'></div></div>","null","neg","CS","CS","3","category3/CS9.png","","","","",""
"","html-keyboard-response","67","249136","0.0-6.0-4.0-0.19","h085msm1gk","one_one","1","indirect_first","0","NK04IM21","0","25","2","1","3","1","","0","1","0","null","","","<div class = 'row'><div class = 'column'><img src = 'uspos/8190.bmp' width = '100%;'></div><div class = 'column'><img src = 'category4/CS9.png' width = '70%;'></div></div>","null","pos","CS","CS","4","category4/CS9.png","","","","",""
"","survey-html-form","68","252129","0.0-6.0-5.0","h085msm1gk","one_one","1","indirect_first","0","NK04IM21","0","25","2","1","3","1","","0","1","0","2491.000000000029","","{}","","","","","","","","","","","",""
"","html-keyboard-response","69","256133","0.0-6.0-6.0-0.0","h085msm1gk","one_one","1","indirect_first","0","NK04IM21","0","25","2","1","3","1","","0","1","0","null","","","<div class = 'row'><div class = 'column'><img src = 'usneg/2205.bmp' width = '100%;'></div><div class = 'column'><img src = 'category3/CS9.png' width = '70%;'></div></div>","null","neg","CS","CS","3","category3/CS9.png","","","","",""
"","html-keyboard-response","70","258637","0.0-6.0-6.0-0.1","h085msm1gk","one_one","1","indirect_first","0","NK04IM21","0","25","2","1","3","1","","0","1","0","null","","","<div class = 'row'><div class = 'column'><img src = 'category2/CS4.png' width = '70%;'></div><div class = 'column'><img src = 'usneg/2900.bmp' width = '100%;'></div></div>","null","neg","CS","CS","2","category2/CS4.png","","","","",""
"","html-keyboard-response","71","261141","0.0-6.0-6.0-0.2","h085msm1gk","one_one","1","indirect_first","0","NK04IM21","0","25","2","1","3","1","","0","1","0","null","","","<div class = 'row'><div class = 'column'><img src = 'usneg/2205.bmp' width = '100%;'></div><div class = 'column'><img src = 'category3/CS9.png' width = '70%;'></div></div>","null","neg","CS","CS","3","category3/CS9.png","","","","",""
"","html-keyboard-response","72","263648","0.0-6.0-6.0-0.3","h085msm1gk","one_one","1","indirect_first","0","NK04IM21","0","25","2","1","3","1","","0","1","0","null","","","<div class = 'row'><div class = 'column'><img src = 'uspos/1710.bmp' width = '100%;'></div><div class = 'column'><img src = 'category1/CS7.png' width = '70%;'></div></div>","null","pos","CS","CS","1","category1/CS7.png","","","","",""
"","html-keyboard-response","73","266152","0.0-6.0-6.0-0.4","h085msm1gk","one_one","1","indirect_first","0","NK04IM21","0","25","2","1","3","1","","0","1","0","null","","","<div class = 'row'><div class = 'column'><img src = 'category4/CS9.png' width = '70%;'></div><div class = 'column'><img src = 'uspos/8190.bmp' width = '100%;'></div></div>","null","pos","CS","CS","4","category4/CS9.png","","","","",""
"","html-keyboard-response","74","268655","0.0-6.0-6.0-0.5","h085msm1gk","one_one","1","indirect_first","0","NK04IM21","0","25","2","1","3","1","","0","1","0","null","","","<div class = 'row'><div class = 'column'><img src = 'category2/CS4.png' width = '70%;'></div><div class = 'column'><img src = 'usneg/2900.bmp' width = '100%;'></div></div>","null","neg","CS","CS","2","category2/CS4.png","","","","",""
"","html-keyboard-response","75","271161","0.0-6.0-6.0-0.6","h085msm1gk","one_one","1","indirect_first","0","NK04IM21","0","25","2","1","3","1","","0","1","0","null","","","<div class = 'row'><div class = 'column'><img src = 'uspos/1710.bmp' width = '100%;'></div><div class = 'column'><img src = 'category1/CS7.png' width = '70%;'></div></div>","null","pos","CS","CS","1","category1/CS7.png","","","","",""
"","html-keyboard-response","76","273665","0.0-6.0-6.0-0.7","h085msm1gk","one_one","1","indirect_first","0","NK04IM21","0","25","2","1","3","1","","0","1","0","null","","","<div class = 'row'><div class = 'column'><img src = 'uspos/8190.bmp' width = '100%;'></div><div class = 'column'><img src = 'category4/CS9.png' width = '70%;'></div></div>","null","pos","CS","CS","4","category4/CS9.png","","","","",""
"","html-keyboard-response","77","276172","0.0-6.0-6.0-0.8","h085msm1gk","one_one","1","indirect_first","0","NK04IM21","0","25","2","1","3","1","","0","1","0","null","","","<div class = 'row'><div class = 'column'><img src = 'category1/CS7.png' width = '70%;'></div><div class = 'column'><img src = 'uspos/1710.bmp' width = '100%;'></div></div>","null","pos","CS","CS","1","category1/CS7.png","","","","",""
"","html-keyboard-response","78","278676","0.0-6.0-6.0-0.9","h085msm1gk","one_one","1","indirect_first","0","NK04IM21","0","25","2","1","3","1","","0","1","0","null","","","<div class = 'row'><div class = 'column'><img src = 'uspos/8190.bmp' width = '100%;'></div><div class = 'column'><img src = 'category4/CS9.png' width = '70%;'></div></div>","null","pos","CS","CS","4","category4/CS9.png","","","","",""
"","html-keyboard-response","79","281182","0.0-6.0-6.0-0.10","h085msm1gk","one_one","1","indirect_first","0","NK04IM21","0","25","2","1","3","1","","0","1","0","null","","","<div class = 'row'><div class = 'column'><img src = 'category3/CS9.png' width = '70%;'></div><div class = 'column'><img src = 'usneg/2205.bmp' width = '100%;'></div></div>","null","neg","CS","CS","3","category3/CS9.png","","","","",""
"","html-keyboard-response","80","283685","0.0-6.0-6.0-0.11","h085msm1gk","one_one","1","indirect_first","0","NK04IM21","0","25","2","1","3","1","","0","1","0","null","","","<div class = 'row'><div class = 'column'><img src = 'category1/CS7.png' width = '70%;'></div><div class = 'column'><img src = 'uspos/1710.bmp' width = '100%;'></div></div>","null","pos","CS","CS","1","category1/CS7.png","","","","",""
"","html-keyboard-response","81","286189","0.0-6.0-6.0-0.12","h085msm1gk","one_one","1","indirect_first","0","NK04IM21","0","25","2","1","3","1","","0","1","0","null","","","<div class = 'row'><div class = 'column'><img src = 'usneg/2900.bmp' width = '100%;'></div><div class = 'column'><img src = 'category2/CS4.png' width = '70%;'></div></div>","null","neg","CS","CS","2","category2/CS4.png","","","","",""
"","html-keyboard-response","82","288692","0.0-6.0-6.0-0.13","h085msm1gk","one_one","1","indirect_first","0","NK04IM21","0","25","2","1","3","1","","0","1","0","null","","","<div class = 'row'><div class = 'column'><img src = 'usneg/2205.bmp' width = '100%;'></div><div class = 'column'><img src = 'category3/CS9.png' width = '70%;'></div></div>","null","neg","CS","CS","3","category3/CS9.png","","","","",""
"","html-keyboard-response","83","291196","0.0-6.0-6.0-0.14","h085msm1gk","one_one","1","indirect_first","0","NK04IM21","0","25","2","1","3","1","","0","1","0","null","","","<div class = 'row'><div class = 'column'><img src = 'category2/CS4.png' width = '70%;'></div><div class = 'column'><img src = 'usneg/2900.bmp' width = '100%;'></div></div>","null","neg","CS","CS","2","category2/CS4.png","","","","",""
"","html-keyboard-response","84","293700","0.0-6.0-6.0-0.15","h085msm1gk","one_one","1","indirect_first","0","NK04IM21","0","25","2","1","3","1","","0","1","0","null","","","<div class = 'row'><div class = 'column'><img src = 'usneg/2205.bmp' width = '100%;'></div><div class = 'column'><img src = 'category3/CS9.png' width = '70%;'></div></div>","null","neg","CS","CS","3","category3/CS9.png","","","","",""
"","html-keyboard-response","85","296203","0.0-6.0-6.0-0.16","h085msm1gk","one_one","1","indirect_first","0","NK04IM21","0","25","2","1","3","1","","0","1","0","null","","","<div class = 'row'><div class = 'column'><img src = 'uspos/8190.bmp' width = '100%;'></div><div class = 'column'><img src = 'category4/CS9.png' width = '70%;'></div></div>","null","pos","CS","CS","4","category4/CS9.png","","","","",""
"","html-keyboard-response","86","298707","0.0-6.0-6.0-0.17","h085msm1gk","one_one","1","indirect_first","0","NK04IM21","0","25","2","1","3","1","","0","1","0","null","","","<div class = 'row'><div class = 'column'><img src = 'category1/CS7.png' width = '70%;'></div><div class = 'column'><img src = 'uspos/1710.bmp' width = '100%;'></div></div>","null","pos","CS","CS","1","category1/CS7.png","","","","",""
"","html-keyboard-response","87","301211","0.0-6.0-6.0-0.18","h085msm1gk","one_one","1","indirect_first","0","NK04IM21","0","25","2","1","3","1","","0","1","0","null","","","<div class = 'row'><div class = 'column'><img src = 'usneg/2900.bmp' width = '100%;'></div><div class = 'column'><img src = 'category2/CS4.png' width = '70%;'></div></div>","null","neg","CS","CS","2","category2/CS4.png","","","","",""
"","html-keyboard-response","88","303715","0.0-6.0-6.0-0.19","h085msm1gk","one_one","1","indirect_first","0","NK04IM21","0","25","2","1","3","1","","0","1","0","null","","","<div class = 'row'><div class = 'column'><img src = 'category4/CS9.png' width = '70%;'></div><div class = 'column'><img src = 'uspos/8190.bmp' width = '100%;'></div></div>","null","pos","CS","CS","4","category4/CS9.png","","","","",""
"","html-keyboard-response","89","323481","0.0-7.0","h085msm1gk","one_one","1","indirect_first","0","NK04IM21","0","25","2","1","3","1","","0","1","0","19263.00000000006","","","<p>Sie sehen nun die chinesischen Zeichen nur ganz kurz. Danach sehen Sie die jeweilige Aussprache der Zeichen als Silbe auf dem Bildschrim. Ihre Aufgabe ist es, für jede Silbe anzugeben, ob diese etwas angenehmes, oder unangenehmes bedeuten könnte. Verlassen Sie sich hier vor allem auf Ihre Intuition.<br><br>Die Zeichen werden nur zur Orientierung dargestellt, beachten Sie sie deshalb nicht. Konzentrieren Sie sich vor allem auf die Silben. <br>Reagieren Sie mit folgenden zwei Tasten: <br><br><b>'D' </b> wenn die Silbe etwas <b>unangenehmes</b> bedeuten könnte. <br><b>'K'</b> wenn die Silbe etwas <b>angenehmes</b> bedeuten könnte. <br><br>Bitte legen Sie nun den Zeigefinger der linken Hand auf die Taste 'D' und den Zeigefinger der rechten Hand auf die Taste 'K'. <br>Reagieren Sie auf jede Silbe so schnell wie möglich. Uns interessiert Ihre spontane Reaktion. <br> <br> <br>Drücken Sie 'D' oder 'K', um die nächste Aufgabe zu starten. </p>","68","","","","","","","","","",""
"","html-keyboard-response","90","326485","0.0-8.0-0.0","h085msm1gk","one_one","1","indirect_first","0","NK04IM21","0","25","2","1","3","1","","0","1","0","null","","","<div style=""font-size:60px;"">+</div>","null","","","","","","","","","",""
"","html-keyboard-response","91","326577","0.0-8.0-1.0","h085msm1gk","one_one","1","indirect_first","0","NK04IM21","0","25","2","1","3","1","","0","1","0","null","","","<img src = 'category3/CS10.png' width = '100%;'>","null","","","","","","","","","",""
"","html-keyboard-response","92","326831","0.0-8.0-2.0","h085msm1gk","one_one","1","indirect_first","0","NK04IM21","0","25","2","1","3","1","","0","1","0","null","","","<img src = 'targets/36.png' width = '100%;'>","null","","","","","","","","","",""
"","html-keyboard-response","93","330479","0.0-8.0-3.0","h085msm1gk","one_one","1","indirect_first","0","NK04IM21","0","25","2","1","3","1","","0","1","0","3646","","","<img src = 'targets/mask.png' width = '100%;'>","68","neg","GS","GSold","3","category3/CS10.png","targets/36.png","0","indirect","0",""
"","html-keyboard-response","94","331983","0.0-8.0-0.1","h085msm1gk","one_one","1","indirect_first","0","NK04IM21","0","25","2","1","3","1","","0","1","0","null","","","<div style=""font-size:60px;"">+</div>","null","","","","","","","","","",""
"","html-keyboard-response","95","332075","0.0-8.0-1.1","h085msm1gk","one_one","1","indirect_first","0","NK04IM21","0","25","2","1","3","1","","0","1","0","null","","","<img src = 'category1/CS10.png' width = '100%;'>","null","","","","","","","","","",""
"","html-keyboard-response","96","332328","0.0-8.0-2.1","h085msm1gk","one_one","1","indirect_first","0","NK04IM21","0","25","2","1","3","1","","0","1","0","null","","","<img src = 'targets/26.png' width = '100%;'>","null","","","","","","","","","",""
"","html-keyboard-response","97","336178","0.0-8.0-3.1","h085msm1gk","one_one","1","indirect_first","0","NK04IM21","0","25","2","1","3","1","","0","1","0","3849","","","<img src = 'targets/mask.png' width = '100%;'>","75","pos","GS","GSold","1","category1/CS10.png","targets/26.png","1","indirect","1",""
"","html-keyboard-response","98","337682","0.0-8.0-0.2","h085msm1gk","one_one","1","indirect_first","0","NK04IM21","0","25","2","1","3","1","","0","1","0","null","","","<div style=""font-size:60px;"">+</div>","null","","","","","","","","","",""
"","html-keyboard-response","99","337775","0.0-8.0-1.2","h085msm1gk","one_one","1","indirect_first","0","NK04IM21","0","25","2","1","3","1","","0","1","0","null","","","<img src = 'category4/CS2.png' width = '100%;'>","null","","","","","","","","","",""
"","html-keyboard-response","100","338028","0.0-8.0-2.2","h085msm1gk","one_one","1","indirect_first","0","NK04IM21","0","25","2","1","3","1","","0","1","0","null","","","<img src = 'targets/41.png' width = '100%;'>","null","","","","","","","","","",""
"","html-keyboard-response","101","340267","0.0-8.0-3.2","h085msm1gk","one_one","1","indirect_first","0","NK04IM21","0","25","2","1","3","1","","0","1","0","2237.000000000058","","","<img src = 'targets/mask.png' width = '100%;'>","75","pos","GS","GSold","4","category4/CS2.png","targets/41.png","1","indirect","2",""
"","html-keyboard-response","102","341772","0.0-8.0-0.3","h085msm1gk","one_one","1","indirect_first","0","NK04IM21","0","25","2","1","3","1","","0","1","0","null","","","<div style=""font-size:60px;"">+</div>","null","","","","","","","","","",""
"","html-keyboard-response","103","341864","0.0-8.0-1.3","h085msm1gk","one_one","1","indirect_first","0","NK04IM21","0","25","2","1","3","1","","0","1","0","null","","","<img src = 'category4/CS9.png' width = '100%;'>","null","","","","","","","","","",""
"","html-keyboard-response","104","342118","0.0-8.0-2.3","h085msm1gk","one_one","1","indirect_first","0","NK04IM21","0","25","2","1","3","1","","0","1","0","null","","","<img src = 'targets/47.png' width = '100%;'>","null","","","","","","","","","",""
"","html-keyboard-response","105","343511","0.0-8.0-3.3","h085msm1gk","one_one","1","indirect_first","0","NK04IM21","0","25","2","1","3","1","","0","1","0","1391.0000000000582","","","<img src = 'targets/mask.png' width = '100%;'>","75","pos","CS","CS","4","category4/CS9.png","targets/47.png","1","indirect","3",""
"","html-keyboard-response","106","345015","0.0-8.0-0.4","h085msm1gk","one_one","1","indirect_first","0","NK04IM21","0","25","2","1","3","1","","0","1","0","null","","","<div style=""font-size:60px;"">+</div>","null","","","","","","","","","",""
"","html-keyboard-response","107","345107","0.0-8.0-1.4","h085msm1gk","one_one","1","indirect_first","0","NK04IM21","0","25","2","1","3","1","","0","1","0","null","","","<img src = 'category2/CS1.png' width = '100%;'>","null","","","","","","","","","",""
"","html-keyboard-response","108","345361","0.0-8.0-2.4","h085msm1gk","one_one","1","indirect_first","0","NK04IM21","0","25","2","1","3","1","","0","1","0","null","","","<img src = 'targets/33.png' width = '100%;'>","null","","","","","","","","","",""
"","html-keyboard-response","109","347032","0.0-8.0-3.4","h085msm1gk","one_one","1","indirect_first","0","NK04IM21","0","25","2","1","3","1","","0","1","0","1669","","","<img src = 'targets/mask.png' width = '100%;'>","75","neg","GS","GSold","2","category2/CS1.png","targets/33.png","1","indirect","4",""
"","html-keyboard-response","110","348535","0.0-8.0-0.5","h085msm1gk","one_one","1","indirect_first","0","NK04IM21","0","25","2","1","3","1","","0","1","0","null","","","<div style=""font-size:60px;"">+</div>","null","","","","","","","","","",""
"","html-keyboard-response","111","348628","0.0-8.0-1.5","h085msm1gk","one_one","1","indirect_first","0","NK04IM21","0","25","2","1","3","1","","0","1","0","null","","","<img src = 'category2/CS9.png' width = '100%;'>","null","","","","","","","","","",""
"","html-keyboard-response","112","348881","0.0-8.0-2.5","h085msm1gk","one_one","1","indirect_first","0","NK04IM21","0","25","2","1","3","1","","0","1","0","null","","","<img src = 'targets/25.png' width = '100%;'>","null","","","","","","","","","",""
"","html-keyboard-response","113","349916","0.0-8.0-3.5","h085msm1gk","one_one","1","indirect_first","0","NK04IM21","0","25","2","1","3","1","","0","1","0","1033","","","<img src = 'targets/mask.png' width = '100%;'>","75","neg","GS","GSold","2","category2/CS9.png","targets/25.png","1","indirect","5",""
"","html-keyboard-response","114","351420","0.0-8.0-0.6","h085msm1gk","one_one","1","indirect_first","0","NK04IM21","0","25","2","1","3","1","","0","1","0","null","","","<div style=""font-size:60px;"">+</div>","null","","","","","","","","","",""
"","html-keyboard-response","115","351512","0.0-8.0-1.6","h085msm1gk","one_one","1","indirect_first","0","NK04IM21","0","25","2","1","3","1","","0","1","0","null","","","<img src = 'category2/CS8.png' width = '100%;'>","null","","","","","","","","","",""
"","html-keyboard-response","116","351766","0.0-8.0-2.6","h085msm1gk","one_one","1","indirect_first","0","NK04IM21","0","25","2","1","3","1","","0","1","0","null","","","<img src = 'targets/3.png' width = '100%;'>","null","","","","","","","","","",""
"","html-keyboard-response","117","352503","0.0-8.0-3.6","h085msm1gk","one_one","1","indirect_first","0","NK04IM21","0","25","2","1","3","1","","0","1","0","736","","","<img src = 'targets/mask.png' width = '100%;'>","68","neg","GS","GSold","2","category2/CS8.png","targets/3.png","0","indirect","6",""
"","html-keyboard-response","118","354006","0.0-8.0-0.7","h085msm1gk","one_one","1","indirect_first","0","NK04IM21","0","25","2","1","3","1","","0","1","0","null","","","<div style=""font-size:60px;"">+</div>","null","","","","","","","","","",""
"","html-keyboard-response","119","354099","0.0-8.0-1.7","h085msm1gk","one_one","1","indirect_first","0","NK04IM21","0","25","2","1","3","1","","0","1","0","null","","","<img src = 'category4/CS3.png' width = '100%;'>","null","","","","","","","","","",""
"","html-keyboard-response","120","354352","0.0-8.0-2.7","h085msm1gk","one_one","1","indirect_first","0","NK04IM21","0","25","2","1","3","1","","0","1","0","null","","","<img src = 'targets/5.png' width = '100%;'>","null","","","","","","","","","",""
"","html-keyboard-response","121","354917","0.0-8.0-3.7","h085msm1gk","one_one","1","indirect_first","0","NK04IM21","0","25","2","1","3","1","","0","1","0","564","","","<img src = 'targets/mask.png' width = '100%;'>","75","pos","GS","GSold","4","category4/CS3.png","targets/5.png","1","indirect","7",""
"","html-keyboard-response","122","356422","0.0-8.0-0.8","h085msm1gk","one_one","1","indirect_first","0","NK04IM21","0","25","2","1","3","1","","0","1","0","null","","","<div style=""font-size:60px;"">+</div>","null","","","","","","","","","",""
"","html-keyboard-response","123","356514","0.0-8.0-1.8","h085msm1gk","one_one","1","indirect_first","0","NK04IM21","0","25","2","1","3","1","","0","1","0","null","","","<img src = 'category3/CS9.png' width = '100%;'>","null","","","","","","","","","",""
"","html-keyboard-response","124","356768","0.0-8.0-2.8","h085msm1gk","one_one","1","indirect_first","0","NK04IM21","0","25","2","1","3","1","","0","1","0","null","","","<img src = 'targets/12.png' width = '100%;'>","null","","","","","","","","","",""
"","html-keyboard-response","125","358066","0.0-8.0-3.8","h085msm1gk","one_one","1","indirect_first","0","NK04IM21","0","25","2","1","3","1","","0","1","0","1298","","","<img src = 'targets/mask.png' width = '100%;'>","68","neg","CS","CS","3","category3/CS9.png","targets/12.png","0","indirect","8",""
"","html-keyboard-response","126","359570","0.0-8.0-0.9","h085msm1gk","one_one","1","indirect_first","0","NK04IM21","0","25","2","1","3","1","","0","1","0","null","","","<div style=""font-size:60px;"">+</div>","null","","","","","","","","","",""
"","html-keyboard-response","127","359663","0.0-8.0-1.9","h085msm1gk","one_one","1","indirect_first","0","NK04IM21","0","25","2","1","3","1","","0","1","0","null","","","<img src = 'category3/CS4.png' width = '100%;'>","null","","","","","","","","","",""
"","html-keyboard-response","128","359915","0.0-8.0-2.9","h085msm1gk","one_one","1","indirect_first","0","NK04IM21","0","25","2","1","3","1","","0","1","0","null","","","<img src = 'targets/24.png' width = '100%;'>","null","","","","","","","","","",""
"","html-keyboard-response","129","360912","0.0-8.0-3.9","h085msm1gk","one_one","1","indirect_first","0","NK04IM21","0","25","2","1","3","1","","0","1","0","995","","","<img src = 'targets/mask.png' width = '100%;'>","68","neg","GS","GSold","3","category3/CS4.png","targets/24.png","0","indirect","9",""
"","html-keyboard-response","130","362416","0.0-8.0-0.10","h085msm1gk","one_one","1","indirect_first","0","NK04IM21","0","25","2","1","3","1","","0","1","0","null","","","<div style=""font-size:60px;"">+</div>","null","","","","","","","","","",""
"","html-keyboard-response","131","362509","0.0-8.0-1.10","h085msm1gk","one_one","1","indirect_first","0","NK04IM21","0","25","2","1","3","1","","0","1","0","null","","","<img src = 'category3/CS6.png' width = '100%;'>","null","","","","","","","","","",""
"","html-keyboard-response","132","362762","0.0-8.0-2.10","h085msm1gk","one_one","1","indirect_first","0","NK04IM21","0","25","2","1","3","1","","0","1","0","null","","","<img src = 'targets/48.png' width = '100%;'>","null","","","","","","","","","",""
"","html-keyboard-response","133","363440","0.0-8.0-3.10","h085msm1gk","one_one","1","indirect_first","0","NK04IM21","0","25","2","1","3","1","","0","1","0","676","","","<img src = 'targets/mask.png' width = '100%;'>","75","neg","GS","GSold","3","category3/CS6.png","targets/48.png","1","indirect","10",""
"","html-keyboard-response","134","364945","0.0-8.0-0.11","h085msm1gk","one_one","1","indirect_first","0","NK04IM21","0","25","2","1","3","1","","0","1","0","null","","","<div style=""font-size:60px;"">+</div>","null","","","","","","","","","",""
"","html-keyboard-response","135","365037","0.0-8.0-1.11","h085msm1gk","one_one","1","indirect_first","0","NK04IM21","0","25","2","1","3","1","","0","1","0","null","","","<img src = 'category2/CS4.png' width = '100%;'>","null","","","","","","","","","",""
"","html-keyboard-response","136","365290","0.0-8.0-2.11","h085msm1gk","one_one","1","indirect_first","0","NK04IM21","0","25","2","1","3","1","","0","1","0","null","","","<img src = 'targets/34.png' width = '100%;'>","null","","","","","","","","","",""
"","html-keyboard-response","137","366024","0.0-8.0-3.11","h085msm1gk","one_one","1","indirect_first","0","NK04IM21","0","25","2","1","3","1","","0","1","0","732","","","<img src = 'targets/mask.png' width = '100%;'>","75","neg","CS","CS","2","category2/CS4.png","targets/34.png","1","indirect","11",""
"","html-keyboard-response","138","367528","0.0-8.0-0.12","h085msm1gk","one_one","1","indirect_first","0","NK04IM21","0","25","2","1","3","1","","0","1","0","null","","","<div style=""font-size:60px;"">+</div>","null","","","","","","","","","",""
"","html-keyboard-response","139","367621","0.0-8.0-1.12","h085msm1gk","one_one","1","indirect_first","0","NK04IM21","0","25","2","1","3","1","","0","1","0","null","","","<img src = 'category1/CS4.png' width = '100%;'>","null","","","","","","","","","",""
"","html-keyboard-response","140","367874","0.0-8.0-2.12","h085msm1gk","one_one","1","indirect_first","0","NK04IM21","0","25","2","1","3","1","","0","1","0","null","","","<img src = 'targets/18.png' width = '100%;'>","null","","","","","","","","","",""
"","html-keyboard-response","141","368461","0.0-8.0-3.12","h085msm1gk","one_one","1","indirect_first","0","NK04IM21","0","25","2","1","3","1","","0","1","0","586","","","<img src = 'targets/mask.png' width = '100%;'>","68","pos","GS","GSold","1","category1/CS4.png","targets/18.png","0","indirect","12",""
"","html-keyboard-response","142","369965","0.0-8.0-0.13","h085msm1gk","one_one","1","indirect_first","0","NK04IM21","0","25","2","1","3","1","","0","1","0","null","","","<div style=""font-size:60px;"">+</div>","null","","","","","","","","","",""
"","html-keyboard-response","143","370057","0.0-8.0-1.13","h085msm1gk","one_one","1","indirect_first","0","NK04IM21","0","25","2","1","3","1","","0","1","0","null","","","<img src = 'category1/CS2.png' width = '100%;'>","null","","","","","","","","","",""
"","html-keyboard-response","144","370311","0.0-8.0-2.13","h085msm1gk","one_one","1","indirect_first","0","NK04IM21","0","25","2","1","3","1","","0","1","0","null","","","<img src = 'targets/43.png' width = '100%;'>","null","","","","","","","","","",""
"","html-keyboard-response","145","370883","0.0-8.0-3.13","h085msm1gk","one_one","1","indirect_first","0","NK04IM21","0","25","2","1","3","1","","0","1","0","571","","","<img src = 'targets/mask.png' width = '100%;'>","68","pos","GS","GSold","1","category1/CS2.png","targets/43.png","0","indirect","13",""
"","html-keyboard-response","146","372387","0.0-8.0-0.14","h085msm1gk","one_one","1","indirect_first","0","NK04IM21","0","25","2","1","3","1","","0","1","0","null","","","<div style=""font-size:60px;"">+</div>","null","","","","","","","","","",""
"","html-keyboard-response","147","372479","0.0-8.0-1.14","h085msm1gk","one_one","1","indirect_first","0","NK04IM21","0","25","2","1","3","1","","0","1","0","null","","","<img src = 'category1/CS7.png' width = '100%;'>","null","","","","","","","","","",""
"","html-keyboard-response","148","372733","0.0-8.0-2.14","h085msm1gk","one_one","1","indirect_first","0","NK04IM21","0","25","2","1","3","1","","0","1","0","null","","","<img src = 'targets/20.png' width = '100%;'>","null","","","","","","","","","",""
"","html-keyboard-response","149","373875","0.0-8.0-3.14","h085msm1gk","one_one","1","indirect_first","0","NK04IM21","0","25","2","1","3","1","","0","1","0","1141","","","<img src = 'targets/mask.png' width = '100%;'>","68","pos","CS","CS","1","category1/CS7.png","targets/20.png","0","indirect","14",""
"","html-keyboard-response","150","375379","0.0-8.0-0.15","h085msm1gk","one_one","1","indirect_first","0","NK04IM21","0","25","2","1","3","1","","0","1","0","null","","","<div style=""font-size:60px;"">+</div>","null","","","","","","","","","",""
"","html-keyboard-response","151","375473","0.0-8.0-1.15","h085msm1gk","one_one","1","indirect_first","0","NK04IM21","0","25","2","1","3","1","","0","1","0","null","","","<img src = 'category4/CS8.png' width = '100%;'>","null","","","","","","","","","",""
"","html-keyboard-response","152","375727","0.0-8.0-2.15","h085msm1gk","one_one","1","indirect_first","0","NK04IM21","0","25","2","1","3","1","","0","1","0","null","","","<img src = 'targets/1.png' width = '100%;'>","null","","","","","","","","","",""
"","html-keyboard-response","153","376159","0.0-8.0-3.15","h085msm1gk","one_one","1","indirect_first","0","NK04IM21","0","25","2","1","3","1","","0","1","0","431","","","<img src = 'targets/mask.png' width = '100%;'>","75","pos","GS","GSold","4","category4/CS8.png","targets/1.png","1","indirect","15",""
"","survey-html-form","154","380051","0.0-9.0","h085msm1gk","one_one","1","indirect_first","0","NK04IM21","0","25","2","1","3","1","","0","1","0","3388","","{}","","","","","","","","","","","",""
"","html-keyboard-response","155","383054","0.0-10.0-0.0","h085msm1gk","one_one","1","indirect_first","0","NK04IM21","0","25","2","1","3","1","","0","1","0","null","","","<div style=""font-size:60px;"">+</div>","null","","","","","","","","","",""
"","html-keyboard-response","156","383146","0.0-10.0-1.0","h085msm1gk","one_one","1","indirect_first","0","NK04IM21","0","25","2","1","3","1","","0","1","0","null","","","<img src = 'category2/GS2.png' width = '100%;'>","null","","","","","","","","","",""
"","html-keyboard-response","157","383399","0.0-10.0-2.0","h085msm1gk","one_one","1","indirect_first","0","NK04IM21","0","25","2","1","3","1","","0","1","0","null","","","<img src = 'targets/29.png' width = '100%;'>","null","","","","","","","","","",""
"","html-keyboard-response","158","384343","0.0-10.0-3.0","h085msm1gk","one_one","1","indirect_first","0","NK04IM21","0","25","2","1","3","1","","0","1","0","941","","","<img src = 'targets/mask.png' width = '100%;'>","68","neg","GS","GSnew","2","category2/GS2.png","targets/29.png","0","indirect","16",""
"","html-keyboard-response","159","385846","0.0-10.0-0.1","h085msm1gk","one_one","1","indirect_first","0","NK04IM21","0","25","2","1","3","1","","0","1","0","null","","","<div style=""font-size:60px;"">+</div>","null","","","","","","","","","",""
"","html-keyboard-response","160","385941","0.0-10.0-1.1","h085msm1gk","one_one","1","indirect_first","0","NK04IM21","0","25","2","1","3","1","","0","1","0","null","","","<img src = 'category1/ma.png' width = '100%;'>","null","","","","","","","","","",""
"","html-keyboard-response","161","386195","0.0-10.0-2.1","h085msm1gk","one_one","1","indirect_first","0","NK04IM21","0","25","2","1","3","1","","0","1","0","null","","","<img src = 'targets/21.png' width = '100%;'>","null","","","","","","","","","",""
"","html-keyboard-response","162","387122","0.0-10.0-3.1","h085msm1gk","one_one","1","indirect_first","0","NK04IM21","0","25","2","1","3","1","","0","1","0","926","","","<img src = 'targets/mask.png' width = '100%;'>","75","pos","GS","abstract","1","category1/ma.png","targets/21.png","1","indirect","17",""
"","html-keyboard-response","163","388626","0.0-10.0-0.2","h085msm1gk","one_one","1","indirect_first","0","NK04IM21","0","25","2","1","3","1","","0","1","0","null","","","<div style=""font-size:60px;"">+</div>","null","","","","","","","","","",""
"","html-keyboard-response","164","388718","0.0-10.0-1.2","h085msm1gk","one_one","1","indirect_first","0","NK04IM21","0","25","2","1","3","1","","0","1","0","null","","","<img src = 'category3/GS3.png' width = '100%;'>","null","","","","","","","","","",""
"","html-keyboard-response","165","388971","0.0-10.0-2.2","h085msm1gk","one_one","1","indirect_first","0","NK04IM21","0","25","2","1","3","1","","0","1","0","null","","","<img src = 'targets/28.png' width = '100%;'>","null","","","","","","","","","",""
"","html-keyboard-response","166","389487","0.0-10.0-3.2","h085msm1gk","one_one","1","indirect_first","0","NK04IM21","0","25","2","1","3","1","","0","1","0","514","","","<img src = 'targets/mask.png' width = '100%;'>","68","neg","GS","GSnew","3","category3/GS3.png","targets/28.png","0","indirect","18",""
"","html-keyboard-response","167","390991","0.0-10.0-0.3","h085msm1gk","one_one","1","indirect_first","0","NK04IM21","0","25","2","1","3","1","","0","1","0","null","","","<div style=""font-size:60px;"">+</div>","null","","","","","","","","","",""
"","html-keyboard-response","168","391083","0.0-10.0-1.3","h085msm1gk","one_one","1","indirect_first","0","NK04IM21","0","25","2","1","3","1","","0","1","0","null","","","<img src = 'category4/GS2.png' width = '100%;'>","null","","","","","","","","","",""
"","html-keyboard-response","169","391336","0.0-10.0-2.3","h085msm1gk","one_one","1","indirect_first","0","NK04IM21","0","25","2","1","3","1","","0","1","0","null","","","<img src = 'targets/19.png' width = '100%;'>","null","","","","","","","","","",""
"","html-keyboard-response","170","392067","0.0-10.0-3.3","h085msm1gk","one_one","1","indirect_first","0","NK04IM21","0","25","2","1","3","1","","0","1","0","729","","","<img src = 'targets/mask.png' width = '100%;'>","68","pos","GS","GSnew","4","category4/GS2.png","targets/19.png","0","indirect","19",""
"","html-keyboard-response","171","393570","0.0-10.0-0.4","h085msm1gk","one_one","1","indirect_first","0","NK04IM21","0","25","2","1","3","1","","0","1","0","null","","","<div style=""font-size:60px;"">+</div>","null","","","","","","","","","",""
"","html-keyboard-response","172","393663","0.0-10.0-1.4","h085msm1gk","one_one","1","indirect_first","0","NK04IM21","0","25","2","1","3","1","","0","1","0","null","","","<img src = 'category1/GS2.png' width = '100%;'>","null","","","","","","","","","",""
"","html-keyboard-response","173","393916","0.0-10.0-2.4","h085msm1gk","one_one","1","indirect_first","0","NK04IM21","0","25","2","1","3","1","","0","1","0","null","","","<img src = 'targets/17.png' width = '100%;'>","null","","","","","","","","","",""
"","html-keyboard-response","174","394473","0.0-10.0-3.4","h085msm1gk","one_one","1","indirect_first","0","NK04IM21","0","25","2","1","3","1","","0","1","0","554.9999999999418","","","<img src = 'targets/mask.png' width = '100%;'>","68","pos","GS","GSnew","1","category1/GS2.png","targets/17.png","0","indirect","20",""
"","html-keyboard-response","175","395976","0.0-10.0-0.5","h085msm1gk","one_one","1","indirect_first","0","NK04IM21","0","25","2","1","3","1","","0","1","0","null","","","<div style=""font-size:60px;"">+</div>","null","","","","","","","","","",""
"","html-keyboard-response","176","396069","0.0-10.0-1.5","h085msm1gk","one_one","1","indirect_first","0","NK04IM21","0","25","2","1","3","1","","0","1","0","null","","","<img src = 'category4/GS3.png' width = '100%;'>","null","","","","","","","","","",""
"","html-keyboard-response","177","396322","0.0-10.0-2.5","h085msm1gk","one_one","1","indirect_first","0","NK04IM21","0","25","2","1","3","1","","0","1","0","null","","","<img src = 'targets/23.png' width = '100%;'>","null","","","","","","","","","",""
"","html-keyboard-response","178","396931","0.0-10.0-3.5","h085msm1gk","one_one","1","indirect_first","0","NK04IM21","0","25","2","1","3","1","","0","1","0","608","","","<img src = 'targets/mask.png' width = '100%;'>","68","pos","GS","GSnew","4","category4/GS3.png","targets/23.png","0","indirect","21",""
"","html-keyboard-response","179","398434","0.0-10.0-0.6","h085msm1gk","one_one","1","indirect_first","0","NK04IM21","0","25","2","1","3","1","","0","1","0","null","","","<div style=""font-size:60px;"">+</div>","null","","","","","","","","","",""
"","html-keyboard-response","180","398526","0.0-10.0-1.6","h085msm1gk","one_one","1","indirect_first","0","NK04IM21","0","25","2","1","3","1","","0","1","0","null","","","<img src = 'category2/GS3.png' width = '100%;'>","null","","","","","","","","","",""
"","html-keyboard-response","181","398780","0.0-10.0-2.6","h085msm1gk","one_one","1","indirect_first","0","NK04IM21","0","25","2","1","3","1","","0","1","0","null","","","<img src = 'targets/27.png' width = '100%;'>","null","","","","","","","","","",""
"","html-keyboard-response","182","400055","0.0-10.0-3.6","h085msm1gk","one_one","1","indirect_first","0","NK04IM21","0","25","2","1","3","1","","0","1","0","1272.9999999999418","","","<img src = 'targets/mask.png' width = '100%;'>","68","neg","GS","GSnew","2","category2/GS3.png","targets/27.png","0","indirect","22",""
"","html-keyboard-response","183","401559","0.0-10.0-0.7","h085msm1gk","one_one","1","indirect_first","0","NK04IM21","0","25","2","1","3","1","","0","1","0","null","","","<div style=""font-size:60px;"">+</div>","null","","","","","","","","","",""
"","html-keyboard-response","184","401651","0.0-10.0-1.7","h085msm1gk","one_one","1","indirect_first","0","NK04IM21","0","25","2","1","3","1","","0","1","0","null","","","<img src = 'category4/lin.png' width = '100%;'>","null","","","","","","","","","",""
"","html-keyboard-response","185","401905","0.0-10.0-2.7","h085msm1gk","one_one","1","indirect_first","0","NK04IM21","0","25","2","1","3","1","","0","1","0","null","","","<img src = 'targets/30.png' width = '100%;'>","null","","","","","","","","","",""
"","html-keyboard-response","186","402415","0.0-10.0-3.7","h085msm1gk","one_one","1","indirect_first","0","NK04IM21","0","25","2","1","3","1","","0","1","0","508.9999999999418","","","<img src = 'targets/mask.png' width = '100%;'>","75","pos","GS","abstract","4","category4/lin.png","targets/30.png","1","indirect","23",""
"","html-keyboard-response","187","403919","0.0-10.0-0.8","h085msm1gk","one_one","1","indirect_first","0","NK04IM21","0","25","2","1","3","1","","0","1","0","null","","","<div style=""font-size:60px;"">+</div>","null","","","","","","","","","",""
"","html-keyboard-response","188","404011","0.0-10.0-1.8","h085msm1gk","one_one","1","indirect_first","0","NK04IM21","0","25","2","1","3","1","","0","1","0","null","","","<img src = 'category2/men.png' width = '100%;'>","null","","","","","","","","","",""
"","html-keyboard-response","189","404265","0.0-10.0-2.8","h085msm1gk","one_one","1","indirect_first","0","NK04IM21","0","25","2","1","3","1","","0","1","0","null","","","<img src = 'targets/42.png' width = '100%;'>","null","","","","","","","","","",""
"","html-keyboard-response","190","404868","0.0-10.0-3.8","h085msm1gk","one_one","1","indirect_first","0","NK04IM21","0","25","2","1","3","1","","0","1","0","602","","","<img src = 'targets/mask.png' width = '100%;'>","75","neg","GS","abstract","2","category2/men.png","targets/42.png","1","indirect","24",""
"","html-keyboard-response","191","406372","0.0-10.0-0.9","h085msm1gk","one_one","1","indirect_first","0","NK04IM21","0","25","2","1","3","1","","0","1","0","null","","","<div style=""font-size:60px;"">+</div>","null","","","","","","","","","",""
"","html-keyboard-response","192","406464","0.0-10.0-1.9","h085msm1gk","one_one","1","indirect_first","0","NK04IM21","0","25","2","1","3","1","","0","1","0","null","","","<img src = 'category3/GS2.png' width = '100%;'>","null","","","","","","","","","",""
"","html-keyboard-response","193","406718","0.0-10.0-2.9","h085msm1gk","one_one","1","indirect_first","0","NK04IM21","0","25","2","1","3","1","","0","1","0","null","","","<img src = 'targets/40.png' width = '100%;'>","null","","","","","","","","","",""
"","html-keyboard-response","194","407336","0.0-10.0-3.9","h085msm1gk","one_one","1","indirect_first","0","NK04IM21","0","25","2","1","3","1","","0","1","0","617","","","<img src = 'targets/mask.png' width = '100%;'>","68","neg","GS","GSnew","3","category3/GS2.png","targets/40.png","0","indirect","25",""
"","html-keyboard-response","195","408840","0.0-10.0-0.10","h085msm1gk","one_one","1","indirect_first","0","NK04IM21","0","25","2","1","3","1","","0","1","0","null","","","<div style=""font-size:60px;"">+</div>","null","","","","","","","","","",""
"","html-keyboard-response","196","408934","0.0-10.0-1.10","h085msm1gk","one_one","1","indirect_first","0","NK04IM21","0","25","2","1","3","1","","0","1","0","null","","","<img src = 'category1/GS3.png' width = '100%;'>","null","","","","","","","","","",""
"","html-keyboard-response","197","409188","0.0-10.0-2.10","h085msm1gk","one_one","1","indirect_first","0","NK04IM21","0","25","2","1","3","1","","0","1","0","null","","","<img src = 'targets/37.png' width = '100%;'>","null","","","","","","","","","",""
"","html-keyboard-response","198","409691","0.0-10.0-3.10","h085msm1gk","one_one","1","indirect_first","0","NK04IM21","0","25","2","1","3","1","","0","1","0","502","","","<img src = 'targets/mask.png' width = '100%;'>","75","pos","GS","GSnew","1","category1/GS3.png","targets/37.png","1","indirect","26",""
"","html-keyboard-response","199","411195","0.0-10.0-0.11","h085msm1gk","one_one","1","indirect_first","0","NK04IM21","0","25","2","1","3","1","","0","1","0","null","","","<div style=""font-size:60px;"">+</div>","null","","","","","","","","","",""
"","html-keyboard-response","200","411288","0.0-10.0-1.11","h085msm1gk","one_one","1","indirect_first","0","NK04IM21","0","25","2","1","3","1","","0","1","0","null","","","<img src = 'category4/GS1.png' width = '100%;'>","null","","","","","","","","","",""
"","html-keyboard-response","201","411540","0.0-10.0-2.11","h085msm1gk","one_one","1","indirect_first","0","NK04IM21","0","25","2","1","3","1","","0","1","0","null","","","<img src = 'targets/31.png' width = '100%;'>","null","","","","","","","","","",""
"","html-keyboard-response","202","412139","0.0-10.0-3.11","h085msm1gk","one_one","1","indirect_first","0","NK04IM21","0","25","2","1","3","1","","0","1","0","597","","","<img src = 'targets/mask.png' width = '100%;'>","68","pos","GS","GSnew","4","category4/GS1.png","targets/31.png","0","indirect","27",""
"","html-keyboard-response","203","413642","0.0-10.0-0.12","h085msm1gk","one_one","1","indirect_first","0","NK04IM21","0","25","2","1","3","1","","0","1","0","null","","","<div style=""font-size:60px;"">+</div>","null","","","","","","","","","",""
"","html-keyboard-response","204","413735","0.0-10.0-1.12","h085msm1gk","one_one","1","indirect_first","0","NK04IM21","0","25","2","1","3","1","","0","1","0","null","","","<img src = 'category3/wang.png' width = '100%;'>","null","","","","","","","","","",""
"","html-keyboard-response","205","413988","0.0-10.0-2.12","h085msm1gk","one_one","1","indirect_first","0","NK04IM21","0","25","2","1","3","1","","0","1","0","null","","","<img src = 'targets/16.png' width = '100%;'>","null","","","","","","","","","",""
"","html-keyboard-response","206","414522","0.0-10.0-3.12","h085msm1gk","one_one","1","indirect_first","0","NK04IM21","0","25","2","1","3","1","","0","1","0","533.9999999999418","","","<img src = 'targets/mask.png' width = '100%;'>","68","neg","GS","abstract","3","category3/wang.png","targets/16.png","0","indirect","28",""
"","html-keyboard-response","207","416026","0.0-10.0-0.13","h085msm1gk","one_one","1","indirect_first","0","NK04IM21","0","25","2","1","3","1","","0","1","0","null","","","<div style=""font-size:60px;"">+</div>","null","","","","","","","","","",""
"","html-keyboard-response","208","416118","0.0-10.0-1.13","h085msm1gk","one_one","1","indirect_first","0","NK04IM21","0","25","2","1","3","1","","0","1","0","null","","","<img src = 'category2/GS1.png' width = '100%;'>","null","","","","","","","","","",""
"","html-keyboard-response","209","416372","0.0-10.0-2.13","h085msm1gk","one_one","1","indirect_first","0","NK04IM21","0","25","2","1","3","1","","0","1","0","null","","","<img src = 'targets/45.png' width = '100%;'>","null","","","","","","","","","",""
"","html-keyboard-response","210","416806","0.0-10.0-3.13","h085msm1gk","one_one","1","indirect_first","0","NK04IM21","0","25","2","1","3","1","","0","1","0","432.0000000000582","","","<img src = 'targets/mask.png' width = '100%;'>","75","neg","GS","GSnew","2","category2/GS1.png","targets/45.png","1","indirect","29",""
"","html-keyboard-response","211","418311","0.0-10.0-0.14","h085msm1gk","one_one","1","indirect_first","0","NK04IM21","0","25","2","1","3","1","","0","1","0","null","","","<div style=""font-size:60px;"">+</div>","null","","","","","","","","","",""
"","html-keyboard-response","212","418406","0.0-10.0-1.14","h085msm1gk","one_one","1","indirect_first","0","NK04IM21","0","25","2","1","3","1","","0","1","0","null","","","<img src = 'category1/GS1.png' width = '100%;'>","null","","","","","","","","","",""
"","html-keyboard-response","213","418658","0.0-10.0-2.14","h085msm1gk","one_one","1","indirect_first","0","NK04IM21","0","25","2","1","3","1","","0","1","0","null","","","<img src = 'targets/35.png' width = '100%;'>","null","","","","","","","","","",""
"","html-keyboard-response","214","419505","0.0-10.0-3.14","h085msm1gk","one_one","1","indirect_first","0","NK04IM21","0","25","2","1","3","1","","0","1","0","845","","","<img src = 'targets/mask.png' width = '100%;'>","75","pos","GS","GSnew","1","category1/GS1.png","targets/35.png","1","indirect","30",""
"","html-keyboard-response","215","421009","0.0-10.0-0.15","h085msm1gk","one_one","1","indirect_first","0","NK04IM21","0","25","2","1","3","1","","0","1","0","null","","","<div style=""font-size:60px;"">+</div>","null","","","","","","","","","",""
"","html-keyboard-response","216","421102","0.0-10.0-1.15","h085msm1gk","one_one","1","indirect_first","0","NK04IM21","0","25","2","1","3","1","","0","1","0","null","","","<img src = 'category3/GS1.png' width = '100%;'>","null","","","","","","","","","",""
"","html-keyboard-response","217","421355","0.0-10.0-2.15","h085msm1gk","one_one","1","indirect_first","0","NK04IM21","0","25","2","1","3","1","","0","1","0","null","","","<img src = 'targets/32.png' width = '100%;'>","null","","","","","","","","","",""
"","html-keyboard-response","218","422588","0.0-10.0-3.15","h085msm1gk","one_one","1","indirect_first","0","NK04IM21","0","25","2","1","3","1","","0","1","0","1231","","","<img src = 'targets/mask.png' width = '100%;'>","68","neg","GS","GSnew","3","category3/GS1.png","targets/32.png","0","indirect","31",""
"","survey-html-form","219","427754","0.0-11.0","h085msm1gk","one_one","1","indirect_first","0","NK04IM21","0","25","2","1","3","1","","0","1","0","4663","","{}","","","","","","","","","","","",""
"","image-slider-response","220","436900","0.0-12.0-0.0","h085msm1gk","one_one","1","indirect_first","0","NK04IM21","0","25","2","1","3","1","","0","1","0","7136","","","","","pos","GS","GSold","4","category4/CS2.png","targets/41.png","","direct","","29"
"","image-slider-response","221","439962","0.0-12.0-0.1","h085msm1gk","one_one","1","indirect_first","0","NK04IM21","0","25","2","1","3","1","","0","1","0","3060","","","","","neg","GS","GSold","3","category3/CS6.png","targets/48.png","","direct","","-21"
"","image-slider-response","222","443169","0.0-12.0-0.2","h085msm1gk","one_one","1","indirect_first","0","NK04IM21","0","25","2","1","3","1","","0","1","0","3205","","","","","pos","GS","GSnew","1","category1/GS1.png","targets/35.png","","direct","","12"
"","image-slider-response","223","446627","0.0-12.0-0.3","h085msm1gk","one_one","1","indirect_first","0","NK04IM21","0","25","2","1","3","1","","0","1","0","3456","","","","","neg","GS","GSnew","3","category3/GS1.png","targets/32.png","","direct","","18"
"","image-slider-response","224","450622","0.0-12.0-0.4","h085msm1gk","one_one","1","indirect_first","0","NK04IM21","0","25","2","1","3","1","","0","1","0","3992.000000000058","","","","","neg","GS","GSnew","2","category2/GS1.png","targets/45.png","","direct","","-53"
"","image-slider-response","225","454369","0.0-12.0-0.5","h085msm1gk","one_one","1","indirect_first","0","NK04IM21","0","25","2","1","3","1","","0","1","0","3745","","","","","neg","GS","GSnew","2","category2/GS2.png","targets/29.png","","direct","","-72"
"","image-slider-response","226","457683","0.0-12.0-0.6","h085msm1gk","one_one","1","indirect_first","0","NK04IM21","0","25","2","1","3","1","","0","1","0","3312","","","","","neg","GS","abstract","2","category2/men.png","targets/42.png","","direct","","-73"
"","image-slider-response","227","459926","0.0-12.0-0.7","h085msm1gk","one_one","1","indirect_first","0","NK04IM21","0","25","2","1","3","1","","0","1","0","2241","","","","","pos","GS","abstract","1","category1/ma.png","targets/21.png","","direct","","25"
"","image-slider-response","228","463176","0.0-12.0-0.8","h085msm1gk","one_one","1","indirect_first","0","NK04IM21","0","25","2","1","3","1","","0","1","0","3248","","","","","neg","CS","CS","3","category3/CS9.png","targets/12.png","","direct","","-35"
"","image-slider-response","229","466574","0.0-12.0-0.9","h085msm1gk","one_one","1","indirect_first","0","NK04IM21","0","25","2","1","3","1","","0","1","0","3395","","","","","neg","GS","GSold","2","category2/CS8.png","targets/3.png","","direct","","-86"
"","image-slider-response","230","469711","0.0-12.0-0.10","h085msm1gk","one_one","1","indirect_first","0","NK04IM21","0","25","2","1","3","1","","0","1","0","3135","","","","","neg","GS","GSold","3","category3/CS4.png","targets/24.png","","direct","","-15"
"","image-slider-response","231","472736","0.0-12.0-0.11","h085msm1gk","one_one","1","indirect_first","0","NK04IM21","0","25","2","1","3","1","","0","1","0","3024","","","","","pos","GS","GSold","4","category4/CS8.png","targets/1.png","","direct","","47"
"","image-slider-response","232","475004","0.0-12.0-0.12","h085msm1gk","one_one","1","indirect_first","0","NK04IM21","0","25","2","1","3","1","","0","1","0","2262.999999999942","","","","","pos","GS","abstract","4","category4/lin.png","targets/30.png","","direct","","11"
"","image-slider-response","233","478221","0.0-12.0-0.13","h085msm1gk","one_one","1","indirect_first","0","NK04IM21","0","25","2","1","3","1","","0","1","0","3215","","","","","pos","CS","CS","4","category4/CS9.png","targets/47.png","","direct","","90"
"","image-slider-response","234","484148","0.0-12.0-0.14","h085msm1gk","one_one","1","indirect_first","0","NK04IM21","0","25","2","1","3","1","","0","1","0","5926","","","","","pos","GS","GSnew","1","category1/GS2.png","targets/17.png","","direct","","24"
"","image-slider-response","235","488320","0.0-12.0-0.15","h085msm1gk","one_one","1","indirect_first","0","NK04IM21","0","25","2","1","3","1","","0","1","0","4169.000000000058","","","","","neg","GS","abstract","3","category3/wang.png","targets/16.png","","direct","","-10"
"","image-slider-response","236","490745","0.0-12.0-0.16","h085msm1gk","one_one","1","indirect_first","0","NK04IM21","0","25","2","1","3","1","","0","1","0","2423","","","","","neg","GS","GSold","3","category3/CS10.png","targets/36.png","","direct","","-23"
"","image-slider-response","237","494215","0.0-12.0-0.17","h085msm1gk","one_one","1","indirect_first","0","NK04IM21","0","25","2","1","3","1","","0","1","0","3468","","","","","pos","CS","CS","1","category1/CS7.png","targets/20.png","","direct","","65"
"","image-slider-response","238","498098","0.0-12.0-0.18","h085msm1gk","one_one","1","indirect_first","0","NK04IM21","0","25","2","1","3","1","","0","1","0","3881","","","","","pos","GS","GSnew","4","category4/GS1.png","targets/31.png","","direct","","-62"
"","image-slider-response","239","501195","0.0-12.0-0.19","h085msm1gk","one_one","1","indirect_first","0","NK04IM21","0","25","2","1","3","1","","0","1","0","3094","","","","","neg","GS","GSold","2","category2/CS9.png","targets/25.png","","direct","","-65"
"","image-slider-response","240","505342","0.0-12.0-0.20","h085msm1gk","one_one","1","indirect_first","0","NK04IM21","0","25","2","1","3","1","","0","1","0","4145","","","","","pos","GS","GSnew","1","category1/GS3.png","targets/37.png","","direct","","39"
"","image-slider-response","241","508200","0.0-12.0-0.21","h085msm1gk","one_one","1","indirect_first","0","NK04IM21","0","25","2","1","3","1","","0","1","0","2854.999999999942","","","","","pos","GS","GSold","1","category1/CS4.png","targets/18.png","","direct","","-50"
"","image-slider-response","242","512469","0.0-12.0-0.22","h085msm1gk","one_one","1","indirect_first","0","NK04IM21","0","25","2","1","3","1","","0","1","0","4267.000000000058","","","","","neg","GS","GSnew","3","category3/GS2.png","targets/40.png","","direct","","33"
"","image-slider-response","243","515457","0.0-12.0-0.23","h085msm1gk","one_one","1","indirect_first","0","NK04IM21","0","25","2","1","3","1","","0","1","0","2986","","","","","pos","GS","GSold","4","category4/CS3.png","targets/5.png","","direct","","30"
"","image-slider-response","244","517681","0.0-12.0-0.24","h085msm1gk","one_one","1","indirect_first","0","NK04IM21","0","25","2","1","3","1","","0","1","0","2222.0000000001164","","","","","neg","CS","CS","2","category2/CS4.png","targets/34.png","","direct","","-49"
"","image-slider-response","245","519956","0.0-12.0-0.25","h085msm1gk","one_one","1","indirect_first","0","NK04IM21","0","25","2","1","3","1","","0","1","0","2274","","","","","pos","GS","GSnew","4","category4/GS3.png","targets/23.png","","direct","","-57"
"","image-slider-response","246","522237","0.0-12.0-0.26","h085msm1gk","one_one","1","indirect_first","0","NK04IM21","0","25","2","1","3","1","","0","1","0","2279","","","","","neg","GS","GSnew","2","category2/GS3.png","targets/27.png","","direct","","-50"
"","image-slider-response","247","525087","0.0-12.0-0.27","h085msm1gk","one_one","1","indirect_first","0","NK04IM21","0","25","2","1","3","1","","0","1","0","2847.999999999942","","","","","neg","GS","GSold","2","category2/CS1.png","targets/33.png","","direct","","-52"
"","image-slider-response","248","527499","0.0-12.0-0.28","h085msm1gk","one_one","1","indirect_first","0","NK04IM21","0","25","2","1","3","1","","0","1","0","2408.9999999998836","","","","","neg","GS","GSnew","3","category3/GS3.png","targets/28.png","","direct","","29"
"","image-slider-response","249","530147","0.0-12.0-0.29","h085msm1gk","one_one","1","indirect_first","0","NK04IM21","0","25","2","1","3","1","","0","1","0","2645.0000000001164","","","","","pos","GS","GSold","1","category1/CS2.png","targets/43.png","","direct","","27"
"","image-slider-response","250","533152","0.0-12.0-0.30","h085msm1gk","one_one","1","indirect_first","0","NK04IM21","0","25","2","1","3","1","","0","1","0","3003","","","","","pos","GS","GSnew","4","category4/GS2.png","targets/19.png","","direct","","-50"
"","image-slider-response","251","536049","0.0-12.0-0.31","h085msm1gk","one_one","1","indirect_first","0","NK04IM21","0","25","2","1","3","1","","0","1","0","2895","","","","","pos","GS","GSold","1","category1/CS10.png","targets/26.png","","direct","","12"
"","survey-html-form","252","541248","0.0-13.0","h085msm1gk","one_one","1","indirect_first","0","NK04IM21","0","25","2","1","3","1","","0","1","0","5198","","{}","","","","","","","","","","","",""
"","image-slider-response","253","545201","0.0-14.0-0.0","h085msm1gk","one_one","1","indirect_first","0","NK04IM21","0","25","2","1","3","1","","0","1","0","2949","","","","","pos","All","all","4","category4/lin_all.png","","","all","","22"
"","image-slider-response","254","547722","0.0-14.0-0.1","h085msm1gk","one_one","1","indirect_first","0","NK04IM21","0","25","2","1","3","1","","0","1","0","2518","","","","","neg","All","all","2","category2/men_all.png","","","all","","-46"
"","image-slider-response","255","551726","0.0-14.0-0.2","h085msm1gk","one_one","1","indirect_first","0","NK04IM21","0","25","2","1","3","1","","0","1","0","4002","","","","","pos","All","all","1","category1/ma_all.png","","","all","","-4"
"","image-slider-response","256","554435","0.0-14.0-0.3","h085msm1gk","one_one","1","indirect_first","0","NK04IM21","0","25","2","1","3","1","","0","1","0","2707","","","","","neg","All","all","3","category3/wang_all.png","","","all","","-19"
"","survey-text","257","557496","0.0-15.0","h085msm1gk","one_one","1","indirect_first","0","NK04IM21","0","25","2","1","3","1","","0","1","0","3055","","{""comment"":""""}","","","","","","","","","","","",""
"","survey-html-form","258","569034","0.0-16.0","h085msm1gk","one_one","1","indirect_first","0","NK04IM21","0","25","2","1","3","1","","0","1","0","11536","","{""hinschauen"":""0"",""ablenkung"":""1"",""gewissenhaft"":""0""}","","","","","","","","","","","",""
