"success","trial_type","trial_index","time_elapsed","internal_node_id","subject","condition","condition_code","measure","measure_code","codeword","gender","age","education","chinese","fach","handedness","comment","hinschauen","ablenkung","gewissenhaft","rt","url","responses","stimulus","key_press","val","type","type_specific","category","cs_selected","response","target","task","indirect","nr_pres"
"true","fullscreen","0","307753","0.0-0.0","4l4yq4n0oe","one_one","1","direct_first","1","ÖB08RT30","0","23","1","1","3","1","","0","1","0","","","","","","","","","","","","","","",""
"","external-html","1","335806","0.0-1.0","4l4yq4n0oe","one_one","1","direct_first","1","ÖB08RT30","0","23","1","1","3","1","","0","1","0","27703.4549999953","text/information.html","","","","","","","","","","","","",""
"","external-html","2","351453","0.0-2.0","4l4yq4n0oe","one_one","1","direct_first","1","ÖB08RT30","0","23","1","1","3","1","","0","1","0","15523.170000000391","text/consent.html","","","","","","","","","","","","",""
"","survey-html-form","3","384968","0.0-3.0","4l4yq4n0oe","one_one","1","direct_first","1","ÖB08RT30","0","23","1","1","3","1","","0","1","0","33508.34499999473","","{""codeword_enter"":""ÖB08RT30""}","","","","","","","","","","","",""
"","survey-html-form","4","402211","0.0-4.0","4l4yq4n0oe","one_one","1","direct_first","1","ÖB08RT30","0","23","1","1","3","1","","0","1","0","17239.36500000127","","{""age"":""23"",""education"":""1"",""subject"":""3"",""gender"":""0"",""handedness"":""1"",""chinese"":""1""}","","","","","","","","","","","",""
"","survey-html-form","5","417395","0.0-5.0","4l4yq4n0oe","one_one","1","direct_first","1","ÖB08RT30","0","23","1","1","3","1","","0","1","0","15181.010000000242","","{}","","","","","","","","","","","",""
"","html-keyboard-response","6","421413","0.0-6.0-0.0-0.0","4l4yq4n0oe","one_one","1","direct_first","1","ÖB08RT30","0","23","1","1","3","1","","0","1","0","null","","","<div class = 'row'><div class = 'column'><img src = 'category1/CS4.png' width = '70%;'></div><div class = 'column'><img src = 'uspos/4599.bmp' width = '100%;'></div></div>","null","pos","CS","CS","1","category1/CS4.png","","","","",""
"","html-keyboard-response","7","423916","0.0-6.0-0.0-0.1","4l4yq4n0oe","one_one","1","direct_first","1","ÖB08RT30","0","23","1","1","3","1","","0","1","0","null","","","<div class = 'row'><div class = 'column'><img src = 'category3/CS8.png' width = '70%;'></div><div class = 'column'><img src = 'usneg/7380.bmp' width = '100%;'></div></div>","null","neg","CS","CS","3","category3/CS8.png","","","","",""
"","html-keyboard-response","8","426432","0.0-6.0-0.0-0.2","4l4yq4n0oe","one_one","1","direct_first","1","ÖB08RT30","0","23","1","1","3","1","","0","1","0","null","","","<div class = 'row'><div class = 'column'><img src = 'category2/CS9.png' width = '70%;'></div><div class = 'column'><img src = 'uspos/8461.bmp' width = '100%;'></div></div>","null","pos","CS","CS","2","category2/CS9.png","","","","",""
"","html-keyboard-response","9","428942","0.0-6.0-0.0-0.3","4l4yq4n0oe","one_one","1","direct_first","1","ÖB08RT30","0","23","1","1","3","1","","0","1","0","null","","","<div class = 'row'><div class = 'column'><img src = 'category4/CS7.png' width = '70%;'></div><div class = 'column'><img src = 'usneg/3160.bmp' width = '100%;'></div></div>","null","neg","CS","CS","4","category4/CS7.png","","","","",""
"","html-keyboard-response","10","431465","0.0-6.0-0.0-0.4","4l4yq4n0oe","one_one","1","direct_first","1","ÖB08RT30","0","23","1","1","3","1","","0","1","0","null","","","<div class = 'row'><div class = 'column'><img src = 'category2/CS9.png' width = '70%;'></div><div class = 'column'><img src = 'uspos/8461.bmp' width = '100%;'></div></div>","null","pos","CS","CS","2","category2/CS9.png","","","","",""
"","html-keyboard-response","11","433975","0.0-6.0-0.0-0.5","4l4yq4n0oe","one_one","1","direct_first","1","ÖB08RT30","0","23","1","1","3","1","","0","1","0","null","","","<div class = 'row'><div class = 'column'><img src = 'category1/CS4.png' width = '70%;'></div><div class = 'column'><img src = 'uspos/4599.bmp' width = '100%;'></div></div>","null","pos","CS","CS","1","category1/CS4.png","","","","",""
"","html-keyboard-response","12","436494","0.0-6.0-0.0-0.6","4l4yq4n0oe","one_one","1","direct_first","1","ÖB08RT30","0","23","1","1","3","1","","0","1","0","null","","","<div class = 'row'><div class = 'column'><img src = 'usneg/3160.bmp' width = '100%;'></div><div class = 'column'><img src = 'category4/CS7.png' width = '70%;'></div></div>","null","neg","CS","CS","4","category4/CS7.png","","","","",""
"","html-keyboard-response","13","439017","0.0-6.0-0.0-0.7","4l4yq4n0oe","one_one","1","direct_first","1","ÖB08RT30","0","23","1","1","3","1","","0","1","0","null","","","<div class = 'row'><div class = 'column'><img src = 'usneg/7380.bmp' width = '100%;'></div><div class = 'column'><img src = 'category3/CS8.png' width = '70%;'></div></div>","null","neg","CS","CS","3","category3/CS8.png","","","","",""
"","html-keyboard-response","14","441532","0.0-6.0-0.0-0.8","4l4yq4n0oe","one_one","1","direct_first","1","ÖB08RT30","0","23","1","1","3","1","","0","1","0","null","","","<div class = 'row'><div class = 'column'><img src = 'uspos/8461.bmp' width = '100%;'></div><div class = 'column'><img src = 'category2/CS9.png' width = '70%;'></div></div>","null","pos","CS","CS","2","category2/CS9.png","","","","",""
"","html-keyboard-response","15","444035","0.0-6.0-0.0-0.9","4l4yq4n0oe","one_one","1","direct_first","1","ÖB08RT30","0","23","1","1","3","1","","0","1","0","null","","","<div class = 'row'><div class = 'column'><img src = 'usneg/3160.bmp' width = '100%;'></div><div class = 'column'><img src = 'category4/CS7.png' width = '70%;'></div></div>","null","neg","CS","CS","4","category4/CS7.png","","","","",""
"","html-keyboard-response","16","446545","0.0-6.0-0.0-0.10","4l4yq4n0oe","one_one","1","direct_first","1","ÖB08RT30","0","23","1","1","3","1","","0","1","0","null","","","<div class = 'row'><div class = 'column'><img src = 'category3/CS8.png' width = '70%;'></div><div class = 'column'><img src = 'usneg/7380.bmp' width = '100%;'></div></div>","null","neg","CS","CS","3","category3/CS8.png","","","","",""
"","html-keyboard-response","17","449060","0.0-6.0-0.0-0.11","4l4yq4n0oe","one_one","1","direct_first","1","ÖB08RT30","0","23","1","1","3","1","","0","1","0","null","","","<div class = 'row'><div class = 'column'><img src = 'uspos/8461.bmp' width = '100%;'></div><div class = 'column'><img src = 'category2/CS9.png' width = '70%;'></div></div>","null","pos","CS","CS","2","category2/CS9.png","","","","",""
"","html-keyboard-response","18","451571","0.0-6.0-0.0-0.12","4l4yq4n0oe","one_one","1","direct_first","1","ÖB08RT30","0","23","1","1","3","1","","0","1","0","null","","","<div class = 'row'><div class = 'column'><img src = 'uspos/4599.bmp' width = '100%;'></div><div class = 'column'><img src = 'category1/CS4.png' width = '70%;'></div></div>","null","pos","CS","CS","1","category1/CS4.png","","","","",""
"","html-keyboard-response","19","454096","0.0-6.0-0.0-0.13","4l4yq4n0oe","one_one","1","direct_first","1","ÖB08RT30","0","23","1","1","3","1","","0","1","0","null","","","<div class = 'row'><div class = 'column'><img src = 'category4/CS7.png' width = '70%;'></div><div class = 'column'><img src = 'usneg/3160.bmp' width = '100%;'></div></div>","null","neg","CS","CS","4","category4/CS7.png","","","","",""
"","html-keyboard-response","20","456633","0.0-6.0-0.0-0.14","4l4yq4n0oe","one_one","1","direct_first","1","ÖB08RT30","0","23","1","1","3","1","","0","1","0","null","","","<div class = 'row'><div class = 'column'><img src = 'uspos/8461.bmp' width = '100%;'></div><div class = 'column'><img src = 'category2/CS9.png' width = '70%;'></div></div>","null","pos","CS","CS","2","category2/CS9.png","","","","",""
"","html-keyboard-response","21","459152","0.0-6.0-0.0-0.15","4l4yq4n0oe","one_one","1","direct_first","1","ÖB08RT30","0","23","1","1","3","1","","0","1","0","null","","","<div class = 'row'><div class = 'column'><img src = 'uspos/4599.bmp' width = '100%;'></div><div class = 'column'><img src = 'category1/CS4.png' width = '70%;'></div></div>","null","pos","CS","CS","1","category1/CS4.png","","","","",""
"","html-keyboard-response","22","461665","0.0-6.0-0.0-0.16","4l4yq4n0oe","one_one","1","direct_first","1","ÖB08RT30","0","23","1","1","3","1","","0","1","0","null","","","<div class = 'row'><div class = 'column'><img src = 'usneg/7380.bmp' width = '100%;'></div><div class = 'column'><img src = 'category3/CS8.png' width = '70%;'></div></div>","null","neg","CS","CS","3","category3/CS8.png","","","","",""
"","html-keyboard-response","23","464182","0.0-6.0-0.0-0.17","4l4yq4n0oe","one_one","1","direct_first","1","ÖB08RT30","0","23","1","1","3","1","","0","1","0","null","","","<div class = 'row'><div class = 'column'><img src = 'usneg/3160.bmp' width = '100%;'></div><div class = 'column'><img src = 'category4/CS7.png' width = '70%;'></div></div>","null","neg","CS","CS","4","category4/CS7.png","","","","",""
"","html-keyboard-response","24","466687","0.0-6.0-0.0-0.18","4l4yq4n0oe","one_one","1","direct_first","1","ÖB08RT30","0","23","1","1","3","1","","0","1","0","null","","","<div class = 'row'><div class = 'column'><img src = 'category1/CS4.png' width = '70%;'></div><div class = 'column'><img src = 'uspos/4599.bmp' width = '100%;'></div></div>","null","pos","CS","CS","1","category1/CS4.png","","","","",""
"","html-keyboard-response","25","469198","0.0-6.0-0.0-0.19","4l4yq4n0oe","one_one","1","direct_first","1","ÖB08RT30","0","23","1","1","3","1","","0","1","0","null","","","<div class = 'row'><div class = 'column'><img src = 'usneg/7380.bmp' width = '100%;'></div><div class = 'column'><img src = 'category3/CS8.png' width = '70%;'></div></div>","null","neg","CS","CS","3","category3/CS8.png","","","","",""
"","survey-html-form","26","472181","0.0-6.0-1.0","4l4yq4n0oe","one_one","1","direct_first","1","ÖB08RT30","0","23","1","1","3","1","","0","1","0","2480.765000000247","","{}","","","","","","","","","","","",""
"","html-keyboard-response","27","476192","0.0-6.0-2.0-0.0","4l4yq4n0oe","one_one","1","direct_first","1","ÖB08RT30","0","23","1","1","3","1","","0","1","0","null","","","<div class = 'row'><div class = 'column'><img src = 'uspos/4599.bmp' width = '100%;'></div><div class = 'column'><img src = 'category1/CS4.png' width = '70%;'></div></div>","null","pos","CS","CS","1","category1/CS4.png","","","","",""
"","html-keyboard-response","28","478715","0.0-6.0-2.0-0.1","4l4yq4n0oe","one_one","1","direct_first","1","ÖB08RT30","0","23","1","1","3","1","","0","1","0","null","","","<div class = 'row'><div class = 'column'><img src = 'category4/CS7.png' width = '70%;'></div><div class = 'column'><img src = 'usneg/3160.bmp' width = '100%;'></div></div>","null","neg","CS","CS","4","category4/CS7.png","","","","",""
"","html-keyboard-response","29","481226","0.0-6.0-2.0-0.2","4l4yq4n0oe","one_one","1","direct_first","1","ÖB08RT30","0","23","1","1","3","1","","0","1","0","null","","","<div class = 'row'><div class = 'column'><img src = 'uspos/8461.bmp' width = '100%;'></div><div class = 'column'><img src = 'category2/CS9.png' width = '70%;'></div></div>","null","pos","CS","CS","2","category2/CS9.png","","","","",""
"","html-keyboard-response","30","483740","0.0-6.0-2.0-0.3","4l4yq4n0oe","one_one","1","direct_first","1","ÖB08RT30","0","23","1","1","3","1","","0","1","0","null","","","<div class = 'row'><div class = 'column'><img src = 'usneg/3160.bmp' width = '100%;'></div><div class = 'column'><img src = 'category4/CS7.png' width = '70%;'></div></div>","null","neg","CS","CS","4","category4/CS7.png","","","","",""
"","html-keyboard-response","31","486258","0.0-6.0-2.0-0.4","4l4yq4n0oe","one_one","1","direct_first","1","ÖB08RT30","0","23","1","1","3","1","","0","1","0","null","","","<div class = 'row'><div class = 'column'><img src = 'category3/CS8.png' width = '70%;'></div><div class = 'column'><img src = 'usneg/7380.bmp' width = '100%;'></div></div>","null","neg","CS","CS","3","category3/CS8.png","","","","",""
"","html-keyboard-response","32","488780","0.0-6.0-2.0-0.5","4l4yq4n0oe","one_one","1","direct_first","1","ÖB08RT30","0","23","1","1","3","1","","0","1","0","null","","","<div class = 'row'><div class = 'column'><img src = 'category2/CS9.png' width = '70%;'></div><div class = 'column'><img src = 'uspos/8461.bmp' width = '100%;'></div></div>","null","pos","CS","CS","2","category2/CS9.png","","","","",""
"","html-keyboard-response","33","491293","0.0-6.0-2.0-0.6","4l4yq4n0oe","one_one","1","direct_first","1","ÖB08RT30","0","23","1","1","3","1","","0","1","0","null","","","<div class = 'row'><div class = 'column'><img src = 'usneg/3160.bmp' width = '100%;'></div><div class = 'column'><img src = 'category4/CS7.png' width = '70%;'></div></div>","null","neg","CS","CS","4","category4/CS7.png","","","","",""
"","html-keyboard-response","34","493824","0.0-6.0-2.0-0.7","4l4yq4n0oe","one_one","1","direct_first","1","ÖB08RT30","0","23","1","1","3","1","","0","1","0","null","","","<div class = 'row'><div class = 'column'><img src = 'category3/CS8.png' width = '70%;'></div><div class = 'column'><img src = 'usneg/7380.bmp' width = '100%;'></div></div>","null","neg","CS","CS","3","category3/CS8.png","","","","",""
"","html-keyboard-response","35","496342","0.0-6.0-2.0-0.8","4l4yq4n0oe","one_one","1","direct_first","1","ÖB08RT30","0","23","1","1","3","1","","0","1","0","null","","","<div class = 'row'><div class = 'column'><img src = 'category1/CS4.png' width = '70%;'></div><div class = 'column'><img src = 'uspos/4599.bmp' width = '100%;'></div></div>","null","pos","CS","CS","1","category1/CS4.png","","","","",""
"","html-keyboard-response","36","498859","0.0-6.0-2.0-0.9","4l4yq4n0oe","one_one","1","direct_first","1","ÖB08RT30","0","23","1","1","3","1","","0","1","0","null","","","<div class = 'row'><div class = 'column'><img src = 'category3/CS8.png' width = '70%;'></div><div class = 'column'><img src = 'usneg/7380.bmp' width = '100%;'></div></div>","null","neg","CS","CS","3","category3/CS8.png","","","","",""
"","html-keyboard-response","37","501366","0.0-6.0-2.0-0.10","4l4yq4n0oe","one_one","1","direct_first","1","ÖB08RT30","0","23","1","1","3","1","","0","1","0","null","","","<div class = 'row'><div class = 'column'><img src = 'uspos/4599.bmp' width = '100%;'></div><div class = 'column'><img src = 'category1/CS4.png' width = '70%;'></div></div>","null","pos","CS","CS","1","category1/CS4.png","","","","",""
"","html-keyboard-response","38","503877","0.0-6.0-2.0-0.11","4l4yq4n0oe","one_one","1","direct_first","1","ÖB08RT30","0","23","1","1","3","1","","0","1","0","null","","","<div class = 'row'><div class = 'column'><img src = 'usneg/3160.bmp' width = '100%;'></div><div class = 'column'><img src = 'category4/CS7.png' width = '70%;'></div></div>","null","neg","CS","CS","4","category4/CS7.png","","","","",""
"","html-keyboard-response","39","506395","0.0-6.0-2.0-0.12","4l4yq4n0oe","one_one","1","direct_first","1","ÖB08RT30","0","23","1","1","3","1","","0","1","0","null","","","<div class = 'row'><div class = 'column'><img src = 'category2/CS9.png' width = '70%;'></div><div class = 'column'><img src = 'uspos/8461.bmp' width = '100%;'></div></div>","null","pos","CS","CS","2","category2/CS9.png","","","","",""
"","html-keyboard-response","40","508924","0.0-6.0-2.0-0.13","4l4yq4n0oe","one_one","1","direct_first","1","ÖB08RT30","0","23","1","1","3","1","","0","1","0","null","","","<div class = 'row'><div class = 'column'><img src = 'usneg/7380.bmp' width = '100%;'></div><div class = 'column'><img src = 'category3/CS8.png' width = '70%;'></div></div>","null","neg","CS","CS","3","category3/CS8.png","","","","",""
"","html-keyboard-response","41","511434","0.0-6.0-2.0-0.14","4l4yq4n0oe","one_one","1","direct_first","1","ÖB08RT30","0","23","1","1","3","1","","0","1","0","null","","","<div class = 'row'><div class = 'column'><img src = 'uspos/8461.bmp' width = '100%;'></div><div class = 'column'><img src = 'category2/CS9.png' width = '70%;'></div></div>","null","pos","CS","CS","2","category2/CS9.png","","","","",""
"","html-keyboard-response","42","513956","0.0-6.0-2.0-0.15","4l4yq4n0oe","one_one","1","direct_first","1","ÖB08RT30","0","23","1","1","3","1","","0","1","0","null","","","<div class = 'row'><div class = 'column'><img src = 'uspos/4599.bmp' width = '100%;'></div><div class = 'column'><img src = 'category1/CS4.png' width = '70%;'></div></div>","null","pos","CS","CS","1","category1/CS4.png","","","","",""
"","html-keyboard-response","43","516467","0.0-6.0-2.0-0.16","4l4yq4n0oe","one_one","1","direct_first","1","ÖB08RT30","0","23","1","1","3","1","","0","1","0","null","","","<div class = 'row'><div class = 'column'><img src = 'category3/CS8.png' width = '70%;'></div><div class = 'column'><img src = 'usneg/7380.bmp' width = '100%;'></div></div>","null","neg","CS","CS","3","category3/CS8.png","","","","",""
"","html-keyboard-response","44","518971","0.0-6.0-2.0-0.17","4l4yq4n0oe","one_one","1","direct_first","1","ÖB08RT30","0","23","1","1","3","1","","0","1","0","null","","","<div class = 'row'><div class = 'column'><img src = 'category1/CS4.png' width = '70%;'></div><div class = 'column'><img src = 'uspos/4599.bmp' width = '100%;'></div></div>","null","pos","CS","CS","1","category1/CS4.png","","","","",""
"","html-keyboard-response","45","521487","0.0-6.0-2.0-0.18","4l4yq4n0oe","one_one","1","direct_first","1","ÖB08RT30","0","23","1","1","3","1","","0","1","0","null","","","<div class = 'row'><div class = 'column'><img src = 'category4/CS7.png' width = '70%;'></div><div class = 'column'><img src = 'usneg/3160.bmp' width = '100%;'></div></div>","null","neg","CS","CS","4","category4/CS7.png","","","","",""
"","html-keyboard-response","46","524020","0.0-6.0-2.0-0.19","4l4yq4n0oe","one_one","1","direct_first","1","ÖB08RT30","0","23","1","1","3","1","","0","1","0","null","","","<div class = 'row'><div class = 'column'><img src = 'category2/CS9.png' width = '70%;'></div><div class = 'column'><img src = 'uspos/8461.bmp' width = '100%;'></div></div>","null","pos","CS","CS","2","category2/CS9.png","","","","",""
"","survey-html-form","47","525910","0.0-6.0-3.0","4l4yq4n0oe","one_one","1","direct_first","1","ÖB08RT30","0","23","1","1","3","1","","0","1","0","1386.1150000011548","","{}","","","","","","","","","","","",""
"","html-keyboard-response","48","529917","0.0-6.0-4.0-0.0","4l4yq4n0oe","one_one","1","direct_first","1","ÖB08RT30","0","23","1","1","3","1","","0","1","0","null","","","<div class = 'row'><div class = 'column'><img src = 'usneg/7380.bmp' width = '100%;'></div><div class = 'column'><img src = 'category3/CS8.png' width = '70%;'></div></div>","null","neg","CS","CS","3","category3/CS8.png","","","","",""
"","html-keyboard-response","49","532433","0.0-6.0-4.0-0.1","4l4yq4n0oe","one_one","1","direct_first","1","ÖB08RT30","0","23","1","1","3","1","","0","1","0","null","","","<div class = 'row'><div class = 'column'><img src = 'category2/CS9.png' width = '70%;'></div><div class = 'column'><img src = 'uspos/8461.bmp' width = '100%;'></div></div>","null","pos","CS","CS","2","category2/CS9.png","","","","",""
"","html-keyboard-response","50","534954","0.0-6.0-4.0-0.2","4l4yq4n0oe","one_one","1","direct_first","1","ÖB08RT30","0","23","1","1","3","1","","0","1","0","null","","","<div class = 'row'><div class = 'column'><img src = 'category4/CS7.png' width = '70%;'></div><div class = 'column'><img src = 'usneg/3160.bmp' width = '100%;'></div></div>","null","neg","CS","CS","4","category4/CS7.png","","","","",""
"","html-keyboard-response","51","537461","0.0-6.0-4.0-0.3","4l4yq4n0oe","one_one","1","direct_first","1","ÖB08RT30","0","23","1","1","3","1","","0","1","0","null","","","<div class = 'row'><div class = 'column'><img src = 'category2/CS9.png' width = '70%;'></div><div class = 'column'><img src = 'uspos/8461.bmp' width = '100%;'></div></div>","null","pos","CS","CS","2","category2/CS9.png","","","","",""
"","html-keyboard-response","52","539986","0.0-6.0-4.0-0.4","4l4yq4n0oe","one_one","1","direct_first","1","ÖB08RT30","0","23","1","1","3","1","","0","1","0","null","","","<div class = 'row'><div class = 'column'><img src = 'category3/CS8.png' width = '70%;'></div><div class = 'column'><img src = 'usneg/7380.bmp' width = '100%;'></div></div>","null","neg","CS","CS","3","category3/CS8.png","","","","",""
"","html-keyboard-response","53","542501","0.0-6.0-4.0-0.5","4l4yq4n0oe","one_one","1","direct_first","1","ÖB08RT30","0","23","1","1","3","1","","0","1","0","null","","","<div class = 'row'><div class = 'column'><img src = 'uspos/4599.bmp' width = '100%;'></div><div class = 'column'><img src = 'category1/CS4.png' width = '70%;'></div></div>","null","pos","CS","CS","1","category1/CS4.png","","","","",""
"","html-keyboard-response","54","545024","0.0-6.0-4.0-0.6","4l4yq4n0oe","one_one","1","direct_first","1","ÖB08RT30","0","23","1","1","3","1","","0","1","0","null","","","<div class = 'row'><div class = 'column'><img src = 'category3/CS8.png' width = '70%;'></div><div class = 'column'><img src = 'usneg/7380.bmp' width = '100%;'></div></div>","null","neg","CS","CS","3","category3/CS8.png","","","","",""
"","html-keyboard-response","55","547543","0.0-6.0-4.0-0.7","4l4yq4n0oe","one_one","1","direct_first","1","ÖB08RT30","0","23","1","1","3","1","","0","1","0","null","","","<div class = 'row'><div class = 'column'><img src = 'category1/CS4.png' width = '70%;'></div><div class = 'column'><img src = 'uspos/4599.bmp' width = '100%;'></div></div>","null","pos","CS","CS","1","category1/CS4.png","","","","",""
"","html-keyboard-response","56","550050","0.0-6.0-4.0-0.8","4l4yq4n0oe","one_one","1","direct_first","1","ÖB08RT30","0","23","1","1","3","1","","0","1","0","null","","","<div class = 'row'><div class = 'column'><img src = 'usneg/3160.bmp' width = '100%;'></div><div class = 'column'><img src = 'category4/CS7.png' width = '70%;'></div></div>","null","neg","CS","CS","4","category4/CS7.png","","","","",""
"","html-keyboard-response","57","552556","0.0-6.0-4.0-0.9","4l4yq4n0oe","one_one","1","direct_first","1","ÖB08RT30","0","23","1","1","3","1","","0","1","0","null","","","<div class = 'row'><div class = 'column'><img src = 'uspos/4599.bmp' width = '100%;'></div><div class = 'column'><img src = 'category1/CS4.png' width = '70%;'></div></div>","null","pos","CS","CS","1","category1/CS4.png","","","","",""
"","html-keyboard-response","58","555073","0.0-6.0-4.0-0.10","4l4yq4n0oe","one_one","1","direct_first","1","ÖB08RT30","0","23","1","1","3","1","","0","1","0","null","","","<div class = 'row'><div class = 'column'><img src = 'usneg/3160.bmp' width = '100%;'></div><div class = 'column'><img src = 'category4/CS7.png' width = '70%;'></div></div>","null","neg","CS","CS","4","category4/CS7.png","","","","",""
"","html-keyboard-response","59","557591","0.0-6.0-4.0-0.11","4l4yq4n0oe","one_one","1","direct_first","1","ÖB08RT30","0","23","1","1","3","1","","0","1","0","null","","","<div class = 'row'><div class = 'column'><img src = 'category2/CS9.png' width = '70%;'></div><div class = 'column'><img src = 'uspos/8461.bmp' width = '100%;'></div></div>","null","pos","CS","CS","2","category2/CS9.png","","","","",""
"","html-keyboard-response","60","560122","0.0-6.0-4.0-0.12","4l4yq4n0oe","one_one","1","direct_first","1","ÖB08RT30","0","23","1","1","3","1","","0","1","0","null","","","<div class = 'row'><div class = 'column'><img src = 'category1/CS4.png' width = '70%;'></div><div class = 'column'><img src = 'uspos/4599.bmp' width = '100%;'></div></div>","null","pos","CS","CS","1","category1/CS4.png","","","","",""
"","html-keyboard-response","61","562626","0.0-6.0-4.0-0.13","4l4yq4n0oe","one_one","1","direct_first","1","ÖB08RT30","0","23","1","1","3","1","","0","1","0","null","","","<div class = 'row'><div class = 'column'><img src = 'usneg/3160.bmp' width = '100%;'></div><div class = 'column'><img src = 'category4/CS7.png' width = '70%;'></div></div>","null","neg","CS","CS","4","category4/CS7.png","","","","",""
"","html-keyboard-response","62","565148","0.0-6.0-4.0-0.14","4l4yq4n0oe","one_one","1","direct_first","1","ÖB08RT30","0","23","1","1","3","1","","0","1","0","null","","","<div class = 'row'><div class = 'column'><img src = 'usneg/7380.bmp' width = '100%;'></div><div class = 'column'><img src = 'category3/CS8.png' width = '70%;'></div></div>","null","neg","CS","CS","3","category3/CS8.png","","","","",""
"","html-keyboard-response","63","567658","0.0-6.0-4.0-0.15","4l4yq4n0oe","one_one","1","direct_first","1","ÖB08RT30","0","23","1","1","3","1","","0","1","0","null","","","<div class = 'row'><div class = 'column'><img src = 'uspos/8461.bmp' width = '100%;'></div><div class = 'column'><img src = 'category2/CS9.png' width = '70%;'></div></div>","null","pos","CS","CS","2","category2/CS9.png","","","","",""
"","html-keyboard-response","64","570183","0.0-6.0-4.0-0.16","4l4yq4n0oe","one_one","1","direct_first","1","ÖB08RT30","0","23","1","1","3","1","","0","1","0","null","","","<div class = 'row'><div class = 'column'><img src = 'uspos/4599.bmp' width = '100%;'></div><div class = 'column'><img src = 'category1/CS4.png' width = '70%;'></div></div>","null","pos","CS","CS","1","category1/CS4.png","","","","",""
"","html-keyboard-response","65","572699","0.0-6.0-4.0-0.17","4l4yq4n0oe","one_one","1","direct_first","1","ÖB08RT30","0","23","1","1","3","1","","0","1","0","null","","","<div class = 'row'><div class = 'column'><img src = 'category3/CS8.png' width = '70%;'></div><div class = 'column'><img src = 'usneg/7380.bmp' width = '100%;'></div></div>","null","neg","CS","CS","3","category3/CS8.png","","","","",""
"","html-keyboard-response","66","575231","0.0-6.0-4.0-0.18","4l4yq4n0oe","one_one","1","direct_first","1","ÖB08RT30","0","23","1","1","3","1","","0","1","0","null","","","<div class = 'row'><div class = 'column'><img src = 'usneg/3160.bmp' width = '100%;'></div><div class = 'column'><img src = 'category4/CS7.png' width = '70%;'></div></div>","null","neg","CS","CS","4","category4/CS7.png","","","","",""
"","html-keyboard-response","67","577742","0.0-6.0-4.0-0.19","4l4yq4n0oe","one_one","1","direct_first","1","ÖB08RT30","0","23","1","1","3","1","","0","1","0","null","","","<div class = 'row'><div class = 'column'><img src = 'category2/CS9.png' width = '70%;'></div><div class = 'column'><img src = 'uspos/8461.bmp' width = '100%;'></div></div>","null","pos","CS","CS","2","category2/CS9.png","","","","",""
"","survey-html-form","68","579853","0.0-6.0-5.0","4l4yq4n0oe","one_one","1","direct_first","1","ÖB08RT30","0","23","1","1","3","1","","0","1","0","1598.4949999983655","","{}","","","","","","","","","","","",""
"","html-keyboard-response","69","583882","0.0-6.0-6.0-0.0","4l4yq4n0oe","one_one","1","direct_first","1","ÖB08RT30","0","23","1","1","3","1","","0","1","0","null","","","<div class = 'row'><div class = 'column'><img src = 'usneg/7380.bmp' width = '100%;'></div><div class = 'column'><img src = 'category3/CS8.png' width = '70%;'></div></div>","null","neg","CS","CS","3","category3/CS8.png","","","","",""
"","html-keyboard-response","70","586407","0.0-6.0-6.0-0.1","4l4yq4n0oe","one_one","1","direct_first","1","ÖB08RT30","0","23","1","1","3","1","","0","1","0","null","","","<div class = 'row'><div class = 'column'><img src = 'category4/CS7.png' width = '70%;'></div><div class = 'column'><img src = 'usneg/3160.bmp' width = '100%;'></div></div>","null","neg","CS","CS","4","category4/CS7.png","","","","",""
"","html-keyboard-response","71","588928","0.0-6.0-6.0-0.2","4l4yq4n0oe","one_one","1","direct_first","1","ÖB08RT30","0","23","1","1","3","1","","0","1","0","null","","","<div class = 'row'><div class = 'column'><img src = 'uspos/8461.bmp' width = '100%;'></div><div class = 'column'><img src = 'category2/CS9.png' width = '70%;'></div></div>","null","pos","CS","CS","2","category2/CS9.png","","","","",""
"","html-keyboard-response","72","591462","0.0-6.0-6.0-0.3","4l4yq4n0oe","one_one","1","direct_first","1","ÖB08RT30","0","23","1","1","3","1","","0","1","0","null","","","<div class = 'row'><div class = 'column'><img src = 'uspos/4599.bmp' width = '100%;'></div><div class = 'column'><img src = 'category1/CS4.png' width = '70%;'></div></div>","null","pos","CS","CS","1","category1/CS4.png","","","","",""
"","html-keyboard-response","73","593977","0.0-6.0-6.0-0.4","4l4yq4n0oe","one_one","1","direct_first","1","ÖB08RT30","0","23","1","1","3","1","","0","1","0","null","","","<div class = 'row'><div class = 'column'><img src = 'usneg/7380.bmp' width = '100%;'></div><div class = 'column'><img src = 'category3/CS8.png' width = '70%;'></div></div>","null","neg","CS","CS","3","category3/CS8.png","","","","",""
"","html-keyboard-response","74","596482","0.0-6.0-6.0-0.5","4l4yq4n0oe","one_one","1","direct_first","1","ÖB08RT30","0","23","1","1","3","1","","0","1","0","null","","","<div class = 'row'><div class = 'column'><img src = 'uspos/4599.bmp' width = '100%;'></div><div class = 'column'><img src = 'category1/CS4.png' width = '70%;'></div></div>","null","pos","CS","CS","1","category1/CS4.png","","","","",""
"","html-keyboard-response","75","598998","0.0-6.0-6.0-0.6","4l4yq4n0oe","one_one","1","direct_first","1","ÖB08RT30","0","23","1","1","3","1","","0","1","0","null","","","<div class = 'row'><div class = 'column'><img src = 'usneg/7380.bmp' width = '100%;'></div><div class = 'column'><img src = 'category3/CS8.png' width = '70%;'></div></div>","null","neg","CS","CS","3","category3/CS8.png","","","","",""
"","html-keyboard-response","76","601511","0.0-6.0-6.0-0.7","4l4yq4n0oe","one_one","1","direct_first","1","ÖB08RT30","0","23","1","1","3","1","","0","1","0","null","","","<div class = 'row'><div class = 'column'><img src = 'uspos/8461.bmp' width = '100%;'></div><div class = 'column'><img src = 'category2/CS9.png' width = '70%;'></div></div>","null","pos","CS","CS","2","category2/CS9.png","","","","",""
"","html-keyboard-response","77","604016","0.0-6.0-6.0-0.8","4l4yq4n0oe","one_one","1","direct_first","1","ÖB08RT30","0","23","1","1","3","1","","0","1","0","null","","","<div class = 'row'><div class = 'column'><img src = 'category1/CS4.png' width = '70%;'></div><div class = 'column'><img src = 'uspos/4599.bmp' width = '100%;'></div></div>","null","pos","CS","CS","1","category1/CS4.png","","","","",""
"","html-keyboard-response","78","606543","0.0-6.0-6.0-0.9","4l4yq4n0oe","one_one","1","direct_first","1","ÖB08RT30","0","23","1","1","3","1","","0","1","0","null","","","<div class = 'row'><div class = 'column'><img src = 'category4/CS7.png' width = '70%;'></div><div class = 'column'><img src = 'usneg/3160.bmp' width = '100%;'></div></div>","null","neg","CS","CS","4","category4/CS7.png","","","","",""
"","html-keyboard-response","79","609056","0.0-6.0-6.0-0.10","4l4yq4n0oe","one_one","1","direct_first","1","ÖB08RT30","0","23","1","1","3","1","","0","1","0","null","","","<div class = 'row'><div class = 'column'><img src = 'category2/CS9.png' width = '70%;'></div><div class = 'column'><img src = 'uspos/8461.bmp' width = '100%;'></div></div>","null","pos","CS","CS","2","category2/CS9.png","","","","",""
"","html-keyboard-response","80","611570","0.0-6.0-6.0-0.11","4l4yq4n0oe","one_one","1","direct_first","1","ÖB08RT30","0","23","1","1","3","1","","0","1","0","null","","","<div class = 'row'><div class = 'column'><img src = 'category4/CS7.png' width = '70%;'></div><div class = 'column'><img src = 'usneg/3160.bmp' width = '100%;'></div></div>","null","neg","CS","CS","4","category4/CS7.png","","","","",""
"","html-keyboard-response","81","614074","0.0-6.0-6.0-0.12","4l4yq4n0oe","one_one","1","direct_first","1","ÖB08RT30","0","23","1","1","3","1","","0","1","0","null","","","<div class = 'row'><div class = 'column'><img src = 'uspos/8461.bmp' width = '100%;'></div><div class = 'column'><img src = 'category2/CS9.png' width = '70%;'></div></div>","null","pos","CS","CS","2","category2/CS9.png","","","","",""
"","html-keyboard-response","82","616582","0.0-6.0-6.0-0.13","4l4yq4n0oe","one_one","1","direct_first","1","ÖB08RT30","0","23","1","1","3","1","","0","1","0","null","","","<div class = 'row'><div class = 'column'><img src = 'category4/CS7.png' width = '70%;'></div><div class = 'column'><img src = 'usneg/3160.bmp' width = '100%;'></div></div>","null","neg","CS","CS","4","category4/CS7.png","","","","",""
"","html-keyboard-response","83","619096","0.0-6.0-6.0-0.14","4l4yq4n0oe","one_one","1","direct_first","1","ÖB08RT30","0","23","1","1","3","1","","0","1","0","null","","","<div class = 'row'><div class = 'column'><img src = 'usneg/7380.bmp' width = '100%;'></div><div class = 'column'><img src = 'category3/CS8.png' width = '70%;'></div></div>","null","neg","CS","CS","3","category3/CS8.png","","","","",""
"","html-keyboard-response","84","621613","0.0-6.0-6.0-0.15","4l4yq4n0oe","one_one","1","direct_first","1","ÖB08RT30","0","23","1","1","3","1","","0","1","0","null","","","<div class = 'row'><div class = 'column'><img src = 'category1/CS4.png' width = '70%;'></div><div class = 'column'><img src = 'uspos/4599.bmp' width = '100%;'></div></div>","null","pos","CS","CS","1","category1/CS4.png","","","","",""
"","html-keyboard-response","85","624129","0.0-6.0-6.0-0.16","4l4yq4n0oe","one_one","1","direct_first","1","ÖB08RT30","0","23","1","1","3","1","","0","1","0","null","","","<div class = 'row'><div class = 'column'><img src = 'category4/CS7.png' width = '70%;'></div><div class = 'column'><img src = 'usneg/3160.bmp' width = '100%;'></div></div>","null","neg","CS","CS","4","category4/CS7.png","","","","",""
"","html-keyboard-response","86","626645","0.0-6.0-6.0-0.17","4l4yq4n0oe","one_one","1","direct_first","1","ÖB08RT30","0","23","1","1","3","1","","0","1","0","null","","","<div class = 'row'><div class = 'column'><img src = 'uspos/8461.bmp' width = '100%;'></div><div class = 'column'><img src = 'category2/CS9.png' width = '70%;'></div></div>","null","pos","CS","CS","2","category2/CS9.png","","","","",""
"","html-keyboard-response","87","629166","0.0-6.0-6.0-0.18","4l4yq4n0oe","one_one","1","direct_first","1","ÖB08RT30","0","23","1","1","3","1","","0","1","0","null","","","<div class = 'row'><div class = 'column'><img src = 'uspos/4599.bmp' width = '100%;'></div><div class = 'column'><img src = 'category1/CS4.png' width = '70%;'></div></div>","null","pos","CS","CS","1","category1/CS4.png","","","","",""
"","html-keyboard-response","88","631678","0.0-6.0-6.0-0.19","4l4yq4n0oe","one_one","1","direct_first","1","ÖB08RT30","0","23","1","1","3","1","","0","1","0","null","","","<div class = 'row'><div class = 'column'><img src = 'category3/CS8.png' width = '70%;'></div><div class = 'column'><img src = 'usneg/7380.bmp' width = '100%;'></div></div>","null","neg","CS","CS","3","category3/CS8.png","","","","",""
"","survey-html-form","89","641908","0.0-7.0","4l4yq4n0oe","one_one","1","direct_first","1","ÖB08RT30","0","23","1","1","3","1","","0","1","0","9726.2400000036","","{}","","","","","","","","","","","",""
"","image-slider-response","90","649312","0.0-8.0-0.0","4l4yq4n0oe","one_one","1","direct_first","1","ÖB08RT30","0","23","1","1","3","1","","0","1","0","5398.560000001453","","","","","neg","GS","GSnew","4","category4/GS1.png","56","targets/47.png","direct","",""
"","image-slider-response","91","652276","0.0-8.0-0.1","4l4yq4n0oe","one_one","1","direct_first","1","ÖB08RT30","0","23","1","1","3","1","","0","1","0","2962.3549999960233","","","","","pos","CS","CS","2","category2/CS9.png","9","targets/11.png","direct","",""
"","image-slider-response","92","655820","0.0-8.0-0.2","4l4yq4n0oe","one_one","1","direct_first","1","ÖB08RT30","0","23","1","1","3","1","","0","1","0","3542.1800000040093","","","","","pos","GS","GSold","1","category1/CS2.png","-30","targets/7.png","direct","",""
"","image-slider-response","93","659096","0.0-8.0-0.3","4l4yq4n0oe","one_one","1","direct_first","1","ÖB08RT30","0","23","1","1","3","1","","0","1","0","3273.490000006859","","","","","pos","GS","GSnew","1","category1/GS2.png","-32","targets/5.png","direct","",""
"","image-slider-response","94","662190","0.0-8.0-0.4","4l4yq4n0oe","one_one","1","direct_first","1","ÖB08RT30","0","23","1","1","3","1","","0","1","0","3091.730000000098","","","","","pos","GS","abstract","1","category1/ma.png","-6","targets/29.png","direct","",""
"","image-slider-response","95","664631","0.0-8.0-0.5","4l4yq4n0oe","one_one","1","direct_first","1","ÖB08RT30","0","23","1","1","3","1","","0","1","0","2445.9999999962747","","","","","pos","GS","GSnew","1","category1/GS1.png","13","targets/14.png","direct","",""
"","image-slider-response","96","667735","0.0-8.0-0.6","4l4yq4n0oe","one_one","1","direct_first","1","ÖB08RT30","0","23","1","1","3","1","","0","1","0","3101.490000000922","","","","","pos","CS","CS","1","category1/CS4.png","7","targets/27.png","direct","",""
"","image-slider-response","97","670208","0.0-8.0-0.7","4l4yq4n0oe","one_one","1","direct_first","1","ÖB08RT30","0","23","1","1","3","1","","0","1","0","2471.7899999959627","","","","","pos","GS","GSold","2","category2/CS6.png","38","targets/12.png","direct","",""
"","image-slider-response","98","673245","0.0-8.0-0.8","4l4yq4n0oe","one_one","1","direct_first","1","ÖB08RT30","0","23","1","1","3","1","","0","1","0","3034.9699999933364","","","","","neg","GS","GSold","3","category3/CS7.png","13","targets/21.png","direct","",""
"","image-slider-response","99","676134","0.0-8.0-0.9","4l4yq4n0oe","one_one","1","direct_first","1","ÖB08RT30","0","23","1","1","3","1","","0","1","0","2887.8100000001723","","","","","neg","GS","GSold","4","category4/CS3.png","50","targets/32.png","direct","",""
"","image-slider-response","100","678551","0.0-8.0-0.10","4l4yq4n0oe","one_one","1","direct_first","1","ÖB08RT30","0","23","1","1","3","1","","0","1","0","2415.3950000036275","","","","","neg","GS","GSnew","4","category4/GS2.png","54","targets/37.png","direct","",""
"","image-slider-response","101","680824","0.0-8.0-0.11","4l4yq4n0oe","one_one","1","direct_first","1","ÖB08RT30","0","23","1","1","3","1","","0","1","0","2271.5450000105193","","","","","pos","GS","GSnew","1","category1/GS3.png","14","targets/42.png","direct","",""
"","image-slider-response","102","683351","0.0-8.0-0.12","4l4yq4n0oe","one_one","1","direct_first","1","ÖB08RT30","0","23","1","1","3","1","","0","1","0","2524.760000000242","","","","","neg","GS","abstract","3","category3/wang.png","14","targets/33.png","direct","",""
"","image-slider-response","103","685840","0.0-8.0-0.13","4l4yq4n0oe","one_one","1","direct_first","1","ÖB08RT30","0","23","1","1","3","1","","0","1","0","2487.650000010035","","","","","neg","GS","GSold","3","category3/CS9.png","39","targets/1.png","direct","",""
"","image-slider-response","104","689062","0.0-8.0-0.14","4l4yq4n0oe","one_one","1","direct_first","1","ÖB08RT30","0","23","1","1","3","1","","0","1","0","3220.614999998361","","","","","neg","CS","CS","3","category3/CS8.png","-5","targets/2.png","direct","",""
"","image-slider-response","105","691247","0.0-8.0-0.15","4l4yq4n0oe","one_one","1","direct_first","1","ÖB08RT30","0","23","1","1","3","1","","0","1","0","2183.149999997113","","","","","pos","GS","GSold","1","category1/CS6.png","-23","targets/15.png","direct","",""
"","image-slider-response","106","695307","0.0-8.0-0.16","4l4yq4n0oe","one_one","1","direct_first","1","ÖB08RT30","0","23","1","1","3","1","","0","1","0","4058.7799999921117","","","","","neg","GS","GSold","3","category3/CS2.png","5","targets/4.png","direct","",""
"","image-slider-response","107","697744","0.0-8.0-0.17","4l4yq4n0oe","one_one","1","direct_first","1","ÖB08RT30","0","23","1","1","3","1","","0","1","0","2435.349999999744","","","","","neg","GS","GSold","4","category4/CS1.png","60","targets/28.png","direct","",""
"","image-slider-response","108","700300","0.0-8.0-0.18","4l4yq4n0oe","one_one","1","direct_first","1","ÖB08RT30","0","23","1","1","3","1","","0","1","0","2553.9500000013504","","","","","neg","GS","GSnew","3","category3/GS2.png","-39","targets/19.png","direct","",""
"","image-slider-response","109","702810","0.0-8.0-0.19","4l4yq4n0oe","one_one","1","direct_first","1","ÖB08RT30","0","23","1","1","3","1","","0","1","0","2508.0550000129733","","","","","neg","GS","GSnew","3","category3/GS3.png","13","targets/18.png","direct","",""
"","image-slider-response","110","705586","0.0-8.0-0.20","4l4yq4n0oe","one_one","1","direct_first","1","ÖB08RT30","0","23","1","1","3","1","","0","1","0","2774.9500000063563","","","","","neg","CS","CS","4","category4/CS7.png","42","targets/26.png","direct","",""
"","image-slider-response","111","710166","0.0-8.0-0.21","4l4yq4n0oe","one_one","1","direct_first","1","ÖB08RT30","0","23","1","1","3","1","","0","1","0","4578.464999998687","","","","","neg","GS","abstract","4","category4/lin.png","41","targets/24.png","direct","",""
"","image-slider-response","112","712927","0.0-8.0-0.22","4l4yq4n0oe","one_one","1","direct_first","1","ÖB08RT30","0","23","1","1","3","1","","0","1","0","2759.12000000244","","","","","pos","GS","GSnew","2","category2/GS3.png","-28","targets/3.png","direct","",""
"","image-slider-response","113","715369","0.0-8.0-0.23","4l4yq4n0oe","one_one","1","direct_first","1","ÖB08RT30","0","23","1","1","3","1","","0","1","0","2440.0449999957345","","","","","neg","GS","GSnew","3","category3/GS1.png","-11","targets/43.png","direct","",""
"","image-slider-response","114","722625","0.0-8.0-0.24","4l4yq4n0oe","one_one","1","direct_first","1","ÖB08RT30","0","23","1","1","3","1","","0","1","0","7255.44500000251","","","","","pos","GS","GSnew","2","category2/GS1.png","-21","targets/48.png","direct","",""
"","image-slider-response","115","725212","0.0-8.0-0.25","4l4yq4n0oe","one_one","1","direct_first","1","ÖB08RT30","0","23","1","1","3","1","","0","1","0","2579.7900000034133","","","","","pos","GS","GSnew","2","category2/GS2.png","-20","targets/30.png","direct","",""
"","image-slider-response","116","729539","0.0-8.0-0.26","4l4yq4n0oe","one_one","1","direct_first","1","ÖB08RT30","0","23","1","1","3","1","","0","1","0","4325.33500000136","","","","","pos","GS","abstract","2","category2/men.png","-15","targets/34.png","direct","",""
"","image-slider-response","117","732135","0.0-8.0-0.27","4l4yq4n0oe","one_one","1","direct_first","1","ÖB08RT30","0","23","1","1","3","1","","0","1","0","2594.120000008843","","","","","pos","GS","GSold","2","category2/CS4.png","8","targets/46.png","direct","",""
"","image-slider-response","118","734618","0.0-8.0-0.28","4l4yq4n0oe","one_one","1","direct_first","1","ÖB08RT30","0","23","1","1","3","1","","0","1","0","2481.54500000237","","","","","neg","GS","GSold","4","category4/CS8.png","-17","targets/45.png","direct","",""
"","image-slider-response","119","737055","0.0-8.0-0.29","4l4yq4n0oe","one_one","1","direct_first","1","ÖB08RT30","0","23","1","1","3","1","","0","1","0","2435.0500000000466","","","","","pos","GS","GSold","1","category1/CS1.png","-23","targets/13.png","direct","",""
"","image-slider-response","120","739484","0.0-8.0-0.30","4l4yq4n0oe","one_one","1","direct_first","1","ÖB08RT30","0","23","1","1","3","1","","0","1","0","2427.4049999949057","","","","","neg","GS","GSnew","4","category4/GS3.png","-5","targets/9.png","direct","",""
"","image-slider-response","121","741660","0.0-8.0-0.31","4l4yq4n0oe","one_one","1","direct_first","1","ÖB08RT30","0","23","1","1","3","1","","0","1","0","2175.0650000030873","","","","","pos","GS","GSold","2","category2/CS8.png","-8","targets/10.png","direct","",""
"","html-keyboard-response","122","765249","0.0-9.0","4l4yq4n0oe","one_one","1","direct_first","1","ÖB08RT30","0","23","1","1","3","1","","0","1","0","23587.38500000618","","","<p>Sie sehen nun die chinesischen Zeichen nur ganz kurz. Danach sehen Sie die jeweilige Aussprache der Zeichen als Silbe auf dem Bildschrim. Ihre Aufgabe ist es, für jede Silbe anzugeben, ob diese etwas angenehmes, oder unangenehmes bedeuten könnte. Verlassen Sie sich hier vor allem auf Ihre Intuition.<br><br>Die Zeichen werden nur zur Orientierung dargestellt, beachten Sie sie deshalb nicht. Konzentrieren Sie sich vor allem auf die Silben. <br>Reagieren Sie mit folgenden zwei Tasten: <br><br><b>'D' </b> wenn die Silbe etwas <b>unangenehmes</b> bedeuten könnte. <br><b>'K'</b> wenn die Silbe etwas <b>angenehmes</b> bedeuten könnte. <br><br>Bitte legen Sie nun den Zeigefinger der linken Hand auf die Taste 'D' und den Zeigefinger der rechten Hand auf die Taste 'K'. <br>Reagieren Sie auf jede Silbe so schnell wie möglich. Uns interessiert Ihre spontane Reaktion. <br> <br> <br>Drücken Sie 'D' oder 'K', um die nächste Aufgabe zu starten. </p>","68","","","","","","","","","",""
"","html-keyboard-response","123","768269","0.0-10.0-0.0","4l4yq4n0oe","one_one","1","direct_first","1","ÖB08RT30","0","23","1","1","3","1","","0","1","0","null","","","<div style=""font-size:60px;"">+</div>","null","","","","","","","","","",""
"","html-keyboard-response","124","768372","0.0-10.0-1.0","4l4yq4n0oe","one_one","1","direct_first","1","ÖB08RT30","0","23","1","1","3","1","","0","1","0","null","","","<img src = 'category4/CS3.png' width = '100%;'>","null","","","","","","","","","",""
"","html-keyboard-response","125","768641","0.0-10.0-2.0","4l4yq4n0oe","one_one","1","direct_first","1","ÖB08RT30","0","23","1","1","3","1","","0","1","0","null","","","<img src = 'targets/32.png' width = '100%;'>","null","","","","","","","","","",""
"","html-keyboard-response","126","774038","0.0-10.0-3.0","4l4yq4n0oe","one_one","1","direct_first","1","ÖB08RT30","0","23","1","1","3","1","","0","1","0","5395.994999998948","","","<img src = 'targets/mask.png' width = '100%;'>","68","neg","GS","GSold","4","category4/CS3.png","","targets/32.png","indirect","0","0"
"","html-keyboard-response","127","775544","0.0-10.0-0.1","4l4yq4n0oe","one_one","1","direct_first","1","ÖB08RT30","0","23","1","1","3","1","","0","1","0","null","","","<div style=""font-size:60px;"">+</div>","null","","","","","","","","","",""
"","html-keyboard-response","128","775644","0.0-10.0-1.1","4l4yq4n0oe","one_one","1","direct_first","1","ÖB08RT30","0","23","1","1","3","1","","0","1","0","null","","","<img src = 'category1/CS6.png' width = '100%;'>","null","","","","","","","","","",""
"","html-keyboard-response","129","775910","0.0-10.0-2.1","4l4yq4n0oe","one_one","1","direct_first","1","ÖB08RT30","0","23","1","1","3","1","","0","1","0","null","","","<img src = 'targets/15.png' width = '100%;'>","null","","","","","","","","","",""
"","html-keyboard-response","130","777038","0.0-10.0-3.1","4l4yq4n0oe","one_one","1","direct_first","1","ÖB08RT30","0","23","1","1","3","1","","0","1","0","1127.1700000070268","","","<img src = 'targets/mask.png' width = '100%;'>","75","pos","GS","GSold","1","category1/CS6.png","","targets/15.png","indirect","1","1"
"","html-keyboard-response","131","778555","0.0-10.0-0.2","4l4yq4n0oe","one_one","1","direct_first","1","ÖB08RT30","0","23","1","1","3","1","","0","1","0","null","","","<div style=""font-size:60px;"">+</div>","null","","","","","","","","","",""
"","html-keyboard-response","132","778655","0.0-10.0-1.2","4l4yq4n0oe","one_one","1","direct_first","1","ÖB08RT30","0","23","1","1","3","1","","0","1","0","null","","","<img src = 'category2/CS4.png' width = '100%;'>","null","","","","","","","","","",""
"","html-keyboard-response","133","778920","0.0-10.0-2.2","4l4yq4n0oe","one_one","1","direct_first","1","ÖB08RT30","0","23","1","1","3","1","","0","1","0","null","","","<img src = 'targets/46.png' width = '100%;'>","null","","","","","","","","","",""
"","html-keyboard-response","134","780268","0.0-10.0-3.2","4l4yq4n0oe","one_one","1","direct_first","1","ÖB08RT30","0","23","1","1","3","1","","0","1","0","1347.3399999929825","","","<img src = 'targets/mask.png' width = '100%;'>","75","pos","GS","GSold","2","category2/CS4.png","","targets/46.png","indirect","1","2"
"","html-keyboard-response","135","781781","0.0-10.0-0.3","4l4yq4n0oe","one_one","1","direct_first","1","ÖB08RT30","0","23","1","1","3","1","","0","1","0","null","","","<div style=""font-size:60px;"">+</div>","null","","","","","","","","","",""
"","html-keyboard-response","136","781881","0.0-10.0-1.3","4l4yq4n0oe","one_one","1","direct_first","1","ÖB08RT30","0","23","1","1","3","1","","0","1","0","null","","","<img src = 'category3/CS2.png' width = '100%;'>","null","","","","","","","","","",""
"","html-keyboard-response","137","782141","0.0-10.0-2.3","4l4yq4n0oe","one_one","1","direct_first","1","ÖB08RT30","0","23","1","1","3","1","","0","1","0","null","","","<img src = 'targets/4.png' width = '100%;'>","null","","","","","","","","","",""
"","html-keyboard-response","138","782818","0.0-10.0-3.3","4l4yq4n0oe","one_one","1","direct_first","1","ÖB08RT30","0","23","1","1","3","1","","0","1","0","675.6300000124611","","","<img src = 'targets/mask.png' width = '100%;'>","68","neg","GS","GSold","3","category3/CS2.png","","targets/4.png","indirect","0","3"
"","html-keyboard-response","139","784336","0.0-10.0-0.4","4l4yq4n0oe","one_one","1","direct_first","1","ÖB08RT30","0","23","1","1","3","1","","0","1","0","null","","","<div style=""font-size:60px;"">+</div>","null","","","","","","","","","",""
"","html-keyboard-response","140","784428","0.0-10.0-1.4","4l4yq4n0oe","one_one","1","direct_first","1","ÖB08RT30","0","23","1","1","3","1","","0","1","0","null","","","<img src = 'category2/CS9.png' width = '100%;'>","null","","","","","","","","","",""
"","html-keyboard-response","141","784691","0.0-10.0-2.4","4l4yq4n0oe","one_one","1","direct_first","1","ÖB08RT30","0","23","1","1","3","1","","0","1","0","null","","","<img src = 'targets/11.png' width = '100%;'>","null","","","","","","","","","",""
"","html-keyboard-response","142","785409","0.0-10.0-3.4","4l4yq4n0oe","one_one","1","direct_first","1","ÖB08RT30","0","23","1","1","3","1","","0","1","0","717.3550000006799","","","<img src = 'targets/mask.png' width = '100%;'>","68","pos","CS","CS","2","category2/CS9.png","","targets/11.png","indirect","0","4"
"","html-keyboard-response","143","786927","0.0-10.0-0.5","4l4yq4n0oe","one_one","1","direct_first","1","ÖB08RT30","0","23","1","1","3","1","","0","1","0","null","","","<div style=""font-size:60px;"">+</div>","null","","","","","","","","","",""
"","html-keyboard-response","144","787026","0.0-10.0-1.5","4l4yq4n0oe","one_one","1","direct_first","1","ÖB08RT30","0","23","1","1","3","1","","0","1","0","null","","","<img src = 'category2/CS6.png' width = '100%;'>","null","","","","","","","","","",""
"","html-keyboard-response","145","787300","0.0-10.0-2.5","4l4yq4n0oe","one_one","1","direct_first","1","ÖB08RT30","0","23","1","1","3","1","","0","1","0","null","","","<img src = 'targets/12.png' width = '100%;'>","null","","","","","","","","","",""
"","html-keyboard-response","146","787728","0.0-10.0-3.5","4l4yq4n0oe","one_one","1","direct_first","1","ÖB08RT30","0","23","1","1","3","1","","0","1","0","426.60500000056345","","","<img src = 'targets/mask.png' width = '100%;'>","75","pos","GS","GSold","2","category2/CS6.png","","targets/12.png","indirect","1","5"
"","html-keyboard-response","147","789251","0.0-10.0-0.6","4l4yq4n0oe","one_one","1","direct_first","1","ÖB08RT30","0","23","1","1","3","1","","0","1","0","null","","","<div style=""font-size:60px;"">+</div>","null","","","","","","","","","",""
"","html-keyboard-response","148","789347","0.0-10.0-1.6","4l4yq4n0oe","one_one","1","direct_first","1","ÖB08RT30","0","23","1","1","3","1","","0","1","0","null","","","<img src = 'category3/CS9.png' width = '100%;'>","null","","","","","","","","","",""
"","html-keyboard-response","149","789600","0.0-10.0-2.6","4l4yq4n0oe","one_one","1","direct_first","1","ÖB08RT30","0","23","1","1","3","1","","0","1","0","null","","","<img src = 'targets/1.png' width = '100%;'>","null","","","","","","","","","",""
"","html-keyboard-response","150","790938","0.0-10.0-3.6","4l4yq4n0oe","one_one","1","direct_first","1","ÖB08RT30","0","23","1","1","3","1","","0","1","0","1336.750000002212","","","<img src = 'targets/mask.png' width = '100%;'>","75","neg","GS","GSold","3","category3/CS9.png","","targets/1.png","indirect","1","6"
"","html-keyboard-response","151","792445","0.0-10.0-0.7","4l4yq4n0oe","one_one","1","direct_first","1","ÖB08RT30","0","23","1","1","3","1","","0","1","0","null","","","<div style=""font-size:60px;"">+</div>","null","","","","","","","","","",""
"","html-keyboard-response","152","792548","0.0-10.0-1.7","4l4yq4n0oe","one_one","1","direct_first","1","ÖB08RT30","0","23","1","1","3","1","","0","1","0","null","","","<img src = 'category2/CS8.png' width = '100%;'>","null","","","","","","","","","",""
"","html-keyboard-response","153","792823","0.0-10.0-2.7","4l4yq4n0oe","one_one","1","direct_first","1","ÖB08RT30","0","23","1","1","3","1","","0","1","0","null","","","<img src = 'targets/10.png' width = '100%;'>","null","","","","","","","","","",""
"","html-keyboard-response","154","793248","0.0-10.0-3.7","4l4yq4n0oe","one_one","1","direct_first","1","ÖB08RT30","0","23","1","1","3","1","","0","1","0","423.3550000062678","","","<img src = 'targets/mask.png' width = '100%;'>","75","pos","GS","GSold","2","category2/CS8.png","","targets/10.png","indirect","1","7"
"","html-keyboard-response","155","794759","0.0-10.0-0.8","4l4yq4n0oe","one_one","1","direct_first","1","ÖB08RT30","0","23","1","1","3","1","","0","1","0","null","","","<div style=""font-size:60px;"">+</div>","null","","","","","","","","","",""
"","html-keyboard-response","156","794859","0.0-10.0-1.8","4l4yq4n0oe","one_one","1","direct_first","1","ÖB08RT30","0","23","1","1","3","1","","0","1","0","null","","","<img src = 'category3/CS8.png' width = '100%;'>","null","","","","","","","","","",""
"","html-keyboard-response","157","795131","0.0-10.0-2.8","4l4yq4n0oe","one_one","1","direct_first","1","ÖB08RT30","0","23","1","1","3","1","","0","1","0","null","","","<img src = 'targets/2.png' width = '100%;'>","null","","","","","","","","","",""
"","html-keyboard-response","158","795648","0.0-10.0-3.8","4l4yq4n0oe","one_one","1","direct_first","1","ÖB08RT30","0","23","1","1","3","1","","0","1","0","515.6200000055833","","","<img src = 'targets/mask.png' width = '100%;'>","68","neg","CS","CS","3","category3/CS8.png","","targets/2.png","indirect","0","8"
"","html-keyboard-response","159","797151","0.0-10.0-0.9","4l4yq4n0oe","one_one","1","direct_first","1","ÖB08RT30","0","23","1","1","3","1","","0","1","0","null","","","<div style=""font-size:60px;"">+</div>","null","","","","","","","","","",""
"","html-keyboard-response","160","797251","0.0-10.0-1.9","4l4yq4n0oe","one_one","1","direct_first","1","ÖB08RT30","0","23","1","1","3","1","","0","1","0","null","","","<img src = 'category3/CS7.png' width = '100%;'>","null","","","","","","","","","",""
"","html-keyboard-response","161","797514","0.0-10.0-2.9","4l4yq4n0oe","one_one","1","direct_first","1","ÖB08RT30","0","23","1","1","3","1","","0","1","0","null","","","<img src = 'targets/21.png' width = '100%;'>","null","","","","","","","","","",""
"","html-keyboard-response","162","798178","0.0-10.0-3.9","4l4yq4n0oe","one_one","1","direct_first","1","ÖB08RT30","0","23","1","1","3","1","","0","1","0","662.7900000021327","","","<img src = 'targets/mask.png' width = '100%;'>","75","neg","GS","GSold","3","category3/CS7.png","","targets/21.png","indirect","1","9"
"","html-keyboard-response","163","799684","0.0-10.0-0.10","4l4yq4n0oe","one_one","1","direct_first","1","ÖB08RT30","0","23","1","1","3","1","","0","1","0","null","","","<div style=""font-size:60px;"">+</div>","null","","","","","","","","","",""
"","html-keyboard-response","164","799783","0.0-10.0-1.10","4l4yq4n0oe","one_one","1","direct_first","1","ÖB08RT30","0","23","1","1","3","1","","0","1","0","null","","","<img src = 'category1/CS1.png' width = '100%;'>","null","","","","","","","","","",""
"","html-keyboard-response","165","800059","0.0-10.0-2.10","4l4yq4n0oe","one_one","1","direct_first","1","ÖB08RT30","0","23","1","1","3","1","","0","1","0","null","","","<img src = 'targets/13.png' width = '100%;'>","null","","","","","","","","","",""
"","html-keyboard-response","166","800698","0.0-10.0-3.10","4l4yq4n0oe","one_one","1","direct_first","1","ÖB08RT30","0","23","1","1","3","1","","0","1","0","638.1400000100257","","","<img src = 'targets/mask.png' width = '100%;'>","75","pos","GS","GSold","1","category1/CS1.png","","targets/13.png","indirect","1","10"
"","html-keyboard-response","167","802220","0.0-10.0-0.11","4l4yq4n0oe","one_one","1","direct_first","1","ÖB08RT30","0","23","1","1","3","1","","0","1","0","null","","","<div style=""font-size:60px;"">+</div>","null","","","","","","","","","",""
"","html-keyboard-response","168","802316","0.0-10.0-1.11","4l4yq4n0oe","one_one","1","direct_first","1","ÖB08RT30","0","23","1","1","3","1","","0","1","0","null","","","<img src = 'category4/CS1.png' width = '100%;'>","null","","","","","","","","","",""
"","html-keyboard-response","169","802583","0.0-10.0-2.11","4l4yq4n0oe","one_one","1","direct_first","1","ÖB08RT30","0","23","1","1","3","1","","0","1","0","null","","","<img src = 'targets/28.png' width = '100%;'>","null","","","","","","","","","",""
"","html-keyboard-response","170","803188","0.0-10.0-3.11","4l4yq4n0oe","one_one","1","direct_first","1","ÖB08RT30","0","23","1","1","3","1","","0","1","0","603.6650000023656","","","<img src = 'targets/mask.png' width = '100%;'>","68","neg","GS","GSold","4","category4/CS1.png","","targets/28.png","indirect","0","11"
"","html-keyboard-response","171","804703","0.0-10.0-0.12","4l4yq4n0oe","one_one","1","direct_first","1","ÖB08RT30","0","23","1","1","3","1","","0","1","0","null","","","<div style=""font-size:60px;"">+</div>","null","","","","","","","","","",""
"","html-keyboard-response","172","804798","0.0-10.0-1.12","4l4yq4n0oe","one_one","1","direct_first","1","ÖB08RT30","0","23","1","1","3","1","","0","1","0","null","","","<img src = 'category1/CS2.png' width = '100%;'>","null","","","","","","","","","",""
"","html-keyboard-response","173","805063","0.0-10.0-2.12","4l4yq4n0oe","one_one","1","direct_first","1","ÖB08RT30","0","23","1","1","3","1","","0","1","0","null","","","<img src = 'targets/7.png' width = '100%;'>","null","","","","","","","","","",""
"","html-keyboard-response","174","805618","0.0-10.0-3.12","4l4yq4n0oe","one_one","1","direct_first","1","ÖB08RT30","0","23","1","1","3","1","","0","1","0","554.0400000027148","","","<img src = 'targets/mask.png' width = '100%;'>","75","pos","GS","GSold","1","category1/CS2.png","","targets/7.png","indirect","1","12"
"","html-keyboard-response","175","807131","0.0-10.0-0.13","4l4yq4n0oe","one_one","1","direct_first","1","ÖB08RT30","0","23","1","1","3","1","","0","1","0","null","","","<div style=""font-size:60px;"">+</div>","null","","","","","","","","","",""
"","html-keyboard-response","176","807231","0.0-10.0-1.13","4l4yq4n0oe","one_one","1","direct_first","1","ÖB08RT30","0","23","1","1","3","1","","0","1","0","null","","","<img src = 'category4/CS7.png' width = '100%;'>","null","","","","","","","","","",""
"","html-keyboard-response","177","807503","0.0-10.0-2.13","4l4yq4n0oe","one_one","1","direct_first","1","ÖB08RT30","0","23","1","1","3","1","","0","1","0","null","","","<img src = 'targets/26.png' width = '100%;'>","null","","","","","","","","","",""
"","html-keyboard-response","178","810358","0.0-10.0-3.13","4l4yq4n0oe","one_one","1","direct_first","1","ÖB08RT30","0","23","1","1","3","1","","0","1","0","2854.394999987562","","","<img src = 'targets/mask.png' width = '100%;'>","68","neg","CS","CS","4","category4/CS7.png","","targets/26.png","indirect","0","13"
"","html-keyboard-response","179","811869","0.0-10.0-0.14","4l4yq4n0oe","one_one","1","direct_first","1","ÖB08RT30","0","23","1","1","3","1","","0","1","0","null","","","<div style=""font-size:60px;"">+</div>","null","","","","","","","","","",""
"","html-keyboard-response","180","811973","0.0-10.0-1.14","4l4yq4n0oe","one_one","1","direct_first","1","ÖB08RT30","0","23","1","1","3","1","","0","1","0","null","","","<img src = 'category4/CS8.png' width = '100%;'>","null","","","","","","","","","",""
"","html-keyboard-response","181","812231","0.0-10.0-2.14","4l4yq4n0oe","one_one","1","direct_first","1","ÖB08RT30","0","23","1","1","3","1","","0","1","0","null","","","<img src = 'targets/45.png' width = '100%;'>","null","","","","","","","","","",""
"","html-keyboard-response","182","812748","0.0-10.0-3.14","4l4yq4n0oe","one_one","1","direct_first","1","ÖB08RT30","0","23","1","1","3","1","","0","1","0","515.3650000138441","","","<img src = 'targets/mask.png' width = '100%;'>","75","neg","GS","GSold","4","category4/CS8.png","","targets/45.png","indirect","1","14"
"","html-keyboard-response","183","814251","0.0-10.0-0.15","4l4yq4n0oe","one_one","1","direct_first","1","ÖB08RT30","0","23","1","1","3","1","","0","1","0","null","","","<div style=""font-size:60px;"">+</div>","null","","","","","","","","","",""
"","html-keyboard-response","184","814351","0.0-10.0-1.15","4l4yq4n0oe","one_one","1","direct_first","1","ÖB08RT30","0","23","1","1","3","1","","0","1","0","null","","","<img src = 'category1/CS4.png' width = '100%;'>","null","","","","","","","","","",""
"","html-keyboard-response","185","814608","0.0-10.0-2.15","4l4yq4n0oe","one_one","1","direct_first","1","ÖB08RT30","0","23","1","1","3","1","","0","1","0","null","","","<img src = 'targets/27.png' width = '100%;'>","null","","","","","","","","","",""
"","html-keyboard-response","186","815128","0.0-10.0-3.15","4l4yq4n0oe","one_one","1","direct_first","1","ÖB08RT30","0","23","1","1","3","1","","0","1","0","518.8900000066496","","","<img src = 'targets/mask.png' width = '100%;'>","75","pos","CS","CS","1","category1/CS4.png","","targets/27.png","indirect","1","15"
"","survey-html-form","187","820305","0.0-11.0","4l4yq4n0oe","one_one","1","direct_first","1","ÖB08RT30","0","23","1","1","3","1","","0","1","0","4664.2700000084005","","{}","","","","","","","","","","","",""
"","html-keyboard-response","188","823313","0.0-12.0-0.0","4l4yq4n0oe","one_one","1","direct_first","1","ÖB08RT30","0","23","1","1","3","1","","0","1","0","null","","","<div style=""font-size:60px;"">+</div>","null","","","","","","","","","",""
"","html-keyboard-response","189","823413","0.0-12.0-1.0","4l4yq4n0oe","one_one","1","direct_first","1","ÖB08RT30","0","23","1","1","3","1","","0","1","0","null","","","<img src = 'category4/GS1.png' width = '100%;'>","null","","","","","","","","","",""
"","html-keyboard-response","190","823685","0.0-12.0-2.0","4l4yq4n0oe","one_one","1","direct_first","1","ÖB08RT30","0","23","1","1","3","1","","0","1","0","null","","","<img src = 'targets/47.png' width = '100%;'>","null","","","","","","","","","",""
"","html-keyboard-response","191","824198","0.0-12.0-3.0","4l4yq4n0oe","one_one","1","direct_first","1","ÖB08RT30","0","23","1","1","3","1","","0","1","0","511.2349999981234","","","<img src = 'targets/mask.png' width = '100%;'>","75","neg","GS","GSnew","4","category4/GS1.png","","targets/47.png","indirect","1","16"
"","html-keyboard-response","192","825706","0.0-12.0-0.1","4l4yq4n0oe","one_one","1","direct_first","1","ÖB08RT30","0","23","1","1","3","1","","0","1","0","null","","","<div style=""font-size:60px;"">+</div>","null","","","","","","","","","",""
"","html-keyboard-response","193","825810","0.0-12.0-1.1","4l4yq4n0oe","one_one","1","direct_first","1","ÖB08RT30","0","23","1","1","3","1","","0","1","0","null","","","<img src = 'category1/ma.png' width = '100%;'>","null","","","","","","","","","",""
"","html-keyboard-response","194","826068","0.0-12.0-2.1","4l4yq4n0oe","one_one","1","direct_first","1","ÖB08RT30","0","23","1","1","3","1","","0","1","0","null","","","<img src = 'targets/29.png' width = '100%;'>","null","","","","","","","","","",""
"","html-keyboard-response","195","826527","0.0-12.0-3.1","4l4yq4n0oe","one_one","1","direct_first","1","ÖB08RT30","0","23","1","1","3","1","","0","1","0","457.3600000003353","","","<img src = 'targets/mask.png' width = '100%;'>","75","pos","GS","abstract","1","category1/ma.png","","targets/29.png","indirect","1","17"
"","html-keyboard-response","196","828037","0.0-12.0-0.2","4l4yq4n0oe","one_one","1","direct_first","1","ÖB08RT30","0","23","1","1","3","1","","0","1","0","null","","","<div style=""font-size:60px;"">+</div>","null","","","","","","","","","",""
"","html-keyboard-response","197","828140","0.0-12.0-1.2","4l4yq4n0oe","one_one","1","direct_first","1","ÖB08RT30","0","23","1","1","3","1","","0","1","0","null","","","<img src = 'category2/GS1.png' width = '100%;'>","null","","","","","","","","","",""
"","html-keyboard-response","198","828417","0.0-12.0-2.2","4l4yq4n0oe","one_one","1","direct_first","1","ÖB08RT30","0","23","1","1","3","1","","0","1","0","null","","","<img src = 'targets/48.png' width = '100%;'>","null","","","","","","","","","",""
"","html-keyboard-response","199","828927","0.0-12.0-3.2","4l4yq4n0oe","one_one","1","direct_first","1","ÖB08RT30","0","23","1","1","3","1","","0","1","0","508.50999999966007","","","<img src = 'targets/mask.png' width = '100%;'>","75","pos","GS","GSnew","2","category2/GS1.png","","targets/48.png","indirect","1","18"
"","html-keyboard-response","200","830451","0.0-12.0-0.3","4l4yq4n0oe","one_one","1","direct_first","1","ÖB08RT30","0","23","1","1","3","1","","0","1","0","null","","","<div style=""font-size:60px;"">+</div>","null","","","","","","","","","",""
"","html-keyboard-response","201","830553","0.0-12.0-1.3","4l4yq4n0oe","one_one","1","direct_first","1","ÖB08RT30","0","23","1","1","3","1","","0","1","0","null","","","<img src = 'category2/GS3.png' width = '100%;'>","null","","","","","","","","","",""
"","html-keyboard-response","202","830824","0.0-12.0-2.3","4l4yq4n0oe","one_one","1","direct_first","1","ÖB08RT30","0","23","1","1","3","1","","0","1","0","null","","","<img src = 'targets/3.png' width = '100%;'>","null","","","","","","","","","",""
"","html-keyboard-response","203","831357","0.0-12.0-3.3","4l4yq4n0oe","one_one","1","direct_first","1","ÖB08RT30","0","23","1","1","3","1","","0","1","0","532.1249999979045","","","<img src = 'targets/mask.png' width = '100%;'>","68","pos","GS","GSnew","2","category2/GS3.png","","targets/3.png","indirect","0","19"
"","html-keyboard-response","204","832871","0.0-12.0-0.4","4l4yq4n0oe","one_one","1","direct_first","1","ÖB08RT30","0","23","1","1","3","1","","0","1","0","null","","","<div style=""font-size:60px;"">+</div>","null","","","","","","","","","",""
"","html-keyboard-response","205","832965","0.0-12.0-1.4","4l4yq4n0oe","one_one","1","direct_first","1","ÖB08RT30","0","23","1","1","3","1","","0","1","0","null","","","<img src = 'category1/GS2.png' width = '100%;'>","null","","","","","","","","","",""
"","html-keyboard-response","206","833224","0.0-12.0-2.4","4l4yq4n0oe","one_one","1","direct_first","1","ÖB08RT30","0","23","1","1","3","1","","0","1","0","null","","","<img src = 'targets/5.png' width = '100%;'>","null","","","","","","","","","",""
"","html-keyboard-response","207","833877","0.0-12.0-3.4","4l4yq4n0oe","one_one","1","direct_first","1","ÖB08RT30","0","23","1","1","3","1","","0","1","0","652.1450000000186","","","<img src = 'targets/mask.png' width = '100%;'>","75","pos","GS","GSnew","1","category1/GS2.png","","targets/5.png","indirect","1","20"
"","html-keyboard-response","208","835392","0.0-12.0-0.5","4l4yq4n0oe","one_one","1","direct_first","1","ÖB08RT30","0","23","1","1","3","1","","0","1","0","null","","","<div style=""font-size:60px;"">+</div>","null","","","","","","","","","",""
"","html-keyboard-response","209","835492","0.0-12.0-1.5","4l4yq4n0oe","one_one","1","direct_first","1","ÖB08RT30","0","23","1","1","3","1","","0","1","0","null","","","<img src = 'category3/wang.png' width = '100%;'>","null","","","","","","","","","",""
"","html-keyboard-response","210","835764","0.0-12.0-2.5","4l4yq4n0oe","one_one","1","direct_first","1","ÖB08RT30","0","23","1","1","3","1","","0","1","0","null","","","<img src = 'targets/33.png' width = '100%;'>","null","","","","","","","","","",""
"","html-keyboard-response","211","836227","0.0-12.0-3.5","4l4yq4n0oe","one_one","1","direct_first","1","ÖB08RT30","0","23","1","1","3","1","","0","1","0","461.52499999152496","","","<img src = 'targets/mask.png' width = '100%;'>","68","neg","GS","abstract","3","category3/wang.png","","targets/33.png","indirect","0","21"
"","html-keyboard-response","212","837735","0.0-12.0-0.6","4l4yq4n0oe","one_one","1","direct_first","1","ÖB08RT30","0","23","1","1","3","1","","0","1","0","null","","","<div style=""font-size:60px;"">+</div>","null","","","","","","","","","",""
"","html-keyboard-response","213","837828","0.0-12.0-1.6","4l4yq4n0oe","one_one","1","direct_first","1","ÖB08RT30","0","23","1","1","3","1","","0","1","0","null","","","<img src = 'category4/lin.png' width = '100%;'>","null","","","","","","","","","",""
"","html-keyboard-response","214","838099","0.0-12.0-2.6","4l4yq4n0oe","one_one","1","direct_first","1","ÖB08RT30","0","23","1","1","3","1","","0","1","0","null","","","<img src = 'targets/24.png' width = '100%;'>","null","","","","","","","","","",""
"","html-keyboard-response","215","838587","0.0-12.0-3.6","4l4yq4n0oe","one_one","1","direct_first","1","ÖB08RT30","0","23","1","1","3","1","","0","1","0","486.4099999977043","","","<img src = 'targets/mask.png' width = '100%;'>","75","neg","GS","abstract","4","category4/lin.png","","targets/24.png","indirect","1","22"
"","html-keyboard-response","216","840094","0.0-12.0-0.7","4l4yq4n0oe","one_one","1","direct_first","1","ÖB08RT30","0","23","1","1","3","1","","0","1","0","null","","","<div style=""font-size:60px;"">+</div>","null","","","","","","","","","",""
"","html-keyboard-response","217","840193","0.0-12.0-1.7","4l4yq4n0oe","one_one","1","direct_first","1","ÖB08RT30","0","23","1","1","3","1","","0","1","0","null","","","<img src = 'category3/GS3.png' width = '100%;'>","null","","","","","","","","","",""
"","html-keyboard-response","218","840462","0.0-12.0-2.7","4l4yq4n0oe","one_one","1","direct_first","1","ÖB08RT30","0","23","1","1","3","1","","0","1","0","null","","","<img src = 'targets/18.png' width = '100%;'>","null","","","","","","","","","",""
"","html-keyboard-response","219","840957","0.0-12.0-3.7","4l4yq4n0oe","one_one","1","direct_first","1","ÖB08RT30","0","23","1","1","3","1","","0","1","0","493.8949999923352","","","<img src = 'targets/mask.png' width = '100%;'>","75","neg","GS","GSnew","3","category3/GS3.png","","targets/18.png","indirect","1","23"
"","html-keyboard-response","220","842466","0.0-12.0-0.8","4l4yq4n0oe","one_one","1","direct_first","1","ÖB08RT30","0","23","1","1","3","1","","0","1","0","null","","","<div style=""font-size:60px;"">+</div>","null","","","","","","","","","",""
"","html-keyboard-response","221","842566","0.0-12.0-1.8","4l4yq4n0oe","one_one","1","direct_first","1","ÖB08RT30","0","23","1","1","3","1","","0","1","0","null","","","<img src = 'category2/GS2.png' width = '100%;'>","null","","","","","","","","","",""
"","html-keyboard-response","222","842828","0.0-12.0-2.8","4l4yq4n0oe","one_one","1","direct_first","1","ÖB08RT30","0","23","1","1","3","1","","0","1","0","null","","","<img src = 'targets/30.png' width = '100%;'>","null","","","","","","","","","",""
"","html-keyboard-response","223","843597","0.0-12.0-3.8","4l4yq4n0oe","one_one","1","direct_first","1","ÖB08RT30","0","23","1","1","3","1","","0","1","0","767.6350000110688","","","<img src = 'targets/mask.png' width = '100%;'>","68","pos","GS","GSnew","2","category2/GS2.png","","targets/30.png","indirect","0","24"
"","html-keyboard-response","224","845105","0.0-12.0-0.9","4l4yq4n0oe","one_one","1","direct_first","1","ÖB08RT30","0","23","1","1","3","1","","0","1","0","null","","","<div style=""font-size:60px;"">+</div>","null","","","","","","","","","",""
"","html-keyboard-response","225","845207","0.0-12.0-1.9","4l4yq4n0oe","one_one","1","direct_first","1","ÖB08RT30","0","23","1","1","3","1","","0","1","0","null","","","<img src = 'category1/GS1.png' width = '100%;'>","null","","","","","","","","","",""
"","html-keyboard-response","226","845477","0.0-12.0-2.9","4l4yq4n0oe","one_one","1","direct_first","1","ÖB08RT30","0","23","1","1","3","1","","0","1","0","null","","","<img src = 'targets/14.png' width = '100%;'>","null","","","","","","","","","",""
"","html-keyboard-response","227","846197","0.0-12.0-3.9","4l4yq4n0oe","one_one","1","direct_first","1","ÖB08RT30","0","23","1","1","3","1","","0","1","0","718.4649999981048","","","<img src = 'targets/mask.png' width = '100%;'>","68","pos","GS","GSnew","1","category1/GS1.png","","targets/14.png","indirect","0","25"
"","html-keyboard-response","228","847711","0.0-12.0-0.10","4l4yq4n0oe","one_one","1","direct_first","1","ÖB08RT30","0","23","1","1","3","1","","0","1","0","null","","","<div style=""font-size:60px;"">+</div>","null","","","","","","","","","",""
"","html-keyboard-response","229","847804","0.0-12.0-1.10","4l4yq4n0oe","one_one","1","direct_first","1","ÖB08RT30","0","23","1","1","3","1","","0","1","0","null","","","<img src = 'category3/GS1.png' width = '100%;'>","null","","","","","","","","","",""
"","html-keyboard-response","230","848075","0.0-12.0-2.10","4l4yq4n0oe","one_one","1","direct_first","1","ÖB08RT30","0","23","1","1","3","1","","0","1","0","null","","","<img src = 'targets/43.png' width = '100%;'>","null","","","","","","","","","",""
"","html-keyboard-response","231","848597","0.0-12.0-3.10","4l4yq4n0oe","one_one","1","direct_first","1","ÖB08RT30","0","23","1","1","3","1","","0","1","0","520.619999995688","","","<img src = 'targets/mask.png' width = '100%;'>","68","neg","GS","GSnew","3","category3/GS1.png","","targets/43.png","indirect","0","26"
"","html-keyboard-response","232","850108","0.0-12.0-0.11","4l4yq4n0oe","one_one","1","direct_first","1","ÖB08RT30","0","23","1","1","3","1","","0","1","0","null","","","<div style=""font-size:60px;"">+</div>","null","","","","","","","","","",""
"","html-keyboard-response","233","850212","0.0-12.0-1.11","4l4yq4n0oe","one_one","1","direct_first","1","ÖB08RT30","0","23","1","1","3","1","","0","1","0","null","","","<img src = 'category4/GS2.png' width = '100%;'>","null","","","","","","","","","",""
"","html-keyboard-response","234","850474","0.0-12.0-2.11","4l4yq4n0oe","one_one","1","direct_first","1","ÖB08RT30","0","23","1","1","3","1","","0","1","0","null","","","<img src = 'targets/37.png' width = '100%;'>","null","","","","","","","","","",""
"","html-keyboard-response","235","850877","0.0-12.0-3.11","4l4yq4n0oe","one_one","1","direct_first","1","ÖB08RT30","0","23","1","1","3","1","","0","1","0","401.8450000003213","","","<img src = 'targets/mask.png' width = '100%;'>","75","neg","GS","GSnew","4","category4/GS2.png","","targets/37.png","indirect","1","27"
"","html-keyboard-response","236","852399","0.0-12.0-0.12","4l4yq4n0oe","one_one","1","direct_first","1","ÖB08RT30","0","23","1","1","3","1","","0","1","0","null","","","<div style=""font-size:60px;"">+</div>","null","","","","","","","","","",""
"","html-keyboard-response","237","852499","0.0-12.0-1.12","4l4yq4n0oe","one_one","1","direct_first","1","ÖB08RT30","0","23","1","1","3","1","","0","1","0","null","","","<img src = 'category1/GS3.png' width = '100%;'>","null","","","","","","","","","",""
"","html-keyboard-response","238","852765","0.0-12.0-2.12","4l4yq4n0oe","one_one","1","direct_first","1","ÖB08RT30","0","23","1","1","3","1","","0","1","0","null","","","<img src = 'targets/42.png' width = '100%;'>","null","","","","","","","","","",""
"","html-keyboard-response","239","853137","0.0-12.0-3.12","4l4yq4n0oe","one_one","1","direct_first","1","ÖB08RT30","0","23","1","1","3","1","","0","1","0","370.9649999946123","","","<img src = 'targets/mask.png' width = '100%;'>","75","pos","GS","GSnew","1","category1/GS3.png","","targets/42.png","indirect","1","28"
"","html-keyboard-response","240","854643","0.0-12.0-0.13","4l4yq4n0oe","one_one","1","direct_first","1","ÖB08RT30","0","23","1","1","3","1","","0","1","0","null","","","<div style=""font-size:60px;"">+</div>","null","","","","","","","","","",""
"","html-keyboard-response","241","854738","0.0-12.0-1.13","4l4yq4n0oe","one_one","1","direct_first","1","ÖB08RT30","0","23","1","1","3","1","","0","1","0","null","","","<img src = 'category4/GS3.png' width = '100%;'>","null","","","","","","","","","",""
"","html-keyboard-response","242","855012","0.0-12.0-2.13","4l4yq4n0oe","one_one","1","direct_first","1","ÖB08RT30","0","23","1","1","3","1","","0","1","0","null","","","<img src = 'targets/9.png' width = '100%;'>","null","","","","","","","","","",""
"","html-keyboard-response","243","855427","0.0-12.0-3.13","4l4yq4n0oe","one_one","1","direct_first","1","ÖB08RT30","0","23","1","1","3","1","","0","1","0","414.01999999652617","","","<img src = 'targets/mask.png' width = '100%;'>","75","neg","GS","GSnew","4","category4/GS3.png","","targets/9.png","indirect","1","29"
"","html-keyboard-response","244","856931","0.0-12.0-0.14","4l4yq4n0oe","one_one","1","direct_first","1","ÖB08RT30","0","23","1","1","3","1","","0","1","0","null","","","<div style=""font-size:60px;"">+</div>","null","","","","","","","","","",""
"","html-keyboard-response","245","857032","0.0-12.0-1.14","4l4yq4n0oe","one_one","1","direct_first","1","ÖB08RT30","0","23","1","1","3","1","","0","1","0","null","","","<img src = 'category2/men.png' width = '100%;'>","null","","","","","","","","","",""
"","html-keyboard-response","246","857297","0.0-12.0-2.14","4l4yq4n0oe","one_one","1","direct_first","1","ÖB08RT30","0","23","1","1","3","1","","0","1","0","null","","","<img src = 'targets/34.png' width = '100%;'>","null","","","","","","","","","",""
"","html-keyboard-response","247","857857","0.0-12.0-3.14","4l4yq4n0oe","one_one","1","direct_first","1","ÖB08RT30","0","23","1","1","3","1","","0","1","0","558.629999999539","","","<img src = 'targets/mask.png' width = '100%;'>","75","pos","GS","abstract","2","category2/men.png","","targets/34.png","indirect","1","30"
"","html-keyboard-response","248","859373","0.0-12.0-0.15","4l4yq4n0oe","one_one","1","direct_first","1","ÖB08RT30","0","23","1","1","3","1","","0","1","0","null","","","<div style=""font-size:60px;"">+</div>","null","","","","","","","","","",""
"","html-keyboard-response","249","859473","0.0-12.0-1.15","4l4yq4n0oe","one_one","1","direct_first","1","ÖB08RT30","0","23","1","1","3","1","","0","1","0","null","","","<img src = 'category3/GS2.png' width = '100%;'>","null","","","","","","","","","",""
"","html-keyboard-response","250","859734","0.0-12.0-2.15","4l4yq4n0oe","one_one","1","direct_first","1","ÖB08RT30","0","23","1","1","3","1","","0","1","0","null","","","<img src = 'targets/19.png' width = '100%;'>","null","","","","","","","","","",""
"","html-keyboard-response","251","860197","0.0-12.0-3.15","4l4yq4n0oe","one_one","1","direct_first","1","ÖB08RT30","0","23","1","1","3","1","","0","1","0","462.16999999887776","","","<img src = 'targets/mask.png' width = '100%;'>","68","neg","GS","GSnew","3","category3/GS2.png","","targets/19.png","indirect","0","31"
"","survey-html-form","252","864714","0.0-13.0","4l4yq4n0oe","one_one","1","direct_first","1","ÖB08RT30","0","23","1","1","3","1","","0","1","0","4013.019999998505","","{}","","","","","","","","","","","",""
"","image-slider-response","253","869726","0.0-14.0-0.0","4l4yq4n0oe","one_one","1","direct_first","1","ÖB08RT30","0","23","1","1","3","1","","0","1","0","4007.6549999939743","","","","","pos","All","all","1","category1/ma_all.png","-42","","all","",""
"","image-slider-response","254","873084","0.0-14.0-0.1","4l4yq4n0oe","one_one","1","direct_first","1","ÖB08RT30","0","23","1","1","3","1","","0","1","0","3356.580000006943","","","","","pos","All","all","2","category2/men_all.png","14","","all","",""
"","image-slider-response","255","875928","0.0-14.0-0.2","4l4yq4n0oe","one_one","1","direct_first","1","ÖB08RT30","0","23","1","1","3","1","","0","1","0","2841.245000003255","","","","","neg","All","all","4","category4/lin_all.png","-11","","all","",""
"","image-slider-response","256","879559","0.0-14.0-0.3","4l4yq4n0oe","one_one","1","direct_first","1","ÖB08RT30","0","23","1","1","3","1","","0","1","0","3629.9050000088755","","","","","neg","All","all","3","category3/wang_all.png","4","","all","",""
"","survey-text","257","881340","0.0-15.0","4l4yq4n0oe","one_one","1","direct_first","1","ÖB08RT30","0","23","1","1","3","1","","0","1","0","1751.9349999929545","","{""comment"":""""}","","","","","","","","","","","",""
"","survey-html-form","258","891658","0.0-16.0","4l4yq4n0oe","one_one","1","direct_first","1","ÖB08RT30","0","23","1","1","3","1","","0","1","0","10314.805000001797","","{""hinschauen"":""0"",""ablenkung"":""1"",""gewissenhaft"":""0""}","","","","","","","","","","","",""
